SessionID,LoggingTime,UID,RecNo,Hertz,Activity,MoveType,Wrist,Side,TimeStamp,DMRoll,DMPitch,DMYaw,DMRotX,DMRotY,DMRotZ,DMGrvX,DMGrvY,DMGrvZ,DMUAccelX,DMUAccelY,DMUAccelZ,DMQuatX,DMQuatY,DMQuatW,DMQuatZ,AccelroX,AceelroY,AceelroZ
20220201-0903,2022-02-01 09:03:21Z,u01, 1,40,movements,el-ex, rt, d,101951.71185650001, -0.8427407677812883, -0.3238270670741793, -0.14616589272427288, 0.06904575228691101, -0.19539014995098114, -0.09363053739070892, -0.7076716423034668, 0.3181970417499542, -0.6308339834213257, 0.025725841522216797, 0.009302347898483276, 0.02367156744003296, -0.17618796585621624, -0.3918428268285394, 0.9030044537332146,0.0,-0.6808624267578125,0.324676513671875,-0.6072845458984375
20220201-0903,2022-02-01 09:03:21Z,u01, 2,40,movements,el-ex, rt, d,101951.7367985, -0.8451094322411725, -0.32469050386761156, -0.14556758549415516, -0.03620480000972748, -0.22016027569770813, 0.1346297413110733, -0.708958089351654, 0.3190154731273651, -0.6289734244346619, 0.17514461278915405, -0.027893006801605225, -0.03420400619506836, -0.17645576622832132, -0.39290793461408247, 0.902488979719991,0.0006575426840699228,-0.6751556396484375,0.3292236328125,-0.616455078125
20220201-0903,2022-02-01 09:03:21Z,u01, 3,40,movements,el-ex, rt, d,101951.7617405, -0.8489997217572571, -0.32178193731222315, -0.1451045397425244, 0.10466397553682327, -0.19397862255573273, -0.12248794734477997, -0.7120930552482605, 0.3162575364112854, -0.6268210411071777, 0.06542563438415527, -0.0379524827003479, -0.00882953405380249, -0.17506527812553102, -0.3948944631087767, 0.9018924945735186,0.0006044874642227582,-0.7929840087890625,0.346527099609375,-0.54144287109375
20220201-0903,2022-02-01 09:03:21Z,u01, 4,40,movements,el-ex, rt, d,101951.78668250001, -0.8532260316791, -0.3192139678149401, -0.14459845353608045, 0.1073475331068039, -0.2040538191795349, -0.0805436298251152, -0.7153453826904297, 0.31382033228874207, -0.624337911605835, 0.027967393398284912, 0.0010600686073303223, 0.03312087059020996, -0.1738183959634788, -0.39701159891126475, 0.9012039539679315,0.0006658275203452746,-0.6621246337890625,0.3147735595703125,-0.5968017578125
20220201-0903,2022-02-01 09:03:21Z,u01, 5,40,movements,el-ex, rt, d,101951.81162450001, -0.8583639166165807, -0.3172361593340614, -0.1445055360125404, 0.04532504454255104, -0.24352532625198364, -0.0858028382062912, -0.7190120220184326, 0.31194183230400085, -0.6210588216781616, 0.024309813976287842, 0.012688934803009033, 0.043391644954681396, -0.1729167190163524, -0.39946261922101245, 0.9002938382512417,0.0007386344786158294,-0.689666748046875,0.32037353515625,-0.577880859375
20220201-0903,2022-02-01 09:03:21Z,u01, 6,40,movements,el-ex, rt, d,101951.8365665, -0.8600640473565281, -0.3146686787597904, -0.14386329063813671, 0.014512537978589535, -0.27461135387420654, -0.08857998251914978, -0.7206714749336243, 0.30950143933296204, -0.6203559637069702, 0.027312040328979492, -0.02230048179626465, 0.04654926061630249, -0.1716442088444975, -0.40045009830305806, 0.9000986607705825,0.0006342740022959314,-0.70465087890625,0.3063201904296875,-0.5807342529296875
20220201-0903,2022-02-01 09:03:21Z,u01, 7,40,movements,el-ex, rt, d,101951.8615085, -0.86729037802261, -0.31296203803170447, -0.1452165152428731, 0.01999146118760109, -0.2767046093940735, -0.09889999777078629, -0.7255371809005737, 0.30787813663482666, -0.6154727935791016, 0.049694955348968506, -0.013597160577774048, 0.03676801919937134, -0.17115516984110715, -0.4036948333329709, 0.8987414662603095,0.00028442985841364843,-0.6810760498046875,0.289520263671875,-0.58148193359375
20220201-0903,2022-02-01 09:03:21Z,u01, 8,40,movements,el-ex, rt, d,101951.88645050001, -0.8745091194939438, -0.3110529298099247, -0.14648208318998499, 0.0013993661850690842, -0.2706603407859802, -0.0762951523065567, -0.7304109334945679, 0.3060612082481384, -0.6105952858924866, 0.0646699070930481, -0.017197072505950928, 0.05348169803619385, -0.1705631137538476, -0.4069528161105324, 0.8973838622341822,-7.367437733818427e-05,-0.6621551513671875,0.2949676513671875,-0.5699005126953125
20220201-0903,2022-02-01 09:03:21Z,u01, 9,40,movements,el-ex, rt, d,101951.91139250001, -0.8813020237837621, -0.3094306097845931, -0.14734099758664215, 0.04767851531505585, -0.24677538871765137, -0.07237750291824341, -0.7349238395690918, 0.30451634526252747, -0.6059346199035645, 0.05218452215194702, 0.015521526336669922, 0.013725817203521729, -0.17001949300934757, -0.41003178012508773, 0.8960844043311917,-0.00022839038286270874,-0.6773834228515625,0.314910888671875,-0.59130859375
20220201-0903,2022-02-01 09:03:21Z,u01, 10,40,movements,el-ex, rt, d,101951.9363345, -0.8878379140619999, -0.30783496349489614, -0.14838621992690854, -0.011436237022280693, -0.24299588799476624, -0.07702505588531494, -0.7392444014549255, 0.30299609899520874, -0.6014242172241211, 0.05496400594711304, -0.026064306497573853, 0.04087740182876587, -0.16952904985286002, -0.412974317405473, 0.8948250840400828,-0.0004862365520144074,-0.67340087890625,0.27801513671875,-0.54705810546875
20220201-0903,2022-02-01 09:03:21Z,u01, 11,40,movements,el-ex, rt, d,101951.9612765, -0.8940417454477534, -0.3058784152564642, -0.14915404999374524, 0.05541110783815384, -0.23777051270008087, -0.06869415938854218, -0.7434220314025879, 0.30113092064857483, -0.597196638584137, 0.07704019546508789, -0.03222531080245972, 0.042677104473114014, -0.16882480540411818, -0.4158123007424525, 0.8936429492538923,-0.0007302105470982645,-0.6725921630859375,0.274169921875,-0.5652313232421875
20220201-0903,2022-02-01 09:03:21Z,u01, 12,40,movements,el-ex, rt, d,101951.98621850001, -0.9002271539611909, -0.3046515267716643, -0.14972872252028324, -0.04265061393380165, -0.23646795749664307, -0.036551933735609055, -0.7473905682563782, 0.29996076226234436, -0.5928160548210144, 0.08869916200637817, -0.009296059608459473, 0.07532954216003418, -0.16840515684322466, -0.4186068422200189, 0.8924166521865059,-0.0007338218630632554,-0.6573486328125,0.268768310546875,-0.517791748046875
20220201-0903,2022-02-01 09:03:21Z,u01, 13,40,movements,el-ex, rt, d,101952.01116050001, -0.9066790371599092, -0.30488130247587875, -0.15201817355195604, -0.08313675224781036, -0.22231425344944, -0.04748521000146866, -0.7511455416679382, 0.30017995834350586, -0.5879391431808472, 0.08445852994918823, 0.00023511052131652832, 0.05455297231674194, -0.16899022589713147, -0.42127511155586433, 0.8910489942360958,-0.0011597977111606483,-0.6679840087890625,0.3109130859375,-0.534881591796875
20220201-0903,2022-02-01 09:03:21Z,u01, 14,40,movements,el-ex, rt, d,101952.0361025, -0.9118153784897146, -0.30448487958799075, -0.15356389379251936, 0.018681850284337997, -0.17922303080558777, -0.047384604811668396, -0.7542493939399719, 0.2998017966747284, -0.5841460824012756, 0.0896986722946167, -0.037777870893478394, 0.01729738712310791, -0.16914559521994094, -0.4234580702597531, 0.889983522371932,-0.0015016786665100201,-0.6641082763671875,0.2661285400390625,-0.5735931396484375
20220201-0903,2022-02-01 09:03:21Z,u01, 15,40,movements,el-ex, rt, d,101952.0610445, -0.9161062209961749, -0.3031040487779565, -0.15330176579201452, 0.04444613680243492, -0.17972970008850098, -0.02378913387656212, -0.757076621055603, 0.2984841763973236, -0.5811558365821838, 0.08976399898529053, -0.037162184715270996, 0.06064814329147339, -0.16848589473497333, -0.42548158063239794, 0.88914345177368,-0.0013303405074004404,-0.671966552734375,0.25762939453125,-0.5317535400390625
20220201-0903,2022-02-01 09:03:21Z,u01, 16,40,movements,el-ex, rt, d,101952.08598516668, -0.9200070107009389, -0.30272301173372285, -0.15290134020887766, -0.0198713019490242, -0.1573241949081421, -0.009135289117693901, -0.7594282627105713, 0.29812049865722656, -0.5782671570777893, 0.11541581153869629, -0.013940781354904175, 0.09586060047149658, -0.16823532836151533, -0.42727427427835024, 0.8883314620966843,-0.0009092170766850094,-0.665252685546875,0.2820587158203125,-0.4875030517578125
20220201-0903,2022-02-01 09:03:21Z,u01, 17,40,movements,el-ex, rt, d,101952.11092716668, -0.9231052726466742, -0.3023905590210314, -0.15301055189714183, 0.08227657526731491, -0.08155633509159088, -0.022974805906414986, -0.7612952589988708, 0.29780313372612, -0.575971245765686, 0.13045114278793335, -0.020337313413619995, 0.047925591468811035, -0.16811408703302003, -0.4286630779701432, 0.8876852595971582,-0.0007717548820267428,-0.6400146484375,0.2853546142578125,-0.5236968994140625
20220201-0903,2022-02-01 09:03:21Z,u01, 18,40,movements,el-ex, rt, d,101952.13586916667, -0.9233423686982076, -0.29950005062492735, -0.1499645851717712, 0.23338010907173157, -0.005794132128357887, -0.0015946156345307827, -0.7621151804924011, 0.2950425446033478, -0.576307475566864, 0.13899201154708862, -0.07044845819473267, 0.050169289112091064, -0.16619248357996955, -0.4292159351626552, 0.887780206554616,-4.9211748062383265e-05,-0.6185302734375,0.22320556640625,-0.536468505859375
20220201-0903,2022-02-01 09:03:21Z,u01, 19,40,movements,el-ex, rt, d,101952.16081116667, -0.9216314428658335, -0.2960032874709312, -0.1444661071579846, 0.21262475848197937, 0.01392844133079052, 0.05092158913612366, -0.7619452476501465, 0.2916996479034424, -0.5782307386398315, 0.14222478866577148, -0.04182171821594238, 0.11645400524139404, -0.16347749086811222, -0.42913837059254023, 0.8883204916646172,0.0014667077043343246,-0.62322998046875,0.2452392578125,-0.479736328125
20220201-0903,2022-02-01 09:03:21Z,u01, 20,40,movements,el-ex, rt, d,101952.18575316668, -0.9201030930492553, -0.2956230196466255, -0.14110134711362857, 0.023302366957068443, 0.05076048523187637, 0.07775799930095673, -0.7611487507820129, 0.29133591055870056, -0.5794616937637329, 0.15777051448822021, -0.011916965246200562, 0.14696663618087769, -0.16259030735967528, -0.4287581504506017, 0.8886636946574487,0.002751777058791649,-0.6153717041015625,0.274505615234375,-0.4281158447265625
20220201-0903,2022-02-01 09:03:21Z,u01, 21,40,movements,el-ex, rt, d,101952.21069516668, -0.9179472515433285, -0.2970788430261553, -0.14016457397101356, 0.021359525620937347, 0.12015274912118912, 0.05764194577932358, -0.7595600485801697, 0.2927282750606537, -0.5808429718017578, 0.15856218338012695, -0.054340213537216187, 0.09843647480010986, -0.16303329578103823, -0.4277834145821947, 0.8890502619532541,0.0033178860890852313,-0.59722900390625,0.249755859375,-0.4687957763671875
20220201-0903,2022-02-01 09:03:21Z,u01, 22,40,movements,el-ex, rt, d,101952.23563716667, -0.9143044419299877, -0.29645866845000285, -0.1375304861858795, 0.13599951565265656, 0.13957270979881287, 0.048067279160022736, -0.7575828433036804, 0.29213520884513855, -0.5837168097496033, 0.14443886280059814, -0.09192460775375366, 0.10803937911987305, -0.16220449211284368, -0.42641682257833596, 0.8898550348703778,0.004054987124773257,-0.6073150634765625,0.2000274658203125,-0.4911651611328125
20220201-0903,2022-02-01 09:03:21Z,u01, 23,40,movements,el-ex, rt, d,101952.26057916667, -0.9110118882319389, -0.29525979259692936, -0.134344395843966, 0.08079835772514343, 0.11804112792015076, 0.06489213556051254, -0.7559329867362976, 0.29098841547966003, -0.5864222645759583, 0.14025604724884033, -0.056109845638275146, 0.15490376949310303, -0.16100515065854862, -0.4252836922029016, 0.8906102881258855,0.0049410819934337935,-0.6166229248046875,0.2264862060546875,-0.4402618408203125
20220201-0903,2022-02-01 09:03:21Z,u01, 24,40,movements,el-ex, rt, d,101952.28552116668, -0.9089249434272044, -0.2961211441517214, -0.1331465421467554, -0.04901636764407158, 0.08559717237949371, 0.06447188556194305, -0.7545095086097717, 0.29181239008903503, -0.5878443121910095, 0.12929582595825195, -0.042163312435150146, 0.1604151725769043, -0.1611360702614281, -0.42439723892968634, 0.8910061333693776,0.005497121626172996,-0.6258087158203125,0.24755859375,-0.4143829345703125
20220201-0903,2022-02-01 09:03:21Z,u01, 25,40,movements,el-ex, rt, d,101952.31046316668, -0.9073386996513818, -0.2980265956409187, -0.13353927725692707, -0.04081723093986511, 0.06329039484262466, 0.03866838663816452, -0.7531366348266602, 0.2936343550682068, -0.5886968970298767, 0.10617923736572266, -0.0569552481174469, 0.11568975448608398, -0.16206449325072875, -0.42354062284444516, 0.8912445539500583,0.005614778151134536,-0.638885498046875,0.2420196533203125,-0.4586181640625
20220201-0903,2022-02-01 09:03:21Z,u01, 26,40,movements,el-ex, rt, d,101952.33540516667, -0.9062965154090198, -0.2981792446493708, -0.13303988736830955, 0.07221551239490509, 0.015986133366823196, 0.0022865422070026398, -0.7524874210357666, 0.29378029704093933, -0.5894538760185242, 0.0572206974029541, -0.07106298208236694, 0.056617021560668945, -0.16202912183261012, -0.4231071206808589, 0.8914558404472344,0.005786560366913829,-0.6868438720703125,0.2176055908203125,-0.5364990234375
20220201-0903,2022-02-01 09:03:21Z,u01, 27,40,movements,el-ex, rt, d,101952.36034716667, -0.9066702929741379, -0.29700480024272025, -0.13213494809977405, 0.03521425649523735, -0.06756781786680222, -0.026084579527378082, -0.7529789209365845, 0.2926574647426605, -0.5893847942352295, 0.0493198037147522, -0.036950647830963135, 0.08763009309768677, -0.16131808430797712, -0.4234194968002552, 0.8914353250330919,0.00596120860318855,-0.698638916015625,0.2439727783203125,-0.501800537109375
20220201-0903,2022-02-01 09:03:21Z,u01, 28,40,movements,el-ex, rt, d,101952.38528916668, -0.9099910612354623, -0.29630285344191015, -0.1330344827390508, -0.06620797514915466, -0.1653396487236023, -0.05478333681821823, -0.7550939917564392, 0.2919861674308777, -0.5870070457458496, 0.008389830589294434, -0.014871299266815186, 0.09224086999893188, -0.1611894462535385, -0.4248699010966973, 0.8907701733995791,0.005673117805216121,-0.7391510009765625,0.273101806640625,-0.485748291015625
20220201-0903,2022-02-01 09:03:21Z,u01, 29,40,movements,el-ex, rt, d,101952.41023116668, -0.9156645559681663, -0.2962920360942961, -0.1358729769889288, -0.09473768621683121, -0.20907926559448242, -0.07618116587400436, -0.7584146857261658, 0.29197582602500916, -0.5827155113220215, 0.014075636863708496, -0.026106685400009155, 0.05155712366104126, -0.16177435994407272, -0.42716658498372495, 0.8895696831650348,0.004865429454380954,-0.7447052001953125,0.27337646484375,-0.5206298828125
20220201-0903,2022-02-01 09:03:21Z,u01, 30,40,movements,el-ex, rt, d,101952.43517316667, -0.9220531297780815, -0.2957649999583688, -0.13884596148762435, -0.06046103686094284, -0.22105838358402252, -0.08773922175168991, -0.7622444033622742, 0.2914717197418213, -0.5779513716697693, 0.009207844734191895, -0.01786637306213379, 0.023233354091644287, -0.16216535800931942, -0.4297984642785778, 0.8882342957681555,0.003943770999838947,-0.7478179931640625,0.264404296875,-0.5601348876953125
20220201-0903,2022-02-01 09:03:21Z,u01, 31,40,movements,el-ex, rt, d,101952.46011516667, -0.9286107389548046, -0.2947297872851804, -0.14128589669309738, -0.03891723230481148, -0.21723906695842743, -0.07743564993143082, -0.7662591934204102, 0.290481299161911, -0.5731208920478821, 0.006295144557952881, -0.006316840648651123, 0.020645976066589355, -0.16222509712821287, -0.4325766716908095, 0.8868768282521813,0.0031600643067112855,-0.76055908203125,0.2861480712890625,-0.55731201171875
20220201-0903,2022-02-01 09:03:21Z,u01, 32,40,movements,el-ex, rt, d,101952.48505716668, -0.935021369006239, -0.29423268874136116, -0.14364867962485314, -0.07392498105764389, -0.197209894657135, -0.05683257058262825, -0.7700335383415222, 0.2900055944919586, -0.5682826042175293, 0.029951751232147217, 0.0014220476150512695, 0.023040294647216797, -0.1625106854694051, -0.4352573603794345, 0.8855139907646054,0.002521069701064138,-0.741180419921875,0.279632568359375,-0.5405426025390625
20220201-0903,2022-02-01 09:03:21Z,u01, 33,40,movements,el-ex, rt, d,101952.50999916668, -0.9401798672490376, -0.2942258846062762, -0.14628262699543454, -0.11052051186561584, -0.1577465683221817, -0.040807731449604034, -0.772956371307373, 0.2899990975856781, -0.564303994178772, 0.03345441818237305, -0.003469526767730713, 0.028888404369354248, -0.1630767546542318, -0.4373259241494769, 0.8843918422206202,0.0017739456858025249,-0.7401885986328125,0.28973388671875,-0.5369720458984375
20220201-0903,2022-02-01 09:03:21Z,u01, 34,40,movements,el-ex, rt, d,101952.53494116667, -0.9439476823329346, -0.29455067944042435, -0.14856651531031081, -0.04862215369939804, -0.09676878154277802, -0.029379907995462418, -0.7750007510185242, 0.2903099060058594, -0.5613324046134949, 0.03304213285446167, -0.009548187255859375, -0.002907097339630127, -0.16371620234595363, -0.43878333757861443, 0.8835524466477521,0.0011465882499042124,-0.7457122802734375,0.2901763916015625,-0.5651092529296875
20220201-0903,2022-02-01 09:03:21Z,u01, 35,40,movements,el-ex, rt, d,101952.55988316667, -0.9458872329129677, -0.2944152469915429, -0.14969881689760745, -0.024770019575953484, -0.038480572402477264, -0.027988005429506302, -0.7761198878288269, 0.2901802957057953, -0.5598511695861816, 0.026562392711639404, 0.0029257535934448242, 0.005087435245513916, -0.16390476601544074, -0.43955619495924125, 0.8831336317053755,0.0007742866496029954,-0.74383544921875,0.2858123779296875,-0.5551605224609375
20220201-0903,2022-02-01 09:03:22Z,u01, 36,40,movements,el-ex, rt, d,101952.58482516668, -0.9460500702104505, -0.2947263561307207, -0.14997661073967236, 0.001967618241906166, 0.0031529590487480164, -0.006628323346376419, -0.7761378288269043, 0.29047802090644836, -0.559671938419342, 0.0074304938316345215, -0.0017664432525634766, 0.011545777320861816, -0.1641015706244871, -0.4395846889713186, 0.8830829567560926,0.0007363948592519765,-0.7769622802734375,0.303009033203125,-0.5634918212890625
20220201-0903,2022-02-01 09:03:22Z,u01, 37,40,movements,el-ex, rt, d,101952.60976716668, -0.9448211514531824, -0.29514583758133706, -0.15004027029246736, -0.0013152933679521084, 0.04096285253763199, 0.0012023700401186943, -0.7753505706787109, 0.29087939858436584, -0.5605538487434387, 0.015371322631835938, 0.001662135124206543, 0.0016397833824157715, -0.16429914736305423, -0.43900894787908684, 0.8833325519461471,0.0007036468151807584,-0.763763427734375,0.2884368896484375,-0.5553131103515625
20220201-0903,2022-02-01 09:03:22Z,u01, 38,40,movements,el-ex, rt, d,101952.63470916667, -0.9419225929779851, -0.29476257660095834, -0.14896017726211672, 0.06432343274354935, 0.06568218767642975, -0.005840759724378586, -0.7738126516342163, 0.29051268100738525, -0.5628644824028015, 0.018548309803009033, -0.016098618507385254, 0.01664566993713379, -0.16389607918524213, -0.4378422646499379, 0.8839861321536381,0.0008552765992503875,-0.7565460205078125,0.282196044921875,-0.562530517578125
20220201-0903,2022-02-01 09:03:22Z,u01, 39,40,movements,el-ex, rt, d,101952.65965116667, -0.9402793343868227, -0.29448392419457736, -0.14828067918174714, 0.012330178171396255, 0.03381246328353882, -0.022539246827363968, -0.7729520201683044, 0.29024603962898254, -0.5641829967498779, 0.025698602199554443, -0.017495185136795044, 0.040531933307647705, -0.16362636546171044, -0.4371898047053026, 0.8843588464501572,0.0009574575690411979,-0.74859619140625,0.26776123046875,-0.5240631103515625
20220201-0903,2022-02-01 09:03:22Z,u01, 40,40,movements,el-ex, rt, d,101952.68459316668, -0.9404393976333981, -0.29398210174171574, -0.14862579498770936, -0.021837646141648293, -0.0248899944126606, -0.03512933850288391, -0.7731598615646362, 0.28976577520370483, -0.564145028591156, 0.01162421703338623, -0.023515164852142334, 0.05050373077392578, -0.1634823234164608, -0.43726538473343046, 0.8843483563532875,0.0007033765381005974,-0.75958251953125,0.2818145751953125,-0.5179901123046875
20220201-0903,2022-02-01 09:03:22Z,u01, 41,40,movements,el-ex, rt, d,101952.70953516668, -0.9421575876552583, -0.29370878223312813, -0.15018582573979064, -0.05718128755688667, -0.09298229217529297, -0.06628280133008957, -0.7741920948028564, 0.28950417041778564, -0.5628623366355896, 0.024054765701293945, -0.028166860342025757, 0.039806365966796875, -0.16370382393151098, -0.4379153893031025, 0.8839860114103759,9.178420839756063e-05,-0.7503814697265625,0.2616729736328125,-0.519317626953125
20220201-0903,2022-02-01 09:03:22Z,u01, 42,40,movements,el-ex, rt, d,101952.73447716667, -0.9460351894505346, -0.2927306002697739, -0.15295064469562475, -0.07119044661521912, -0.12012070417404175, -0.10161922127008438, -0.7765981554985046, 0.28856775164604187, -0.5600214600563049, 0.04098713397979736, -0.030877292156219482, 0.018487095832824707, -0.1638839629544946, -0.43946708348413127, 0.8831815747146826,-0.0010363189826396724,-0.741424560546875,0.256561279296875,-0.535430908203125
20220201-0903,2022-02-01 09:03:22Z,u01, 43,40,movements,el-ex, rt, d,101952.75941916667, -0.9503218820589049, -0.29171617477420997, -0.15597356477825133, -0.0623362697660923, -0.12614616751670837, -0.09726075828075409, -0.7792294025421143, 0.28759631514549255, -0.5568572282791138, 0.05901449918746948, -0.036100924015045166, 0.02688896656036377, -0.16411048735956513, -0.44117926979039995, 0.882283155776101,-0.0022525086059645982,-0.72906494140625,0.2566375732421875,-0.5379486083984375
20220201-0903,2022-02-01 09:03:22Z,u01, 44,40,movements,el-ex, rt, d,101952.78436116668, -0.9545454625332315, -0.2907572021216348, -0.15869788710102725, -0.07331778109073639, -0.12029221653938293, -0.06532565504312515, -0.7817990779876709, 0.2866777181625366, -0.553720235824585, 0.06671112775802612, -0.03068101406097412, 0.041009724140167236, -0.16430068608615514, -0.44288278675986353, 0.8813904012490377,-0.0033286097394965575,-0.7133636474609375,0.2518310546875,-0.5173187255859375
20220201-0903,2022-02-01 09:03:22Z,u01, 45,40,movements,el-ex, rt, d,101952.80930316668, -0.9578425352443777, -0.29110190021861354, -0.1617184698930109, -0.13640353083610535, -0.07317556440830231, -0.03709641844034195, -0.7835395336151123, 0.2870079278945923, -0.5510826706886292, 0.08401566743850708, -0.029180198907852173, 0.0523645281791687, -0.16512676418464473, -0.44406284304485594, 0.8806376664869062,-0.004307674245153548,-0.7044830322265625,0.258453369140625,-0.5001373291015625
20220201-0903,2022-02-01 09:03:22Z,u01, 46,40,movements,el-ex, rt, d,101952.83424516667, -0.9594257331954993, -0.2923950880899246, -0.1651061420550983, -0.11523430049419403, 0.002837773412466049, -0.016482152044773102, -0.7841065526008606, 0.2882464826107025, -0.5496280789375305, 0.09746098518371582, -0.053337424993515015, 0.024145960807800293, -0.16644522418771113, -0.44438941957347716, 0.8802189359147823,-0.005366908847905583,-0.6922607421875,0.246002197265625,-0.5136260986328125
20220201-0903,2022-02-01 09:03:22Z,u01, 47,40,movements,el-ex, rt, d,101952.85918716667, -0.9591265054188124, -0.2927529511222099, -0.16655838425509709, -0.009045551531016827, 0.03642928972840309, -0.010758485645055771, -0.783857524394989, 0.28858914971351624, -0.5498033761978149, 0.10363596677780151, -0.06672635674476624, 0.03251522779464722, -0.16692247910820343, -0.444111705811381, 0.8802649106494385,-0.005947676563037629,-0.6829071044921875,0.2229766845703125,-0.522705078125
20220201-0903,2022-02-01 09:03:22Z,u01, 48,40,movements,el-ex, rt, d,101952.88412916668, -0.9583427675612343, -0.29247362764084284, -0.16691139358565418, -0.027684083208441734, 0.022475657984614372, -0.028171032667160034, -0.7834923267364502, 0.28832167387008667, -0.550463855266571, 0.13082808256149292, -0.03742140531539917, 0.09471440315246582, -0.16687705331798888, -0.44375681949186396, 0.8804505484547807,-0.006233481510142247,-0.6551361083984375,0.2403106689453125,-0.4705657958984375
20220201-0903,2022-02-01 09:03:22Z,u01, 49,40,movements,el-ex, rt, d,101952.90907116668, -0.9588725131368325, -0.2925570426111082, -0.16873285539103394, -0.0868505984544754, -0.020911499857902527, -0.03498819097876549, -0.7837640643119812, 0.2884015440940857, -0.5500348806381226, 0.1225244402885437, -0.04766362905502319, 0.10254037380218506, -0.16731924481951166, -0.44383198878416213, 0.8803230870867889,-0.006971591053996695,-0.657470703125,0.2474517822265625,-0.4449462890625
20220201-0903,2022-02-01 09:03:22Z,u01, 50,40,movements,el-ex, rt, d,101952.93401316667, -0.9604690387508694, -0.2930169983476257, -0.17069086777237294, -0.0611596517264843, -0.06118521839380264, -0.009926315397024155, -0.7845324873924255, 0.28884193301200867, -0.5487068295478821, 0.12295711040496826, -0.06829139590263367, 0.09742820262908936, -0.16795958763154958, -0.4443378855532791, 0.8799408407903169,-0.007592265072799476,-0.6743927001953125,0.2236785888671875,-0.45733642578125
20220201-0903,2022-02-01 09:03:22Z,u01, 51,40,movements,el-ex, rt, d,101952.95895516667, -0.9625655196878203, -0.2943139974321406, -0.17252278724573306, -0.11512458324432373, -0.04993702471256256, 0.005988801829516888, -0.7853729724884033, 0.2900834083557129, -0.546846330165863, 0.17055058479309082, -0.05079507827758789, 0.1290454864501953, -0.16893798198064827, -0.4450132579186588, 0.8794091403325363,-0.007918638201533601,-0.62847900390625,0.23175048828125,-0.4224090576171875
20220201-0903,2022-02-01 09:03:22Z,u01, 52,40,movements,el-ex, rt, d,101952.98389616667, -0.963683560582365, -0.29630669827942974, -0.1750235685628018, -0.12782156467437744, 0.02076411060988903, 0.01643378660082817, -0.7855076193809509, 0.29198986291885376, -0.5456370711326599, 0.19674718379974365, -0.05233529210090637, 0.11474418640136719, -0.17036332054168582, -0.44514919952756, 0.8790603331640723,-0.008457188476350519,-0.5731658935546875,0.252777099609375,-0.429595947265625
20220201-0903,2022-02-01 09:03:22Z,u01, 53,40,movements,el-ex, rt, d,101953.00883816667, -0.9631999991996076, -0.29905885401158105, -0.17712731000190485, -0.11395568400621414, 0.06572998315095901, 0.0767730250954628, -0.7845808863639832, 0.29462096095085144, -0.5455559492111206, 0.13855427503585815, -0.04431578516960144, 0.09330081939697266, -0.1720221870782386, -0.44455639027179616, 0.8790340506434695,-0.00877926307695967,-0.6260223388671875,0.2411041259765625,-0.4373931884765625
20220201-0903,2022-02-01 09:03:22Z,u01, 54,40,movements,el-ex, rt, d,101953.03378016668, -0.9615554376947348, -0.3031180853099342, -0.17801669707324225, -0.17617659270763397, 0.08829015493392944, 0.14556194841861725, -0.7826953530311584, 0.29849758744239807, -0.546156644821167, 0.11194956302642822, 0.005671113729476929, 0.11042672395706177, -0.17397188870699964, -0.4434585299987206, 0.8792088766478504,-0.00836343339648113,-0.6780548095703125,0.2875518798828125,-0.4594573974609375
20220201-0903,2022-02-01 09:03:22Z,u01, 55,40,movements,el-ex, rt, d,101953.05872216668, -0.9593220820807502, -0.30863442180502343, -0.18051076493372387, -0.20348350703716278, 0.15775324404239655, 0.10098236054182053, -0.7801135778427124, 0.3037578761577606, -0.5469497442245483, 0.1248401403427124, 0.025603115558624268, 0.08056491613388062, -0.17690509547251337, -0.4418480596016728, 0.879434468032815,-0.008368273261116888,-0.6555023193359375,0.3353118896484375,-0.4585418701171875
20220201-0903,2022-02-01 09:03:22Z,u01, 56,40,movements,el-ex, rt, d,101953.08366416667, -0.9551151773784405, -0.3132355058258143, -0.18316841639479306, -0.16072586178779602, 0.2512122392654419, 0.09169578552246094, -0.7766565084457397, 0.30813831090927124, -0.549413800239563, 0.10633784532546997, -0.05803149938583374, 0.08092319965362549, -0.17946671623168425, -0.43941416278438616, 0.8801299717744366,-0.008841040311773268,-0.644134521484375,0.2484588623046875,-0.44952392578125
20220201-0903,2022-02-01 09:03:22Z,u01, 57,40,movements,el-ex, rt, d,101953.10860650001, -0.9486328407780678, -0.31699787682212666, -0.18424038192330017, -0.11691193282604218, 0.28756117820739746, 0.11669967323541641, -0.772131085395813, 0.31171542406082153, -0.5537571310997009, 0.04630100727081299, -0.03688937425613403, 0.0643467903137207, -0.1813044678093931, -0.4361767071826146, 0.8813608795789872,-0.009026049094844585,-0.71807861328125,0.269378662109375,-0.490234375
20220201-0903,2022-02-01 09:03:22Z,u01, 58,40,movements,el-ex, rt, d,101953.1335485, -0.9419255696019985, -0.3214289449530244, -0.18547771301974297, -0.15726494789123535, 0.2850404977798462, 0.11104445159435272, -0.7672751545906067, 0.31592264771461487, -0.5581056475639343, 0.019121408462524414, 0.02044212818145752, 0.0326998233795166, -0.1834672009893462, -0.4327666401633659, 0.8825922225301458,-0.009162911912345556,-0.75152587890625,0.3203125,-0.5028228759765625
20220201-0903,2022-02-01 09:03:22Z,u01, 59,40,movements,el-ex, rt, d,101953.1584905, -0.935072797546265, -0.32485237168213826, -0.18665305393371917, -0.08330126851797104, 0.29759830236434937, 0.06012047827243805, -0.7625577449798584, 0.31916889548301697, -0.5627049207687378, 0.055358707904815674, -0.008713573217391968, 0.03349965810775757, -0.1851772494378143, -0.42936805239159714, 0.8838900317003248,-0.009530014413778959,-0.7174530029296875,0.3250274658203125,-0.5345306396484375
20220201-0903,2022-02-01 09:03:22Z,u01, 60,40,movements,el-ex, rt, d,101953.18343250001, -0.9271603545437455, -0.3260134415860993, -0.18678408589421602, 0.030383480712771416, 0.3363233506679535, 0.022738222032785416, -0.7577846646308899, 0.32026901841163635, -0.5684981942176819, 0.05377465486526489, -0.05369797348976135, 0.04255831241607666, -0.18567224267239574, -0.42576604471104373, 0.8855212814665281,-0.010057676348112193,-0.70196533203125,0.274871826171875,-0.525634765625
20220201-0903,2022-02-01 09:03:22Z,u01, 61,40,movements,el-ex, rt, d,101953.20837450001, -0.9181260949234982, -0.3259492685737355, -0.18502224764184513, 0.06494145840406418, 0.3469969928264618, 0.06661619246006012, -0.7526341676712036, 0.32020822167396545, -0.5753334164619446, 0.06220448017120361, -0.049456238746643066, 0.05189591646194458, -0.1852252548545896, -0.4219299724519074, 0.8874481072962879,-0.010128916333693339,-0.696197509765625,0.2657470703125,-0.5234527587890625
20220201-0903,2022-02-01 09:03:22Z,u01, 62,40,movements,el-ex, rt, d,101953.2333165, -0.9086575628178502, -0.3271373152846154, -0.18253927169820236, 0.01752850040793419, 0.35287612676620483, 0.12229722738265991, -0.7468523979187012, 0.32133349776268005, -0.5821995735168457, 0.10413694381713867, 0.005570828914642334, 0.0580143928527832, -0.18517709389431755, -0.417863213830012, 0.8893857110857578,-0.009637411258089312,-0.657745361328125,0.3164215087890625,-0.5265960693359375
20220201-0903,2022-02-01 09:03:22Z,u01, 63,40,movements,el-ex, rt, d,101953.2582585, -0.8992144199259472, -0.32984869276560624, -0.1804824727466495, -0.02163291722536087, 0.3458210825920105, 0.14599211513996124, -0.7406366467475891, 0.32389989495277405, -0.5886818766593933, 0.08641600608825684, -0.00914156436920166, 0.06460356712341309, -0.185894951858547, -0.41364493014397147, 0.8912127340240028,-0.008998073463811429,-0.6487579345703125,0.320343017578125,-0.5205230712890625
20220201-0903,2022-02-01 09:03:22Z,u01, 64,40,movements,el-ex, rt, d,101953.28320050001, -0.8902713535272251, -0.33278500233260183, -0.1782875337430304, -0.0017932308837771416, 0.3031608462333679, 0.15012893080711365, -0.7346000671386719, 0.32667648792266846, -0.5946808457374573, 0.053005218505859375, -0.03222763538360596, 0.038040220737457275, -0.18669564128066246, -0.40963926435045545, 0.8929015393425103,-0.00820862782886883,-0.6615142822265625,0.29705810546875,-0.54827880859375
20220201-0903,2022-02-01 09:03:22Z,u01, 65,40,movements,el-ex, rt, d,101953.30814250001, -0.8827335185965757, -0.3359612766597856, -0.17554090829065036, -0.009971232153475285, 0.22214995324611664, 0.1823314130306244, -0.7292914390563965, 0.32967686653137207, -0.5995392203330994, -0.008257448673248291, -0.012034595012664795, 0.032278478145599365, -0.18750583821352557, -0.4062904764337651, 0.8942711047954576,-0.0069965321579115725,-0.7262115478515625,0.3075408935546875,-0.5694580078125
20220201-0903,2022-02-01 09:03:22Z,u01, 66,40,movements,el-ex, rt, d,101953.3330845, -0.8774865077770846, -0.34043018656799395, -0.17332627717609306, -0.09873808920383453, 0.14932960271835327, 0.1828175038099289, -0.7249951958656311, 0.3338926136493683, -0.6024099588394165, -0.03907346725463867, 0.038147181272506714, 0.025597214698791504, -0.18901210089537201, -0.40381859650851126, 0.8950834423689781,-0.005535384219064132,-0.7614593505859375,0.356842041015625,-0.5677947998046875
20220201-0903,2022-02-01 09:03:22Z,u01, 67,40,movements,el-ex, rt, d,101953.3580265, -0.8742156056698563, -0.34608192106443475, -0.17360593842348498, -0.19563749432563782, 0.1258433759212494, 0.1444023996591568, -0.721561849117279, 0.33921465277671814, -0.6035577058792114, -0.04601627588272095, 0.004962623119354248, 0.023861050605773926, -0.191554415693228, -0.4019055421138405, 0.8954083898112876,-0.0047576021820270875,-0.7687225341796875,0.35302734375,-0.5750579833984375
20220201-0903,2022-02-01 09:03:22Z,u01, 68,40,movements,el-ex, rt, d,101953.38296850001, -0.8713142521823003, -0.3507125206952259, -0.1746070402255524, -0.08112623542547226, 0.1340256929397583, 0.09806020557880402, -0.7185981273651123, 0.34356704354286194, -0.6046308875083923, -0.06201106309890747, -0.03091442584991455, -0.03904581069946289, -0.1937924287501104, -0.40016127883724706, 0.8957094057223628,-0.004493637582661858,-0.7793426513671875,0.3209991455078125,-0.6360015869140625
20220201-0903,2022-02-01 09:03:22Z,u01, 69,40,movements,el-ex, rt, d,101953.40791050001, -0.8678040116018148, -0.35325002125003535, -0.17372273225865437, 0.0025113020092248917, 0.12959425151348114, 0.09763949364423752, -0.7158038020133972, 0.3459489643573761, -0.6065840125083923, -0.07313656806945801, 0.0006239116191864014, -0.036512792110443115, -0.1947290219841868, -0.3984828824507228, 0.896257090652689,-0.003896730759289979,-0.78363037109375,0.32720947265625,-0.64288330078125
20220201-0903,2022-02-01 09:03:22Z,u01, 70,40,movements,el-ex, rt, d,101953.4328525, -0.8667521298695535, -0.35545761568941603, -0.17298612820334025, -0.03457005321979523, 0.1336701512336731, 0.1173340380191803, -0.7145815491676331, 0.34801942110061646, -0.6068407893180847, -0.03706640005111694, 0.06187745928764343, -0.03305172920227051, -0.19555566507735897, -0.3979165578720495, 0.8963315184764306,-0.0031991655412996756,-0.7652587890625,0.3903656005859375,-0.6352996826171875
20220201-0903,2022-02-01 09:03:22Z,u01, 71,40,movements,el-ex, rt, d,101953.4577945, -0.8634370100980586, -0.35741225715637076, -0.17170185036291755, -0.02926420420408249, 0.15032750368118286, 0.14217180013656616, -0.7120474576950073, 0.34985119104385376, -0.6087631583213806, -0.030170559883117676, 0.06622546911239624, -0.04512166976928711, -0.19615963877807457, -0.39640863319635883, 0.8968697141498354,-0.0025328435925845993,-0.74737548828125,0.4232330322265625,-0.6531524658203125
20220201-0903,2022-02-01 09:03:22Z,u01, 72,40,movements,el-ex, rt, d,101953.48273650001, -0.8592002362163271, -0.3595640448784833, -0.169631170895768, -0.004117305856198072, 0.16612136363983154, 0.1569259911775589, -0.7088901400566101, 0.3518661856651306, -0.6112814545631409, -0.05026519298553467, 0.061997950077056885, -0.06755155324935913, -0.1966975204413438, -0.39454957548032077, 0.8975735477215451,-0.0015648118505521835,-0.745361328125,0.4047393798828125,-0.6726226806640625
20220201-0903,2022-02-01 09:03:22Z,u01, 73,40,movements,el-ex, rt, d,101953.50767850001, -0.8544740036169352, -0.36281049592725084, -0.16695737687569723, -0.026087883859872818, 0.15657919645309448, 0.16795887053012848, -0.7051278948783875, 0.3549031615257263, -0.613871693611145, -0.04789334535598755, 0.059281378984451294, -0.054081737995147705, -0.19760662060557788, -0.3924484444072182, 0.8982960841161561,-0.00014694189163838578,-0.7595977783203125,0.4134063720703125,-0.66778564453125
20220201-0903,2022-02-01 09:03:22Z,u01, 74,40,movements,el-ex, rt, d,101953.5326205, -0.8494331723400433, -0.3662032136794028, -0.16401368999540666, 0.03593850135803223, 0.16638237237930298, 0.15951856970787048, -0.7011163234710693, 0.35807299613952637, -0.6166195869445801, -0.03341132402420044, 0.05266311764717102, -0.06866788864135742, -0.19853567922210358, -0.39022275939908413, 0.89905945997045,0.001386676190595515,-0.73907470703125,0.4268341064453125,-0.6943206787109375
20220201-0903,2022-02-01 09:03:22Z,u01, 75,40,movements,el-ex, rt, d,101953.5575625, -0.8443147366224977, -0.36892973938616774, -0.16069571866725, 0.017613690346479416, 0.14062586426734924, 0.15691453218460083, -0.697218656539917, 0.36061739921569824, -0.6195492744445801, -0.04315304756164551, 0.056161195039749146, -0.052127301692962646, -0.19910524355800563, -0.3880495485496189, 0.8998700569105504,0.0029373801821560575,-0.7361602783203125,0.4088592529296875,-0.67047119140625
20220201-0903,2022-02-01 09:03:23Z,u01, 76,40,movements,el-ex, rt, d,101953.58250450001, -0.8401534169204008, -0.3718658508951818, -0.15781141948174066, -0.01701705902814865, 0.10545549541711807, 0.15073347091674805, -0.6938429474830627, 0.3633543848991394, -0.6217359900474548, -0.04778003692626953, 0.06257948279380798, -0.03512430191040039, -0.19985850527115334, -0.38624938066669645, 0.9004712360534702,0.0044281168085567035,-0.746337890625,0.430206298828125,-0.6612701416015625
20220201-0903,2022-02-01 09:03:23Z,u01, 77,40,movements,el-ex, rt, d,101953.60744650001, -0.8368461410348591, -0.3749743697333256, -0.15555500338364556, 0.004897095263004303, 0.08582600206136703, 0.12962326407432556, -0.6909408569335938, 0.3662486672401428, -0.6232677698135376, -0.04717254638671875, 0.07051891088485718, -0.0599597692489624, -0.20081349357854356, -0.3847597309736644, 0.900888973682584,0.005753402952114406,-0.7391357421875,0.4346466064453125,-0.6785430908203125
20220201-0903,2022-02-01 09:03:23Z,u01, 78,40,movements,el-ex, rt, d,101953.6323885, -0.8343451383985571, -0.3773670002369513, -0.15361110509685505, -0.00021291151642799377, 0.0478004552423954, 0.09045814722776413, -0.6887286901473999, 0.36847400665283203, -0.6244034767150879, -0.0531383752822876, 0.05906200408935547, -0.04295492172241211, -0.20151188576673112, -0.3836550848599346, 0.9011961888501958,0.006868833519578066,-0.7320556640625,0.4219512939453125,-0.6671142578125
20220201-0903,2022-02-01 09:03:23Z,u01, 79,40,movements,el-ex, rt, d,101953.6573305, -0.8331177536008114, -0.37928840403978464, -0.1523434399485914, -0.031300388276576996, 0.01649313233792782, 0.07640518248081207, -0.687436580657959, 0.370259553194046, -0.624770998954773, -0.047853946685791016, 0.03258776664733887, -0.017868101596832275, -0.20212800893354077, -0.38309105633381074, 0.9012913664614041,0.007709763400993053,-0.735931396484375,0.40728759765625,-0.6398773193359375
20220201-0903,2022-02-01 09:03:23Z,u01, 80,40,movements,el-ex, rt, d,101953.6822715, -0.8326770120751904, -0.38140321049789105, -0.15152109196360591, -0.030580371618270874, -0.0011611627414822578, 0.07462705671787262, -0.6865803599357605, 0.37222322821617126, -0.6245456337928772, -0.054035484790802, 0.034927040338516235, -0.03199416399002075, -0.20291306060226383, -0.3828230417948944, 0.9012219703133569,0.008468402519539842,-0.7462921142578125,0.412261962890625,-0.65899658203125
20220201-0903,2022-02-01 09:03:23Z,u01, 81,40,movements,el-ex, rt, d,101953.7072135, -0.8325918887638905, -0.38341599548284494, -0.15087592910450384, -0.011998830363154411, -0.011045752093195915, 0.06953322142362595, -0.6859716176986694, 0.37409061193466187, -0.6240985989570618, -0.05369812250137329, 0.03492119908332825, -0.04272562265396118, -0.20368519930148626, -0.38270489651761475, 0.9010911645485326,0.009162080874298373,-0.739654541015625,0.40972900390625,-0.6613922119140625
20220201-0903,2022-02-01 09:03:23Z,u01, 82,40,movements,el-ex, rt, d,101953.73215550001, -0.8323521943948677, -0.38490012297083737, -0.14931840126459503, 0.02872210368514061, -0.0017241556197404861, 0.08685575425624847, -0.685410737991333, 0.37546655535697937, -0.6238886713981628, -0.02325338125228882, 0.016486048698425293, -0.030591130256652832, -0.20404836908271778, -0.38264857519736284, 0.9010225433008108,0.01014273744753591,-0.7201690673828125,0.39178466796875,-0.6553955078125
20220201-0903,2022-02-01 09:03:23Z,u01, 83,40,movements,el-ex, rt, d,101953.75709750001, -0.8317819152612168, -0.38644030835898485, -0.1473072858467647, -0.019385207444429398, 0.005735425278544426, 0.09936868399381638, -0.6846265196800232, 0.3768936097621918, -0.6238890886306763, -0.006428778171539307, 0.04020532965660095, -0.020184338092803955, -0.20435179173407664, -0.3824863304264444, 0.9010086692452873,0.011305175799557643,-0.696380615234375,0.4095001220703125,-0.6460418701171875
20220201-0903,2022-02-01 09:03:23Z,u01, 84,40,movements,el-ex, rt, d,101953.7820395, -0.8307798555347916, -0.388748217990829, -0.1463311376430215, -0.025267263874411583, 0.058793455362319946, 0.092959925532341, -0.6833568811416626, 0.37903034687042236, -0.6239866614341736, -0.027580618858337402, 0.038267046213150024, -0.04857492446899414, -0.20519766300829445, -0.38196935536191734, 0.9010252916388072,0.01211322923349828,-0.69744873046875,0.44439697265625,-0.660125732421875
20220201-0903,2022-02-01 09:03:23Z,u01, 85,40,movements,el-ex, rt, d,101953.8069815, -0.8278574733136699, -0.39035820035264057, -0.14424277628878301, 0.057615168392658234, 0.10692062973976135, 0.11867660284042358, -0.681080162525177, 0.38051968812942505, -0.6255674362182617, -0.03536581993103027, 0.005237758159637451, -0.06782245635986328, -0.2055342364972964, -0.38075184319655503, 0.9014502589057721,0.013081896051187869,-0.7152557373046875,0.3868865966796875,-0.69232177734375
20220201-0903,2022-02-01 09:03:23Z,u01, 86,40,movements,el-ex, rt, d,101953.83192350001, -0.8234721500952936, -0.3917161433520983, -0.14039325280898393, 0.0544121153652668, 0.11687140166759491, 0.13486076891422272, -0.6779506802558899, 0.3817751407623291, -0.6281963586807251, -0.018429994583129883, 0.058517247438430786, -0.03502684831619263, -0.20543815742130844, -0.3790738341084071, 0.9021551103476266,0.014642218570700971,-0.707000732421875,0.413909912109375,-0.6762542724609375
20220201-0903,2022-02-01 09:03:23Z,u01, 87,40,movements,el-ex, rt, d,101953.85686550001, -0.8190254980976334, -0.39407563489307057, -0.13763167530226494, 0.004891170188784599, 0.14355415105819702, 0.10043168812990189, -0.6744906306266785, 0.38395485281944275, -0.6305878162384033, -0.007256805896759033, 0.06086933612823486, -0.027905166149139404, -0.20600194302393152, -0.3771860361148284, 0.9027960759021098,0.01590640424440143,-0.6857452392578125,0.452972412109375,-0.6574249267578125
20220201-0903,2022-02-01 09:03:23Z,u01, 88,40,movements,el-ex, rt, d,101953.8818075, -0.8143224153314068, -0.39497976648843763, -0.13497176289207233, 0.07633226364850998, 0.12630657851696014, 0.09897667169570923, -0.6712647676467896, 0.38478952646255493, -0.6335144639015198, -0.07266223430633545, 0.00040334463119506836, -0.057418644428253174, -0.20594354155868677, -0.3752732630271569, 0.9035899299175058,0.016804411534847075,-0.7234649658203125,0.3978118896484375,-0.68377685546875
20220201-0903,2022-02-01 09:03:23Z,u01, 89,40,movements,el-ex, rt, d,101953.9067495, -0.8104078763538883, -0.39553696371360736, -0.1315740571682418, 0.045497018843889236, 0.0736389011144638, 0.10212644934654236, -0.6686242818832397, 0.3853037357330322, -0.6359894871711731, -0.08474797010421753, 0.03579306602478027, -0.045422255992889404, -0.2055902933502751, -0.3738153231630352, 0.9042505364906532,0.01804832763235792,-0.7516937255859375,0.4068756103515625,-0.6839141845703125
20220201-0903,2022-02-01 09:03:23Z,u01, 90,40,movements,el-ex, rt, d,101953.93169150001, -0.8081976054151038, -0.397678452848303, -0.1295970314155251, -0.017866838723421097, 0.046424463391304016, 0.08064659684896469, -0.6666187644004822, 0.3872790038585663, -0.6368942856788635, -0.07468366622924805, 0.06888249516487122, -0.0481947660446167, -0.20619930704188327, -0.37287359123652025, 0.9044781383633714,0.01913983439315503,-0.7521514892578125,0.4628143310546875,-0.6912994384765625
20220201-0903,2022-02-01 09:03:23Z,u01, 91,40,movements,el-ex, rt, d,101953.95663350001, -0.806955463550603, -0.3995344475384001, -0.12905337378900156, -0.024354299530386925, 0.03479070961475372, 0.058523982763290405, -0.6653069853782654, 0.38898950815200806, -0.6372236013412476, -0.08338075876235962, 0.04001137614250183, -0.07404959201812744, -0.20694011119328048, -0.37224185554576267, 0.9045588889536698,0.019624960990353046,-0.7429656982421875,0.432952880859375,-0.6981353759765625
20220201-0903,2022-02-01 09:03:23Z,u01, 92,40,movements,el-ex, rt, d,101953.9815755, -0.8058858935559293, -0.39978149511062305, -0.1279378426734238, 0.04701628535985947, 0.019351569935679436, 0.04362226277589798, -0.6645556688308716, 0.3892170786857605, -0.6378682255744934, -0.0971783995628357, 0.02905687689781189, -0.09658300876617432, -0.20685372002773003, -0.3718567178491817, 0.9047273164783816,0.02006774910667869,-0.764678955078125,0.4130859375,-0.7351837158203125
20220201-0903,2022-02-01 09:03:23Z,u01, 93,40,movements,el-ex, rt, d,101954.0065175, -0.8050242319676649, -0.3997758333390677, -0.12645184378877314, 0.04009369760751724, 0.01178000308573246, 0.036901846528053284, -0.6640073657035828, 0.38921186327934265, -0.6384421586990356, -0.09321004152297974, 0.07105427980422974, -0.09494102001190186, -0.20658375772873042, -0.37162087803266003, 0.9048727836494512,0.020649837563350593,-0.761932373046875,0.454986572265625,-0.7399139404296875
20220201-0903,2022-02-01 09:03:23Z,u01, 94,40,movements,el-ex, rt, d,101954.03145950001, -0.8045863735119537, -0.4004157843631162, -0.12548402980741963, 0.011351499706506729, -0.0024362849071621895, 0.04362838715314865, -0.6635481715202332, 0.3898012638092041, -0.6385599374771118, -0.11097276210784912, 0.0862119197845459, -0.12015277147293091, -0.2066949563182927, -0.37147976647336917, 0.9048932820967666,0.021168739166638972,-0.7664031982421875,0.4680328369140625,-0.7438507080078125
20220201-0903,2022-02-01 09:03:23Z,u01, 95,40,movements,el-ex, rt, d,101954.05640150001, -0.8046250257730966, -0.4012458303902559, -0.12472926511011286, 0.008677585050463676, -0.021540403366088867, 0.03137072175741196, -0.6633394956588745, 0.39056551456451416, -0.6383097767829895, -0.12311375141143799, 0.09501492977142334, -0.16372263431549072, -0.20692582098805182, -0.37151960202311046, 0.9048121824330408,0.021677884713272644,-0.776153564453125,0.4785003662109375,-0.7861480712890625
20220201-0903,2022-02-01 09:03:23Z,u01, 96,40,movements,el-ex, rt, d,101954.0813435, -0.8051444032002825, -0.40129788576565795, -0.12373918345206582, 0.028975531458854675, -0.05879829078912735, 0.022273099049925804, -0.6636562347412109, 0.3906134366989136, -0.6379510164260864, -0.18883711099624634, 0.11240780353546143, -0.1991003155708313, -0.20675944253910156, -0.3718534938631063, 0.904700529150586,0.022189776438553244,-0.827545166015625,0.4901275634765625,-0.8232574462890625
20220201-0903,2022-02-01 09:03:23Z,u01, 97,40,movements,el-ex, rt, d,101954.10628575001, -0.806921558520437, -0.40143333555630617, -0.12319675770696592, -0.018741188570857048, -0.10426364839076996, 0.017194585874676704, -0.6647507548332214, 0.3907381296157837, -0.6367340087890625, -0.23608243465423584, 0.1560910940170288, -0.21582025289535522, -0.2066991476782352, -0.37270423579501516, 0.9043529466057729,0.022645523125133793,-0.8860321044921875,0.5404815673828125,-0.850738525390625
20220201-0903,2022-02-01 09:03:23Z,u01, 98,40,movements,el-ex, rt, d,101954.13122775001, -0.8105552037349021, -0.40207424078891035, -0.1240899280351905, -0.055066004395484924, -0.15875105559825897, -0.015792593359947205, -0.6668784022331238, 0.39132800698280334, -0.6341416835784912, -0.2958444356918335, 0.16558730602264404, -0.2600233554840088, -0.20711127872017998, -0.37421129228885597, 0.9036335104219799,0.022744666135770086,-0.9405517578125,0.561614990234375,-0.88055419921875
20220201-0903,2022-02-01 09:03:23Z,u01, 99,40,movements,el-ex, rt, d,101954.15616975, -0.8159129810901171, -0.4020361646930252, -0.1260159281398846, -0.03442041575908661, -0.2067338228225708, -0.07140371948480606, -0.6702772378921509, 0.3912929594516754, -0.6305698156356812, -0.2998002767562866, 0.15872535109519958, -0.2787471413612366, -0.20739521058427912, -0.3764337012712378, 0.9026528287668144,0.02242256546267024,-0.970062255859375,0.5477447509765625,-0.9009246826171875
20220201-0903,2022-02-01 09:03:23Z,u01, 100,40,movements,el-ex, rt, d,101954.18111175, -0.8222072941435968, -0.40043787914397116, -0.12754523027094378, 0.01845245249569416, -0.24627232551574707, -0.0914129838347435, -0.674690306186676, 0.3898216187953949, -0.6267632842063904, -0.29949188232421875, 0.1514076590538025, -0.2605810761451721, -0.20690120590839642, -0.37922322801229735, 0.9016068476933428,0.022064221070871415,-0.978546142578125,0.5465545654296875,-0.9073333740234375
20220201-0903,2022-02-01 09:03:23Z,u01, 101,40,movements,el-ex, rt, d,101954.20605375001, -0.8293534722532202, -0.39868079149978114, -0.1294542171008292, -0.028629306703805923, -0.25897693634033203, -0.11716069281101227, -0.6796560883522034, 0.3882029354572296, -0.6223874688148499, -0.2629251480102539, 0.18201804161071777, -0.23665183782577515, -0.20640410133504783, -0.38236581882128834, 0.9004042123904799,0.021587556873537084,-0.9503631591796875,0.5612030029296875,-0.860748291015625
20220201-0903,2022-02-01 09:03:23Z,u01, 102,40,movements,el-ex, rt, d,101954.23099575001, -0.8364935026147848, -0.3966643224563339, -0.13227323984817002, 0.012073216959834099, -0.21253493428230286, -0.1330001801252365, -0.6846622228622437, 0.3863438069820404, -0.6180421113967896, -0.19602930545806885, 0.1381160318851471, -0.23518353700637817, -0.2059731464793445, -0.3854270452408741, 0.8992189913460481,0.02064448928583179,-0.8975372314453125,0.5530548095703125,-0.851837158203125
20220201-0903,2022-02-01 09:03:23Z,u01, 103,40,movements,el-ex, rt, d,101954.25593675, -0.8413523185959191, -0.39338031371902166, -0.13319875308148676, 0.1085365042090416, -0.15216906368732452, -0.101686991751194, -0.6885992884635925, 0.38331273198127747, -0.6155504584312439, -0.18186885118484497, 0.11822840571403503, -0.21713685989379883, -0.2046440444374731, -0.38774424211045977, 0.898539377340978,0.020053496119166292,-0.86651611328125,0.499847412109375,-0.8389129638671875
20220201-0903,2022-02-01 09:03:23Z,u01, 104,40,movements,el-ex, rt, d,101954.28087875001, -0.844606414849483, -0.389942179961476, -0.1326127344920713, 0.08263649791479111, -0.12951640784740448, -0.07855764031410217, -0.691580057144165, 0.3801349401473999, -0.614177942276001, -0.17157918214797974, 0.12987485527992249, -0.13254141807556152, -0.20297147408130245, -0.3895043198098365, 0.8981600375817168,0.019939705213063874,-0.8635101318359375,0.5125885009765625,-0.768890380859375
20220201-0903,2022-02-01 09:03:23Z,u01, 105,40,movements,el-ex, rt, d,101954.30582075, -0.848109418117273, -0.3875265690810919, -0.13317288677671055, 0.0275159552693367, -0.13346406817436218, -0.10038390755653381, -0.694413959980011, 0.37789955735206604, -0.6123570799827576, -0.1542189121246338, 0.10067713260650635, -0.10534000396728516, -0.2019744494371669, -0.39118764610938733, 0.8976617539186507,0.01954315136960877,-0.848297119140625,0.4903564453125,-0.720550537109375
20220201-0903,2022-02-01 09:03:23Z,u01, 106,40,movements,el-ex, rt, d,101954.33076275, -0.8519212910063835, -0.3847077840053438, -0.1343823264692633, 0.06551527231931686, -0.13188748061656952, -0.12892234325408936, -0.6975419521331787, 0.37528830766677856, -0.6104046702384949, -0.1354048252105713, 0.03793498873710632, -0.09281182289123535, -0.20092513620337557, -0.3929716961856906, 0.8971336865178211,0.018798909974845568,-0.835906982421875,0.4272918701171875,-0.700225830078125
20220201-0903,2022-02-01 09:03:23Z,u01, 107,40,movements,el-ex, rt, d,101954.35570475, -0.8555598829996294, -0.38064509061022905, -0.13525084513617347, 0.0841294378042221, -0.1366337686777115, -0.15867383778095245, -0.7009036540985107, 0.3715194761753082, -0.6088574528694153, -0.10633212327957153, 0.03160250186920166, -0.06693899631500244, -0.19926234190273065, -0.3947984199085998, 0.896720358413058,0.01792594273163134,-0.812164306640625,0.39996337890625,-0.6803436279296875
20220201-0903,2022-02-01 09:03:23Z,u01, 108,40,movements,el-ex, rt, d,101954.38064675001, -0.859690371656695, -0.37614734335976313, -0.13678514408403258, 0.059175483882427216, -0.15060365200042725, -0.1871185451745987, -0.7046714425086975, 0.3673399090766907, -0.6070416569709778, -0.06479883193969727, 0.027191370725631714, -0.02656424045562744, -0.19753805158866844, -0.3968096274206632, 0.8962375656268535,0.01670556061131795,-0.7866668701171875,0.405242919921875,-0.64202880859375
20220201-0903,2022-02-01 09:03:23Z,u01, 109,40,movements,el-ex, rt, d,101954.40558875, -0.8644617516177311, -0.37144539837783197, -0.13874719524118362, 0.0849984884262085, -0.1708643138408661, -0.19037625193595886, -0.7088659405708313, 0.36296263337135315, -0.6047868728637695, -0.0435296893119812, 0.0021954476833343506, -0.022974908351898193, -0.19580906859896363, -0.39908065834984896, 0.8956333612159538,0.015305639852766395,-0.75164794921875,0.3728485107421875,-0.6265411376953125
20220201-0903,2022-02-01 09:03:23Z,u01, 110,40,movements,el-ex, rt, d,101954.43053075, -0.8696173225827064, -0.36618162592465436, -0.13988032665957484, 0.10273217409849167, -0.20347477495670319, -0.17849303781986237, -0.7134245038032532, 0.3580528199672699, -0.6023484468460083, -0.0006868243217468262, -0.0073295533657073975, -0.0036389827728271484, -0.19366975928684524, -0.4016438590512522, 0.8949709703547128,0.014185708094721028,-0.727203369140625,0.3516998291015625,-0.613922119140625
20220201-0903,2022-02-01 09:03:23Z,u01, 111,40,movements,el-ex, rt, d,101954.45547275, -0.8750598649881747, -0.3611921114151074, -0.1403811876822521, 0.13462680578231812, -0.21022629737854004, -0.15664058923721313, -0.7180545926094055, 0.3533896803855896, -0.5995943546295166, 0.018927395343780518, 0.0088081955909729, -0.0023801326751708984, -0.19152800923169633, -0.4043758783442821, 0.894213089258827,0.013423118113733479,-0.70526123046875,0.36322021484375,-0.6047210693359375
20220201-0903,2022-02-01 09:03:23Z,u01, 112,40,movements,el-ex, rt, d,101954.48041475001, -0.8798649352962311, -0.35548411249163053, -0.13905559695563144, 0.24649208784103394, -0.20864278078079224, -0.1330750733613968, -0.7224701642990112, 0.3480442464351654, -0.5974128246307373, 0.04342353343963623, -0.006110012531280518, 0.015839338302612305, -0.1887060066345185, -0.4070425294235026, 0.8936055589376082,0.013250185199032483,-0.6901397705078125,0.3535003662109375,-0.599273681640625
20220201-0903,2022-02-01 09:03:23Z,u01, 113,40,movements,el-ex, rt, d,101954.50535675, -0.8839930459835453, -0.3489091978672222, -0.13597808812853573, 0.2549899220466614, -0.21111001074314117, -0.12387871742248535, -0.7266840934753418, 0.3418729305267334, -0.5958634614944458, 0.03689521551132202, -0.01695224642753601, 0.007240474224090576, -0.1851467695480845, -0.40962048033424975, 0.8931668387502676,0.013596761773733423,-0.6855621337890625,0.3310394287109375,-0.5800323486328125
20220201-0903,2022-02-01 09:03:23Z,u01, 114,40,movements,el-ex, rt, d,101954.53029875, -0.8885339764322213, -0.3432130617255809, -0.13271197928943587, 0.2304120808839798, -0.24296873807907104, -0.07912975549697876, -0.730881929397583, 0.33651450276374817, -0.593775749206543, 0.04480093717575073, -0.01733112335205078, 0.034525930881500244, -0.18192929655626416, -0.4123273476237397, 0.8925721882774206,0.014241638143957847,-0.693878173828125,0.3094024658203125,-0.5561065673828125
20220201-0903,2022-02-01 09:03:23Z,u01, 115,40,movements,el-ex, rt, d,101954.55524075, -0.8936441504526575, -0.3380766264778287, -0.12913705175689216, 0.19825969636440277, -0.26643550395965576, -0.07224288582801819, -0.7352440357208252, 0.33167320489883423, -0.5911083221435547, 0.0672142505645752, -0.002159625291824341, 0.06091123819351196, -0.17888525752818063, -0.41526605363843383, 0.8918092010097939,0.015183241881074061,-0.6729888916015625,0.3320159912109375,-0.542724609375
20220201-0903,2022-02-01 09:03:24Z,u01, 116,40,movements,el-ex, rt, d,101954.58018275001, -0.8991350610582362, -0.3331050153680207, -0.1257443424396523, 0.2662821114063263, -0.2635415196418762, -0.08232567459344864, -0.7397603392601013, 0.3269789516925812, -0.5880811810493469, 0.08355611562728882, 0.001207113265991211, 0.041251957416534424, -0.17594238558029904, -0.41833443110316276, 0.8909441442711358,0.016098676438504322,-0.65216064453125,0.338043212890625,-0.53070068359375
20220201-0903,2022-02-01 09:03:24Z,u01, 117,40,movements,el-ex, rt, d,101954.60512475, -0.9040153189061284, -0.32638186994815965, -0.12083773226467169, 0.351413369178772, -0.2661525309085846, -0.09969781339168549, -0.7443321943283081, 0.32061800360679626, -0.5858103036880493, 0.09189683198928833, -0.024048179388046265, 0.03885906934738159, -0.17190744068497876, -0.42135812918823173, 0.8902854512275382,0.01723548547512238,-0.6568603515625,0.299896240234375,-0.559967041015625
20220201-0903,2022-02-01 09:03:24Z,u01, 118,40,movements,el-ex, rt, d,101954.63006675, -0.9088965944791368, -0.318462085501543, -0.11455125047353307, 0.41340357065200806, -0.291820764541626, -0.10752870887517929, -0.7491623759269714, 0.31310635805130005, -0.5837123990058899, 0.09626924991607666, -0.008495122194290161, 0.06573760509490967, -0.16704265673257546, -0.4245474542473333, 0.8896664386195388,0.018704452343066225,-0.64630126953125,0.29241943359375,-0.5298004150390625
20220201-0903,2022-02-01 09:03:24Z,u01, 119,40,movements,el-ex, rt, d,101954.65500875, -0.9149831053592861, -0.31124831392939245, -0.10914193212115243, 0.2457711100578308, -0.3315981328487396, -0.10228054970502853, -0.7544717788696289, 0.30624720454216003, -0.5805041193962097, 0.10507291555404663, -0.0017122626304626465, 0.10151553153991699, -0.1626512090091129, -0.42812675579362275, 0.8887358742593104,0.020016596256658803,-0.6490478515625,0.297027587890625,-0.4822235107421875
20220201-0903,2022-02-01 09:03:24Z,u01, 120,40,movements,el-ex, rt, d,101954.67995075001, -0.9228712050116508, -0.30652770805971874, -0.1074869390938397, 0.09270544350147247, -0.33954328298568726, -0.12092387676239014, -0.7601715922355652, 0.3017500340938568, -0.5754008889198303, 0.12482607364654541, 0.007713496685028076, 0.0895000696182251, -0.16013717154466103, -0.4320366075338239, 0.8872919312072802,0.02033760935007206,-0.6376495361328125,0.3251953125,-0.4807586669921875
20220201-0903,2022-02-01 09:03:24Z,u01, 121,40,movements,el-ex, rt, d,101954.70489275, -0.930878783304234, -0.30181600680210785, -0.106599566016928, 0.19081425666809082, -0.3188897371292114, -0.1415003091096878, -0.765886664390564, 0.29725462198257446, -0.5701380372047424, 0.11458045244216919, -0.008634626865386963, 0.03444778919219971, -0.15779173114596737, -0.43592746652379083, 0.8858084127368484,0.020310867651498143,-0.65423583984375,0.2983856201171875,-0.5355682373046875
20220201-0903,2022-02-01 09:03:24Z,u01, 122,40,movements,el-ex, rt, d,101954.72983475, -0.9379327053240193, -0.2961771580905974, -0.10461730333451999, 0.19834133982658386, -0.297090083360672, -0.13258345425128937, -0.771228551864624, 0.2918659448623657, -0.5657037496566772, 0.13008475303649902, -0.02209058403968811, 0.0890498161315918, -0.15481023732928548, -0.4395246386587342, 0.8845524461137902,0.020465755498886573,-0.6363677978515625,0.2472686767578125,-0.4964141845703125
20220201-0903,2022-02-01 09:03:24Z,u01, 123,40,movements,el-ex, rt, d,101954.75477675001, -0.9443311248959613, -0.2909405206079046, -0.10292809750434112, 0.12052971869707108, -0.2669716775417328, -0.13075153529644012, -0.7760598659515381, 0.2868533432483673, -0.5616459250450134, 0.11411839723587036, 0.009670674800872803, 0.10099846124649048, -0.152075564254925, -0.4427754076153432, 0.8834036732417735,0.020512795146215512,-0.6614837646484375,0.29449462890625,-0.4635162353515625
20220201-0903,2022-02-01 09:03:24Z,u01, 124,40,movements,el-ex, rt, d,101954.77971775, -0.9498352175130799, -0.2865640152152807, -0.10189064378271048, 0.1851804256439209, -0.18502765893936157, -0.10110243409872055, -0.7801530957221985, 0.28265804052352905, -0.5580911040306091, 0.11827260255813599, -0.020145833492279053, 0.07228177785873413, -0.14987155485945272, -0.4455255033262992, 0.8824001952286054,0.020385649714741882,-0.6798095703125,0.2770538330078125,-0.48809814453125
20220201-0903,2022-02-01 09:03:24Z,u01, 125,40,movements,el-ex, rt, d,101954.80465975, -0.9516702806503354, -0.2810246839684892, -0.09728054058694566, 0.40157464146614075, -0.041496068239212036, -0.04842829704284668, -0.7824390530586243, 0.277340292930603, -0.5575585961341858, 0.128950834274292, -0.02584490180015564, 0.039370179176330566, -0.1463979372275851, -0.44697690286518255, 0.8822280376554938,0.021284714637951285,-0.65625,0.247772216796875,-0.503326416015625
20220201-0903,2022-02-01 09:03:24Z,u01, 126,40,movements,el-ex, rt, d,101954.82960175001, -0.9478548703241059, -0.27154965246216073, -0.08433178958826716, 0.839740514755249, 0.0762939527630806, 0.011395085602998734, -0.7824051976203918, 0.2682246267795563, -0.5620478391647339, 0.13505101203918457, 0.011972546577453613, -0.03376209735870361, -0.1393932928436946, -0.4467052774546924, 0.8834143529143041,0.024558199418397375,-0.6460723876953125,0.2856597900390625,-0.599853515625
20220201-0903,2022-02-01 09:03:24Z,u01, 127,40,movements,el-ex, rt, d,101954.85454375, -0.938742081175608, -0.25826135685993057, -0.06514544397878576, 0.9558496475219727, 0.24273452162742615, -0.006899033207446337, -0.7800579071044922, 0.2553999423980713, -0.5712096691131592, 0.1365184783935547, -0.02714371681213379, 0.10180360078811646, -0.12939308547119743, -0.44458135642845, 0.8858553644471429,0.029412883287399105,-0.6573028564453125,0.2446746826171875,-0.5081329345703125
20220201-0903,2022-02-01 09:03:24Z,u01, 128,40,movements,el-ex, rt, d,101954.87948575, -0.9259624996884773, -0.24369423986912447, -0.045681324244282034, 0.9388212561607361, 0.3419713079929352, 0.002017696388065815, -0.7755858302116394, 0.24128934741020203, -0.583306074142456, 0.12019038200378418, -0.045595377683639526, 0.18660813570022583, -0.11884626376297812, -0.44070685420341443, 0.8890994404023831,0.03398751146124512,-0.6602935791015625,0.208709716796875,-0.4199676513671875
20220201-0903,2022-02-01 09:03:24Z,u01, 129,40,movements,el-ex, rt, d,101954.90442775, -0.9135973293066206, -0.23105561181928283, -0.027577989519989358, 0.7965867519378662, 0.30507397651672363, 0.02242523431777954, -0.7706670761108398, 0.22900520265102386, -0.5946671366691589, 0.14134877920150757, 0.03523126244544983, 0.17505043745040894, -0.10948359703148997, -0.4366689670807356, 0.8921030380108779,0.03854625994622002,-0.637115478515625,0.236419677734375,-0.4024658203125
20220201-0903,2022-02-01 09:03:24Z,u01, 130,40,movements,el-ex, rt, d,101954.92936975001, -0.9030413793777813, -0.22063511100575262, -0.012523281809586263, 0.5815682411193848, 0.2662796676158905, 0.03565814718604088, -0.7661792039871216, 0.21884937584400177, -0.6042138934135437, 0.16772949695587158, -0.0009996294975280762, 0.14793038368225098, -0.1017744225395334, -0.4330531399797646, 0.8945983237777801,0.04243697046468242,-0.60198974609375,0.2274627685546875,-0.438446044921875
20220201-0903,2022-02-01 09:03:24Z,u01, 131,40,movements,el-ex, rt, d,101954.95431175, -0.8935856793335708, -0.21174061802076982, -4.319176615392842e-05, 0.609212338924408, 0.2902335226535797, 0.022153858095407486, -0.7619186639785767, 0.210161954164505, -0.6126270294189453, 0.16290432214736938, -0.04751850664615631, 0.11555677652359009, -0.09530883171268724, -0.42965417158387603, 0.896789006282159,0.04563918968031988,-0.6026153564453125,0.18206787109375,-0.4983367919921875
20220201-0903,2022-02-01 09:03:24Z,u01, 132,40,movements,el-ex, rt, d,101954.97925375, -0.8840236146579087, -0.20360132945922008, 0.011470162504506037, 0.5276961922645569, 0.26423853635787964, 0.05568798631429672, -0.757323682308197, 0.2021975815296173, -0.6209484934806824, 0.14343208074569702, -0.08328580856323242, 0.16368842124938965, -0.08941601745222652, -0.4260639833583789, 0.8989492621635833,0.048627264058231756,-0.6114501953125,0.0969390869140625,-0.47381591796875
20220201-0903,2022-02-01 09:03:24Z,u01, 133,40,movements,el-ex, rt, d,101955.00419575, -0.8770102876058924, -0.19786677988441675, 0.021343250744405965, 0.2312873899936676, 0.20488694310188293, 0.06762386858463287, -0.753829300403595, 0.19657818973064423, -0.6269757151603699, 0.1435997486114502, 0.0074166059494018555, 0.20220160484313965, -0.08491311111226604, -0.42344055985688184, 0.9004613503683978,0.051549423170289654,-0.6195526123046875,0.1969451904296875,-0.42681884765625
20220201-0903,2022-02-01 09:03:24Z,u01, 134,40,movements,el-ex, rt, d,101955.02913775001, -0.8723534941528912, -0.19658455287057608, 0.02619066874236919, 0.0805283710360527, 0.1202242448925972, 0.09345759451389313, -0.7510938048362732, 0.19532081484794617, -0.6306408643722534, 0.1112470030784607, -0.012917235493659973, 0.1601819396018982, -0.08343288683456473, -0.4215667590067649, 0.9013783508271612,0.05326750285540116,-0.60125732421875,0.196014404296875,-0.4373626708984375
20220201-0903,2022-02-01 09:03:24Z,u01, 135,40,movements,el-ex, rt, d,101955.05407975, -0.8694654062894193, -0.19832302117030856, 0.027586293726751376, -0.1009388267993927, 0.10050208121538162, 0.08928242325782776, -0.7490087747573853, 0.19702550768852234, -0.6325874328613281, 0.10453855991363525, -0.013111293315887451, 0.16984939575195312, -0.08400139540434459, -0.42029758185377575, 0.9018662282525287,0.05413956680976317,-0.6422882080078125,0.1924285888671875,-0.467376708984375
20220201-0903,2022-02-01 09:03:24Z,u01, 136,40,movements,el-ex, rt, d,101955.07902175, -0.8681294043896698, -0.20446324503552823, 0.023967766980178468, -0.37098604440689087, 0.07270127534866333, 0.1013781726360321, -0.7472256422042847, 0.20304161310195923, -0.6327937245368958, 0.09405791759490967, -0.04811912775039673, 0.13677632808685303, -0.08756939305128483, -0.4194457499729442, 0.9019476910586182,0.05373232536566147,-0.6465911865234375,0.1647491455078125,-0.4632568359375
20220201-0903,2022-02-01 09:03:24Z,u01, 137,40,movements,el-ex, rt, d,101955.10396229167, -0.8677628274568796, -0.21265953124531733, 0.01764681712093373, -0.4096066951751709, 0.06373593956232071, 0.08254209905862808, -0.7456989884376526, 0.2110602706670761, -0.6319704055786133, 0.06540113687515259, -0.022385314106941223, 0.06161218881607056, -0.09260357464201237, -0.4188548435722768, 0.9017876641019142,0.05257518383199827,-0.6676788330078125,0.1892852783203125,-0.540008544921875
20220201-0903,2022-02-01 09:03:24Z,u01, 138,40,movements,el-ex, rt, d,101955.12890429168, -0.8688560074347187, -0.22229943946588288, 0.008725187205660853, -0.6123231649398804, 0.0015488024801015854, 0.06039052456617355, -0.7448011040687561, 0.22047306597232819, -0.6298117637634277, 0.021854937076568604, -0.0234668105840683, 0.09218364953994751, -0.09879185285099196, -0.4187293577845999, 0.9013010858942756,0.050618200019799164,-0.70538330078125,0.181915283203125,-0.5510711669921875
20220201-0903,2022-02-01 09:03:24Z,u01, 139,40,movements,el-ex, rt, d,101955.15384629168, -0.8740941738280235, -0.23516667958378396, -0.005498720126941613, -0.8740234971046448, -0.152003213763237, 0.025498053058981895, -0.7458522915840149, 0.2330050766468048, -0.6240295767784119, -0.0036289095878601074, -0.027484431862831116, 0.053885042667388916, -0.10744111335833223, -0.4200495260411136, 0.8998826286394,0.047180505011821805,-0.7385101318359375,0.2222137451171875,-0.548980712890625
20220201-0903,2022-02-01 09:03:24Z,u01, 140,40,movements,el-ex, rt, d,101955.17878829167, -0.8822292171349567, -0.24757356360781, -0.02003898443270791, -0.5503336191177368, -0.21418927609920502, 0.0163006279617548, -0.7486141920089722, 0.24505223333835602, -0.6160570979118347, -0.025189578533172607, -0.061549991369247437, -0.04292422533035278, -0.11589119000521098, -0.42254076477660735, 0.8978402091320042,0.04372203989813833,-0.7825164794921875,0.2107696533203125,-0.6504058837890625
20220201-0903,2022-02-01 09:03:24Z,u01, 141,40,movements,el-ex, rt, d,101955.20373029167, -0.8903837703981126, -0.2546120723560043, -0.02775507251859619, -0.1976906955242157, -0.2929643392562866, 0.025965172797441483, -0.752253532409668, 0.2518700063228607, -0.6088318228721619, -0.022099554538726807, -0.13337022066116333, -0.05935049057006836, -0.12050367470024362, -0.4255149172787089, 0.8958969446462984,0.04224559104308967,-0.7677001953125,0.102020263671875,-0.6497955322265625
20220201-0903,2022-02-01 09:03:24Z,u01, 142,40,movements,el-ex, rt, d,101955.22867129167, -0.8991485154398084, -0.2560170224524456, -0.02909765300120904, -0.12135708332061768, -0.38442692160606384, -0.00017648283392190933, -0.7572830319404602, 0.25322940945625305, -0.6019943952560425, 0.008824169635772705, -0.10898807644844055, 0.002720773220062256, -0.121232532944518, -0.4293081448966901, 0.8939758317143924,0.04247707014586577,-0.774017333984375,0.1714935302734375,-0.630523681640625
20220201-0903,2022-02-01 09:03:24Z,u01, 143,40,movements,el-ex, rt, d,101955.25361329167, -0.9103957919138647, -0.2589831240586768, -0.03286290384043638, -0.216904416680336, -0.40813711285591125, 0.0037622665986418724, -0.7634092569351196, 0.2560977339744568, -0.5929757952690125, 0.02877485752105713, -0.0416049063205719, 0.011402368545532227, -0.12312865561450076, -0.43399474310834163, 0.8914668379304841,0.04212895945119033,-0.7386322021484375,0.2008514404296875,-0.5792388916015625
20220201-0903,2022-02-01 09:03:24Z,u01, 144,40,movements,el-ex, rt, d,101955.27855529168, -0.9224041701648654, -0.26436336428337315, -0.04013987125233147, -0.5139888525009155, -0.39804014563560486, -0.004586077760905027, -0.7693653702735901, 0.26129481196403503, -0.5829253792762756, 0.016817092895507812, -0.045352399349212646, 0.01448976993560791, -0.1268560458974536, -0.4386853564505773, 0.8887046671294025,0.040826166347412485,-0.7320098876953125,0.252349853515625,-0.543914794921875
20220201-0903,2022-02-01 09:03:24Z,u01, 145,40,movements,el-ex, rt, d,101955.30349729168, -0.9352116936397473, -0.2721848103685546, -0.050542859218287765, -0.41036662459373474, -0.38939976692199707, 0.042290616780519485, -0.775099515914917, 0.26883646845817566, -0.5717934370040894, 0.002714872360229492, -0.07051795721054077, -0.051955342292785645, -0.13235414418045477, -0.4433798206744652, 0.8856592224695021,0.03878741949788894,-0.7725067138671875,0.18280029296875,-0.6110992431640625
20220201-0903,2022-02-01 09:03:24Z,u01, 146,40,movements,el-ex, rt, d,101955.32843929167, -0.9445744329451994, -0.27489190707893085, -0.053872470649474105, -0.0914601981639862, -0.3025451898574829, -0.021997958421707153, -0.7798265218734741, 0.27144289016723633, -0.5640828609466553, -0.019642531871795654, 0.07720521092414856, 0.04061484336853027, -0.13410738886074744, -0.4471842892648993, 0.8834904787201316,0.03854976849332514,-0.8186187744140625,0.36163330078125,-0.61297607421875
20220201-0903,2022-02-01 09:03:24Z,u01, 147,40,movements,el-ex, rt, d,101955.35338129167, -0.9527344540750907, -0.27820830544443664, -0.058993905712852915, -0.32671821117401123, -0.23507604002952576, -0.000794069841504097, -0.7836654186248779, 0.2746332883834839, -0.5571759939193726, -0.01998448371887207, 0.04488575458526611, 0.056382596492767334, -0.13655868384187297, -0.45029293345538063, 0.8815749551131414,0.037597588639271706,-0.802154541015625,0.3119049072265625,-0.4885406494140625
20220201-0903,2022-02-01 09:03:24Z,u01, 148,40,movements,el-ex, rt, d,101955.37832329168, -0.9588315078948338, -0.2820787765432512, -0.06444936250872416, -0.17288632690906525, -0.12755811214447021, 0.015988105908036232, -0.7861720323562622, 0.27835285663604736, -0.5517728924751282, 0.022377967834472656, 0.024854570627212524, -0.009002864360809326, -0.13937386552540248, -0.45242511123002344, 0.8800875382065919,0.03650379288953565,-0.78167724609375,0.3201751708984375,-0.549713134765625
20220201-0903,2022-02-01 09:03:24Z,u01, 149,40,movements,el-ex, rt, d,101955.40326529168, -0.960909530792577, -0.28358656996381465, -0.0658393341660247, -0.004124162718653679, -0.04361814260482788, 0.050172239542007446, -0.786971926689148, 0.27980074286460876, -0.5498969554901123, 0.034393250942230225, -0.006698966026306152, 0.00915604829788208, -0.14031080204269825, -0.4531715042335379, 0.8795592684539829,0.03638514688890626,-0.768035888671875,0.2857513427734375,-0.5525054931640625
20220201-0903,2022-02-01 09:03:24Z,u01, 150,40,movements,el-ex, rt, d,101955.42820729167, -0.9598769361404015, -0.2827823456348425, -0.06273941742793497, 0.2016344964504242, 0.0472809374332428, 0.025050178170204163, -0.7865877747535706, 0.2790285646915436, -0.5508381724357605, 0.008297979831695557, 0.009606689214706421, 0.014110386371612549, -0.13927558772800863, -0.45297154972317605, 0.879780349816442,0.03749100054770138,-0.786956787109375,0.274322509765625,-0.5686798095703125
20220201-0903,2022-02-01 09:03:24Z,u01, 151,40,movements,el-ex, rt, d,101955.45314929167, -0.9566772484433952, -0.2802822097677169, -0.05801722700169646, 0.19029085338115692, 0.08964457362890244, 0.00927700661122799, -0.7853890061378479, 0.276626855134964, -0.5537524819374084, 0.0007056593894958496, 0.022582799196243286, 0.05323368310928345, -0.13717282730348673, -0.4520037288573979, 0.8805526834261268,0.03877297044191619,-0.7795562744140625,0.2894287109375,-0.503631591796875
20220201-0903,2022-02-01 09:03:24Z,u01, 152,40,movements,el-ex, rt, d,101955.47809129168, -0.9531739961291619, -0.2801415121036782, -0.055594505923809906, 0.02075006067752838, 0.10571229457855225, 0.02725634165108204, -0.783475935459137, 0.276491641998291, -0.5565230250358582, 0.0034923553466796875, 0.007794857025146484, 0.01584315299987793, -0.13663302059953902, -0.4506327959401577, 0.8813035088599921,0.0395680542268958,-0.7724456787109375,0.29833984375,-0.5036773681640625
20220201-0903,2022-02-01 09:03:24Z,u01, 153,40,movements,el-ex, rt, d,101955.50303329168, -0.9495343701905369, -0.278819777993572, -0.05465190393196785, 0.04533915966749191, 0.10519856214523315, 0.009721023961901665, -0.7817416787147522, 0.27522119879722595, -0.5595830678939819, 0.0323520302772522, -0.023649543523788452, -0.007158815860748291, -0.13591248044426274, -0.44915058927674145, 0.882177146905592,0.03943380012173603,-0.7545013427734375,0.2712860107421875,-0.563812255859375
20220201-0903,2022-02-01 09:03:24Z,u01, 154,40,movements,el-ex, rt, d,101955.52797529167, -0.9484772959433362, -0.2803754629593149, -0.05328092873213613, 0.10787084698677063, 0.1497519165277481, 0.0564938560128212, -0.7808009386062622, 0.2767164707183838, -0.560158908367157, 0.006905615329742432, -0.0294782817363739, 0.05333828926086426, -0.13630938562589745, -0.4487095910359611, 0.882300279301763,0.04032101441536101,-0.76898193359375,0.231964111328125,-0.546295166015625
20220201-0903,2022-02-01 09:03:24Z,u01, 155,40,movements,el-ex, rt, d,101955.55291729167, -0.9464846375427689, -0.28134250902257213, -0.05157833211921798, 0.035019680857658386, 0.13298146426677704, 0.016936060041189194, -0.7794656157493591, 0.27764561772346497, -0.5615569353103638, 0.022324562072753906, 0.049121320247650146, 0.027941882610321045, -0.13639342446870478, -0.44790442488995724, 0.8826576331157414,0.04115635865002393,-0.7594757080078125,0.322784423828125,-0.51654052734375
20220201-0903,2022-02-01 09:03:25Z,u01, 156,40,movements,el-ex, rt, d,101955.57785929168, -0.9430910800395969, -0.281901987428333, -0.05143681616914673, -0.04448440298438072, 0.11859253793954849, 0.011743560433387756, -0.7774296998977661, 0.27818307280540466, -0.5641075968742371, 0.03566944599151611, -0.012069761753082275, 0.03905266523361206, -0.13667766641231657, -0.44639155850072526, 0.8833818683075214,0.041114037257511005,-0.7490692138671875,0.291351318359375,-0.5227813720703125
20220201-0903,2022-02-01 09:03:25Z,u01, 157,40,movements,el-ex, rt, d,101955.60280129168, -0.9407476702252086, -0.2811728996378976, -0.052292367316231124, -0.030072638764977455, 0.07552429288625717, -0.02959842048585415, -0.7762693166732788, 0.27748268842697144, -0.5660472512245178, 0.030419647693634033, -0.006410270929336548, 0.0399547815322876, -0.13659521807900463, -0.44532923460442975, 0.8839630901211224,0.040411020494909244,-0.7500152587890625,0.2687530517578125,-0.5250701904296875
20220201-0903,2022-02-01 09:03:25Z,u01, 158,40,movements,el-ex, rt, d,101955.62774329167, -0.9405806576960933, -0.2821152235323524, -0.05396820825005493, -0.07344301789999008, 0.07434744387865067, -0.023435600101947784, -0.7759630680084229, 0.2783878743648529, -0.5660224556922913, 0.01975274085998535, 0.0017940104007720947, 0.06910479068756104, -0.13738653868974027, -0.44509965594559203, 0.8839804418187502,0.03987180070842461,-0.77276611328125,0.2747802734375,-0.53277587890625
20220201-0903,2022-02-01 09:03:25Z,u01, 159,40,movements,el-ex, rt, d,101955.65268529167, -0.9410996105394505, -0.2851331538182825, -0.058739431625180145, -0.29934626817703247, 0.031225871294736862, -0.016231415793299675, -0.7755742073059082, 0.28128522634506226, -0.5651223659515381, 0.05482524633407593, -0.035923898220062256, 0.06982213258743286, -0.13976622652653842, -0.4448642546955933, 0.8837875553926242,0.0384813206699654,-0.7306671142578125,0.259674072265625,-0.4839935302734375
20220201-0903,2022-02-01 09:03:25Z,u01, 160,40,movements,el-ex, rt, d,101955.67762629167, -0.9431076892544783, -0.28892562428050095, -0.06564364471842841, -0.24266090989112854, 0.02226247265934944, -0.04094954580068588, -0.7758384346961975, 0.2849225401878357, -0.5629332661628723, 0.07518535852432251, -0.018519312143325806, 0.02176511287689209, -0.14293244323672488, -0.4450883836292098, 0.8832549892267451,0.03643204393240612,-0.6819610595703125,0.2574615478515625,-0.5426177978515625
20220201-0903,2022-02-01 09:03:25Z,u01, 161,40,movements,el-ex, rt, d,101955.70256829167, -0.9442279291298692, -0.29135847541705684, -0.07127266901739365, -0.22835643589496613, 0.030455617234110832, -0.03761453181505203, -0.7759047746658325, 0.2872537076473236, -0.5616557002067566, 0.08880144357681274, -0.04813322424888611, 0.04632067680358887, -0.1452339934321024, -0.4450609331393416, 0.8829678210402048,0.03457933943599184,-0.6927490234375,0.2401885986328125,-0.52288818359375
20220201-0903,2022-02-01 09:03:25Z,u01, 162,40,movements,el-ex, rt, d,101955.72751029168, -0.9444234783682501, -0.2934700569139468, -0.07524214196967655, -0.11718197911977768, 0.08033262938261032, -0.005010252818465233, -0.7755213975906372, 0.2892756462097168, -0.5611470937728882, 0.09816849231719971, -0.0655360221862793, 0.01802581548690796, -0.14704076207507397, -0.444753258381594, 0.8828721153091578,0.03332103783719831,-0.681610107421875,0.246368408203125,-0.5325469970703125
20220201-0903,2022-02-01 09:03:25Z,u01, 163,40,movements,el-ex, rt, d,101955.75245229168, -0.941599714407965, -0.29478553450708456, -0.07672494463886273, -0.0590977668762207, 0.1624290943145752, 0.034324370324611664, -0.7736254930496216, 0.290534645318985, -0.5631103515625, 0.10413086414337158, -0.08354920148849487, 0.036575376987457275, -0.1479941788580016, -0.44333119033248825, 0.8834490452283881,0.03275656101602248,-0.6693878173828125,0.2026519775390625,-0.530059814453125
20220201-0903,2022-02-01 09:03:25Z,u01, 164,40,movements,el-ex, rt, d,101955.77739429167, -0.9369196197405865, -0.29691450137954156, -0.0777256021417641, -0.14519160985946655, 0.23546874523162842, 0.055006012320518494, -0.7704814076423645, 0.29257112741470337, -0.5663571357727051, 0.112537682056427, 0.00871366262435913, 0.08129560947418213, -0.14922715744434772, -0.4410812579103388, 0.8843786598935551,0.03244808937752264,-0.66094970703125,0.276031494140625,-0.488372802734375
20220201-0903,2022-02-01 09:03:25Z,u01, 165,40,movements,el-ex, rt, d,101955.80233629167, -0.9314834890309325, -0.30077921289867704, -0.08152320503984249, -0.260919451713562, 0.28303664922714233, 0.02054164558649063, -0.7664782404899597, 0.29626452922821045, -0.5698583722114563, 0.10087448358535767, 0.011535823345184326, 0.0680425763130188, -0.15184809188598739, -0.4381928396000032, 0.8854118323394972,0.031228639954426762,-0.6709442138671875,0.3128814697265625,-0.494781494140625
20220201-0903,2022-02-01 09:03:25Z,u01, 166,40,movements,el-ex, rt, d,101955.82727829168, -0.9254176508992826, -0.3044520510126158, -0.08565202759380254, -0.16942264139652252, 0.28455907106399536, 0.03571487218141556, -0.762133002281189, 0.2997704744338989, -0.5738387703895569, 0.12410199642181396, -0.05878838896751404, 0.06691133975982666, -0.1544586110145562, -0.43499786504668647, 0.88658554183104,0.02975753456400626,-0.642120361328125,0.252349853515625,-0.508575439453125
20220201-0903,2022-02-01 09:03:25Z,u01, 167,40,movements,el-ex, rt, d,101955.85222029168, -0.9193212234250829, -0.3073951581769706, -0.0882117043871881, -0.1373874843120575, 0.26732760667800903, 0.03692208230495453, -0.7579156756401062, 0.3025769293308258, -0.5779368877410889, 0.1041528582572937, -0.034129053354263306, 0.07366448640823364, -0.15639950213137005, -0.4319383573216626, 0.88777181183387,0.0288036322996284,-0.64666748046875,0.2625579833984375,-0.50372314453125
20220201-0903,2022-02-01 09:03:25Z,u01, 168,40,movements,el-ex, rt, d,101955.87716229167, -0.9136825067143955, -0.3107257283190022, -0.09162816423587943, -0.2302365005016327, 0.2688378095626831, 0.013303239829838276, -0.7538427710533142, 0.30574968457221985, -0.5815826058387756, 0.1250738501548767, -0.04737260937690735, 0.10207521915435791, -0.1586833915326091, -0.428985166227975, 0.8888368006049885,0.02757952637298916,-0.6387176513671875,0.264892578125,-0.4803619384765625
20220201-0903,2022-02-01 09:03:25Z,u01, 169,40,movements,el-ex, rt, d,101955.90210429167, -0.9077765608137244, -0.3138797462956453, -0.09548917467912107, -0.13097518682479858, 0.29466724395751953, 0.01322807278484106, -0.7496310472488403, 0.3087511360645294, -0.5854281187057495, 0.12200647592544556, -0.06396961212158203, 0.06020534038543701, -0.16098030820907216, -0.4258770900672534, 0.8899626982413593,0.02608523149420411,-0.6279449462890625,0.2503814697265625,-0.5126190185546875
20220201-0903,2022-02-01 09:03:25Z,u01, 170,40,movements,el-ex, rt, d,101955.92704629168, -0.9001473248208389, -0.3150386363486222, -0.0963206042140024, -0.009146584197878838, 0.32984820008277893, 0.03310597687959671, -0.7448621392250061, 0.309853196144104, -0.5909073352813721, 0.12295961380004883, -0.060127854347229004, 0.053096115589141846, -0.16176705840633715, -0.42234788599089523, 0.8915217429787059,0.025352922641675324,-0.630523681640625,0.2447662353515625,-0.5555572509765625
20220201-0903,2022-02-01 09:03:25Z,u01, 171,40,movements,el-ex, rt, d,101955.95198829168, -0.8913709227821112, -0.31597694271481375, -0.09548202259063154, 0.007252494804561138, 0.3504306972026825, 0.05831758305430412, -0.7394208908081055, 0.3107452094554901, -0.5972387194633484, 0.11748790740966797, -0.013229340314865112, 0.05716925859451294, -0.16211738583249266, -0.4184478319729583, 0.8932990613311824,0.02522008484267735,-0.619140625,0.2836761474609375,-0.5366973876953125
20220201-0903,2022-02-01 09:03:25Z,u01, 172,40,movements,el-ex, rt, d,101955.97693029167, -0.8825366129859854, -0.31773407282001437, -0.09431097842293627, -0.0493420735001564, 0.3114023208618164, 0.10880979150533676, -0.7336931228637695, 0.31241485476493835, -0.6033998727798462, 0.08891767263412476, -0.011007994413375854, 0.08141201734542847, -0.1627652665834449, -0.4144967123793259, 0.8950165446712929,0.025403872883269063,-0.6338653564453125,0.3049774169921875,-0.528045654296875
20220201-0903,2022-02-01 09:03:25Z,u01, 173,40,movements,el-ex, rt, d,101956.00187229167, -0.8754808659800719, -0.32185336129101694, -0.09454650592312205, -0.18373210728168488, 0.2595582902431488, 0.12857097387313843, -0.7284230589866638, 0.316325306892395, -0.6077319979667664, 0.04846090078353882, 0.0035599470138549805, 0.08846020698547363, -0.16473533648084138, -0.41109157427680443, 0.8962202303414789,0.025598935168742176,-0.6735992431640625,0.3146820068359375,-0.5180206298828125
20220201-0903,2022-02-01 09:03:25Z,u01, 174,40,movements,el-ex, rt, d,101956.02681429168, -0.8703786021820323, -0.32785379762136646, -0.09745616506047916, -0.27568599581718445, 0.22970294952392578, 0.0843835398554802, -0.7238485217094421, 0.32201188802719116, -0.6102062463760376, 0.03024500608444214, 0.003122389316558838, 0.06122559309005737, -0.16806628596885498, -0.4082286128278858, 0.896923069377005,0.025141338137415592,-0.693634033203125,0.33709716796875,-0.542205810546875
20220201-0903,2022-02-01 09:03:25Z,u01, 175,40,movements,el-ex, rt, d,101956.05175629168, -0.866008205475999, -0.3326783279438328, -0.10140816086643917, -0.1494293212890625, 0.22812116146087646, 0.024545639753341675, -0.7199829816818237, 0.3265756666660309, -0.6123502850532532, 0.07249152660369873, -0.049567610025405884, 0.02380359172821045, -0.17107190701242464, -0.40565902783461666, 0.8975514042378984,0.024015259975741443,-0.6568450927734375,0.2903594970703125,-0.5737152099609375
20220201-0903,2022-02-01 09:03:25Z,u01, 176,40,movements,el-ex, rt, d,101956.07669729168, -0.8605961885390483, -0.33341581727568687, -0.10180679962302341, 0.06278499960899353, 0.22290389239788055, 0.005821356549859047, -0.7164755463600159, 0.3272726535797119, -0.616080641746521, 0.09544289112091064, -0.08348295092582703, 0.0077890753746032715, -0.17154542072084072, -0.40315239422817717, 0.8986026134074488,0.023527471215893048,-0.6190185546875,0.240386962890625,-0.615142822265625
20220201-0903,2022-02-01 09:03:25Z,u01, 177,40,movements,el-ex, rt, d,101956.101639, -0.854352270668006, -0.3325025388681787, -0.09904132884294538, 0.10131504386663437, 0.1956983059644699, 0.07704433798789978, -0.7128399610519409, 0.3264095187187195, -0.6207382678985596, 0.06577575206756592, -0.021157443523406982, 0.04001927375793457, -0.1706564921601746, -0.4006335465250352, 0.8998837888665713,0.024046285708172743,-0.63836669921875,0.282470703125,-0.5879669189453125
20220201-0903,2022-02-01 09:03:25Z,u01, 178,40,movements,el-ex, rt, d,101956.126581, -0.8494128002151993, -0.3341643876932403, -0.09720306324359024, -0.10966993123292923, 0.14624546468257904, 0.10261407494544983, -0.7093568444252014, 0.3279798924922943, -0.623892605304718, 0.03142416477203369, 0.08219161629676819, 0.04372304677963257, -0.1710920660664005, -0.3984735840770374, 0.9007393787803379,0.024796087483661078,-0.6841583251953125,0.394989013671875,-0.5886383056640625
20220201-0903,2022-02-01 09:03:25Z,u01, 179,40,movements,el-ex, rt, d,101956.15152300001, -0.8469328566472981, -0.3387535026510945, -0.09963305821324653, -0.22582809627056122, 0.11939787119626999, 0.04872900992631912, -0.7066723108291626, 0.3323116898536682, -0.6246464252471924, 0.05809742212295532, 0.034936875104904175, 0.04212695360183716, -0.17365726687121283, -0.3968878018811451, 0.9009584665547705,0.024434767647802946,-0.6566925048828125,0.384002685546875,-0.580596923828125
20220201-0903,2022-02-01 09:03:25Z,u01, 180,40,movements,el-ex, rt, d,101956.17646500001, -0.844721617539649, -0.34148592470649647, -0.10194768920870731, -0.01141852792352438, 0.11201678961515427, 0.017979752272367477, -0.7046076655387878, 0.3348875939846039, -0.6256023645401001, 0.03158825635910034, -0.073702871799469, -0.0442126989364624, -0.17536398545250606, -0.39553293716424104, 0.9012416600675448,0.023761519475639648,-0.65655517578125,0.2903594970703125,-0.649322509765625
20220201-0903,2022-02-01 09:03:25Z,u01, 181,40,movements,el-ex, rt, d,101956.201407, -0.8417612258982271, -0.34222374700086194, -0.10026662479127421, 0.08551640808582306, 0.09365828335285187, 0.06946797668933868, -0.7025681138038635, 0.3355827033519745, -0.627520740032196, 0.01902008056640625, -0.05262371897697449, -0.01624751091003418, -0.17539767433054873, -0.3943035464907555, 0.9017563059578829,0.0244111372235033,-0.68035888671875,0.259429931640625,-0.65289306640625
20220201-0903,2022-02-01 09:03:25Z,u01, 182,40,movements,el-ex, rt, d,101956.226349, -0.8391471709990841, -0.3448935728105697, -0.09790784705917217, -0.035392604768276215, 0.06593365222215652, 0.09165657311677933, -0.7002561688423157, 0.3380965292453766, -0.6287543177604675, -0.006179988384246826, 0.07047280669212341, 0.012558698654174805, -0.1761608615940548, -0.393179599017408, 0.9020597980633694,0.025791339244792655,-0.6986083984375,0.3959503173828125,-0.625885009765625
20220201-0903,2022-02-01 09:03:25Z,u01, 183,40,movements,el-ex, rt, d,101956.25129100001, -0.8372826618194799, -0.3478740902298784, -0.09814822836619617, -0.12946027517318726, 0.04375371336936951, 0.0802171602845192, -0.6983309984207153, 0.3409000039100647, -0.6293814182281494, -0.005633234977722168, 0.052273184061050415, 0.0039389729499816895, -0.17756643736831706, -0.3921472294541886, 0.9022239723756023,0.026126181654307246,-0.7071075439453125,0.40155029296875,-0.622100830078125
20220201-0903,2022-02-01 09:03:25Z,u01, 184,40,movements,el-ex, rt, d,101956.27623300001, -0.8353682556383106, -0.3487128042337578, -0.09886558857034605, -0.08072126656770706, 0.04771003872156143, 0.05779753625392914, -0.6969125866889954, 0.3416883647441864, -0.6305251121520996, -0.013399362564086914, -0.003919780254364014, -0.033750951290130615, -0.17810728581222635, -0.391171618566209, 0.9025501392870545,0.025803068202785218,-0.6959228515625,0.339630126953125,-0.6362152099609375
20220201-0903,2022-02-01 09:03:25Z,u01, 185,40,movements,el-ex, rt, d,101956.301175, -0.8343162689304151, -0.3510224822304195, -0.09862142697773815, -0.01625482738018036, 0.025739694014191628, 0.06042760983109474, -0.6956623196601868, 0.34385812282562256, -0.630726158618927, -0.05458182096481323, 0.004011780023574829, -0.04578745365142822, -0.17910755295099914, -0.39058599507503156, 0.9025917706875446,0.026288849940724723,-0.7441864013671875,0.3454742431640625,-0.677093505859375
20220201-0903,2022-02-01 09:03:25Z,u01, 186,40,movements,el-ex, rt, d,101956.326117, -0.8339975602022429, -0.3546732966414886, -0.09838494342231649, -0.05296846851706505, 0.03686937689781189, 0.058509401977062225, -0.6945269703865051, 0.3472840189933777, -0.6301001310348511, -0.04857611656188965, 0.0526793897151947, -0.02770620584487915, -0.18070026822473673, -0.39025291573104337, 0.9023942161692052,0.027108395310908695,-0.748138427734375,0.39007568359375,-0.66094970703125
20220201-0903,2022-02-01 09:03:25Z,u01, 187,40,movements,el-ex, rt, d,101956.35105900001, -0.8328765967202605, -0.3569335568411779, -0.09849441827437538, -0.05913298577070236, 0.058637585490942, 0.058551542460918427, -0.6932376623153687, 0.34940269589424133, -0.6303485631942749, -0.026031136512756348, 0.03386753797531128, -0.03494983911514282, -0.18174879113925996, -0.3896063228661429, 0.9024536915183625,0.02741610042282594,-0.724639892578125,0.3870086669921875,-0.6602935791015625
20220201-0903,2022-02-01 09:03:25Z,u01, 188,40,movements,el-ex, rt, d,101956.37600100001, -0.8308712234791817, -0.3576422354377931, -0.09819448123237101, -0.02249288186430931, 0.07501616328954697, 0.048597048968076706, -0.6917890906333923, 0.3500666320323944, -0.6315703988075256, -0.016493380069732666, 0.01028493046760559, -0.020422279834747314, -0.1820353063249901, -0.38868747169948964, 0.9027891387515509,0.027512639997135768,-0.710968017578125,0.3700408935546875,-0.6667938232421875
20220201-0903,2022-02-01 09:03:25Z,u01, 189,40,movements,el-ex, rt, d,101956.400943, -0.8291013064123328, -0.35906872991929306, -0.09771336948168674, -0.020311754196882248, 0.07629048824310303, 0.06721281260251999, -0.6903013586997986, 0.35140252113342285, -0.6324558854103088, -0.04950582981109619, 0.019614994525909424, -0.022298753261566162, -0.1826053717824928, -0.3878496449488253, 0.9030238325271808,0.027856803377871053,-0.7373809814453125,0.3667144775390625,-0.6522064208984375
20220201-0903,2022-02-01 09:03:25Z,u01, 190,40,movements,el-ex, rt, d,101956.425885, -0.8273941003550439, -0.3614085748666525, -0.09732438110490012, -0.055153392255306244, 0.06963890790939331, 0.0666164681315422, -0.6886133551597595, 0.3535921573638916, -0.6330751776695251, -0.04388481378555298, 0.0505826473236084, -0.03411531448364258, -0.18360236797403082, -0.38697880307293503, 0.9031798549169086,0.02834812113680224,-0.740875244140625,0.3983001708984375,-0.6659088134765625
20220201-0903,2022-02-01 09:03:25Z,u01, 191,40,movements,el-ex, rt, d,101956.45082700001, -0.8253216522787796, -0.36356736258777456, -0.09746471500688435, -0.050297681242227554, 0.09324510395526886, 0.047895170748233795, -0.6867374181747437, 0.3556106686592102, -0.6339817047119141, -0.010970711708068848, 0.03905794024467468, -0.03983116149902344, -0.18462635523306398, -0.38590448215223955, 0.9034251383517093,0.0285284156511727,-0.70550537109375,0.4017333984375,-0.67291259765625
20220201-0903,2022-02-01 09:03:25Z,u01, 192,40,movements,el-ex, rt, d,101956.475768, -0.8229032804655866, -0.36463124333781666, -0.09696410139580315, 0.009338781237602234, 0.10278647392988205, 0.0564783439040184, -0.6849244832992554, 0.35660481452941895, -0.6353829503059387, -0.013119339942932129, 0.0025565922260284424, -0.036186814308166504, -0.18504144979251827, -0.38479629512824315, 0.9038059574750614,0.028744658837302095,-0.693939208984375,0.368682861328125,-0.674102783203125
20220201-0903,2022-02-01 09:03:25Z,u01, 193,40,movements,el-ex, rt, d,101956.50071000001, -0.8204422632542201, -0.3657829357790877, -0.09569048472128845, -0.005437234882265329, 0.07850243896245956, 0.07511753588914871, -0.6830578446388245, 0.3576805293560028, -0.636786162853241, -0.03413575887680054, 0.018463879823684692, -0.027016878128051758, -0.18534901530886194, -0.3837351585440173, 0.9041754130172525,0.02932295682905367,-0.71368408203125,0.3704071044921875,-0.66729736328125
20220201-0903,2022-02-01 09:03:25Z,u01, 194,40,movements,el-ex, rt, d,101956.52565200001, -0.8181468242985219, -0.36806889832465367, -0.09451259483674242, -0.027914313599467278, 0.06780318915843964, 0.08542557060718536, -0.680995762348175, 0.3598143458366394, -0.6377918124198914, -0.02470797300338745, 0.038440048694610596, -0.024164915084838867, -0.18618313585096946, -0.38267472849922696, 0.9044279339447879,0.030098515035969498,-0.7117919921875,0.4041290283203125,-0.6718292236328125
20220201-0903,2022-02-01 09:03:25Z,u01, 195,40,movements,el-ex, rt, d,101956.550594, -0.8156540617068965, -0.37024106670403223, -0.09334534994704918, -0.026150502264499664, 0.07475350797176361, 0.0872570276260376, -0.6788331270217896, 0.3618401885032654, -0.6389502286911011, -0.015670716762542725, 0.03322514891624451, -0.021495938301086426, -0.18697309330721987, -0.38153106164290906, 0.9047237117466014,0.0308260518647821,-0.6985626220703125,0.3938446044921875,-0.6608123779296875
20220201-0903,2022-02-01 09:03:26Z,u01, 196,40,movements,el-ex, rt, d,101956.575536, -0.8133202889092657, -0.37217300743828696, -0.09265197898715447, -0.05191555246710777, 0.09737992286682129, 0.07546740770339966, -0.6768308877944946, 0.36364051699638367, -0.6400511860847473, -0.007907271385192871, 0.028434067964553833, -0.01029360294342041, -0.18774478746530587, -0.3804291085683014, 0.9050113835617495,0.031304375248037475,-0.6819305419921875,0.3885498046875,-0.6519622802734375
20220201-0903,2022-02-01 09:03:26Z,u01, 197,40,movements,el-ex, rt, d,101956.60047800001, -0.8105974641072717, -0.3745597916010931, -0.09226114964357493, -0.0332881398499012, 0.11478594690561295, 0.07539696991443634, -0.6744547486305237, 0.3658628761768341, -0.6412917971611023, -0.039549827575683594, 0.013699531555175781, -0.02920985221862793, -0.18878560069149541, -0.37909640558383056, 0.9053404182147823,0.03169695969174996,-0.7080230712890625,0.3816986083984375,-0.662628173828125
20220201-0903,2022-02-01 09:03:26Z,u01, 198,40,movements,el-ex, rt, d,101956.62542000001, -0.8072569392010638, -0.3765633089299663, -0.09093454838841757, 0.027847319841384888, 0.12713435292243958, 0.09169990569353104, -0.6717778444290161, 0.36772674322128296, -0.6430330872535706, -0.031072556972503662, 0.02131134271621704, -0.04442107677459717, -0.18948858979967728, -0.37759440416379986, 0.905797007993424,0.03237648141334154,-0.708831787109375,0.3771820068359375,-0.6857147216796875
20220201-0903,2022-02-01 09:03:26Z,u01, 199,40,movements,el-ex, rt, d,101956.650362, -0.8032267776469522, -0.3779727625143442, -0.08860720287796386, 0.012101378291845322, 0.13449160754680634, 0.09482912719249725, -0.6688072681427002, 0.36903709173202515, -0.6453747153282166, -0.01767045259475708, 0.03406965732574463, -0.025600016117095947, -0.1897502613607625, -0.37590885535495033, 0.9064088086718314,0.03332519001644424,-0.693450927734375,0.3992919921875,-0.6776885986328125
20220201-0903,2022-02-01 09:03:26Z,u01, 200,40,movements,el-ex, rt, d,101956.675304, -0.7993873185409582, -0.3795626064781338, -0.08713287050208504, -0.003570391796529293, 0.16139964759349823, 0.07367350906133652, -0.6659029126167297, 0.37051424384117126, -0.6475279331207275, -0.012762248516082764, 0.037933021783828735, -0.021798789501190186, -0.19025398246684797, -0.3742184505583426, 0.9069796353133924,0.03393908924329142,-0.68145751953125,0.4199371337890625,-0.6698455810546875
20220201-0903,2022-02-01 09:03:26Z,u01, 201,40,movements,el-ex, rt, d,101956.70024600001, -0.7947634881650899, -0.38017350582131104, -0.08563560489533886, 0.05038958042860031, 0.17879876494407654, 0.07065707445144653, -0.6627401113510132, 0.3710815906524658, -0.6504413485527039, -0.011088013648986816, 0.00861811637878418, -0.04081219434738159, -0.19032867549839244, -0.37222883730654843, 0.9077688989867403,0.0342970312678374,-0.6769256591796875,0.385772705078125,-0.68756103515625
20220201-0903,2022-02-01 09:03:26Z,u01, 202,40,movements,el-ex, rt, d,101956.72518800001, -0.789231401497101, -0.38035711905430214, -0.08268560169017584, 0.10479353368282318, 0.17675496637821198, 0.08982165157794952, -0.659083366394043, 0.3712520897388458, -0.6540497541427612, -0.018956243991851807, 0.021997451782226562, -0.040926992893218994, -0.1899601400695331, -0.3699868383520924, 0.908729737202187,0.03514616003253762,-0.671661376953125,0.3717041015625,-0.6918487548828125
20220201-0903,2022-02-01 09:03:26Z,u01, 203,40,movements,el-ex, rt, d,101956.75013, -0.7841722346138713, -0.38119826149464114, -0.07938988412456123, 0.02776889130473137, 0.1324436366558075, 0.09324321150779724, -0.655545175075531, 0.3720329999923706, -0.6571544408798218, -0.023562490940093994, 0.042639851570129395, -0.003505229949951172, -0.1898224165251916, -0.3679541011722332, 0.9095370993945199,0.03632508184248945,-0.680999755859375,0.409759521484375,-0.6710968017578125
20220201-0903,2022-02-01 09:03:26Z,u01, 204,40,movements,el-ex, rt, d,101956.775072, -0.7805613819689857, -0.3826109046126983, -0.07777086614127282, 0.02200244553387165, 0.10321777313947678, 0.06028227135539055, -0.6527975797653198, 0.3733438551425934, -0.6591432094573975, -0.008579373359680176, 0.028740495443344116, -0.035192668437957764, -0.19022995987078656, -0.3663890972719187, 0.9100568976396779,0.0369875675280964,-0.6670989990234375,0.4278411865234375,-0.687530517578125
20220201-0903,2022-02-01 09:03:26Z,u01, 205,40,movements,el-ex, rt, d,101956.80001400001, -0.7774557426865246, -0.38209235942050196, -0.07589986768455889, 0.07738850265741348, 0.07047853618860245, 0.02944585680961609, -0.6508830785751343, 0.3728627562522888, -0.6613052487373352, 0.004352867603302002, -0.01684466004371643, -0.025416553020477295, -0.1897109697099709, -0.36518095352939584, 0.9106318998391332,0.03744586684531931,-0.6492462158203125,0.360107421875,-0.68658447265625
20220201-0903,2022-02-01 09:03:26Z,u01, 206,40,movements,el-ex, rt, d,101956.82495600001, -0.7756811916956341, -0.3815852000660246, -0.07373862515379374, 0.09964457154273987, 0.03413017839193344, 0.027235765010118484, -0.6498408317565918, 0.37239211797714233, -0.6625941395759583, -0.0056768059730529785, 0.009398043155670166, -0.009601235389709473, -0.18912061635905714, -0.36460435319130846, 0.910955720872338,0.038166175122067325,-0.6625823974609375,0.371978759765625,-0.6884918212890625
20220201-0903,2022-02-01 09:03:26Z,u01, 207,40,movements,el-ex, rt, d,101956.84989700001, -0.774835616653911, -0.38261457579044006, -0.07207789014976715, -0.0052732499316334724, -0.007045883685350418, 0.04394004866480827, -0.6490118503570557, 0.3733472526073456, -0.6628691554069519, -0.015249073505401611, 0.027272284030914307, -0.0023987293243408203, -0.189300458771477, -0.36432232759141786, 0.9109943996104697,0.03903678856658821,-0.6646270751953125,0.394866943359375,-0.6660003662109375
20220201-0903,2022-02-01 09:03:26Z,u01, 208,40,movements,el-ex, rt, d,101956.87483900001, -0.7745325902305519, -0.38336016565201436, -0.07173492772660255, -0.05004684627056122, -0.035121992230415344, 0.022562850266695023, -0.6486160159111023, 0.37403884530067444, -0.6628665924072266, -0.015095531940460205, 0.01506030559539795, -0.03304094076156616, -0.18958163064314004, -0.364177843535807, 0.9109820869462821,0.03930483144911684,-0.6606903076171875,0.4033050537109375,-0.68524169921875
20220201-0903,2022-02-01 09:03:26Z,u01, 209,40,movements,el-ex, rt, d,101956.899781, -0.7752251647791126, -0.3833441887982711, -0.07186766024179711, 0.010596193373203278, -0.04845418035984039, -0.007926479913294315, -0.6490792036056519, 0.37402403354644775, -0.6624215245246887, -0.015639424324035645, -0.0069127678871154785, -0.049049973487854004, -0.18958495244324325, -0.3644815208289989, 0.9108599112993978,0.03930700435451118,-0.6690521240234375,0.373016357421875,-0.7116241455078125
20220201-0903,2022-02-01 09:03:26Z,u01, 210,40,movements,el-ex, rt, d,101956.924723, -0.7769166530122463, -0.3830655497499306, -0.07180312654096051, 0.03299614042043686, -0.07757510989904404, -0.03042306751012802, -0.6502717733383179, 0.37376558780670166, -0.6613969802856445, -0.02647078037261963, 0.00756680965423584, -0.05276012420654297, -0.18941371541587812, -0.365272443074567, 0.9105727494225211,0.03944405746139196,-0.68182373046875,0.3724212646484375,-0.7292938232421875
20220201-0903,2022-02-01 09:03:26Z,u01, 211,40,movements,el-ex, rt, d,101956.94966500001, -0.7791178846274144, -0.3830192270799329, -0.07225082574557264, -0.01574965938925743, -0.09411327540874481, -0.033773522824048996, -0.6517382264137268, 0.3737226128578186, -0.6599762439727783, -0.02390575408935547, 0.028483808040618896, -0.051632583141326904, -0.18943122514258998, -0.366234463508953, 0.9101827071857547,0.039439998404458054,-0.671173095703125,0.396759033203125,-0.7090911865234375
20220201-0903,2022-02-01 09:03:26Z,u01, 212,40,movements,el-ex, rt, d,101956.97460700001, -0.7813596893670833, -0.3827237047232068, -0.07298079254380344, -0.014403198845684528, -0.10004793107509613, -0.015388458967208862, -0.6532938480377197, 0.3734484910964966, -0.6585919260978699, -0.026698827743530273, 0.018748164176940918, -0.07308220863342285, -0.1893872729124066, -0.3672009007595161, 0.9098100145461461,0.039264097099322215,-0.6856689453125,0.39013671875,-0.7254486083984375
20220201-0903,2022-02-01 09:03:26Z,u01, 213,40,movements,el-ex, rt, d,101956.999549, -0.7835089390542563, -0.38223624553175906, -0.07314486752458495, 0.005233452655375004, -0.09678668528795242, -0.007338321767747402, -0.6548362970352173, 0.3729962706565857, -0.6573152542114258, -0.022470831871032715, 0.023503392934799194, -0.09175395965576172, -0.1891547922956825, -0.3681885944426264, 0.9094576952744177,0.03930010314005605,-0.6787109375,0.39605712890625,-0.749786376953125
20220201-0903,2022-02-01 09:03:26Z,u01, 214,40,movements,el-ex, rt, d,101957.024491, -0.7854602362155677, -0.3820540221650831, -0.07286677034181786, 0.016553550958633423, -0.0957425981760025, 0.005652444437146187, -0.6561657190322876, 0.3728271722793579, -0.6560842394828796, -0.0404437780380249, 0.04810181260108948, -0.08971953392028809, -0.1889826951512497, -0.3691116577129855, 0.9091072370250595,0.03957625162986028,-0.6843719482421875,0.4113006591796875,-0.74896240234375
20220201-0903,2022-02-01 09:03:26Z,u01, 215,40,movements,el-ex, rt, d,101957.04943300001, -0.7875958468098623, -0.3821071159766505, -0.07256729575977576, -0.019291330128908157, -0.1051279753446579, 0.00762784481048584, -0.6575513482093811, 0.37287643551826477, -0.6546674966812134, -0.06417417526245117, 0.05191302299499512, -0.10114610195159912, -0.18890888893067873, -0.37010767085071533, 0.908702356722154,0.03992425150481238,-0.714752197265625,0.4183349609375,-0.750946044921875
20220201-0903,2022-02-01 09:03:26Z,u01, 216,40,movements,el-ex, rt, d,101957.07437500001, -0.7900861625980874, -0.38240292123275527, -0.07314838318827276, -0.04268060624599457, -0.10660243779420853, -0.022812485694885254, -0.6591011881828308, 0.37315091490745544, -0.6529502868652344, -0.11277991533279419, 0.06451693177223206, -0.12825387716293335, -0.18910043374486643, -0.37116828258426754, 0.9082284972302382,0.03995236156233245,-0.7559814453125,0.4426422119140625,-0.776885986328125
20220201-0903,2022-02-01 09:03:26Z,u01, 217,40,movements,el-ex, rt, d,101957.09931816667, -0.7932686315320161, -0.38243316542318506, -0.07439392215822528, -0.025865111500024796, -0.12603971362113953, -0.03585285320878029, -0.6611678600311279, 0.37317895889282227, -0.650841474533081, -0.16981059312820435, 0.06644201278686523, -0.16640394926071167, -0.18928227384974977, -0.37249359093345213, 0.9076592280906225,0.039693781931051164,-0.8206787109375,0.4406585693359375,-0.8149871826171875
20220201-0903,2022-02-01 09:03:26Z,u01, 218,40,movements,el-ex, rt, d,101957.12426016667, -0.7971549523576982, -0.3821864857775802, -0.07582466927089339, -0.0452377088367939, -0.14508551359176636, -0.05225013568997383, -0.6637580394744873, 0.37295010685920715, -0.6483314037322998, -0.20111018419265747, 0.12848424911499023, -0.2181694507598877, -0.18936129329757745, -0.37413448379522696, 0.9069819297430113,0.039364923614740865,-0.850311279296875,0.4741363525390625,-0.8491058349609375
20220201-0903,2022-02-01 09:03:26Z,u01, 219,40,movements,el-ex, rt, d,101957.14920216668, -0.8019559040284149, -0.38194776297029714, -0.07823246798925632, -0.06993203610181808, -0.17394599318504333, -0.07600506395101547, -0.666926920413971, 0.3727285861968994, -0.6451990604400635, -0.23703426122665405, 0.14085173606872559, -0.23912400007247925, -0.1896117104795899, -0.3760955515688477, 0.9061474114968074,0.03868200761822349,-0.8935699462890625,0.514556884765625,-0.8772735595703125
20220201-0903,2022-02-01 09:03:26Z,u01, 220,40,movements,el-ex, rt, d,101957.17414416667, -0.8076201695476277, -0.38092329769296157, -0.08091649399471064, -0.031327854841947556, -0.21166926622390747, -0.09414719045162201, -0.6708464026451111, 0.37177774310112, -0.6416747570037842, -0.2713075280189514, 0.1398647427558899, -0.2885315418243408, -0.18954880502169888, -0.37846251801430636, 0.905211792205056,0.03780310696015443,-0.9295501708984375,0.512847900390625,-0.919647216796875
20220201-0903,2022-02-01 09:03:26Z,u01, 221,40,movements,el-ex, rt, d,101957.19908616667, -0.8137815155124827, -0.3790039582837852, -0.08323232910033722, -0.048104338347911835, -0.2395009547472, -0.10809502750635147, -0.675304651260376, 0.3699952960014343, -0.6380181312561035, -0.2650487422943115, 0.16775494813919067, -0.2839789390563965, -0.18901105383725988, -0.3811374534441545, 0.9042361408227552,0.03696047818145137,-0.93768310546875,0.5262603759765625,-0.9182281494140625
20220201-0903,2022-02-01 09:03:26Z,u01, 222,40,movements,el-ex, rt, d,101957.22402716667, -0.8209356107869504, -0.37767621967959014, -0.08637606064805955, -0.06363935768604279, -0.24627603590488434, -0.12313362956047058, -0.6802106499671936, 0.36876145005226135, -0.6335048675537109, -0.2485765814781189, 0.15432509779930115, -0.2723025679588318, -0.18888642742494094, -0.38414772757211757, 0.9030281444108934,0.03595223291437666,-0.936248779296875,0.5358123779296875,-0.9099884033203125
20220201-0903,2022-02-01 09:03:26Z,u01, 223,40,movements,el-ex, rt, d,101957.24896916667, -0.8278511066924354, -0.37594155037898863, -0.08893213135965523, 0.023067612200975418, -0.23149676620960236, -0.09764258563518524, -0.6850454807281494, 0.3671484887599945, -0.6292175650596619, -0.23673802614212036, 0.13555234670639038, -0.27864980697631836, -0.18847940189647394, -0.3871262388242032, 0.901873931849051,0.035103753194215825,-0.92742919921875,0.5084991455078125,-0.9107818603515625
20220201-0903,2022-02-01 09:03:26Z,u01, 224,40,movements,el-ex, rt, d,101957.27391116667, -0.8334966281788645, -0.3735796928622566, -0.08945640709043937, 0.0525943785905838, -0.21143457293510437, -0.06662628054618835, -0.6892267465591431, 0.364950567483902, -0.6259213089942932, -0.17872369289398193, 0.14446410536766052, -0.21553975343704224, -0.18742580908222797, -0.38975749394022674, 0.9009667391002331,0.03492134703854671,-0.8809967041015625,0.5009765625,-0.8608551025390625
20220201-0903,2022-02-01 09:03:26Z,u01, 225,40,movements,el-ex, rt, d,101957.29885316668, -0.8385520282066918, -0.37172780295656715, -0.08975283820714001, 0.01685265824198723, -0.18633635342121124, -0.061950501054525375, -0.6928836703300476, 0.3632257580757141, -0.6228798031806946, -0.1530025601387024, 0.1330205500125885, -0.16197115182876587, -0.18656790285665237, -0.39211288630263946, 0.9001238453336391,0.0348845116130182,-0.8519744873046875,0.50518798828125,-0.80059814453125
20220201-0903,2022-02-01 09:03:26Z,u01, 226,40,movements,el-ex, rt, d,101957.32379516667, -0.8430371663631185, -0.3705540131568642, -0.09064459611830224, 0.003272034227848053, -0.14656835794448853, -0.05260460451245308, -0.6959882974624634, 0.36213189363479614, -0.6200491189956665, -0.1368212103843689, 0.08424872159957886, -0.1287912130355835, -0.18614112435794153, -0.39411538301195426, 0.8993460067639335,0.0346616060486763,-0.8346710205078125,0.460418701171875,-0.7526702880859375
20220201-0903,2022-02-01 09:03:26Z,u01, 227,40,movements,el-ex, rt, d,101957.34873716667, -0.8463338111677603, -0.3691770749682724, -0.09131381367834664, 0.03444177284836769, -0.10543669760227203, -0.06033822521567345, -0.6984012722969055, 0.360848069190979, -0.6180811524391174, -0.13259238004684448, 0.056952834129333496, -0.11145675182342529, -0.18560208395733935, -0.39561507824618986, 0.8988093743538292,0.03438479682926271,-0.8322296142578125,0.424530029296875,-0.7349395751953125
20220201-0903,2022-02-01 09:03:26Z,u01, 228,40,movements,el-ex, rt, d,101957.37367916667, -0.8488165661407409, -0.36734756236173954, -0.09147361276703604, 0.04025545343756676, -0.09756386280059814, -0.06431804597377777, -0.7004280090332031, 0.3591412305831909, -0.6167805790901184, -0.12063223123550415, 0.05287662148475647, -0.06882727146148682, -0.18477544506598534, -0.39682205633103423, 0.8984559449584606,0.034166483474342146,-0.8285064697265625,0.409332275390625,-0.7049560546875
20220201-0903,2022-02-01 09:03:26Z,u01, 229,40,movements,el-ex, rt, d,101957.39862116668, -0.8517305467341323, -0.36548664819961174, -0.09273522635291015, -0.006055055186152458, -0.09632442891597748, -0.10287928581237793, -0.7027239203453064, 0.35740384459495544, -0.6151760220527649, -0.0876050591468811, 0.053301721811294556, -0.03971582651138306, -0.1841475590326796, -0.3981226596385867, 0.8980349757184749,0.03348458544557548,-0.80255126953125,0.412933349609375,-0.6630096435546875
20220201-0903,2022-02-01 09:03:26Z,u01, 230,40,movements,el-ex, rt, d,101957.42356316667, -0.8543422693397668, -0.36308771485200003, -0.09442091599569205, 0.04366450011730194, -0.07681983709335327, -0.1170106902718544, -0.7049728035926819, 0.3551623225212097, -0.6138999462127686, -0.05654764175415039, 0.008027374744415283, -0.043250322341918945, -0.18337197006232825, -0.399280292789666, 0.8977169083833783,0.03247104388810551,-0.765594482421875,0.382904052734375,-0.6572418212890625
20220201-0903,2022-02-01 09:03:26Z,u01, 231,40,movements,el-ex, rt, d,101957.44850516667, -0.8563412533222174, -0.3600082988553366, -0.0952069488552142, 0.0634489580988884, -0.06678058207035065, -0.10419856011867523, -0.7070214152336121, 0.35228198766708374, -0.6132031083106995, -0.054117560386657715, 0.01180797815322876, -0.02749812602996826, -0.1821258384901589, -0.4002856617500467, 0.8975516907147796,0.031661503318795636,-0.7583770751953125,0.3605194091796875,-0.644256591796875
20220201-0903,2022-02-01 09:03:26Z,u01, 232,40,movements,el-ex, rt, d,101957.47344716667, -0.8584430969555598, -0.3573617778830067, -0.09585487499762427, 0.021882236003875732, -0.09342624247074127, -0.08530016243457794, -0.7090118527412415, 0.3498038947582245, -0.612322986125946, -0.06773680448532104, 0.011768341064453125, -0.007473647594451904, -0.18104456126878257, -0.4013245062545245, 0.8973293278318016,0.031010712227233894,-0.7694549560546875,0.366058349609375,-0.627532958984375
20220201-0903,2022-02-01 09:03:26Z,u01, 233,40,movements,el-ex, rt, d,101957.49838916668, -0.8616518837823924, -0.3557500840607572, -0.09707161652681451, 0.01729733869433403, -0.1278449296951294, -0.07796049118041992, -0.7113999724388123, 0.34829357266426086, -0.6104111075401306, -0.05904686450958252, 0.014011114835739136, -0.02929830551147461, -0.18052271113227628, -0.40274804384679574, 0.8968167891770953,0.030418502468204656,-0.7740325927734375,0.3616943359375,-0.6321258544921875
20220201-0903,2022-02-01 09:03:26Z,u01, 234,40,movements,el-ex, rt, d,101957.52333116667, -0.8657175840398512, -0.353600778094438, -0.09786292930948196, 0.06077657267451286, -0.1730860471725464, -0.08217588067054749, -0.7144442200660706, 0.34627804160118103, -0.607997477054596, -0.026843011379241943, -0.00921139121055603, -0.030994772911071777, -0.17966536570860334, -0.40462527714264696, 0.8961584552402492,0.0299793142944767,-0.7483673095703125,0.336090087890625,-0.6273040771484375
20220201-0903,2022-02-01 09:03:26Z,u01, 235,40,movements,el-ex, rt, d,101957.54827316667, -0.8703600349139148, -0.35001204772409444, -0.0969589174694281, 0.16821634769439697, -0.21511605381965637, -0.09325622767210007, -0.7182046175003052, 0.3429091274738312, -0.6054712533950806, -0.012172579765319824, -0.007292032241821289, -0.03658801317214966, -0.17781772473918522, -0.40699535950138005, 0.895451322947185,0.030043206194621752,-0.7324371337890625,0.3394622802734375,-0.6492462158203125
20220201-0903,2022-02-01 09:03:26Z,u01, 236,40,movements,el-ex, rt, d,101957.57321516667, -0.8757987104781644, -0.34438124346333876, -0.09424522905758947, 0.29725655913352966, -0.2679886519908905, -0.12129085510969162, -0.722958505153656, 0.3376143276691437, -0.602783203125, -0.018221914768218994, -0.014066934585571289, -0.0276641845703125, -0.17468074592828992, -0.40999394636758296, 0.8946835614512261,0.030544758538474992,-0.73785400390625,0.337615966796875,-0.6649017333984375
20220201-0903,2022-02-01 09:03:27Z,u01, 237,40,movements,el-ex, rt, d,101957.59815616667, -0.8821640255237305, -0.33765821947865515, -0.09088515608995561, 0.22250978648662567, -0.33335861563682556, -0.1222623735666275, -0.7285168766975403, 0.3312784433364868, -0.5995980501174927, 0.020692169666290283, -0.0655771791934967, 0.05334872007369995, -0.17090726985868387, -0.41351140214962856, 0.8937716952107085,0.03116515589551283,-0.7095489501953125,0.264190673828125,-0.546295166015625
20220201-0903,2022-02-01 09:03:27Z,u01, 238,40,movements,el-ex, rt, d,101957.62309816667, -0.8879964704447572, -0.3308262079741214, -0.08752487846090436, 0.2717631161212921, -0.3264894485473633, -0.15434035658836365, -0.7337403893470764, 0.3248245418071747, -0.5967530012130737, 0.06860971450805664, 0.002201855182647705, 0.01839911937713623, -0.16708806109373947, -0.41677941117862316, 0.8929568917213597,0.031695032636356923,-0.6814422607421875,0.33135986328125,-0.59014892578125
20220201-0903,2022-02-01 09:03:27Z,u01, 239,40,movements,el-ex, rt, d,101957.64804016668, -0.8949525322582872, -0.3234442563923436, -0.08461285043232422, 0.2815209925174713, -0.3072469234466553, -0.1658189743757248, -0.7397242784500122, 0.31783410906791687, -0.5931184887886047, 0.07927805185317993, 0.0021579861640930176, 0.01584804058074951, -0.1630960665068603, -0.4205239788630648, 0.8919287100056474,0.03197673784745525,-0.660736083984375,0.320068359375,-0.574310302734375
20220201-0903,2022-02-01 09:03:27Z,u01, 240,40,movements,el-ex, rt, d,101957.67298216667, -0.9017678628713193, -0.3165015578367764, -0.08165296811686745, 0.22968550026416779, -0.32102319598197937, -0.12121662497520447, -0.7454623579978943, 0.31124380230903625, -0.5894177556037903, 0.09272181987762451, 0.016682863235473633, 0.024506866931915283, -0.15928700402084, -0.42416833606020965, 0.8908778140457712,0.03233772885557551,-0.6462860107421875,0.3142242431640625,-0.5695037841796875
20220201-0903,2022-02-01 09:03:27Z,u01, 241,40,movements,el-ex, rt, d,101957.69792416667, -0.9096086890437172, -0.31157345035406003, -0.07982470559037569, 0.11431160569190979, -0.3588912785053253, -0.10828065127134323, -0.7512623071670532, 0.30655670166015625, -0.5844893455505371, 0.066051185131073, 0.05104824900627136, 0.035859644412994385, -0.15659017151781726, -0.4280593918715585, 0.8894805972409296,0.03269274049129539,-0.675628662109375,0.3545989990234375,-0.547393798828125
20220201-0903,2022-02-01 09:03:27Z,u01, 242,40,movements,el-ex, rt, d,101957.72286616667, -0.9193625903345742, -0.30824126317258216, -0.08019181409061395, 0.03338110074400902, -0.40802812576293945, -0.12145844101905823, -0.7577357292175293, 0.3033832609653473, -0.5777501463890076, 0.0759577751159668, 0.00936087965965271, 0.038474082946777344, -0.1550387216236663, -0.4325366076690533, 0.8875896813812356,0.032554148983105546,-0.6812591552734375,0.3350830078125,-0.5340728759765625
20220201-0903,2022-02-01 09:03:27Z,u01, 243,40,movements,el-ex, rt, d,101957.74780816668, -0.928938715184266, -0.3037794751275935, -0.07959073483644519, 0.22439825534820557, -0.37363407015800476, -0.12697477638721466, -0.7643100619316101, 0.29912877082824707, -0.5712722539901733, 0.06640362739562988, -0.04566502571105957, -0.0024123787879943848, -0.15278618215718232, -0.4370586375644518, 0.8857627606479803,0.03256329295256699,-0.69720458984375,0.26904296875,-0.5741424560546875
20220201-0903,2022-02-01 09:03:27Z,u01, 244,40,movements,el-ex, rt, d,101957.77275016667, -0.9373119045935188, -0.2976856854102428, -0.076757580598855, 0.24110879004001617, -0.37227851152420044, -0.14823850989341736, -0.7705215215682983, 0.29330846667289734, -0.5659211874008179, 0.08788907527923584, -0.007755458354949951, 0.034320294857025146, -0.14934616988930538, -0.441288030755176, 0.8842321291594151,0.03307942029793032,-0.687530517578125,0.255218505859375,-0.54412841796875
20220201-0903,2022-02-01 09:03:27Z,u01, 245,40,movements,el-ex, rt, d,101957.79769216667, -0.9459184344746047, -0.2907881351100414, -0.07342555807583706, 0.23839090764522552, -0.39479365944862366, -0.1406860500574112, -0.7769859433174133, 0.2867073714733124, -0.5604389905929565, 0.08791422843933105, 0.01132732629776001, 0.06758016347885132, -0.14543418800099003, -0.4456785729762814, 0.8826603058770058,0.03362220436841745,-0.685089111328125,0.2928619384765625,-0.499725341796875
20220201-0903,2022-02-01 09:03:27Z,u01, 246,40,movements,el-ex, rt, d,101957.82263416667, -0.9547955459262856, -0.285675593111604, -0.07081649569701434, 0.19633749127388, -0.3754603862762451, -0.09318718314170837, -0.7831165194511414, 0.28180572390556335, -0.5543593168258667, 0.13055908679962158, -0.003210723400115967, 0.0673445463180542, -0.14245734377571556, -0.45002916543168975, 0.880912750241734,0.034243054957815156,-0.6659088134765625,0.2816314697265625,-0.48077392578125
20220201-0903,2022-02-01 09:03:27Z,u01, 247,40,movements,el-ex, rt, d,101957.84757616668, -0.9631571637957322, -0.2809720786733941, -0.06768257405140252, 0.21118319034576416, -0.3486063480377197, -0.0684354305267334, -0.7888038754463196, 0.2772897481918335, -0.5485425591468811, 0.17260819673538208, -0.04859098792076111, 0.07161390781402588, -0.13954481002657057, -0.4541541277491364, 0.8792254441547783,0.035127990965445,-0.618438720703125,0.2381744384765625,-0.473724365234375
