SessionID,LoggingTime,UID,RecNo,Hertz,Activity,MoveType,Wrist,Side,TimeStamp,DMRoll,DMPitch,DMYaw,DMRotX,DMRotY,DMRotZ,DMGrvX,DMGrvY,DMGrvZ,DMUAccelX,DMUAccelY,DMUAccelZ,DMQuatX,DMQuatY,DMQuatW,DMQuatZ,AccelroX,AceelroY,AceelroZ
20220223-1405,2022-02-23 14:05:20Z,u01, 1,40,movements,el-ex, rt, d,204648.45157629167, -1.4485022769619034, 0.2539144679667189, 0.2248793459187456, 0.565125584602356, 0.2977505028247833, 0.29096904397010803, -0.9607071876525879, -0.2511948347091675, -0.11807800829410553, 0.028242826461791992, -0.048441946506500244, -0.08169029653072357, 0.1679808397591011, -0.6424511125384926, 0.7476889360583667,-5.551115123125783e-17,-0.951629638671875,-0.2905426025390625,-0.20709228515625
20220223-1405,2022-02-23 14:05:20Z,u01, 2,40,movements,el-ex, rt, d,204648.4765222917, -1.4469587132601607, 0.25025417403661293, 0.24535606279491273, 0.8640909790992737, 0.26964497566223145, 0.2034856528043747, -0.9614297747612, -0.24765022099018097, -0.11967355757951736, -0.06080204248428345, -0.006103336811065674, -0.0013899058103561401, 0.17321163945773696, -0.6404380905512266, 0.7481681101665301,0.009003701085636584,-1.04071044921875,-0.24285888671875,-0.0968475341796875
20220223-1405,2022-02-23 14:05:20Z,u01, 3,40,movements,el-ex, rt, d,204648.50146729167, -1.4436534694910719, 0.24723063300477513, 0.26405552381609204, 0.47502657771110535, -0.308003306388855, 0.6699539422988892, -0.961767315864563, -0.2447197437286377, -0.12294504046440125, -0.05622255802154541, 0.01713496446609497, 0.06625844538211823, 0.1780653704288889, -0.6378245879294584, 0.749114895828774,0.017295588295568376,-0.7783050537109375,-0.2746124267578125,-0.122283935546875
20220223-1405,2022-02-23 14:05:21Z,u01, 4,40,movements,el-ex, rt, d,204648.5264132917, -1.4352146242942232, 0.24265162139898322, 0.26801362609369117, -0.15992456674575806, 0.2939339578151703, 0.24007177352905273, -0.9617959260940552, -0.24027740955352783, -0.13120688498020172, -0.03551840782165527, -0.012499630451202393, 0.022304654121398926, 0.177574434106239, -0.6347155902676457, 0.7517715879502681,0.02104361442376107,-1.036529541015625,-0.25225830078125,-0.1237030029296875
20220223-1405,2022-02-23 14:05:21Z,u01, 5,40,movements,el-ex, rt, d,204648.55135829168, -1.425716594990922, 0.23630443680559624, 0.2618700275596513, -0.29175233840942383, 0.32076749205589294, 0.21297790110111237, -0.9619959592819214, -0.23411136865615845, -0.14055363833904266, -0.08085048198699951, 0.01774182915687561, -0.028498753905296326, 0.17320209644515114, -0.6322374694492134, 0.7548562571778961,0.021648512847458834,-1.022186279296875,-0.194976806640625,-0.1910400390625
20220223-1405,2022-02-23 14:05:21Z,u01, 6,40,movements,el-ex, rt, d,204648.5763032917, -1.4178817519817541, 0.23026501476839387, 0.2588950184480434, -0.007817026227712631, 0.24677130579948425, 0.19973665475845337, -0.9622451066970825, -0.22823555767536163, -0.14829899370670319, -0.041187942028045654, 0.07607492804527283, -0.04048299789428711, 0.16995175472760987, -0.63005309525702, 0.7573720753605705,0.02317096376294292,-1.0048370361328125,-0.143951416015625,-0.18817138671875
20220223-1405,2022-02-23 14:05:21Z,u01, 7,40,movements,el-ex, rt, d,204648.60124929168, -1.4137159923131795, 0.2259373262468729, 0.26326045388490066, 0.2324317991733551, 0.19990098476409912, 0.16385802626609802, -0.9625856280326843, -0.22401995956897736, -0.1524592787027359, -0.05059778690338135, 0.07649803161621094, -0.045371174812316895, 0.16967491344455984, -0.6284749663674998, 0.7586320432096686,0.026589514485795385,-1.026611328125,-0.1444091796875,-0.1843414306640625
20220223-1405,2022-02-23 14:05:21Z,u01, 8,40,movements,el-ex, rt, d,204648.6261942917, -1.4100374737494157, 0.22364293817872874, 0.26867004150811535, 0.14288966357707977, 0.18168017268180847, 0.09037741273641586, -0.9625231027603149, -0.22178329527378082, -0.15608099102973938, -0.06192135810852051, 0.047863662242889404, 7.486343383789062e-05, 0.17047202026887495, -0.6268163974430513, 0.7597092932194871,0.02970172364900381,-1.0198974609375,-0.178192138671875,-0.1518707275390625
20220223-1405,2022-02-23 14:05:21Z,u01, 9,40,movements,el-ex, rt, d,204648.65114029168, -1.4061919854403118, 0.2221996122249534, 0.2707837748396111, 0.05847957357764244, 0.1377294957637787, 0.07836069166660309, -0.9622305035591125, -0.2203756868839264, -0.15983347594738007, -0.036472320556640625, 0.044121503829956055, 0.019147172570228577, 0.1705403398789954, -0.6252993346955201, 0.7608789437326932,0.03130134304438986,-0.98175048828125,-0.193145751953125,-0.1651153564453125
20220223-1405,2022-02-23 14:05:21Z,u01, 10,40,movements,el-ex, rt, d,204648.6760852917, -1.404888978165401, 0.21969174729603372, 0.27559153570067385, 0.2986336648464203, 0.06529836356639862, 0.14658282697200775, -0.9625634551048279, -0.21792879700660706, -0.1611778885126114, -0.0029819607734680176, 0.019640877842903137, -0.06364533305168152, 0.1710914086667777, -0.6246109071520201, 0.7612023542202458,0.03405446170638293,-0.966278076171875,-0.1969146728515625,-0.229644775390625
20220223-1405,2022-02-23 14:05:21Z,u01, 11,40,movements,el-ex, rt, d,204648.70103129168, -1.40615069974417, 0.21708083753553453, 0.2861107211585164, 0.4146510064601898, 0.03105976991355419, 0.1838594377040863, -0.9633240699768066, -0.21537989377975464, -0.1600559949874878, -0.012093782424926758, 0.013155177235603333, -0.047921523451805115, 0.1734314776060054, -0.6244145460236781, 0.7606069234460918,0.038793515804803835,-0.987152099609375,-0.204986572265625,-0.17132568359375
20220223-1405,2022-02-23 14:05:21Z,u01, 12,40,movements,el-ex, rt, d,204648.72597629167, -1.4068685104228529, 0.213630903056181, 0.29395662893319874, 0.09071946889162064, 0.034854911267757416, 0.16723477840423584, -0.9641661047935486, -0.21200965344905853, -0.15948478877544403, -0.02499997615814209, -0.00779317319393158, 0.05561794340610504, 0.17461844505083918, -0.6243124267771425, 0.7602023867889657,0.04283197141772327,-0.9856719970703125,-0.22503662109375,-0.09185791015625
20220223-1405,2022-02-23 14:05:21Z,u01, 13,40,movements,el-ex, rt, d,204648.75092129168, -1.4062908709683202, 0.20839338889700143, 0.2925244221956736, -0.1694125533103943, -0.036561284214258194, 0.2418231964111328, -0.9651561379432678, -0.2068883180618286, -0.16022136807441711, -0.0019306540489196777, -0.03543651103973389, 0.04140089452266693, 0.17221977971523195, -0.6246836502049072, 0.7603759978481373,0.04403449451980018,-0.9622802734375,-0.2573089599609375,-0.1743621826171875
20220223-1405,2022-02-23 14:05:21Z,u01, 14,40,movements,el-ex, rt, d,204648.77586729167, -1.4073754767740236, 0.20186488723628113, 0.2907955982534192, -0.032772742211818695, -0.07015906274318695, 0.22828860580921173, -0.966641366481781, -0.20049670338630676, -0.15939080715179443, -0.012698113918304443, -0.032367631793022156, -0.07538114488124847, 0.16928490902908122, -0.6258172405443367, 0.7600224866792686,0.04539981757672984,-0.982269287109375,-0.2191009521484375,-0.231109619140625
20220223-1405,2022-02-23 14:05:21Z,u01, 15,40,movements,el-ex, rt, d,204648.80081229168, -1.4100248354169793, 0.1960163308654429, 0.29259562670717065, 0.060717031359672546, -0.10120932012796402, 0.2534366548061371, -0.9682011008262634, -0.19476349651813507, -0.15701428055763245, -0.02874690294265747, 0.006851568818092346, -0.01830945909023285, 0.16774397167820965, -0.6271800545514714, 0.759095679523391,0.04775657656440707,-1.0068817138671875,-0.1691436767578125,-0.1271514892578125
20220223-1405,2022-02-23 14:05:21Z,u01, 16,40,movements,el-ex, rt, d,204648.82575829167, -1.4124049922271884, 0.18924666085789008, 0.2922600362674903, -0.18949031829833984, -0.10385523736476898, 0.29789087176322937, -0.9698519706726074, -0.1881190538406372, -0.1549137979745865, -0.04291951656341553, 0.005105167627334595, 0.07657498121261597, 0.16519000621140392, -0.6286933757239113, 0.7582834719680407,0.049628838214733406,-1.0089569091796875,-0.20294189453125,-0.100799560546875
20220223-1405,2022-02-23 14:05:21Z,u01, 17,40,movements,el-ex, rt, d,204648.85070329168, -1.4140079227676035, 0.18124020396711243, 0.28581591002520434, -0.398992657661438, -0.1075013056397438, 0.23003171384334564, -0.9715556502342224, -0.18024960160255432, -0.15358926355838776, -0.04551881551742554, -0.04777774214744568, 0.011560261249542236, 0.16023571806898426, -0.6304997062561477, 0.7578448146688512,0.04965744886529305,-1.0277862548828125,-0.2273712158203125,-0.167236328125
20220223-1405,2022-02-23 14:05:21Z,u01, 18,40,movements,el-ex, rt, d,204648.87564829167, -1.415438728268118, 0.17443925465385599, 0.27727101061944825, -0.2934744358062744, -0.13149870932102203, 0.18652690947055817, -0.9729629755020142, -0.17355592548847198, -0.1523851603269577, -0.07702469825744629, -0.04063168168067932, -0.02158045768737793, 0.15505185274200708, -0.6322707835974419, 0.7575212286796122,0.0485189353693683,-1.0594329833984375,-0.213104248046875,-0.17236328125
20220223-1405,2022-02-23 14:05:21Z,u01, 19,40,movements,el-ex, rt, d,204648.90059429168, -1.4175705242797891, 0.17060599165756477, 0.2738103445545491, -0.056660231202840805, -0.08408473432064056, 0.07511396706104279, -0.9739359021186829, -0.16977956891059875, -0.15041108429431915, -0.11177253723144531, -0.060078784823417664, 0.009450212121009827, 0.15258644731592338, -0.6336496157791478, 0.7568838964346578,0.048292363743485056,-1.091339111328125,-0.2574920654296875,-0.131103515625
20220223-1405,2022-02-23 14:05:21Z,u01, 20,40,movements,el-ex, rt, d,204648.92553929167, -1.4193345610426449, 0.1694284620586074, 0.2720610045002654, -0.17986448109149933, -0.09644878655672073, -0.014367242343723774, -0.9743967056274414, -0.16861902177333832, -0.14872285723686218, -0.10407912731170654, -0.12094700336456299, 0.02772045135498047, 0.15163761694041192, -0.6345428306203843, 0.7563523205215863,0.04788006545306439,-1.0767974853515625,-0.2976837158203125,-0.1134185791015625
20220223-1405,2022-02-23 14:05:21Z,u01, 21,40,movements,el-ex, rt, d,204648.9504852917, -1.4205268391670676, 0.16947279193902454, 0.2619941004342705, -0.6252774596214294, -0.1280398666858673, -0.09302224218845367, -0.9745659232139587, -0.16866271197795868, -0.14755988121032715, -0.10499322414398193, -0.15023067593574524, 0.05846357345581055, 0.14848446063741252, -0.6357455674094037, 0.7562053236966424,0.0439694468677812,-1.0799713134765625,-0.3199462890625,-0.082305908203125
20220223-1405,2022-02-23 14:05:21Z,u01, 22,40,movements,el-ex, rt, d,204648.97543029167, -1.419950594160147, 0.16794033536324598, 0.24062339601546603, -1.005576491355896, -0.10590560734272003, -0.0405481792986393, -0.9747351408004761, -0.1671520173549652, -0.14816011488437653, -0.1046866774559021, -0.1229480654001236, 0.061718836426734924, 0.1411028121223547, -0.6371890940963401, 0.7568044424451607,0.036427532254000194,-1.0735931396484375,-0.2814788818359375,-0.096160888671875
20220223-1405,2022-02-23 14:05:21Z,u01, 23,40,movements,el-ex, rt, d,204649.00037529168, -1.418348834206841, 0.16463524412119435, 0.21716142054706794, -0.7669780850410461, -0.0861775130033493, 0.009533030912280083, -0.9750372767448425, -0.16389252245426178, -0.14980429410934448, -0.07527077198028564, -0.07869169116020203, 0.01743406057357788, 0.13236357119663267, -0.6384181548796034, 0.757678383489599,0.028731572603469535,-1.0359649658203125,-0.2080841064453125,-0.1529083251953125
20220223-1405,2022-02-23 14:05:21Z,u01, 24,40,movements,el-ex, rt, d,204649.02532129167, -1.4191076507968121, 0.16282434656729725, 0.2066162847251682, -0.0664520114660263, -0.08851702511310577, -0.012958096340298653, -0.9754424691200256, -0.16210584342479706, -0.14910897612571716, -0.057699501514434814, 0.001705467700958252, -0.013916194438934326, 0.12832902642862126, -0.6395132337895053, 0.7575720189596049,0.025277913040560318,-1.033416748046875,-0.1498870849609375,-0.16009521484375
20220223-1405,2022-02-23 14:05:21Z,u01, 25,40,movements,el-ex, rt, d,204649.05026629168, -1.4216284438977842, 0.16477563076890395, 0.21132974907290855, 0.3970135748386383, -0.029124673455953598, -0.09729095548391342, -0.9755007028579712, -0.1640309989452362, -0.1466023474931717, -0.06047952175140381, 0.0077962726354599, 0.008601590991020203, 0.13059711650990785, -0.6400337666104753, 0.7567109553225386,0.026262311784849113,-1.0333709716796875,-0.1622772216796875,-0.1312713623046875
20220223-1405,2022-02-23 14:05:21Z,u01, 26,40,movements,el-ex, rt, d,204649.07521229167, -1.4242330372518217, 0.16939430094519514, 0.22106934818489496, 0.39948880672454834, -0.059518396854400635, -0.16287942230701447, -0.9751191735267639, -0.16858534514904022, -0.14394886791706085, -0.04306912422180176, -0.017983809113502502, 0.03785426914691925, 0.1354687982489162, -0.6400576329974117, 0.755761524863009,0.028262189917820424,-1.0233306884765625,-0.192169189453125,-0.1000213623046875
20220223-1405,2022-02-23 14:05:21Z,u01, 27,40,movements,el-ex, rt, d,204649.1001572917, -1.4272172107211571, 0.17581028040059207, 0.2279410664112078, 0.19841733574867249, -0.07542625814676285, -0.25031179189682007, -0.9744539856910706, -0.17490598559379578, -0.14088065922260284, -0.06834685802459717, -0.016286656260490417, 0.048747822642326355, 0.14009298629611083, -0.6402605932846501, 0.7547351627138723,0.028551047052571887,-1.0538177490234375,-0.1871490478515625,-0.1010894775390625
20220223-1405,2022-02-23 14:05:21Z,u01, 28,40,movements,el-ex, rt, d,204649.12510229167, -1.4296982205670157, 0.18280997775444133, 0.23064811522927062, 0.14062756299972534, -0.08536884188652039, -0.299612432718277, -0.9735644459724426, -0.1817934364080429, -0.1382870227098465, -0.0957561731338501, 0.0038760006427764893, 0.00024056434631347656, 0.14358737055915746, -0.6404991468736515, 0.7539290181744714,0.027100683047830254,-1.0742034912109375,-0.179351806640625,-0.1473236083984375
20220223-1405,2022-02-23 14:05:21Z,u01, 29,40,movements,el-ex, rt, d,204649.1500475, -1.4329387188996427, 0.19221439736763687, 0.233599362424342, 0.1909848153591156, -0.125467911362648, -0.4245949685573578, -0.9722710251808167, -0.19103297591209412, -0.13489055633544922, -0.12163150310516357, 0.003822922706604004, -0.009244218468666077, 0.1480506147263027, -0.6408086568148554, 0.7528784352263432,0.024886721025814684,-1.10760498046875,-0.2084808349609375,-0.1316986083984375
20220223-1405,2022-02-23 14:05:21Z,u01, 30,40,movements,el-ex, rt, d,204649.17499250002, -1.437251966920599, 0.2045375173777865, 0.2371297044615147, 0.23280447721481323, -0.16319046914577484, -0.5087899565696716, -0.9704367518424988, -0.2031143456697464, -0.1303723007440567, -0.14575880765914917, -0.03853905200958252, 0.012330055236816406, 0.1537728722229078, -0.6412236363113121, 0.7514715449724549,0.021831335187887213,-1.1109619140625,-0.244781494140625,-0.1181640625
20220223-1405,2022-02-23 14:05:21Z,u01, 31,40,movements,el-ex, rt, d,204649.1999385, -1.4429751714992942, 0.21907170001172024, 0.24146831717912362, 0.26859480142593384, -0.22116461396217346, -0.6182504296302795, -0.9681365489959717, -0.21732360124588013, -0.1244267076253891, -0.13742363452911377, -0.05362671613693237, 0.007284760475158691, 0.16055514224513293, -0.6418790325494776, 0.7495876933239342,0.01820959454718496,-1.1053009033203125,-0.2946014404296875,-0.122344970703125
20220223-1405,2022-02-23 14:05:21Z,u01, 32,40,movements,el-ex, rt, d,204649.22488350002, -1.4506708054307542, 0.23577246180307676, 0.24555312568291934, 0.248042494058609, -0.3109571039676666, -0.6483796238899231, -0.9653271436691284, -0.23359414935112, -0.1165214404463768, -0.1573839783668518, -0.06595110893249512, -0.00423683226108551, 0.16802485471696685, -0.6430450424686496, 0.7470452658827219,0.0135684106325909,-1.12872314453125,-0.2954864501953125,-0.11932373046875
20220223-1405,2022-02-23 14:05:21Z,u01, 33,40,movements,el-ex, rt, d,204649.2498285, -1.4603701273853393, 0.25218970217232417, 0.25178032855679516, 0.3992881178855896, -0.3395146429538727, -0.6071213483810425, -0.9624701738357544, -0.24952499568462372, -0.10671603679656982, -0.17154765129089355, -0.008607923984527588, -0.006428122520446777, 0.17603999288496072, -0.6447107117392532, 0.7438185718482763,0.009584638426592629,-1.12762451171875,-0.266632080078125,-0.1091461181640625
20220223-1405,2022-02-23 14:05:21Z,u01, 34,40,movements,el-ex, rt, d,204649.27477450002, -1.4714899527628214, 0.2681064920345197, 0.2598584074403537, 0.26336318254470825, -0.3532741069793701, -0.6420990228652954, -0.9595234394073486, -0.26490604877471924, -0.09560126811265945, -0.15774035453796387, -0.04362666606903076, 0.023365899920463562, 0.18442066365496088, -0.6466748691749169, 0.7401092148190623,0.006244879605370401,-1.1126251220703125,-0.3173370361328125,-0.05963134765625
20220223-1405,2022-02-23 14:05:21Z,u01, 35,40,movements,el-ex, rt, d,204649.2997195, -1.4809845202240222, 0.28418741580278994, 0.2607960360597105, -0.0421748012304306, -0.3927139937877655, -0.6478469967842102, -0.9560210704803467, -0.2803775668144226, -0.08609358221292496, -0.12312614917755127, -0.0680263340473175, 0.03905045986175537, 0.19048450234730396, -0.6485899024712062, 0.7369170196412177,0.00028137259730864894,-1.0668792724609375,-0.3504791259765625,-0.038970947265625
20220223-1405,2022-02-23 14:05:21Z,u01, 36,40,movements,el-ex, rt, d,204649.32466550003, -1.4903981427382675, 0.29999567343006733, 0.2569122670819651, -0.07744108140468597, -0.4008982479572296, -0.6633391976356506, -0.952251672744751, -0.29551607370376587, -0.07672469317913055, -0.1126590371131897, -0.012482494115829468, 0.03233660012483597, 0.19481719213455667, -0.6509100675248218, 0.7336942968051526,-0.0074077420462088095,-1.06689453125,-0.2886810302734375,-0.044677734375
20220223-1405,2022-02-23 14:05:21Z,u01, 37,40,movements,el-ex, rt, d,204649.3496105, -1.4996440827876378, 0.3151914759143546, 0.2567666518996663, 0.14393258094787598, -0.34674713015556335, -0.5682861804962158, -0.9483312368392944, -0.3099985122680664, -0.06758999824523926, -0.10251080989837646, 0.08178812265396118, 0.015786178410053253, 0.2000810338106828, -0.6528189508480231, 0.7304870354711313,-0.013545346412968062,-1.0323333740234375,-0.220947265625,-0.0612030029296875
20220223-1405,2022-02-23 14:05:21Z,u01, 38,40,movements,el-ex, rt, d,204649.37455550002, -1.5099939226362016, 0.3290980296820723, 0.26174161551408875, 0.24399253726005554, -0.35182082653045654, -0.5591915845870972, -0.944585382938385, -0.3231895864009857, -0.057503942400217056, -0.07493048906326294, 0.04287043213844299, -0.028311729431152344, 0.20649674852344826, -0.6546809307974587, 0.7269416608551799,-0.01754092324859685,-1.0187225341796875,-0.29498291015625,-0.0894927978515625
20220223-1405,2022-02-23 14:05:21Z,u01, 39,40,movements,el-ex, rt, d,204649.3995015, -1.5209178938707797, 0.3442785617051954, 0.26675517219660155, 0.2065257579088211, -0.38060182332992554, -0.6341131925582886, -0.9401484727859497, -0.337517648935318, -0.04693206027150154, -0.08141219615936279, 0.011071175336837769, -0.028065092861652374, 0.21330509534841188, -0.6565324868781391, 0.7231722252017534,-0.022089554672059808,-1.0252838134765625,-0.3296661376953125,-0.046600341796875
20220223-1405,2022-02-23 14:05:21Z,u01, 40,40,movements,el-ex, rt, d,204649.42444650002, -1.5314735448519405, 0.3604754413910085, 0.26979931615779473, 0.0830983966588974, -0.35241591930389404, -0.635296106338501, -0.935005784034729, -0.35271915793418884, -0.03678598999977112, -0.09447407722473145, 0.006131082773208618, 0.04391157627105713, 0.21975340014336242, -0.6582670031380102, 0.7194607740712542,-0.027732861143934334,-1.0267333984375,-0.356689453125,0.010833740234375
20220223-1405,2022-02-23 14:05:21Z,u01, 41,40,movements,el-ex, rt, d,204649.4493925, -1.5393462416783001, 0.37581979377597025, 0.2692880847302357, -0.10781842470169067, -0.2988261878490448, -0.5766812562942505, -0.9297469258308411, -0.36703523993492126, -0.029250264167785645, -0.07272487878799438, 0.004120230674743652, 0.03130996227264404, 0.22470992435388365, -0.6594545606832358, 0.716561937777168,-0.03411764456255531,-0.976898193359375,-0.3508148193359375,-0.006103515625
20220223-1405,2022-02-23 14:05:21Z,u01, 42,40,movements,el-ex, rt, d,204649.47433750003, -1.5451034874613057, 0.38865112015674486, 0.2644333817435042, -0.2090630829334259, -0.30246713757514954, -0.5037994980812073, -0.9251155853271484, -0.37894049286842346, -0.023774076253175735, -0.03348726034164429, 0.03488534688949585, -0.01213008165359497, 0.22736368093618836, -0.660619949769629, 0.7142886548229318,-0.040972031527148095,-0.9621734619140625,-0.349822998046875,-0.0370025634765625
20220223-1405,2022-02-23 14:05:21Z,u01, 43,40,movements,el-ex, rt, d,204649.4992825, -1.548936483493404, 0.4011691628316589, 0.2561486985783428, -0.38905230164527893, -0.24162907898426056, -0.498186320066452, -0.9203850030899048, -0.3904949426651001, -0.020122677087783813, -0.059870004653930664, 0.028236091136932373, -0.004383206367492676, 0.22878198377317246, -0.6615115003994064, 0.712521315709099,-0.048729966123800844,-0.982147216796875,-0.365631103515625,-0.0176239013671875
20220223-1405,2022-02-23 14:05:22Z,u01, 44,40,movements,el-ex, rt, d,204649.5242285, -1.5494512644773288, 0.4125047566124301, 0.24468095786765537, -0.37460094690322876, -0.1804179847240448, -0.4318009614944458, -0.9159107208251953, -0.4009052515029907, -0.01955314166843891, -0.03948771953582764, 0.04603162407875061, -0.012032806873321533, 0.2288109951072046, -0.6617166750869289, 0.7117213047141662,-0.05682637488206249,-0.946533203125,-0.352081298828125,-0.038177490234375
20220223-1405,2022-02-23 14:05:22Z,u01, 45,40,movements,el-ex, rt, d,204649.5491735, -1.551174983818887, 0.4231600297572704, 0.23733417531135403, -0.15083466470241547, -0.19122344255447388, -0.44653165340423584, -0.9116201400756836, -0.4106437861919403, -0.017889507114887238, -0.027481794357299805, 0.05288633704185486, -0.02945875935256481, 0.22993091261282667, -0.6619569635336744, 0.7105850340768821,-0.06335220750639808,-0.945770263671875,-0.3637542724609375,-0.043487548828125
20220223-1405,2022-02-23 14:05:22Z,u01, 46,40,movements,el-ex, rt, d,204649.5741195, -1.5541046950683768, 0.433351870485591, 0.23455305939730303, -0.07263707369565964, -0.12557998299598694, -0.3693329989910126, -0.9074368476867676, -0.41991519927978516, -0.015148008242249489, -0.04164445400238037, 0.05085092782974243, -0.03415334224700928, 0.23235279506871884, -0.6621466411297618, 0.7091672008126488,-0.0682335469541972,-0.9451751708984375,-0.3653717041015625,-0.04620361328125
20220223-1405,2022-02-23 14:05:22Z,u01, 47,40,movements,el-ex, rt, d,204649.5990645, -1.5558316353456234, 0.44176292691899116, 0.23148292924195416, -0.1425057351589203, -0.13689914345741272, -0.31747931241989136, -0.9038980007171631, -0.4275338053703308, -0.013527564704418182, -0.023180127143859863, 0.053678303956985474, -0.031211435794830322, 0.23410711312922722, -0.6621405269319526, 0.7081760968017881,-0.07245870497978771,-0.923797607421875,-0.3810882568359375,-0.032501220703125
20220223-1405,2022-02-23 14:05:22Z,u01, 48,40,movements,el-ex, rt, d,204649.62400950002, -1.5578287836186793, 0.44904743912151124, 0.22712105743838906, -0.16173622012138367, -0.14766617119312286, -0.2782667875289917, -0.9007850289344788, -0.43410760164260864, -0.011681623756885529, -0.02972620725631714, 0.030909448862075806, -0.02658766508102417, 0.23503623460571377, -0.6625082312887647, 0.7070682312406558,-0.07677964744840429,-0.9287261962890625,-0.3973388671875,-0.03460693359375
20220223-1405,2022-02-23 14:05:22Z,u01, 49,40,movements,el-ex, rt, d,204649.64895550002, -1.5588698862557775, 0.455177195492696, 0.22197318295128382, -0.21382734179496765, -0.12541832029819489, -0.23127232491970062, -0.8981191515922546, -0.4396214783191681, -0.010711872018873692, -0.01287621259689331, 0.06369078159332275, -0.022522032260894775, 0.23534731202265122, -0.6627636883266532, 0.7062699546358122,-0.08086140341373241,-0.90496826171875,-0.3660736083984375,-0.0279693603515625
20220223-1405,2022-02-23 14:05:22Z,u01, 50,40,movements,el-ex, rt, d,204649.6739005, -1.5577335419109202, 0.46083202872917967, 0.2136729786224544, -0.367186039686203, -0.06659501791000366, -0.22421447932720184, -0.8956061601638794, -0.44469350576400757, -0.011699776165187359, -0.010796189308166504, 0.05255800485610962, -0.0015908470377326012, 0.23454284878329526, -0.6626762136790891, 0.7060572763599325,-0.08563165712600856,-0.9056549072265625,-0.3991546630859375,-0.0147552490234375
20220223-1405,2022-02-23 14:05:22Z,u01, 51,40,movements,el-ex, rt, d,204649.69884650002, -1.5539314373240949, 0.46538343947649397, 0.20303358032029228, -0.35145530104637146, -0.03649550676345825, -0.1671382188796997, -0.8935223817825317, -0.44876548647880554, -0.01507058460265398, 0.001188516616821289, 0.03647303581237793, -0.027745842933654785, 0.23271793917292366, -0.6620476329629693, 0.7066396276427181,-0.09052978457397329,-0.885528564453125,-0.401947021484375,-0.0531768798828125
20220223-1405,2022-02-23 14:05:22Z,u01, 52,40,movements,el-ex, rt, d,204649.7237915, -1.5523057155196227, 0.4688525891385109, 0.19622134954173898, -0.10152367502450943, -0.09343421459197998, -0.12141153961420059, -0.8919349312782288, -0.45186299085617065, -0.016494302079081535, 0.02511364221572876, 0.08466023206710815, -0.02154606766998768, 0.2317079098102213, -0.6618642562957369, 0.7066965301894454,-0.09395328377243622,-0.869049072265625,-0.365997314453125,-0.0308074951171875
20220223-1405,2022-02-23 14:05:22Z,u01, 53,40,movements,el-ex, rt, d,204649.7487365, -1.5548169470709918, 0.47263879413438326, 0.19368411589010331, -0.15560485422611237, -0.12455132603645325, -0.1755537986755371, -0.8902562856674194, -0.45523735880851746, -0.014226953499019146, -0.017412662506103516, 0.084845632314682, 0.00826048944145441, 0.2320247956120342, -0.6626092493798075, 0.7055563053279378,-0.0964552306573328,-0.935577392578125,-0.3894805908203125,-0.009765625
20220223-1405,2022-02-23 14:05:22Z,u01, 54,40,movements,el-ex, rt, d,204649.7736825, -1.5527793458874617, 0.47586167975651694, 0.186354955969036, -0.32693129777908325, -0.009843054227530956, -0.1273057758808136, -0.8887537717819214, -0.45810455083847046, -0.01601439341902733, -0.02031886577606201, 0.0470024049282074, -0.0264968853443861, 0.23078382881019646, -0.6623681967180561, 0.7057068272600449,-0.09992411793445283,-0.8964996337890625,-0.40667724609375,-0.042755126953125
20220223-1405,2022-02-23 14:05:22Z,u01, 55,40,movements,el-ex, rt, d,204649.79862750001, -1.5499244052967482, 0.47893968844774776, 0.17767022232577293, -0.24958154559135437, -0.09420700371265411, -0.13993428647518158, -0.8872907161712646, -0.4608384370803833, -0.018522150814533234, 0.02614569664001465, 0.0653001070022583, -0.033785223960876465, 0.22909374173273983, -0.6620082942301397, 0.7060465081776933,-0.10372736533644367,-0.868804931640625,-0.3947906494140625,-0.03277587890625
20220223-1405,2022-02-23 14:05:22Z,u01, 56,40,movements,el-ex, rt, d,204649.8235735, -1.549477007883866, 0.48270213564923514, 0.17171546709895436, -0.20712946355342865, -0.05507325008511543, -0.170219287276268, -0.8855423927307129, -0.4641742706298828, -0.01888202130794525, -0.030503511428833008, 0.05833637714385986, -0.00020694546401500702, 0.22841934697699134, -0.6621054228901815, 0.705673353524866,-0.1070791518192665,-0.9262847900390625,-0.4117584228515625,-0.015472412109375
20220223-1405,2022-02-23 14:05:22Z,u01, 57,40,movements,el-ex, rt, d,204649.84851850002, -1.5468365180398524, 0.4862577681238165, 0.16539535066508268, -0.23297731578350067, 0.008073762059211731, -0.11422659456729889, -0.8838338255882263, -0.4673207104206085, -0.021180542185902596, -0.032532453536987305, 0.04543057084083557, -0.010908957570791245, 0.22767614422092178, -0.6614932364908597, 0.7060013726475564,-0.11023647530811276,-0.8867645263671875,-0.417236328125,-0.0460662841796875
20220223-1405,2022-02-23 14:05:22Z,u01, 58,40,movements,el-ex, rt, d,204649.8734635, -1.5454384073108247, 0.48839000255137566, 0.1602461416440144, -0.1342766284942627, -0.08018060028553009, -0.10151386260986328, -0.8828054666519165, -0.46920472383499146, -0.022390909492969513, 0.015205979347229004, 0.05003055930137634, -0.03733217716217041, 0.2267746308368242, -0.6613454560045319, 0.706052259492554,-0.1126304284943645,-0.8778228759765625,-0.4262542724609375,-0.0485992431640625
20220223-1405,2022-02-23 14:05:22Z,u01, 59,40,movements,el-ex, rt, d,204649.89840950002, -1.5447999268767176, 0.49037364741870737, 0.15592190797166985, -0.1973254382610321, -0.008638639003038406, -0.05976361781358719, -0.8818588852882385, -0.4709555506706238, -0.022930322214961052, -0.023994386196136475, 0.014885574579238892, 0.0028342586010694504, 0.22605469197019554, -0.661388021690007, 0.7058991057567148,-0.11476767185039619,-0.908966064453125,-0.458526611328125,-0.0003509521484375
20220223-1405,2022-02-23 14:05:22Z,u01, 60,40,movements,el-ex, rt, d,204649.9233545, -1.5394787015947162, 0.4910973950560966, 0.14556334190044404, -0.5209827423095703, 0.045731328427791595, -0.013871295377612114, -0.8813832998275757, -0.4715938866138458, -0.027611859142780304, 0.0031180381774902344, 0.04030430316925049, 0.027306437492370605, 0.223187415510047, -0.6605917407026265, 0.7070102066056131,-0.11807770306287224,-0.8675689697265625,-0.4271697998046875,-0.01251220703125
20220223-1405,2022-02-23 14:05:22Z,u01, 61,40,movements,el-ex, rt, d,204649.94830050002, -1.531382770315031, 0.4903517069394338, 0.13013665745479983, -0.46680521965026855, 0.02273479476571083, 0.032615646719932556, -0.8814820051193237, -0.4709361791610718, -0.03476034104824066, 0.028485357761383057, 0.054081469774246216, -0.0037683211266994476, 0.21832760313877958, -0.6595095809111455, 0.7088023896765978,-0.12238937283446796,-0.85723876953125,-0.4288177490234375,-0.0533447265625
20220223-1405,2022-02-23 14:05:22Z,u01, 62,40,movements,el-ex, rt, d,204649.9732455, -1.5269621839327951, 0.4886210610222395, 0.12230958915264901, -0.105898916721344, 0.03554120659828186, 0.0694725289940834, -0.8821327090263367, -0.4694087505340576, -0.03869231790304184, 0.01450282335281372, 0.04851040244102478, -0.008213400840759277, 0.21542452353278063, -0.6589735325207807, 0.7098916206601539,-0.12409650888305002,-0.8681640625,-0.42596435546875,-0.0445098876953125
20220223-1405,2022-02-23 14:05:22Z,u01, 63,40,movements,el-ex, rt, d,204649.99819050002, -1.524641751713199, 0.4865384637214857, 0.12038569424122836, -0.11979871988296509, 0.04739394038915634, 0.06179204210639, -0.8830150961875916, -0.46756884455680847, -0.04078415036201477, 0.02325880527496338, 0.031137049198150635, -0.00517558678984642, 0.21421608806540493, -0.6585737561360948, 0.7106756395733752,-0.12382252951458092,-0.85711669921875,-0.433746337890625,-0.03631591796875
20220223-1405,2022-02-23 14:05:22Z,u01, 64,40,movements,el-ex, rt, d,204650.0231365, -1.5199744170535272, 0.4843802131217999, 0.11218588434938209, -0.45420214533805847, 0.055044934153556824, 0.09378539770841599, -0.8838210105895996, -0.4656599462032318, -0.044956184923648834, 0.01793062686920166, 0.043617188930511475, 0.04561209678649902, 0.21106132353248772, -0.6580083778602163, 0.7118463481971709,-0.12551017644167295,-0.8658294677734375,-0.424346923828125,-0.0059661865234375
20220223-1405,2022-02-23 14:05:22Z,u01, 65,40,movements,el-ex, rt, d,204650.04808150002, -1.5114944257085874, 0.480341507880761, 0.09880802649418591, -0.423230916261673, 0.12411507964134216, 0.1611870676279068, -0.8852781653404236, -0.46208205819129944, -0.05256030708551407, 0.023873865604400635, 0.026977747678756714, 0.022240877151489258, 0.20579675374864767, -0.6567857667302046, 0.7140645338908314,-0.1280308943946321,-0.8574981689453125,-0.4371490478515625,-0.0623779296875
20220223-1405,2022-02-23 14:05:22Z,u01, 66,40,movements,el-ex, rt, d,204650.0730265, -1.5050613853041637, 0.474754073931211, 0.09285920442702444, -0.0027312873862683773, 0.13019654154777527, 0.21177127957344055, -0.8874841928482056, -0.45711973309516907, -0.05842289328575134, 0.03880572319030762, 0.02045905590057373, -0.02399003505706787, 0.20230153211546137, -0.6556391101023324, 0.7161870815918242,-0.12762222595867145,-0.8513031005859375,-0.43536376953125,-0.092071533203125
20220223-1405,2022-02-23 14:05:22Z,u01, 67,40,movements,el-ex, rt, d,204650.09797250002, -1.502938798090183, 0.4703083870138595, 0.09514992771281675, 0.07713035494089127, 0.13747116923332214, 0.16474539041519165, -0.8893768191337585, -0.45316120982170105, -0.06044371426105499, 0.007907271385192871, 0.013754010200500488, 0.016040392220020294, 0.20162640828543213, -0.6550762809826194, 0.7173374650357908,-0.12509448401040515,-0.8916778564453125,-0.451751708984375,-0.039337158203125
20220223-1405,2022-02-23 14:05:22Z,u01, 68,40,movements,el-ex, rt, d,204650.1229175, -1.4978280663830024, 0.4650867149223886, 0.09379187047596162, -0.21304261684417725, 0.22179457545280457, 0.24127477407455444, -0.8914042115211487, -0.44850030541419983, -0.06515990197658539, 0.012345492839813232, -1.6421079635620117e-05, 0.04629982262849808, 0.19966294441329055, -0.6538767149224312, 0.71928594893876,-0.12331897043157886,-0.869110107421875,-0.4456939697265625,-0.0354461669921875
20220223-1405,2022-02-23 14:05:22Z,u01, 69,40,movements,el-ex, rt, d,204650.14786387503, -1.4878157390351727, 0.4573122666604344, 0.08524054798325234, -0.3582443296909332, 0.21452167630195618, 0.3293244242668152, -0.8941549062728882, -0.44153815507888794, -0.07436827570199966, 0.07790142297744751, 0.04761740565299988, 0.0028196051716804504, 0.19473920351967478, -0.6518377909059155, 0.7225646437683415,-0.12281800163306766,-0.7809295654296875,-0.38201904296875,-0.1093597412109375
20220223-1405,2022-02-23 14:05:22Z,u01, 70,40,movements,el-ex, rt, d,204650.172808875, -1.4826016909903232, 0.44988869806986953, 0.07963327794869582, -0.07433813065290451, 0.06554025411605835, 0.22208350896835327, -0.896995484828949, -0.4348652958869934, -0.07931594550609589, 0.056556761264801025, 0.02232879400253296, 0.010971546173095703, 0.19059261982270312, -0.6511654792213432, 0.7244337568387923,-0.12187520666693152,-0.8650665283203125,-0.4189453125,-0.051177978515625
20220223-1405,2022-02-23 14:05:22Z,u01, 71,40,movements,el-ex, rt, d,204650.19775387502, -1.479926240206142, 0.44408773279156877, 0.07918563719423956, -0.05639268457889557, 0.2037881314754486, 0.25253650546073914, -0.8992772102355957, -0.4296342730522156, -0.08194306492805481, -0.032195448875427246, -0.00821658968925476, 0.07348949462175369, 0.18854003378105372, -0.650754272376235, 0.7256758382861055,-0.11985813361169517,-0.9463653564453125,-0.4216156005859375,-0.00738525390625
20220223-1405,2022-02-23 14:05:22Z,u01, 72,40,movements,el-ex, rt, d,204650.222699875, -1.4721055336976336, 0.4357151730762369, 0.07733388742685181, -0.053689610213041306, 0.30867800116539, 0.38268059492111206, -0.9021570682525635, -0.4220588505268097, -0.08932478725910187, 0.03553414344787598, 0.05789262056350708, -0.0018009617924690247, 0.18540546976917882, -0.6488161655160427, 0.7286748473284754,-0.11702718419686584,-0.840911865234375,-0.3487396240234375,-0.1160125732421875
20220223-1405,2022-02-23 14:05:22Z,u01, 73,40,movements,el-ex, rt, d,204650.24764487502, -1.466902714009571, 0.42783940974200496, 0.07987991117620959, 0.1491783857345581, 0.1906580924987793, 0.2862304151058197, -0.9049580693244934, -0.41490593552589417, -0.09435910731554031, 0.09721899032592773, 0.10609865188598633, -0.009980723261833191, 0.18370007848300085, -0.6473598138211161, 0.7310311674286629,-0.11301671776793829,-0.830108642578125,-0.33551025390625,-0.0582733154296875
20220223-1405,2022-02-23 14:05:22Z,u01, 74,40,movements,el-ex, rt, d,204650.272590875, -1.4643543651963302, 0.42124194678596905, 0.0849140979951489, 0.12154768407344818, 0.2571580111980438, 0.2666282057762146, -0.9074167013168335, -0.4088941514492035, -0.09695365279912949, -0.03562194108963013, -0.024302780628204346, 0.09240628778934479, 0.18309408110010125, -0.64652898807317, 0.7325618541024022,-0.1087643939515183,-0.961334228515625,-0.449371337890625,-0.00775146484375
20220223-1405,2022-02-23 14:05:22Z,u01, 75,40,movements,el-ex, rt, d,204650.29753587503, -1.4569724611018626, 0.4137044738992555, 0.08942519946229545, 0.10725969821214676, 0.404636949300766, 0.3411296308040619, -0.9097127318382263, -0.40200403332710266, -0.10399653017520905, -0.01905912160873413, -0.034015774726867676, 0.03667449951171875, 0.18222084108335007, -0.6440475926888766, 0.7356576282358752,-0.10395173685245332,-0.8780975341796875,-0.3707427978515625,-0.0861663818359375
20220223-1405,2022-02-23 14:05:22Z,u01, 76,40,movements,el-ex, rt, d,204650.322480875, -1.450407055800166, 0.40584619113919473, 0.0949968798961651, 0.174602672457695, 0.34004873037338257, 0.3206249475479126, -0.9121183156967163, -0.39479634165763855, -0.11034286767244339, 0.06134951114654541, 0.0971127450466156, 0.012533791363239288, 0.18149736857858295, -0.6417844438336521, 0.7385293024227695,-0.09872014405899701,-0.8586883544921875,-0.291961669921875,-0.079833984375
20220223-1405,2022-02-23 14:05:22Z,u01, 77,40,movements,el-ex, rt, d,204650.347426875, -1.4438630789721663, 0.3976922356271807, 0.09981851593281058, 0.06285807490348816, 0.34291860461235046, 0.3428804874420166, -0.9145398736000061, -0.38729172945022583, -0.1167130172252655, 0.05020582675933838, 0.034081339836120605, 0.04740738868713379, 0.1803924513072762, -0.6396108619124874, 0.7413379152709165,-0.09367272746697661,-0.8730010986328125,-0.376068115234375,-0.052520751953125
20220223-1405,2022-02-23 14:05:22Z,u01, 78,40,movements,el-ex, rt, d,204650.372371875, -1.4366352460607603, 0.3890365366895885, 0.10286576667278016, 0.15633775293827057, 0.3452466130256653, 0.3703860342502594, -0.9169602394104004, -0.379297137260437, -0.12376382201910019, 0.03262197971343994, -0.031072676181793213, 0.014159679412841797, 0.17853719641795548, -0.6373716026886578, 0.7442777157669745,-0.08906469077186382,-0.891265869140625,-0.40380859375,-0.108184814453125
20220223-1405,2022-02-23 14:05:22Z,u01, 79,40,movements,el-ex, rt, d,204650.39731687502, -1.4297791574871397, 0.3808824578778741, 0.11108293184436445, 0.3004966974258423, 0.4443375766277313, 0.37484022974967957, -0.9191218018531799, -0.37173983454704285, -0.13047799468040466, 0.029504001140594482, 0.02687603235244751, 0.02626025676727295, 0.17845920384068686, -0.6347545327149582, 0.7472578231803378,-0.08273257969516823,-0.8570404052734375,-0.3084564208984375,-0.115692138671875
20220223-1405,2022-02-23 14:05:22Z,u01, 80,40,movements,el-ex, rt, d,204650.422262875, -1.4230774278643976, 0.3726598209407744, 0.11884128604384561, 0.10043930262327194, 0.3036503493785858, 0.34072527289390564, -0.9212188720703125, -0.36409395933151245, -0.13707995414733887, 0.1131136417388916, 0.09891155362129211, 0.03469325602054596, 0.178163291765232, -0.6322324428627655, 0.7501189094171736,-0.07655939405436873,-0.81292724609375,-0.262542724609375,-0.0970306396484375
20220223-1405,2022-02-23 14:05:22Z,u01, 81,40,movements,el-ex, rt, d,204650.44720787503, -1.4172345780913467, 0.36488755356675495, 0.12037532465848297, -0.04294022545218468, 0.2686918377876282, 0.26028263568878174, -0.9231710433959961, -0.3568442463874817, -0.14288869500160217, 0.06906044483184814, 0.016359716653823853, 0.026723340153694153, 0.17600195249529488, -0.6305386332399725, 0.7524113540790089,-0.07294756712015124,-0.890625,-0.3296966552734375,-0.1397857666015625
20220223-1405,2022-02-23 14:05:22Z,u01, 82,40,movements,el-ex, rt, d,204650.47215387502, -1.410393480799957, 0.35905156006904526, 0.12183191294173208, 0.17894655466079712, 0.2583024501800537, 0.22025571763515472, -0.9242120385169983, -0.3513864278793335, -0.14953087270259857, 0.05067700147628784, 0.06139323115348816, -0.012731313705444336, 0.17454680032576758, -0.6283056394387918, 0.7549021970719865,-0.06991414800138138,-0.877685546875,-0.2910003662109375,-0.1694488525390625
20220223-1405,2022-02-23 14:05:22Z,u01, 83,40,movements,el-ex, rt, d,204650.497098875, -1.4071388580111486, 0.35530997974386214, 0.13196956302976937, 0.4156671166419983, 0.3281572163105011, 0.1839049756526947, -0.9250113368034363, -0.3478809893131256, -0.15275120735168457, 0.014824628829956055, -0.0031626522541046143, -0.03412342071533203, 0.1764499884628835, -0.6264900644155664, 0.7564413118923694,-0.06459230803047006,-0.914459228515625,-0.3770294189453125,-0.1700286865234375
20220223-1405,2022-02-23 14:05:22Z,u01, 84,40,movements,el-ex, rt, d,204650.522043875, -1.401665738621717, 0.3504422215205269, 0.14021174670275452, 0.06761864572763443, 0.2963429093360901, 0.3349376916885376, -0.9258195757865906, -0.34331318736076355, -0.15809473395347595, 0.0777972936630249, -0.006021469831466675, -0.006654605269432068, 0.17739032448886333, -0.6240875806619132, 0.7586280091531417,-0.059420063482203106,-0.8344268798828125,-0.3368988037109375,-0.162994384765625
20220223-1405,2022-02-23 14:05:23Z,u01, 85,40,movements,el-ex, rt, d,204650.546989875, -1.3959793528958244, 0.34150776442349046, 0.1384373951005221, -0.25537440180778503, 0.1472289115190506, 0.2963848412036896, -0.9278894066810608, -0.3349081575870514, -0.16388370096683502, 0.08449035882949829, -0.02426844835281372, 0.03923444449901581, 0.17367754042121122, -0.6228115749112572, 0.7607390069082622,-0.05672791585922571,-0.887969970703125,-0.39837646484375,-0.1243133544921875
20220223-1405,2022-02-23 14:05:23Z,u01, 86,40,movements,el-ex, rt, d,204650.571934875, -1.3872931073742674, 0.3334540840160837, 0.1317078679335159, -0.34413084387779236, 0.3188540041446686, 0.3017141819000244, -0.9290526509284973, -0.3273088037967682, -0.17242386937141418, 0.050482213497161865, 0.018211573362350464, 0.041732072830200195, 0.16881955958162959, -0.6207157307749112, 0.763595870948605,-0.05597486731680215,-0.852996826171875,-0.298004150390625,-0.1404266357421875
20220223-1405,2022-02-23 14:05:23Z,u01, 87,40,movements,el-ex, rt, d,204650.596880875, -1.3801507885085749, 0.32648053308634284, 0.13101090724266248, 0.1807873696088791, 0.27893587946891785, 0.18929201364517212, -0.9300159215927124, -0.3207114636898041, -0.17948316037654877, 0.1054617166519165, 0.0055107176303863525, -0.015478596091270447, 0.16618008977756366, -0.6185811174653943, 0.7660856245307487,-0.053424770050756604,-0.8256683349609375,-0.33203125,-0.1732940673828125
20220223-1405,2022-02-23 14:05:23Z,u01, 88,40,movements,el-ex, rt, d,204650.62182587502, -1.3757474444376923, 0.323261589362631, 0.14004306126041144, 0.316439151763916, 0.2912035882472992, 0.18946844339370728, -0.9302246570587158, -0.3176608979701996, -0.18377573788166046, 0.12010514736175537, -0.021847128868103027, 0.03994619846343994, 0.16786899909371664, -0.6163863491249164, 0.7678075968788837,-0.048572386955330366,-0.8054656982421875,-0.330657958984375,-0.1332244873046875
20220223-1405,2022-02-23 14:05:23Z,u01, 89,40,movements,el-ex, rt, d,204650.646770875, -1.3719629228136268, 0.31993132441559724, 0.14727660570160214, 0.17729347944259644, 0.26989611983299255, 0.17313414812088013, -0.9305543303489685, -0.3145013749599457, -0.18750278651714325, 0.09910309314727783, -0.034375548362731934, 0.05162304639816284, 0.16892759611906843, -0.6145828465267541, 0.7692711958018954,-0.044419644271675884,-0.8683319091796875,-0.3637542724609375,-0.1438751220703125
20220223-1405,2022-02-23 14:05:23Z,u01, 90,40,movements,el-ex, rt, d,204650.67171687502, -1.365776704926799, 0.3165960103540153, 0.15189652039993384, 0.18991822004318237, 0.2787589430809021, 0.16081522405147552, -0.9303983449935913, -0.311333566904068, -0.19346822798252106, 0.07944643497467041, -0.05396178364753723, -0.0026227086782455444, 0.1692168837445662, -0.6120715064874438, 0.7713933308538815,-0.041063834167442526,-0.8438873291015625,-0.367218017578125,-0.2078094482421875
20220223-1405,2022-02-23 14:05:23Z,u01, 91,40,movements,el-ex, rt, d,204650.696661875, -1.3620545912320812, 0.3144990534141849, 0.159473999668005, 0.34082257747650146, 0.24414540827274323, 0.13626953959465027, -0.9303085207939148, -0.30934011936187744, -0.19706480205059052, 0.08280503749847412, -0.0682843029499054, -0.013171002268791199, 0.1708116672093692, -0.6101565129869244, 0.7727556559881149,-0.03716158831303268,-0.861083984375,-0.4132080078125,-0.2052459716796875
20220223-1405,2022-02-23 14:05:23Z,u01, 92,40,movements,el-ex, rt, d,204650.721606875, -1.3582491062721787, 0.3121302459696807, 0.16929943087754443, 0.3016589879989624, 0.3001587390899658, 0.22164581716060638, -0.930265486240387, -0.30708664655685425, -0.20075765252113342, 0.08312821388244629, -0.1470300853252411, 0.0043310075998306274, 0.17297304245043024, -0.6080308399439452, 0.774167943080263,-0.03228970962027161,-0.8347320556640625,-0.4467010498046875,-0.202301025390625
20220223-1405,2022-02-23 14:05:23Z,u01, 93,40,movements,el-ex, rt, d,204650.746552875, -1.3534721323347574, 0.30671080400829265, 0.17423667863922024, 0.030295439064502716, 0.1962745040655136, 0.28242215514183044, -0.9309074282646179, -0.30192458629608154, -0.2055550515651703, 0.1354973316192627, -0.09155377745628357, -0.0070458948612213135, 0.17248890535061157, -0.6061930803656832, 0.7758728817439013,-0.028262985119664963,-0.8021087646484375,-0.38421630859375,-0.2258453369140625
20220223-1405,2022-02-23 14:05:23Z,u01, 94,40,movements,el-ex, rt, d,204650.77149787502, -1.3480157110600939, 0.2987689403567217, 0.1740059521203719, -0.16435034573078156, 0.2055548131465912, 0.3453318774700165, -0.9320810437202454, -0.2943439185619354, -0.2111544907093048, 0.14361387491226196, -0.1112651526927948, -0.012524276971817017, 0.1694726565287098, -0.6047328121427402, 0.7777736390421732,-0.025400620438888855,-0.77166748046875,-0.4225921630859375,-0.223724365234375
20220223-1405,2022-02-23 14:05:23Z,u01, 95,40,movements,el-ex, rt, d,204650.796443875, -1.3442305667102814, 0.2906194243958945, 0.17138990656599665, -0.1246032640337944, 0.024578502401709557, 0.2531927525997162, -0.9335817694664001, -0.2865457236766815, -0.21521276235580444, 0.1824985146522522, -0.1529531478881836, 0.007647216320037842, 0.16562067638134673, -0.6041220171675986, 0.7791349775040091,-0.02355815969335734,-0.7736358642578125,-0.4509124755859375,-0.2177886962890625
20220223-1405,2022-02-23 14:05:23Z,u01, 96,40,movements,el-ex, rt, d,204650.82138887502, -1.3426041954128753, 0.28295779223716794, 0.17085675354336746, -0.0364232063293457, 0.14071416854858398, 0.3584006726741791, -0.9353415369987488, -0.2791970372200012, -0.21722108125686646, 0.09566575288772583, -0.1227041482925415, -0.02240312099456787, 0.1625499930151816, -0.6041249514193427, 0.7798455284872138,-0.021244998575451923,-0.8342132568359375,-0.3924102783203125,-0.2411651611328125
20220223-1405,2022-02-23 14:05:23Z,u01, 97,40,movements,el-ex, rt, d,204650.846333875, -1.33779937611209, 0.2747940615370941, 0.17203681824090905, -0.16867953538894653, 0.21997562050819397, 0.27718326449394226, -0.936473548412323, -0.2713487446308136, -0.22223158180713654, 0.14513766765594482, -0.11222663521766663, 0.005800724029541016, 0.1598266722382327, -0.6027766090836228, 0.7815348645219672,-0.01785777453834192,-0.7552032470703125,-0.3893585205078125,-0.1854705810546875
20220223-1405,2022-02-23 14:05:23Z,u01, 98,40,movements,el-ex, rt, d,204650.87127987502, -1.3313893101689065, 0.26622525386579987, 0.16173670045625815, -0.777074933052063, 0.03364383429288864, 0.17978079617023468, -0.9372542500495911, -0.2630915641784668, -0.22877280414104462, 0.20982223749160767, -0.11084026098251343, 0.0677465945482254, 0.15349044104361653, -0.6017094679980544, 0.7836041182637963,-0.018730028645859487,-0.7418212890625,-0.355010986328125,-0.166534423828125
20220223-1405,2022-02-23 14:05:23Z,u01, 99,40,movements,el-ex, rt, d,204650.896224875, -1.3255665740775495, 0.25847774655190875, 0.13958688678291536, -0.9359455108642578, 0.02301342785358429, 0.01726658269762993, -0.93785560131073, -0.2556091547012329, -0.23471412062644958, 0.1377306580543518, -0.0333312451839447, 0.03523576259613037, 0.1438981832547513, -0.6016113773683087, 0.7853356935908221,-0.024594286387224384,-0.82257080078125,-0.2269439697265625,-0.2244720458984375
20220223-1405,2022-02-23 14:05:23Z,u01, 100,40,movements,el-ex, rt, d,204650.92116987502, -1.3197191377392417, 0.25586273393509384, 0.11840045894619435, -0.5862302780151367, -0.0018278714269399643, -0.2276727259159088, -0.9371113777160645, -0.2530801594257355, -0.2403593808412552, 0.1006094217300415, 0.09383946657180786, -0.020352482795715332, 0.13659624043078816, -0.6009673687971221, 0.7868762394611963,-0.03170844259500888,-0.8469390869140625,-0.1779632568359375,-0.270751953125
20220223-1405,2022-02-23 14:05:23Z,u01, 101,40,movements,el-ex, rt, d,204650.946115875, -1.3167032143290682, 0.2622737871675008, 0.11170911175424253, 0.11685184389352798, 0.1319747269153595, -0.3513128459453583, -0.9347925186157227, -0.25927725434303284, -0.2427716702222824, 0.04644119739532471, 0.012893617153167725, -0.03982126712799072, 0.13713274614518645, -0.5998406223490531, 0.7874532578895899,-0.036097917945796865,-0.8875732421875,-0.2785186767578125,-0.27734375
20220223-1405,2022-02-23 14:05:23Z,u01, 102,40,movements,el-ex, rt, d,204650.97106087502, -1.3145196735769378, 0.2710977712827326, 0.11584966109290862, 0.2615072727203369, 0.08033443987369537, -0.2651523947715759, -0.9320105910301208, -0.2677892744541168, -0.24422277510166168, 0.07553505897521973, -0.043596744537353516, -0.048135846853256226, 0.1418471176053824, -0.5981371117226596, 0.7878714165859004,-0.037010491348692554,-0.85772705078125,-0.319244384765625,-0.2978973388671875
20220223-1405,2022-02-23 14:05:23Z,u01, 103,40,movements,el-ex, rt, d,204650.996006875, -1.3134328808984856, 0.27795686139833004, 0.11709678209612935, -0.07154913246631622, 0.015527946874499321, -0.22132374346256256, -0.9299465417861938, -0.2743915021419525, -0.24476227164268494, 0.050277531147003174, -0.04827079176902771, -0.042896613478660583, 0.1449091604120794, -0.5971768550097436, 0.7879696287252093,-0.038534203570335324,-0.8846435546875,-0.3306732177734375,-0.2903900146484375
20220223-1405,2022-02-23 14:05:23Z,u01, 104,40,movements,el-ex, rt, d,204651.02095187502, -1.3123298454028272, 0.2826114992781013, 0.1118575236339552, -0.16981881856918335, -0.020999368280172348, -0.25219103693962097, -0.9284310936927795, -0.2788645029067993, -0.24545878171920776, 0.026926815509796143, -0.0002492070198059082, -0.06630901992321014, 0.14517865624290674, -0.5968197136437446, 0.7880168044001064,-0.04193733573868763,-0.8980255126953125,-0.2666168212890625,-0.315460205078125
20220223-1405,2022-02-23 14:05:23Z,u01, 105,40,movements,el-ex, rt, d,204651.045896875, -1.31191394142179, 0.28836997348248283, 0.10868006409214637, 0.05957183614373207, -0.04773843660950661, -0.2682572305202484, -0.9267613291740417, -0.2843898832798004, -0.24542975425720215, 0.05313467979431152, 0.03149077296257019, -0.09291890263557434, 0.1464808422637013, -0.596513609951859, 0.787843715697908,-0.04491252168815962,-0.85791015625,-0.249237060546875,-0.3438720703125
20220223-1405,2022-02-23 14:05:23Z,u01, 106,40,movements,el-ex, rt, d,204651.07084287502, -1.3158755904673065, 0.29617097539543874, 0.109342777796944, 0.18911680579185486, -0.2676670253276825, -0.2951710820198059, -0.9255512952804565, -0.29186004400253296, -0.24118952453136444, 0.056288719177246094, -0.026834994554519653, -0.09873074293136597, 0.14961961573201038, -0.5975108451965683, 0.7863556550610614,-0.047322639314852255,-0.89459228515625,-0.34088134765625,-0.333892822265625
20220223-1405,2022-02-23 14:05:23Z,u01, 107,40,movements,el-ex, rt, d,204651.095787875, -1.3219931262671907, 0.30414665404824964, 0.11306807162961863, 0.21207205951213837, -0.14714965224266052, -0.2002677321434021, -0.9247238039970398, -0.29947909712791443, -0.2349422425031662, -0.015141129493713379, -0.032033294439315796, -0.061246275901794434, 0.15367821933635428, -0.5990925478043376, 0.7842787786135217,-0.048762058907882544,-0.90185546875,-0.3025970458984375,-0.2819671630859375
20220223-1405,2022-02-23 14:05:23Z,u01, 108,40,movements,el-ex, rt, d,204651.12073287502, -1.32820709567307, 0.30983728844505876, 0.11574944099713623, 0.042916059494018555, -0.2939649224281311, -0.2559800148010254, -0.9244966506958008, -0.30490368604660034, -0.22877846658229828, 0.08146393299102783, 0.014651060104370117, -0.03175032138824463, 0.1565273279009138, -0.6009242547675893, 0.7822372566680812,-0.04994028874034079,-0.847747802734375,-0.2934417724609375,-0.255645751953125
20220223-1405,2022-02-23 14:05:23Z,u01, 109,40,movements,el-ex, rt, d,204651.14567891668, -1.3340326289390776, 0.315301648407313, 0.11033827257205904, -0.316996306180954, -0.29654496908187866, -0.2572593688964844, -0.9241802096366882, -0.31010326743125916, -0.22299478948116302, 0.06802499294281006, 0.01476946473121643, -0.019086122512817383, 0.15685132176877561, -0.6032414653801075, 0.7801028095532958,-0.054193016814685024,-0.8555755615234375,-0.269317626953125,-0.2285919189453125
20220223-1405,2022-02-23 14:05:23Z,u01, 110,40,movements,el-ex, rt, d,204651.17062391667, -1.3391640513486278, 0.31992618457651534, 0.10087605800045411, -0.17471134662628174, -0.34855517745018005, -0.3361981511116028, -0.9239065647125244, -0.3144964873790741, -0.21791794896125793, 0.07187134027481079, 0.02050548791885376, -0.03907081484794617, 0.15562303673254477, -0.605658728447266, 0.7780705163457171,-0.059707798349310004,-0.863983154296875,-0.29840087890625,-0.25213623046875
20220223-1405,2022-02-23 14:05:23Z,u01, 111,40,movements,el-ex, rt, d,204651.1955699167, -1.3468911469021354, 0.3300352943348778, 0.09858218397468187, 0.2029780000448227, -0.3237378001213074, -0.42520689964294434, -0.9224156737327576, -0.32407641410827637, -0.21005572378635406, 0.03008192777633667, 0.01032528281211853, -0.012341365218162537, 0.1585621131708729, -0.6081366595025807, 0.7751699168202939,-0.06433690252885557,-0.904754638671875,-0.301605224609375,-0.2070159912109375
20220223-1405,2022-02-23 14:05:23Z,u01, 112,40,movements,el-ex, rt, d,204651.22051491667, -1.355956075223687, 0.341174043103093, 0.10522438520659831, 0.3980996608734131, -0.24290241301059723, -0.368499219417572, -0.920697808265686, -0.33459368348121643, -0.2009034901857376, 0.03310954570770264, 0.0773458480834961, 0.06006470322608948, 0.16453947132798857, -0.6103073122724512, 0.7720750581795006,-0.06596680987440753,-0.880584716796875,-0.250885009765625,-0.131683349609375
20220223-1405,2022-02-23 14:05:23Z,u01, 113,40,movements,el-ex, rt, d,204651.24545991668, -1.3631525545269827, 0.35131927634653914, 0.10949078354168543, 0.014280852861702442, -0.2231077253818512, -0.37686240673065186, -0.9187508225440979, -0.3441368043422699, -0.19356279075145721, 0.05434060096740723, 0.030889153480529785, 0.06226068735122681, 0.16945295614405428, -0.6119675618388445, 0.7695090233933569,-0.06809645518957896,-0.8758392333984375,-0.3431396484375,-0.138763427734375
20220223-1405,2022-02-23 14:05:23Z,u01, 114,40,movements,el-ex, rt, d,204651.27040591667, -1.3657021520784407, 0.3587094840142607, 0.10208028360545093, -0.299528032541275, -0.2390536069869995, -0.3232627511024475, -0.9167263507843018, -0.35106614232063293, -0.19069655239582062, 0.05335366725921631, 0.005195260047912598, 0.025062203407287598, 0.16989057756226034, -0.6130162423083083, 0.7680814580045774,-0.07347810645634328,-0.8660736083984375,-0.332672119140625,-0.1743621826171875
20220223-1405,2022-02-23 14:05:23Z,u01, 115,40,movements,el-ex, rt, d,204651.29535091668, -1.3689694219900843, 0.3660549639208248, 0.09515448070325809, -0.08143778145313263, -0.2028852105140686, -0.32730942964553833, -0.9147933125495911, -0.3579345643520355, -0.1871783435344696, 0.03364419937133789, 0.049127280712127686, 0.01922464370727539, 0.17041793210665546, -0.6143033080976148, 0.7664154042660789,-0.07871738975870801,-0.883087158203125,-0.310333251953125,-0.1569061279296875
20220223-1405,2022-02-23 14:05:23Z,u01, 116,40,movements,el-ex, rt, d,204651.32029591667, -1.3725055106999406, 0.3729809835821084, 0.0923356832332798, -0.03195418789982796, -0.2084106057882309, -0.2868175506591797, -0.9129971265792847, -0.36439308524131775, -0.1834496259689331, 0.07307720184326172, 0.05276286602020264, 0.033394455909729004, 0.17202267806907007, -0.6153725551358078, 0.7648238924960054,-0.08227452161587662,-0.830810546875,-0.3206329345703125,-0.1547088623046875
20220223-1405,2022-02-23 14:05:23Z,u01, 117,40,movements,el-ex, rt, d,204651.3452419167, -1.3785254235006097, 0.38159266328101565, 0.09036641376741908, 0.003033224493265152, -0.2720330059528351, -0.3804692029953003, -0.9109708070755005, -0.37239906191825867, -0.1773439347743988, 0.045492470264434814, 0.009026318788528442, 0.014578238129615784, 0.1744033977063923, -0.6171802691957924, 0.7623852735140302,-0.08625833456538201,-0.90386962890625,-0.40582275390625,-0.16387939453125
20220223-1405,2022-02-23 14:05:23Z,u01, 118,40,movements,el-ex, rt, d,204651.37018691667, -1.3839024647725013, 0.3880048372059048, 0.08971580166942489, 0.03453778848052025, -0.24211576581001282, -0.1444464772939682, -0.9095463156700134, -0.37834230065345764, -0.1719958633184433, 0.030044972896575928, -0.04338008165359497, 0.014250263571739197, 0.17637256999697284, -0.6187849247381044, 0.7603135359945608,-0.0890013689758967,-0.867462158203125,-0.413360595703125,-0.134796142578125
20220223-1405,2022-02-23 14:05:23Z,u01, 119,40,movements,el-ex, rt, d,204651.39513191668, -1.3911811249473476, 0.3907009813378242, 0.08855316774825088, -0.14059767127037048, -0.3127335011959076, -0.06807128340005875, -0.9097670316696167, -0.3808366656303406, -0.1651882380247116, 0.025276243686676025, -0.02413150668144226, 0.053600504994392395, 0.1766930985663074, -0.6214381970250169, 0.7578417201024464,-0.09093894026658134,-0.9164581298828125,-0.41693115234375,-0.1125946044921875
20220223-1405,2022-02-23 14:05:23Z,u01, 120,40,movements,el-ex, rt, d,204651.42007791667, -1.3935351352314165, 0.3900980275832046, 0.08128403317502965, -0.36649706959724426, -0.13270719349384308, 0.020928164944052696, -0.9103791117668152, -0.3802790939807892, -0.16308662295341492, 0.028970658779144287, 0.023727089166641235, -0.012145504355430603, 0.174097777452225, -0.6230141670246568, 0.7568105128785142,-0.09370655563460789,-0.8455810546875,-0.3374176025390625,-0.198638916015625
20220223-1405,2022-02-23 14:05:23Z,u01, 121,40,movements,el-ex, rt, d,204651.44502291668, -1.3966547641089362, 0.38884348522004636, 0.07314038323528407, -0.22624117136001587, -0.4187282919883728, -0.07061347365379333, -0.9113527536392212, -0.37911850214004517, -0.16032834351062775, 0.18132662773132324, 0.07195913791656494, -0.07760214805603027, 0.1709401622974578, -0.6249922316388534, 0.7555274127110834,-0.09665602778209251,-0.6839752197265625,-0.290557861328125,-0.16943359375
20220223-1405,2022-02-23 14:05:23Z,u01, 122,40,movements,el-ex, rt, d,204651.46996891667, -1.4140857125153408, 0.3934255152961886, 0.06845378903423183, -0.1909455955028534, -0.9028770923614502, -0.3077753782272339, -0.9122834205627441, -0.38335445523262024, -0.14414642751216888, 0.04398214817047119, 0.0371021032333374, 0.09022164344787598, 0.1703086198276678, -0.6316025348777481, 0.7495313521613799,-0.1013700556813075,-0.9516754150390625,-0.3627166748046875,-0.0392913818359375
20220223-1405,2022-02-23 14:05:23Z,u01, 123,40,movements,el-ex, rt, d,204651.4949139167, -1.422274147155519, 0.39657195592010114, 0.05667365692726004, -0.5096338391304016, -0.16695377230644226, -0.0026998668909072876, -0.9122357368469238, -0.38625863194465637, -0.13649234175682068, -0.16241014003753662, 0.01113659143447876, 0.10118329524993896, 0.16731356710793863, -0.6354211213142179, 0.7461197879339635,-0.10747730259936111,-0.9893951416015625,-0.3424072265625,-0.105010986328125
20220223-1405,2022-02-23 14:05:23Z,u01, 124,40,movements,el-ex, rt, d,204651.51985891667, -1.4225309917680917, 0.39563750097476835, 0.047478016098235924, -0.18333083391189575, -0.2696599066257477, -0.16611115634441376, -0.9126272797584534, -0.3853965103626251, -0.13631129264831543, 0.1643822193145752, 0.1360526978969574, -0.08663511276245117, 0.16403051266381982, -0.6363476629163692, 0.7455985354237822,-0.1106271854007004,-0.7109832763671875,-0.240020751953125,-0.1931610107421875
20220223-1405,2022-02-23 14:05:24Z,u01, 125,40,movements,el-ex, rt, d,204651.5448049167, -1.439089661155215, 0.40336382498810575, 0.04671890010504821, 0.11364282667636871, -0.9166439175605774, -0.40509092807769775, -0.9117801189422607, -0.3925144076347351, -0.12078674137592316, 0.14557528495788574, 0.096295565366745, 0.04194436967372894, 0.16570025785853013, -0.6419891387787316, 0.7397439173425597,-0.1147705596959637,-0.941741943359375,-0.3489990234375,-0.0162506103515625
20220223-1405,2022-02-23 14:05:24Z,u01, 126,40,movements,el-ex, rt, d,204651.56974991667, -1.4515923021030874, 0.4111990050218145, 0.04372862167079392, -0.22875726222991943, -0.1747351884841919, -0.14177699387073517, -0.9101371765136719, -0.39970868825912476, -0.10900883376598358, -0.2097051739692688, -0.04360482096672058, 0.09374982863664627, 0.16687013085765426, -0.646258418708085, 0.735005341678442,-0.11946289139638996,-1.07855224609375,-0.4311981201171875,-0.0471038818359375
20220223-1405,2022-02-23 14:05:24Z,u01, 127,40,movements,el-ex, rt, d,204651.59469491668, -1.4526523071245037, 0.4117312000717596, 0.0366029371927455, -0.17149490118026733, -0.25051918625831604, -0.08432701975107193, -0.9100409150123596, -0.40019646286964417, -0.10801894217729568, 0.01854628324508667, 0.04889342188835144, -0.05163395404815674, 0.16469588262029752, -0.6471984214843861, 0.7341946966749455,-0.12234174024075781,-0.8184051513671875,-0.3464508056640625,-0.19439697265625
20220223-1405,2022-02-23 14:05:24Z,u01, 128,40,movements,el-ex, rt, d,204651.61964091667, -1.4618303150012844, 0.41481491647117286, 0.03536270599734192, -0.012940581887960434, -0.5268682837486267, -0.15810570120811462, -0.9097627997398376, -0.40302056074142456, -0.09952745586633682, 0.08472025394439697, 0.0032861530780792236, -0.007055394351482391, 0.16484895102397665, -0.6504314692773921, 0.7309227632683075,-0.12456104644986918,-0.859619140625,-0.408203125,-0.067352294921875
20220223-1405,2022-02-23 14:05:24Z,u01, 129,40,movements,el-ex, rt, d,204651.64458591669, -1.4710465332867275, 0.41740767837044485, 0.029384435093284533, -0.4422447681427002, -0.2764245569705963, -0.06558076292276382, -0.909598708152771, -0.405392050743103, -0.0910344198346138, -0.06780290603637695, -0.03757047653198242, 0.0794832706451416, 0.1632559727349828, -0.6540873629981716, 0.7273539576338036,-0.12834853503203256,-1.01416015625,-0.4422760009765625,-0.0299530029296875
20220223-1405,2022-02-23 14:05:24Z,u01, 130,40,movements,el-ex, rt, d,204651.66953091667, -1.4669888142127774, 0.4156058161078361, 0.013038362892213683, -0.6232248544692993, -0.07487764954566956, 0.06943611800670624, -0.9099467396736145, -0.40374425053596497, -0.09480007737874985, 0.013340532779693604, 0.019283950328826904, -0.042086705565452576, 0.15752286970514676, -0.6540539034789442, 0.7277432825305153,-0.13337725460966424,-0.8597869873046875,-0.3792572021484375,-0.16021728515625
20220223-1405,2022-02-23 14:05:24Z,u01, 131,40,movements,el-ex, rt, d,204651.6944769167, -1.4693287849820469, 0.41443463300088335, 0.0019633700368994846, -0.18742084503173828, -0.47120702266693115, -0.08591713011264801, -0.9106360673904419, -0.40267249941825867, -0.09271842241287231, 0.09290242195129395, 0.049690961837768555, -0.08005708456039429, 0.15331264212689005, -0.6558475609308959, 0.7263161108691513,-0.13720078885301787,-0.854156494140625,-0.3401947021484375,-0.1106719970703125
20220223-1405,2022-02-23 14:05:24Z,u01, 132,40,movements,el-ex, rt, d,204651.71942191667, -1.4816533711481208, 0.41772167561389184, 0.0007256802640869209, 0.00125220138579607, -0.4047788381576538, -0.1292993575334549, -0.9103860855102539, -0.4056790769100189, -0.08137015998363495, -0.13120907545089722, 0.02562856674194336, 0.10697413980960846, 0.15324214641994566, -0.6601755565162355, 0.7219249391828161,-0.13967529354683603,-1.07708740234375,-0.3864288330078125,0.036163330078125
20220223-1405,2022-02-23 14:05:24Z,u01, 133,40,movements,el-ex, rt, d,204651.7443679167, -1.4823540636575607, 0.41675455557433283, -0.004118575867996476, -0.32067492604255676, 0.14580579102039337, 0.1775466650724411, -0.9108333587646484, -0.40479493141174316, -0.08076686412096024, -0.16260701417922974, 0.003412604331970215, 0.07364077121019363, 0.15124399708005828, -0.6608644505408583, 0.7214276553156038,-0.1411573332923424,-0.9735107421875,-0.3897857666015625,-0.0775299072265625
20220223-1405,2022-02-23 14:05:24Z,u01, 134,40,movements,el-ex, rt, d,204651.76931291667, -1.4766211202397443, 0.41207141581772283, -0.009897916915221284, -0.03678852319717407, 0.0065690092742443085, 0.09330682456493378, -0.9122327566146851, -0.40050819516181946, -0.08616458624601364, 0.1306014060974121, 0.04561939835548401, -0.08247577399015427, 0.14804729158245805, -0.6595450742491721, 0.7232733226013895,-0.14127229839319463,-0.759246826171875,-0.3439483642578125,-0.16668701171875
20220223-1405,2022-02-23 14:05:24Z,u01, 135,40,movements,el-ex, rt, d,204651.79425791668, -1.484811683694222, 0.4121348732774677, -0.006320853172003535, 0.22593657672405243, -0.45680317282676697, -0.06016795337200165, -0.9128825664520264, -0.40056636929512024, -0.07868789881467819, 0.10315978527069092, 0.0860828161239624, 0.011655807495117188, 0.14867506883308937, -0.6622324160221721, 0.7208140177690899,-0.14060940158287763,-0.93511962890625,-0.3184051513671875,0.0163116455078125
20220223-1405,2022-02-23 14:05:24Z,u01, 136,40,movements,el-ex, rt, d,204651.81920391668, -1.4916272345198631, 0.4125882073283908, -0.002987624353526147, -0.07959514111280441, 0.15277567505836487, 0.1022147685289383, -0.9132165908813477, -0.40098169445991516, -0.0724499523639679, -0.1956852674484253, 0.015117496252059937, 0.115601547062397, 0.14946562411984238, -0.6644057866536419, 0.7187529694431164,-0.14006799042943224,-1.0920562744140625,-0.386627197265625,0.0270843505859375
20220223-1405,2022-02-23 14:05:24Z,u01, 137,40,movements,el-ex, rt, d,204651.8441489167, -1.482513184321813, 0.407563838018844, -0.008125554925693728, -0.17948435246944427, 0.2177431732416153, 0.1866033524274826, -0.9145135879516602, -0.3963738977909088, -0.08094653487205505, -0.006659328937530518, 0.03405410051345825, -0.008760146796703339, 0.14658785476335598, -0.661844945731854, 0.7217967234542684,-0.13957999311075564,-0.8249053955078125,-0.3369140625,-0.1653289794921875
20220223-1405,2022-02-23 14:05:24Z,u01, 138,40,movements,el-ex, rt, d,204651.86909391667, -1.4841155694872983, 0.4065940396868599, -0.006404980692934956, 0.3456260561943054, -0.2871228754520416, -0.08454100042581558, -0.9150246381759644, -0.3954833447933197, -0.0795142725110054, 0.0708475112915039, 0.10565799474716187, -0.0420374870300293, 0.1466955554326077, -0.6623618932104989, 0.7214594181637731,-0.13875614418588922,-0.89471435546875,-0.3002777099609375,-0.091461181640625
20220223-1405,2022-02-23 14:05:24Z,u01, 139,40,movements,el-ex, rt, d,204651.8940399167, -1.494220613183095, 0.4088806368194688, 0.009039554896634357, 0.6623717546463013, 0.10119491815567017, 0.07708051800727844, -0.9148774147033691, -0.3975825011730194, -0.07019464671611786, -0.1345304250717163, 0.048598796129226685, 0.05159395933151245, 0.15195193051886774, -0.6646903688832395, 0.7189931072923792,-0.13470761290653488,-1.07061767578125,-0.381866455078125,-0.0261993408203125
20220223-1405,2022-02-23 14:05:24Z,u01, 140,40,movements,el-ex, rt, d,204651.91898491667, -1.4940991703882842, 0.4043766054306867, 0.02596159725935243, 0.5238831043243408, 0.23342812061309814, 0.29744037985801697, -0.9166449904441833, -0.3934457302093506, -0.07044224441051483, 0.033786892890930176, -0.010835796594619751, -0.06382005661725998, 0.15596407833642836, -0.6636671489069967, 0.7204614962493526,-0.1271070100440748,-0.8365936279296875,-0.3979339599609375,-0.1572723388671875
20220223-1405,2022-02-23 14:05:24Z,u01, 141,40,movements,el-ex, rt, d,204651.94392991668, -1.5007215672641374, 0.4008548874686739, 0.0386187822405606, 0.38992637395858765, -0.3054012656211853, 0.05989866331219673, -0.9184679388999939, -0.39020559191703796, -0.06446697562932968, 0.11523014307022095, 0.018272727727890015, -0.10035871714353561, 0.15849727106205613, -0.6653158107369215, 0.7192880761851076,-0.12189339741476787,-0.8729705810546875,-0.35028076171875,-0.0945587158203125
20220223-1405,2022-02-23 14:05:24Z,u01, 142,40,movements,el-ex, rt, d,204651.96887591667, -1.5109942261549423, 0.4001865391692189, 0.04639133397345509, 0.12980686128139496, -0.12688519060611725, 0.09480351954698563, -0.9193419814109802, -0.38959014415740967, -0.05504421517252922, -0.12850958108901978, 0.03343480825424194, 0.06461124867200851, 0.16023054864795233, -0.6684340388952112, 0.7163760568288309,-0.11969729466620763,-1.0655059814453125,-0.3638153076171875,0.0208892822265625
20220223-1405,2022-02-23 14:05:24Z,u01, 143,40,movements,el-ex, rt, d,204651.9938209167, -1.5082064217757265, 0.3960767837187712, 0.04288404994421452, -0.3472478985786438, 0.15317383408546448, 0.1998281329870224, -0.9207750558853149, -0.3858018219470978, -0.057706598192453384, -0.09867978096008301, 0.008650422096252441, 0.054639339447021484, 0.15776466282956084, -0.668024708834799, 0.7173629727851363,-0.119346467308179,-0.9439544677734375,-0.3806915283203125,-0.0566558837890625
20220223-1405,2022-02-23 14:05:24Z,u01, 144,40,movements,el-ex, rt, d,204652.01876691668, -1.5034698691484591, 0.3914306609390587, 0.03539134291630023, -0.08243200927972794, -0.054837025701999664, 0.12579959630966187, -0.9222697019577026, -0.38151127099990845, -0.06218714267015457, 0.07012760639190674, 0.020717322826385498, -0.1051105186343193, 0.15389100648793383, -0.6672510674610725, 0.7187964947668519,-0.12010368554629683,-0.851470947265625,-0.3507080078125,-0.174468994140625
20220223-1405,2022-02-23 14:05:24Z,u01, 145,40,movements,el-ex, rt, d,204652.0437119167, -1.5119733680061405, 0.3888430474116678, 0.04389096040359778, 0.6722623705863953, -0.29081109166145325, 0.12091788649559021, -0.923747718334198, -0.37911808490753174, -0.054400332272052765, 0.02134305238723755, 0.060484111309051514, -0.06841790676116943, 0.15530670548764183, -0.6698355471692707, 0.7166231944248458,-0.11683861123804556,-0.968780517578125,-0.3202056884765625,-0.048095703125
20220223-1405,2022-02-23 14:05:24Z,u01, 146,40,movements,el-ex, rt, d,204652.06865691667, -1.5238370030952193, 0.38577352820648503, 0.06409807858563432, 0.592831552028656, -0.04262050986289978, 0.22839607298374176, -0.9254862070083618, -0.3762759268283844, -0.04349217936396599, -0.11362195014953613, -0.021108686923980713, 0.11795485019683838, 0.16033088787142952, -0.6727168170692329, 0.7139709492047814,-0.10950576298161577,-1.0335540771484375,-0.4234619140625,0.077880859375
20220223-1405,2022-02-23 14:05:24Z,u01, 147,40,movements,el-ex, rt, d,204652.0936029167, -1.5231096698466937, 0.3794851392622341, 0.06868871286639376, -0.292959988117218, 0.20878896117210388, 0.2813294529914856, -0.9277994632720947, -0.37044230103492737, -0.04427722096443176, -0.04374277591705322, -0.09064769744873047, 0.09026700258255005, 0.15969512957172738, -0.6725762814558749, 0.7148241741876951,-0.10566415512685368,-0.9011383056640625,-0.433319091796875,0.0110321044921875
20220223-1405,2022-02-23 14:05:24Z,u01, 148,40,movements,el-ex, rt, d,204652.11854791667, -1.516674117131832, 0.37147180368411253, 0.057284371770846526, -0.37362468242645264, -0.10390038043260574, 0.27651458978652954, -0.9304296374320984, -0.3629872500896454, -0.050406135618686676, 0.10088562965393066, 0.012676060199737549, -0.01400148868560791, 0.15336796479606732, -0.671770199114691, 0.7168385737034894,-0.10651491874830502,-0.8498687744140625,-0.3298797607421875,-0.0603790283203125
20220223-1405,2022-02-23 14:05:24Z,u01, 149,40,movements,el-ex, rt, d,204652.14349275, -1.5185795183626574, 0.366137047226625, 0.052061843131412884, -0.062203869223594666, -0.07096999138593674, 0.19281557202339172, -0.9324446320533752, -0.3580112159252167, -0.048733580857515335, -0.04268348217010498, 0.07280921936035156, 0.05483686923980713, 0.14961743688774748, -0.6732368316405908, 0.7162249875138798,-0.10671706140217793,-1.04742431640625,-0.30462646484375,0.02117919921875
20220223-1405,2022-02-23 14:05:24Z,u01, 150,40,movements,el-ex, rt, d,204652.16843875, -1.5147035779475497, 0.3591102193015371, 0.05257413396863804, 0.010316835716366768, 0.34958529472351074, 0.3496507704257965, -0.9347373843193054, -0.351441353559494, -0.052487049251794815, -0.1061255931854248, -0.0019826292991638184, 0.04496419429779053, 0.14749716583469075, -0.672310242551265, 0.7179533537863051,-0.10385769277152332,-1.0087432861328125,-0.355865478515625,-0.02386474609375
20220223-1405,2022-02-23 14:05:24Z,u01, 151,40,movements,el-ex, rt, d,204652.19338375, -1.5058721407045461, 0.35084133267507783, 0.05359550125582321, 0.055991947650909424, 0.31923115253448486, 0.3195107877254486, -0.9371051788330078, -0.3436880111694336, -0.060926422476768494, 0.034883737564086914, -0.0022743940353393555, -0.002901308238506317, 0.14534102894435386, -0.6696363004253452, 0.7214254999207308,-0.10004129252376051,-0.858154296875,-0.3282012939453125,-0.058013916015625
20220223-1405,2022-02-23 14:05:24Z,u01, 152,40,movements,el-ex, rt, d,204652.21832875002, -1.503363105205619, 0.34423707817169646, 0.05729037276893544, 0.16340592503547668, 0.07562630623579025, 0.24555860459804535, -0.9391937851905823, -0.3374786078929901, -0.06342903524637222, 0.004898130893707275, 0.009658783674240112, 0.05233561247587204, 0.1443377310429472, -0.6689186060614352, 0.7228017271520231,-0.0962923501749676,-0.97161865234375,-0.336517333984375,-0.0033416748046875
20220223-1405,2022-02-23 14:05:24Z,u01, 153,40,movements,el-ex, rt, d,204652.24327475, -1.4980180540837178, 0.3376836105946878, 0.05917617809161156, -0.09746628254652023, 0.4016464948654175, 0.32202649116516113, -0.9410269260406494, -0.3313024044036865, -0.06860748678445816, -0.10732817649841309, -0.0181390643119812, 0.09527956694364548, 0.14287065843281327, -0.6672962090641726, 0.7250188245023028,-0.09301310057969761,-1.032318115234375,-0.363433837890625,0.00518798828125
20220223-1405,2022-02-23 14:05:24Z,u01, 154,40,movements,el-ex, rt, d,204652.26821975003, -1.4851401969080948, 0.32833813338156, 0.05501528695738615, -0.1997135877609253, 0.4964379072189331, 0.38475558161735535, -0.9431089758872986, -0.32247039675712585, -0.08098121732473373, -0.00498044490814209, -0.0034877657890319824, -0.0008060932159423828, 0.13870849901249724, -0.6635279526466789, 0.7295918023953056,-0.09047788972122858,-0.9295806884765625,-0.3117828369140625,-0.1024322509765625
20220223-1405,2022-02-23 14:05:24Z,u01, 155,40,movements,el-ex, rt, d,204652.29316475, -1.474770478823839, 0.3181413598046581, 0.05556348245425213, 0.2161215841770172, 0.2968465983867645, 0.39723095297813416, -0.9454426765441895, -0.312801718711853, -0.09106701612472534, 0.04439592361450195, 0.026043325662612915, -0.06829602271318436, 0.13564854317586597, -0.6603529095294901, 0.7335600431986257,-0.086157740172985,-0.9238433837890625,-0.264434814453125,-0.158721923828125
20220223-1405,2022-02-23 14:05:24Z,u01, 156,40,movements,el-ex, rt, d,204652.31811075, -1.4721447908254883, 0.310599730167191, 0.0667636053360192, 0.5018630027770996, 0.2569986879825592, 0.29647311568260193, -0.947520911693573, -0.3056297302246094, -0.0937788113951683, -0.08110445737838745, 0.04076772928237915, 0.0009594038128852844, 0.1367066383251375, -0.6591068878785113, 0.7352500282803787,-0.07935177681609568,-1.049774169921875,-0.271240234375,-0.07427978515625
20220223-1405,2022-02-23 14:05:24Z,u01, 157,40,movements,el-ex, rt, d,204652.34305575, -1.465900579746731, 0.3038836867782459, 0.07661963247893838, 0.08510372042655945, 0.4773387312889099, 0.32028037309646606, -0.9489367604255676, -0.2992281913757324, -0.09990612417459488, -0.10837507247924805, 0.005664438009262085, 0.06358993798494339, 0.13773747676516307, -0.6565632682681447, 0.737980746161167,-0.07305692325571453,-1.0186004638671875,-0.3058013916015625,-0.0337677001953125
20220223-1405,2022-02-23 14:05:24Z,u01, 158,40,movements,el-ex, rt, d,204652.36800175, -1.4531520100437019, 0.2945692153287045, 0.07341080856220258, -0.3028371334075928, 0.4058758616447449, 0.3626634180545807, -0.9503129720687866, -0.29032763838768005, -0.11231756210327148, 0.03774583339691162, 0.0009294748306274414, -0.012163892388343811, 0.13373141268228095, -0.6526539113205776, 0.7424405027246946,-0.07029178202076966,-0.899993896484375,-0.273162841796875,-0.142578125
20220223-1405,2022-02-23 14:05:24Z,u01, 159,40,movements,el-ex, rt, d,204652.39294675, -1.4454485321071933, 0.285882999503727, 0.06972956601874016, -0.011509166099131107, 0.17934444546699524, 0.29201480746269226, -0.9518855214118958, -0.282004714012146, -0.11994560807943344, 0.024899005889892578, 0.05097150802612305, -0.05607997626066208, 0.12959824912048673, -0.6505624414738889, 0.7451906255393108,-0.06829007948689086,-0.982177734375,-0.2061767578125,-0.1595458984375
20220223-1405,2022-02-23 14:05:24Z,u01, 160,40,movements,el-ex, rt, d,204652.41789175002, -1.4410346942961754, 0.2796919693525458, 0.07505446412820514, 0.31914928555488586, 0.3225332200527191, 0.2761872708797455, -0.9530599117279053, -0.2760595977306366, -0.12436944246292114, -0.10901272296905518, 0.07500982284545898, -0.0003714561462402344, 0.1291853500352529, -0.6489425432701326, 0.7470547589664688,-0.06398296792621122,-1.0627593994140625,-0.206024169921875,-0.1218719482421875
20220223-1405,2022-02-23 14:05:24Z,u01, 161,40,movements,el-ex, rt, d,204652.44283775002, -1.435014778052045, 0.2742148963263146, 0.08594833382855332, 0.42639341950416565, 0.3727009892463684, 0.25123339891433716, -0.9537776708602905, -0.27079126238822937, -0.13030719757080078, -0.07551902532577515, 0.05118685960769653, -0.016207918524742126, 0.13086687612169204, -0.6463128187931342, 0.7495478089052197,-0.05771917800971196,-0.99481201171875,-0.2162322998046875,-0.168609619140625
20220223-1405,2022-02-23 14:05:24Z,u01, 162,40,movements,el-ex, rt, d,204652.46778275, -1.4307016800309713, 0.27032014159949075, 0.10032193701564181, 0.7146563529968262, 0.2939995229244232, 0.2206438034772873, -0.9542440176010132, -0.267039954662323, -0.13456597924232483, -0.006998538970947266, 0.06501364707946777, -0.05862581729888916, 0.13417503191137553, -0.6439829727625966, 0.7514691692343436,-0.05076467034972776,-0.9646148681640625,-0.201812744140625,-0.1983642578125
20220223-1405,2022-02-23 14:05:24Z,u01, 163,40,movements,el-ex, rt, d,204652.49272775, -1.4319566215958435, 0.2679382594264445, 0.1311506909924369, 1.651602029800415, 0.2540443241596222, 0.2562675178050995, -0.9550392627716064, -0.264743834733963, -0.13345599174499512, -0.02056175470352173, 0.0606117844581604, -0.08089971542358398, 0.14317909026237502, -0.6424731509095886, 0.751828963796628,-0.03848522807525373,-0.978302001953125,-0.17950439453125,-0.1798095703125
20220223-1405,2022-02-23 14:05:24Z,u01, 164,40,movements,el-ex, rt, d,204652.51767375, -1.4393304041890447, 0.2694816747827406, 0.18097962772039153, 2.0428574085235596, 0.18815737962722778, 0.15532033145427704, -0.9555911421775818, -0.26623186469078064, -0.12635646760463715, -0.0007075071334838867, 0.08417931199073792, -0.012773379683494568, 0.15963260866456, -0.6413573095984723, 0.7501625359380039,-0.02083943587553888,-0.960205078125,-0.2032470703125,-0.128936767578125
20220223-1405,2022-02-23 14:05:25Z,u01, 165,40,movements,el-ex, rt, d,204652.54261875, -1.448351898493079, 0.27147648374997635, 0.22741447297049536, 1.40110182762146, 0.12743644416332245, 0.16363757848739624, -0.9561630487442017, -0.2681541442871094, -0.11766546964645386, -0.04337894916534424, -0.01453012228012085, -0.0009260624647140503, 0.17518711784680646, -0.6406845873787115, 0.7475351595910601,-0.004867510026197064,-1.0314788818359375,-0.3267364501953125,-0.137176513671875
20220223-1405,2022-02-23 14:05:25Z,u01, 166,40,movements,el-ex, rt, d,204652.56756375002, -1.451256752981881, 0.2685448247744663, 0.25366198471596996, 0.653738796710968, 0.1770559847354889, 0.3039625287055969, -0.9572774171829224, -0.26532870531082153, -0.11498074233531952, -0.07157683372497559, -0.06949490308761597, -0.05204218626022339, 0.18252565051794256, -0.6396827469229835, 0.746631386870472,0.00565128570395429,-1.0168304443359375,-0.3174591064453125,-0.1677093505859375
20220223-1405,2022-02-23 14:05:25Z,u01, 167,40,movements,el-ex, rt, d,204652.59250975001, -1.4539080643579705, 0.2612268193364011, 0.2717356621340345, 0.7944899797439575, -0.052398569881916046, 0.40191805362701416, -0.9594814777374268, -0.2582659423351288, -0.11266570538282394, -0.02722787857055664, -0.018787801265716553, -0.04584287106990814, 0.18567352703739468, -0.6396815539645003, 0.745734439151793,0.014585650424930596,-0.9944000244140625,-0.2484893798828125,-0.1376953125
20220223-1405,2022-02-23 14:05:25Z,u01, 168,40,movements,el-ex, rt, d,204652.61745475003, -1.460987307493103, 0.25650795175607227, 0.2932020009652126, 0.704962968826294, -0.017227400094270706, 0.15536300837993622, -0.9614557027816772, -0.253704309463501, -0.10600291192531586, -0.08891326189041138, 0.04491835832595825, 0.01083364337682724, 0.19091292605451388, -0.6407423810450243, 0.7432695833644798,0.0234846578363454,-1.052703857421875,-0.2140655517578125,-0.0919036865234375
20220223-1405,2022-02-23 14:05:25Z,u01, 169,40,movements,el-ex, rt, d,204652.64239975, -1.4631933604507614, 0.25460484960920043, 0.3059612839467335, 0.2629089057445526, 0.06767883896827698, 0.10467199981212616, -0.9621656537055969, -0.2518630027770996, -0.10393331199884415, -0.06935882568359375, 0.017472803592681885, 0.025335073471069336, 0.1943459782331683, -0.6405177460662124, 0.7423920016886696,0.02864774895397043,-1.01336669921875,-0.240386962890625,-0.071197509765625
20220223-1405,2022-02-23 14:05:25Z,u01, 170,40,movements,el-ex, rt, d,204652.66734575, -1.4627852572090716, 0.2532483283593423, 0.31178689911330476, 0.3006017804145813, 0.08955603837966919, 0.051999062299728394, -0.9624619483947754, -0.2505500018596649, -0.10436270385980606, -0.02868783473968506, 0.017441481351852417, 0.01099395751953125, 0.1957188171250507, -0.6399318661370286, 0.7424293318357627,0.03130394750775156,-0.9901885986328125,-0.219146728515625,-0.0962677001953125
20220223-1405,2022-02-23 14:05:25Z,u01, 171,40,movements,el-ex, rt, d,204652.69229075, -1.4637115905712605, 0.25319023116397227, 0.32528581329785783, 0.7374497056007385, 0.10706352442502975, 0.0664372593164444, -0.9625725746154785, -0.25049373507499695, -0.10347265005111694, -0.023633301258087158, 0.06458067893981934, -0.005231201648712158, 0.2000295678791659, -0.6389458887934295, 0.7419048091825555,0.03624097749097632,-0.9946746826171875,-0.176239013671875,-0.1126861572265625
20220223-1405,2022-02-23 14:05:25Z,u01, 172,40,movements,el-ex, rt, d,204652.71723575002, -1.4651075381545466, 0.2551675249757278, 0.34874279987871, 0.9728315472602844, 0.25327199697494507, -0.0407942533493042, -0.9622217416763306, -0.2524075210094452, -0.10207640379667282, -0.04026532173156738, 0.05013704299926758, 0.018198609352111816, 0.20824432619839148, -0.6368642713172536, 0.7410063338286108,0.04413280746094711,-0.99560546875,-0.20111083984375,-0.0722198486328125
20220223-1405,2022-02-23 14:05:25Z,u01, 173,40,movements,el-ex, rt, d,204652.74218175, -1.463758271603753, 0.2579078364414693, 0.3679978548758662, 0.5010172128677368, 0.22451470792293549, -0.011372650973498821, -0.9613917469978333, -0.2550581395626068, -0.1033003106713295, -0.007617473602294922, 0.03859701752662659, 0.05589105188846588, 0.21530380388280798, -0.6340300593090361, 0.7410131336240859,0.05049267540299335,-0.967132568359375,-0.2425384521484375,-0.040313720703125
20220223-1405,2022-02-23 14:05:25Z,u01, 174,40,movements,el-ex, rt, d,204652.76712675003, -1.4604296112455128, 0.2590875521625967, 0.37549443956053796, 0.16182513535022736, 0.2005009949207306, -0.0011471770703792572, -0.9607427716255188, -0.2561986744403839, -0.10646665841341019, -0.0183371901512146, -0.0181238055229187, 0.03610815107822418, 0.21800853796475156, -0.6318535813055878, 0.7418886593627219,0.0532381720701221,-0.9785919189453125,-0.2784271240234375,-0.0790252685546875
20220223-1405,2022-02-23 14:05:25Z,u01, 175,40,movements,el-ex, rt, d,204652.79207275002, -1.4569347680129332, 0.2586800464960027, 0.3800311643133349, 0.27431005239486694, 0.1696784347295761, 0.09290535002946854, -0.960468590259552, -0.25580474734306335, -0.10983551293611526, -0.013514995574951172, -0.012704193592071533, 0.019808411598205566, 0.21920017889652813, -0.6301059630818541, 0.7428620649067943,0.05544008521390853,-0.966217041015625,-0.25921630859375,-0.0992889404296875
20220223-1405,2022-02-23 14:05:25Z,u01, 176,40,movements,el-ex, rt, d,204652.81701775, -1.4567353557892684, 0.256061856794077, 0.39227299242536057, 0.5845087766647339, 0.10554338991641998, 0.18881456553936005, -0.9611087441444397, -0.25327277183532715, -0.11010288447141647, -0.0052607059478759766, 0.020759373903274536, 0.006297111511230469, 0.2221184130299361, -0.6289769205970464, 0.7425260313504063,0.06088031122303644,-0.9720916748046875,-0.2330474853515625,-0.107025146484375
20220223-1405,2022-02-23 14:05:25Z,u01, 177,40,movements,el-ex, rt, d,204652.84196275, -1.457626198924414, 0.2525875191409452, 0.40716587682794925, 0.4143684506416321, 0.1311911642551422, 0.2198459357023239, -0.9620749950408936, -0.24991020560264587, -0.10934536159038544, -0.024130940437316895, -0.01824772357940674, -0.010833144187927246, 0.22559621602619181, -0.628039543299594, 0.741701540424669,0.06746383655865218,-0.9957733154296875,-0.3012847900390625,-0.1157989501953125
20220223-1405,2022-02-23 14:05:25Z,u01, 178,40,movements,el-ex, rt, d,204652.86690775002, -1.455049320836484, 0.24648992519160082, 0.41022554768964287, -0.20823174715042114, 0.11547932028770447, 0.30550917983055115, -0.9632857441902161, -0.24400149285793304, -0.1119980439543724, -0.02458333969116211, -0.10151851177215576, 0.010648965835571289, 0.2243077190022886, -0.6274448371826362, 0.7422732317419853,0.07091758401072118,-0.982330322265625,-0.3477020263671875,-0.101776123046875
20220223-1405,2022-02-23 14:05:25Z,u01, 179,40,movements,el-ex, rt, d,204652.89185375, -1.45113610670145, 0.23690955845740944, 0.40095811291393435, -0.5272931456565857, 0.0388343371450901, 0.346649169921875, -0.9651168584823608, -0.23469963669776917, -0.11604047566652298, -0.01466512680053711, -0.08947333693504333, 0.02077960968017578, 0.21785550916459867, -0.6281072684557121, 0.7436172345668792,0.07108864532913461,-0.9864654541015625,-0.3020172119140625,-0.09027099609375
20220223-1405,2022-02-23 14:05:25Z,u01, 180,40,movements,el-ex, rt, d,204652.91679875003, -1.4476057007702086, 0.22642057156832618, 0.38799481163251515, -0.5510369539260864, 0.03065483644604683, 0.3589938282966614, -0.9670910835266113, -0.22449089586734772, -0.11974290013313293, -0.031550705432891846, -0.028911784291267395, 0.03513271361589432, 0.20990978205208552, -0.6293380901987449, 0.7449528985650076,0.07011723999040786,-1.001495361328125,-0.2412872314453125,-0.07952880859375
20220223-1405,2022-02-23 14:05:25Z,u01, 181,40,movements,el-ex, rt, d,204652.94174475002, -1.4430878524760897, 0.21627211616450903, 0.37594536557482644, -0.5159932374954224, 0.1368129700422287, 0.3093887269496918, -0.9687501788139343, -0.21459008753299713, -0.12439461052417755, -0.03607141971588135, 0.0049037933349609375, 0.03169727325439453, 0.20231513988214528, -0.6299772038389825, 0.7465752995250372,0.06944448860816571,-1.0026092529296875,-0.1849365234375,-0.0944061279296875
20220223-1405,2022-02-23 14:05:25Z,u01, 182,40,movements,el-ex, rt, d,204652.96668975, -1.4363582091968756, 0.20664952330656702, 0.36425083005127457, -0.4308389127254486, 0.20259711146354675, 0.3343846797943115, -0.9698925614356995, -0.20518186688423157, -0.13118179142475128, -0.011384725570678711, 0.018444806337356567, -0.02383244037628174, 0.19492536103655517, -0.6296135382133927, 0.748893870789825,0.06891128039471561,-0.980682373046875,-0.18780517578125,-0.167022705078125
20220223-1405,2022-02-23 14:05:25Z,u01, 183,40,movements,el-ex, rt, d,204652.99163475, -1.4303358126192016, 0.19775513827200053, 0.3598754682494136, 0.037016723304986954, 0.19788384437561035, 0.31206125020980835, -0.9708536267280579, -0.19646871089935303, -0.13727052509784698, -0.013200879096984863, 0.005642324686050415, -0.06779254972934723, 0.19011024638534804, -0.6286675019400626, 0.7507507997095266,0.07077041570847797,-0.991424560546875,-0.178070068359375,-0.202911376953125
20220223-1405,2022-02-23 14:05:25Z,u01, 184,40,movements,el-ex, rt, d,204653.01658075, -1.4267117216716603, 0.19145875110428184, 0.3663896964348183, 0.31072351336479187, 0.1829797327518463, 0.2649603486061096, -0.9715547561645508, -0.19029119610786438, -0.14096291363239288, -0.026095271110534668, 0.03732183575630188, 1.9669532775878906e-06, 0.18973069051265137, -0.6273123686165156, 0.7515070007932919,0.07562156895708033,-0.998504638671875,-0.1606597900390625,-0.1302032470703125
20220223-1405,2022-02-23 14:05:25Z,u01, 185,40,movements,el-ex, rt, d,204653.04152575, -1.4237771097794685, 0.18624189256199514, 0.37328250581970546, 0.06230207532644272, 0.1505468785762787, 0.233254536986351, -0.9721055626869202, -0.1851670891046524, -0.14395689964294434, -0.026658236980438232, -0.00446908175945282, 0.029851451516151428, 0.18987441658479226, -0.6260744840602906, 0.7520287151076571,0.08019407997446737,-0.9959716796875,-0.2058868408203125,-0.1320343017578125
20220223-1405,2022-02-23 14:05:25Z,u01, 186,40,movements,el-ex, rt, d,204653.06647075003, -1.4202623535769963, 0.17913576207248316, 0.37049197491897007, -0.3214239180088043, 0.10013531148433685, 0.27583441138267517, -0.9728701710700989, -0.17817923426628113, -0.14756633341312408, -0.03224146366119385, -0.060468271374702454, -0.029969945549964905, 0.18626314132219196, -0.625717886623835, 0.7530562229611878,0.08178925831562789,-1.009002685546875,-0.2332000732421875,-0.18316650390625
20220223-1405,2022-02-23 14:05:25Z,u01, 187,40,movements,el-ex, rt, d,204653.09141675002, -1.417022956125292, 0.17151055552121072, 0.363815712593855, -0.22491897642612457, 0.06369148194789886, 0.2677018642425537, -0.9737012982368469, -0.17067094147205353, -0.1509207785129547, -0.04009246826171875, -0.02036908268928528, -0.015446007251739502, 0.18124770899839346, -0.6258505232817566, 0.7541406874813313,0.08204963000154075,-1.014190673828125,-0.1729888916015625,-0.1398162841796875
20220223-1405,2022-02-23 14:05:25Z,u01, 188,40,movements,el-ex, rt, d,204653.11636175, -1.415944717745316, 0.16418152089540947, 0.3627467482456511, 0.017884207889437675, 0.03917362168431282, 0.2653079628944397, -0.9747477769851685, -0.1634449064731598, -0.1521594226360321, -0.04980349540710449, -0.02410086989402771, 0.01336526870727539, 0.17817659602875693, -0.6262374874212675, 0.7543230002264915,0.08412183703306692,-1.028350830078125,-0.1860198974609375,-0.1427764892578125
20220223-1405,2022-02-23 14:05:25Z,u01, 189,40,movements,el-ex, rt, d,204653.14130737502, -1.4147824014637762, 0.15783692071662764, 0.36290382251033537, -0.09508611261844635, 0.04163365066051483, 0.24721556901931763, -0.9755749106407166, -0.15718238055706024, -0.15345031023025513, -0.04688584804534912, -0.04469135403633118, -0.010063111782073975, 0.1758428895491196, -0.62638177270262, 0.7544999968079427,0.08634074237445927,-1.017059326171875,-0.2024078369140625,-0.17547607421875
20220223-1405,2022-02-23 14:05:25Z,u01, 190,40,movements,el-ex, rt, d,204653.166253375, -1.4138478246734238, 0.151978338790153, 0.3598691012790271, -0.19776199758052826, -0.004868801683187485, 0.17993885278701782, -0.9763239026069641, -0.15139396488666534, -0.15450328588485718, -0.04998207092285156, -0.02618783712387085, 0.014946162700653076, 0.17269395358863593, -0.6268374249857592, 0.7547530076478766,0.08717459619714579,-1.030609130859375,-0.17156982421875,-0.12750244140625
20220223-1405,2022-02-23 14:05:25Z,u01, 191,40,movements,el-ex, rt, d,204653.19119837502, -1.413127993722447, 0.14659626906885478, 0.3549578782322837, -0.2433028370141983, 0.00029346905648708344, 0.1872047632932663, -0.9770029783248901, -0.14607176184654236, -0.15533171594142914, -0.05551332235336304, -0.01236020028591156, 0.045590296387672424, 0.1691374230658063, -0.6274764344315716, 0.7550331249636174,0.0871243488597187,-1.025390625,-0.1502838134765625,-0.1085662841796875
20220223-1405,2022-02-23 14:05:25Z,u01, 192,40,movements,el-ex, rt, d,204653.216143375, -1.4126373263633156, 0.14130610281879621, 0.35100426449970923, -0.09199821203947067, -0.004315264523029327, 0.17752324044704437, -0.9776761531829834, -0.14083631336688995, -0.15593062341213226, -0.03582775592803955, -0.0033897459506988525, 0.010163187980651855, 0.16592100044215752, -0.6280962605027552, 0.7552014632182946,0.08738409410403519,-1.0120086669921875,-0.141693115234375,-0.161529541015625
20220223-1405,2022-02-23 14:05:25Z,u01, 193,40,movements,el-ex, rt, d,204653.24108937502, -1.4125547124882336, 0.13732015131230177, 0.3514160062774396, 0.058764562010765076, 0.03384896740317345, 0.14465270936489105, -0.9782097935676575, -0.13688898086547852, -0.1560986042022705, -0.0368962287902832, 0.01405574381351471, -0.0343313068151474, 0.16457317551168738, -0.6283839348864388, 0.7550877055943969,0.08883531953046597,-1.011566162109375,-0.1145782470703125,-0.1854705810546875
20220223-1405,2022-02-23 14:05:25Z,u01, 194,40,movements,el-ex, rt, d,204653.266034375, -1.4130232739885706, 0.13525972825627314, 0.35446684160562536, 0.08862798660993576, 0.04322875291109085, 0.12188120931386948, -0.9785592555999756, -0.13484767079353333, -0.1556842029094696, -0.027910232543945312, -0.01767916977405548, 0.020048633217811584, 0.16479110180395065, -0.6284916778543497, 0.7547389673249378,0.09061445399631995,-1.004730224609375,-0.158477783203125,-0.131011962890625
20220223-1405,2022-02-23 14:05:25Z,u01, 195,40,movements,el-ex, rt, d,204653.29097937502, -1.4141108578266846, 0.1332748904348053, 0.35510733055442273, -0.058531735092401505, -0.02358110435307026, 0.08334533870220184, -0.9789904356002808, -0.13288070261478424, -0.15466131269931793, -0.017850756645202637, -0.05275772511959076, 0.01589764654636383, 0.16430840390763204, -0.629024714771344, 0.7543042814536418,0.09140846470112651,-1.008056640625,-0.17474365234375,-0.154022216796875
20220223-1405,2022-02-23 14:05:25Z,u01, 196,40,movements,el-ex, rt, d,204653.315925375, -1.4140893887448205, 0.13155622691695162, 0.3539506681999311, 0.009499246254563332, -0.02634839341044426, 0.041046611964702606, -0.9792112708091736, -0.13117708265781403, -0.15471774339675903, -0.04547727108001709, -0.01787075400352478, -0.011099755764007568, 0.16330838952274385, -0.6292626599608779, 0.754308286878392,0.09152987303086435,-1.030303955078125,-0.15325927734375,-0.1614990234375
20220223-1405,2022-02-23 14:05:25Z,u01, 197,40,movements,el-ex, rt, d,204653.34087037502, -1.4147367549305527, 0.1310018483642494, 0.3552006214379387, 0.048887431621551514, -0.05199803039431572, -0.025775223970413208, -0.9793828725814819, -0.13062746822834015, -0.15409508347511292, -0.06807172298431396, -0.02710263431072235, 0.001583293080329895, 0.163526573637968, -0.629453349955951, 0.754029052288682,0.09212763951350228,-1.0527191162109375,-0.1532135009765625,-0.1496429443359375
20220223-1405,2022-02-23 14:05:25Z,u01, 198,40,movements,el-ex, rt, d,204653.365815375, -1.416992515490108, 0.13393814223504277, 0.3554111298548775, -0.03641644865274429, -0.0604536309838295, -0.08144734799861908, -0.97934490442276, -0.13353803753852844, -0.15182605385780334, -0.08873969316482544, -0.015494555234909058, 0.014023661613464355, 0.16478037604317275, -0.6300273025848899, 0.7534049836676117,0.0910711912945259,-1.0743408203125,-0.1496734619140625,-0.12811279296875
20220223-1405,2022-02-23 14:05:25Z,u01, 199,40,movements,el-ex, rt, d,204653.39076137502, -1.4183876819116261, 0.13757642871506987, 0.3524840222536471, -0.13053745031356812, -0.09033530205488205, -0.18200157582759857, -0.9790690541267395, -0.1371428519487381, -0.150384783744812, -0.10634952783584595, -0.018054276704788208, 0.05355226993560791, 0.1652627701226898, -0.630472697095803, 0.7532126193761601,0.08867406973494613,-1.08795166015625,-0.1611175537109375,-0.1131591796875
20220223-1405,2022-02-23 14:05:25Z,u01, 200,40,movements,el-ex, rt, d,204653.415706375, -1.4212490903662924, 0.14292486207773392, 0.3494527164169281, 0.01283442322164774, -0.1732953041791916, -0.25359946489334106, -0.9787559509277344, -0.14243875443935394, -0.14747124910354614, -0.12218081951141357, 0.01829323172569275, -0.02783721685409546, 0.16640199698352784, -0.6313277654722731, 0.7526055842141857,0.08555887398622974,-1.103851318359375,-0.12408447265625,-0.19287109375
20220223-1405,2022-02-23 14:05:25Z,u01, 201,40,movements,el-ex, rt, d,204653.44065137501, -1.426842824364618, 0.1509344941279164, 0.3518905278104082, 0.20641227066516876, -0.23741011321544647, -0.38995546102523804, -0.9784051179885864, -0.1503620743751526, -0.141825869679451, -0.13483023643493652, 0.0305500328540802, -0.0858049988746643, 0.17035228673298658, -0.6325086289870632, 0.750971356895193,0.08339594366514635,-1.115081787109375,-0.129638671875,-0.21331787109375
20220223-1405,2022-02-23 14:05:25Z,u01, 202,40,movements,el-ex, rt, d,204653.465597375, -1.4340993966301332, 0.16301395603591104, 0.35176024495760233, -0.2151232361793518, -0.3434997797012329, -0.5805397629737854, -0.9775377511978149, -0.162292942404747, -0.13446499407291412, -0.12956351041793823, -0.021255046129226685, -0.014064311981201172, 0.1750263126442413, -0.6341398046983409, 0.749017815968321,0.07877026012690252,-1.1067047119140625,-0.1954345703125,-0.13739013671875
20220223-1405,2022-02-23 14:05:25Z,u01, 203,40,movements,el-ex, rt, d,204653.49054237502, -1.4408793206673358, 0.1762011555056872, 0.3345351077155103, -0.9854133725166321, -0.4282788038253784, -0.6288673281669617, -0.976219654083252, -0.17529082298278809, -0.12754593789577484, -0.12877583503723145, -0.03882049024105072, 0.0048040300607681274, 0.17460963368733426, -0.6369760652091083, 0.7478170519353526,0.06739758860905126,-1.1012115478515625,-0.21148681640625,-0.120758056640625
20220223-1405,2022-02-23 14:05:25Z,u01, 204,40,movements,el-ex, rt, d,204653.515487375, -1.4467654198161224, 0.18674349998000944, 0.30241525930868546, -1.265713095664978, -0.49871471524238586, -0.568660318851471, -0.9750655293464661, -0.1856600046157837, -0.12156225740909576, -0.12109524011611938, -0.03936135768890381, -0.01810169219970703, 0.16836237079914482, -0.6409937460639976, 0.7470865950653071,0.051406537634731186,-1.09588623046875,-0.221405029296875,-0.1366729736328125
20220223-1405,2022-02-23 14:05:26Z,u01, 205,40,movements,el-ex, rt, d,204653.54043337502, -1.4539184466093473, 0.1985089885046821, 0.26912691069391703, -1.1918985843658447, -0.607941746711731, -0.6830646991729736, -0.9736729860305786, -0.19720782339572906, -0.11432187259197235, -0.11906963586807251, 0.0019564032554626465, 0.012820206582546234, 0.16209430660225194, -0.6454180808185691, 0.745634791123935,0.034488101777880864,-1.0929718017578125,-0.2001190185546875,-0.0765380859375
20220223-1405,2022-02-23 14:05:26Z,u01, 206,40,movements,el-ex, rt, d,204653.565378375, -1.46330861295831, 0.21315765858060004, 0.2416030842915473, -0.7497137784957886, -0.5763409733772278, -0.7984033226966858, -0.9717270135879517, -0.2115471363067627, -0.1048528328537941, -0.12136667966842651, 0.003112122416496277, 0.031686730682849884, 0.15862996650539546, -0.6499308549144761, 0.7430209301691293,0.018604769399837406,-1.086669921875,-0.205047607421875,-0.08087158203125
20220223-1405,2022-02-23 14:05:26Z,u01, 207,40,movements,el-ex, rt, d,204653.590323375, -1.4741372306687661, 0.23263173098470377, 0.22683044304210484, -0.3023664653301239, -0.5802352428436279, -0.879767894744873, -0.9685208797454834, -0.23053915798664093, -0.09390899538993835, -0.09854137897491455, 0.04401576519012451, 0.0014557838439941406, 0.1609303858304712, -0.653564773231161, 0.7395414665659207,0.005730287417395841,-1.0666351318359375,-0.1949005126953125,-0.093048095703125
20220223-1405,2022-02-23 14:05:26Z,u01, 208,40,movements,el-ex, rt, d,204653.615269375, -1.4861418183889623, 0.25358688432141124, 0.22092185529974237, -0.03511416167020798, -0.5088881254196167, -0.8822761178016663, -0.9645520448684692, -0.2508777379989624, -0.08184929192066193, -0.10589754581451416, 0.026009052991867065, 0.018433518707752228, 0.1665345251060917, -0.6567660195775167, 0.7354618546096046,-0.004505528226451283,-1.06475830078125,-0.2410430908203125,-0.057861328125
20220223-1405,2022-02-23 14:05:26Z,u01, 209,40,movements,el-ex, rt, d,204653.64021437502, -1.4980633516388058, 0.2750407056293418, 0.2203655230006011, 0.10333086550235748, -0.4852772057056427, -0.8584497570991516, -0.9598695635795593, -0.2715861201286316, -0.06993753463029861, -0.08901947736740112, -0.02361038327217102, 0.039602816104888916, 0.17395502568107277, -0.659371579569223, 0.731299789870505,-0.013012060218559385,-1.0479583740234375,-0.3381805419921875,-0.022796630859375
20220223-1405,2022-02-23 14:05:26Z,u01, 210,40,movements,el-ex, rt, d,204653.665159375, -1.5101115506315195, 0.2963733485004331, 0.22220352689534098, 0.08194158971309662, -0.4098718762397766, -0.8345438241958618, -0.9546413421630859, -0.29205361008644104, -0.058003414422273636, -0.09220302104949951, -0.06216388940811157, 0.02583765983581543, 0.18200903835441662, -0.6617182195408147, 0.727030200770201,-0.02070478197140113,-1.0384979248046875,-0.330718994140625,-0.0315704345703125
20220223-1405,2022-02-23 14:05:26Z,u01, 211,40,movements,el-ex, rt, d,204653.69010537502, -1.5199839056786166, 0.31509198044484454, 0.22218617571639263, 0.08907193690538406, -0.4255560338497162, -0.6733858585357666, -0.9495406746864319, -0.30990391969680786, -0.04829002544283867, -0.04171597957611084, 0.021955370903015137, 0.0004382133483886719, 0.1884535510256998, -0.6635813782394243, 0.7234346755410007,-0.028057039219456847,-0.9762115478515625,-0.28912353515625,-0.0547943115234375
20220223-1405,2022-02-23 14:05:26Z,u01, 212,40,movements,el-ex, rt, d,204653.715050375, -1.5323519738033864, 0.33148517672383326, 0.22533530338772365, 0.1481698751449585, -0.4449619650840759, -0.660499095916748, -0.9448612332344055, -0.3254477083683014, -0.03634248673915863, -0.07308292388916016, -0.026862412691116333, -0.0034068822860717773, 0.19501748162411886, -0.6661808604675405, 0.7190484915442727,-0.03376985235142274,-1.0335540771484375,-0.3685302734375,-0.0373077392578125
20220223-1405,2022-02-23 14:05:26Z,u01, 213,40,movements,el-ex, rt, d,204653.739995375, -1.5429185541525428, 0.34773577520172144, 0.22877583218007433, 0.1559508591890335, -0.329315185546875, -0.6111351847648621, -0.9397813081741333, -0.3407699763774872, -0.026205798611044884, -0.10614752769470215, -0.06978294253349304, -0.01915884017944336, 0.20158298415547649, -0.6680279944045588, 0.7152369987812076,-0.03922796841301207,-1.0287933349609375,-0.398956298828125,-0.0412445068359375
20220223-1405,2022-02-23 14:05:26Z,u01, 214,40,movements,el-ex, rt, d,204653.764941375, -1.5522415949928194, 0.3620952230569522, 0.23240119307987409, 0.1442527323961258, -0.33575165271759033, -0.5426041483879089, -0.9349955916404724, -0.35423436760902405, -0.017350584268569946, -0.05787837505340576, -0.009199380874633789, -0.000975489616394043, 0.2075208426799745, -0.6695220742616029, 0.7118624405424352,-0.043898316726423,-0.99066162109375,-0.3648529052734375,-0.0191192626953125
20220223-1405,2022-02-23 14:05:26Z,u01, 215,40,movements,el-ex, rt, d,204653.78988637502, -1.559533748478949, 0.374908105258486, 0.23195468898704005, -0.2946213483810425, -0.23914821445941925, -0.4921022057533264, -0.930482029914856, -0.3661870062351227, -0.010480069555342197, -0.06568783521652222, -0.008736580610275269, -0.005938648246228695, 0.21156214016606226, -0.67082145604067, 0.7090899359990517,-0.049308090346690814,-1.001129150390625,-0.3794097900390625,-0.0159454345703125
20220223-1405,2022-02-23 14:05:26Z,u01, 216,40,movements,el-ex, rt, d,204653.814831375, -1.5574580994238056, 0.38550814914257564, 0.21426341232169305, -0.9457955360412598, -0.1207621842622757, -0.3637348711490631, -0.9265249371528625, -0.3760300278663635, -0.012358932755887508, -0.0570870041847229, -0.007591128349304199, -0.014588355086743832, 0.20928582630237041, -0.6708352826080889, 0.7090059238793115,-0.059075797635202404,-0.97479248046875,-0.3827667236328125,-0.03173828125
20220223-1405,2022-02-23 14:05:26Z,u01, 217,40,movements,el-ex, rt, d,204653.83977737502, -1.5490958913194812, 0.39358465720055286, 0.186386751893676, -1.0015385150909424, -0.09029048681259155, -0.3586404621601105, -0.9233226180076599, -0.38350144028663635, -0.020039647817611694, -0.038652241230010986, 0.02983337640762329, -0.01046287827193737, 0.20297058525885875, -0.669912768336914, 0.7106258181220554,-0.07092652608155339,-0.9682769775390625,-0.3390655517578125,-0.033599853515625
20220223-1405,2022-02-23 14:05:26Z,u01, 218,40,movements,el-ex, rt, d,204653.864722375, -1.5429077432910987, 0.4027387205657115, 0.16548764692008955, -0.4575916826725006, -0.016387172043323517, -0.4055389165878296, -0.919633150100708, -0.3919394016265869, -0.025653917342424393, -0.10108816623687744, 0.07005530595779419, -0.0020258426666259766, 0.19935410216248323, -0.6689028204299003, 0.7115335677759789,-0.08091245318304402,-1.025665283203125,-0.315643310546875,-0.0352783203125
20220223-1405,2022-02-23 14:05:26Z,u01, 219,40,movements,el-ex, rt, d,204653.889667375, -1.53994749442777, 0.41188509568320375, 0.16306745447948795, 0.27510806918144226, 0.16512629389762878, -0.3557635247707367, -0.9159315824508667, -0.40033748745918274, -0.02826438657939434, -0.09200280904769897, 0.09062990546226501, -0.04621398448944092, 0.20181758878925307, -0.6671862313049761, 0.7120168234103939,-0.0846408670945597,-0.9780426025390625,-0.31787109375,-0.074127197265625
20220223-1405,2022-02-23 14:05:26Z,u01, 220,40,movements,el-ex, rt, d,204653.914613375, -1.5386368990328492, 0.42183494334516153, 0.17051307501155913, 0.17978675663471222, 0.17365486919879913, -0.4013479948043823, -0.9118673801422119, -0.4094352424144745, -0.029335247352719307, -0.028440117835998535, 0.040920257568359375, -0.01689910888671875, 0.20777654659513875, -0.6649520909106544, 0.712315098994089,-0.08529222703655845,-0.9371337890625,-0.3943634033203125,-0.042083740234375
20220223-1405,2022-02-23 14:05:26Z,u01, 221,40,movements,el-ex, rt, d,204653.93955837502, -1.5343233472873197, 0.4309627545280891, 0.16963886849534882, -0.2061474323272705, 0.15523365139961243, -0.32922840118408203, -0.9079595804214478, -0.4177457094192505, -0.03313068300485611, -0.03700178861618042, -0.02399614453315735, 0.005847696214914322, 0.21081278897909483, -0.6625651865046155, 0.713279998922271,-0.08829971041270576,-0.9549560546875,-0.4481658935546875,-0.0232696533203125
20220223-1405,2022-02-23 14:05:26Z,u01, 222,40,movements,el-ex, rt, d,204653.964503375, -1.5271338141136954, 0.43724766677811044, 0.16396216556353257, -0.02272716537117958, 0.20908589661121368, -0.19877830147743225, -0.9050569534301758, -0.4234476685523987, -0.039542194455862045, -0.04156762361526489, 0.04190176725387573, -0.03238796815276146, 0.21142569294154231, -0.6599455129096831, 0.7150923254595998,-0.0917271908132844,-0.9410400390625,-0.3657379150390625,-0.088958740234375
20220223-1405,2022-02-23 14:05:26Z,u01, 223,40,movements,el-ex, rt, d,204653.98944937502, -1.526730478673538, 0.4417770403647716, 0.17416373884798889, 0.7545073628425598, 0.17719247937202454, -0.14231441915035248, -0.9031155705451965, -0.42754656076431274, -0.03982233256101608, -0.020391881465911865, 0.1162216067314148, -0.09605741500854492, 0.21636810695581704, -0.6582352736152661, 0.7154613240443297,-0.0895884435814612,-0.9109344482421875,-0.300811767578125,-0.13153076171875
20220223-1405,2022-02-23 14:05:26Z,u01, 224,40,movements,el-ex, rt, d,204654.014394375, -1.5354749941240478, 0.4456595067100839, 0.2006084795666595, 1.0720300674438477, 0.04977693408727646, -0.07599379122257233, -0.9017636179924011, -0.4310530722141266, -0.031864747405052185, 0.0025480985641479492, 0.05265042185783386, -0.07818186283111572, 0.22602580749472675, -0.6580121285765177, 0.7135372095394922,-0.08244332573463764,-0.9019012451171875,-0.3927154541015625,-0.1009979248046875
20220223-1405,2022-02-23 14:05:26Z,u01, 225,40,movements,el-ex, rt, d,204654.039339375, -1.546272063714572, 0.44752511602563827, 0.2265017046104418, 0.7975547909736633, -0.004274384118616581, -0.008405489847064018, -0.9012494683265686, -0.43273571133613586, -0.02210691198706627, -0.0057479143142700195, 0.035122305154800415, -0.08198881149291992, 0.23475766591344452, -0.6586618118908092, 0.7109229548828125,-0.07511174425105394,-0.894866943359375,-0.3846893310546875,-0.10205078125
20220223-1405,2022-02-23 14:05:26Z,u01, 226,40,movements,el-ex, rt, d,204654.064285375, -1.5571695499630385, 0.44727347285126273, 0.24660376964205766, 0.7026727795600891, -0.17143775522708893, 0.038714420050382614, -0.9015459418296814, -0.43250882625579834, -0.012285925447940826, 0.008006513118743896, 0.06907498836517334, -0.06910467147827148, 0.24090775457646368, -0.6601670175154898, 0.7080648444331323,-0.0691887060166888,-0.903350830078125,-0.3746795654296875,-0.0618438720703125
20220223-1405,2022-02-23 14:05:26Z,u01, 227,40,movements,el-ex, rt, d,204654.08923037502, -1.5711006974653616, 0.44805835677766326, 0.26475514249799703, 0.6110107898712158, -0.27911195158958435, -0.0970579981803894, -0.901289701461792, -0.4332163631916046, 0.0002743261575233191, -0.04489237070083618, 0.018268942832946777, -0.02310168743133545, 0.24670612280280763, -0.6627769248057381, 0.7040380275314494,-0.06475435468763005,-0.9676666259765625,-0.44219970703125,-0.0108184814453125
20220223-1405,2022-02-23 14:05:26Z,u01, 228,40,movements,el-ex, rt, d,204654.114175375, -1.583844093574088, 0.45084235397115596, 0.27901192841295236, 0.4354031980037689, -0.21684718132019043, -0.09553486108779907, -0.9000037312507629, -0.4357238709926605, 0.011743704788386822, -0.061025261878967285, 0.04566347599029541, 0.030766963958740234, 0.25195193317152464, -0.6651256090387891, 0.7001743428154998,-0.06232154897612363,-0.947113037109375,-0.382354736328125,0.0505523681640625
20220223-1405,2022-02-23 14:05:26Z,u01, 229,40,movements,el-ex, rt, d,204654.13912125002, -1.5934713202333928, 0.4521305324622353, 0.290191727881341, 0.3284570872783661, -0.19318512082099915, -0.027491234242916107, -0.8992870450019836, -0.43688297271728516, 0.0203948225826025, -0.007847905158996582, 0.057930976152420044, 0.04019761085510254, 0.255801164354862, -0.6669056722360823, 0.6972740069399046,-0.06009543394902539,-0.89739990234375,-0.41107177734375,0.0675506591796875
20220223-1405,2022-02-23 14:05:26Z,u01, 230,40,movements,el-ex, rt, d,204654.16406625, -1.5986401031802322, 0.45211000024448217, 0.29357789713597926, -0.10420411080121994, -0.09876739978790283, 0.0332271084189415, -0.8991784453392029, -0.4368644952774048, 0.025042995810508728, -0.004202723503112793, -0.003671884536743164, 0.07204842567443848, 0.25677015737082143, -0.6682743331609453, 0.6956504843922838,-0.059571298340205886,-0.903778076171875,-0.4412994384765625,0.10552978515625
20220223-1405,2022-02-23 14:05:26Z,u01, 231,40,movements,el-ex, rt, d,204654.18901125, -1.5961872234246253, 0.45107157089382477, 0.28502880777052636, -0.4800724983215332, 0.00040485523641109467, 0.06215263158082962, -0.8996903300285339, -0.43593016266822815, 0.02284885384142399, -0.0022413134574890137, 0.03782838582992554, 0.10294437408447266, 0.2536499099845176, -0.6686450107823462, 0.6962388400362367,-0.06186267568392187,-0.8994293212890625,-0.3766326904296875,0.1212158203125
20220223-1405,2022-02-23 14:05:26Z,u01, 232,40,movements,el-ex, rt, d,204654.21395725, -1.588771511410459, 0.45016636645300695, 0.27077100827144973, -0.5531831383705139, 0.058210961520671844, -0.0008949758484959602, -0.9002289772033691, -0.43511533737182617, 0.016183525323867798, 0.015143215656280518, 0.09687390923500061, 0.11020469665527344, 0.2488263191483394, -0.6679649880741351, 0.6982887987225898,-0.06557983641995574,-0.8843841552734375,-0.3308868408203125,0.1271820068359375
20220223-1405,2022-02-23 14:05:26Z,u01, 233,40,movements,el-ex, rt, d,204654.23890225, -1.5801971225544909, 0.45032863083850766, 0.2557170461020455, -0.5339740514755249, 0.12184128165245056, -0.01505187340080738, -0.9002642035484314, -0.43526142835617065, 0.008463448844850063, 0.0014453530311584473, 0.07950282096862793, 0.09642517566680908, 0.24414654420336762, -0.6668014617894464, 0.700635251600491,-0.06984543360464854,-0.9188079833984375,-0.3563385009765625,0.08837890625
20220223-1405,2022-02-23 14:05:26Z,u01, 234,40,movements,el-ex, rt, d,204654.26384725003, -1.5684232624242305, 0.45005813462972893, 0.24076332219030966, -0.4863740801811218, 0.2693006992340088, 0.05044237896800041, -0.9004191756248474, -0.4350178837776184, -0.0021367566660046577, -0.002382218837738037, 0.08556115627288818, 0.0549929141998291, 0.2395019387320584, -0.6645076696409881, 0.7040274058781952,-0.07357779883206286,-0.89324951171875,-0.345489501953125,0.0361175537109375
20220223-1405,2022-02-23 14:05:26Z,u01, 235,40,movements,el-ex, rt, d,204654.28879325002, -1.557078754292434, 0.44819114860025294, 0.2312051370096215, -0.21554026007652283, 0.29298967123031616, 0.08206328749656677, -0.9011473655700684, -0.4333360493183136, -0.012362329289317131, 0.03612685203552246, 0.10339540243148804, -0.0021337252110242844, 0.23612936958180628, -0.6618623391375599, 0.707505282770091,-0.07494798370271516,-0.854644775390625,-0.3290863037109375,-0.0198211669921875
20220223-1405,2022-02-23 14:05:26Z,u01, 236,40,movements,el-ex, rt, d,204654.31373825, -1.5482536428622613, 0.4464703105195531, 0.22595700156426318, -0.19237497448921204, 0.23196685314178467, 0.03204972296953201, -0.9017474055290222, -0.4317845404148102, -0.02033125050365925, 0.024886012077331543, 0.07364559173583984, 0.04292929172515869, 0.23414736716048407, -0.659552412763433, 0.7102920057411348,-0.07517107394102562,-0.883636474609375,-0.366302490234375,0.0254669189453125
20220223-1405,2022-02-23 14:05:26Z,u01, 237,40,movements,el-ex, rt, d,204654.33868325, -1.5397987829215671, 0.44521096367552354, 0.21976650640788736, -0.27638891339302063, 0.2463463842868805, 0.0602920837700367, -0.902086079120636, -0.4306482970714569, -0.027971411123871803, 0.009889602661132812, 0.06384241580963135, 0.03503597155213356, 0.23200214674762276, -0.6574110571970363, 0.7128933102069672,-0.07595151538052494,-0.8922576904296875,-0.3697052001953125,-0.0202484130859375
20220223-1405,2022-02-23 14:05:26Z,u01, 238,40,movements,el-ex, rt, d,204654.36362925, -1.5302268241499954, 0.4431297580571535, 0.21379276306371003, -0.1440417766571045, 0.2976660132408142, 0.09973083436489105, -0.9026707410812378, -0.4287690222263336, -0.03664100542664528, 0.043997764587402344, 0.052182137966156006, -0.06200730800628662, 0.2296975167548972, -0.6549187334314478, 0.7158942333485004,-0.07626196023583234,-0.8396453857421875,-0.3639678955078125,-0.120269775390625
20220223-1405,2022-02-23 14:05:26Z,u01, 239,40,movements,el-ex, rt, d,204654.38857425, -1.5240569537224762, 0.44041086048210054, 0.2122552277714242, 0.03732398897409439, 0.0875135287642479, 0.11067715287208557, -0.9035885334014893, -0.4263111650943756, -0.0422639437019825, 0.10656106472015381, 0.11590167880058289, -0.0815003514289856, 0.22849744540484782, -0.6531898237489464, 0.717970106294271,-0.07517147535706376,-0.8115997314453125,-0.3187713623046875,-0.120025634765625
20220223-1405,2022-02-23 14:05:26Z,u01, 240,40,movements,el-ex, rt, d,204654.41351925003, -1.5227377554363888, 0.43765874978832536, 0.21373693053493234, -0.050916559994220734, 0.11314637959003448, 0.11327660083770752, -0.9047004580497742, -0.42382004857063293, -0.04351211339235306, 0.0008615255355834961, 0.046088844537734985, 0.012399200350046158, 0.2280858723817782, -0.6528558628998717, 0.7185729743344507,-0.07354407581374944,-0.9110260009765625,-0.4038238525390625,-0.0176544189453125
20220223-1405,2022-02-23 14:05:26Z,u01, 241,40,movements,el-ex, rt, d,204654.43846525002, -1.5180238295907902, 0.434254113960721, 0.21036842628715074, -0.33307838439941406, 0.10503965616226196, 0.0984099730849266, -0.9059211015701294, -0.42073386907577515, -0.04785214737057686, 0.017432451248168945, -0.032635241746902466, 0.006958365440368652, 0.22598895716883996, -0.6519224776133608, 0.720131370135252,-0.07305346191331541,-0.86474609375,-0.4175262451171875,-0.0383758544921875
20220223-1405,2022-02-23 14:05:26Z,u01, 242,40,movements,el-ex, rt, d,204654.46341025, -1.510309229520573, 0.430084022453661, 0.1951373013033054, -0.6924951672554016, 0.05069565773010254, 0.13951580226421356, -0.9072682857513428, -0.4169471859931946, -0.05494505167007446, 0.0527610182762146, 0.055939555168151855, -0.023912664502859116, 0.219872944158206, -0.6512936074301383, 0.7222579403772924,-0.07626146930672648,-0.860137939453125,-0.339996337890625,-0.0764617919921875
20220223-1405,2022-02-23 14:05:26Z,u01, 243,40,movements,el-ex, rt, d,204654.48835525, -1.5009497184192608, 0.4249116096249947, 0.17716754581460756, -0.5216715335845947, 0.05552263557910919, 0.2182268500328064, -0.9088535904884338, -0.41224026679992676, -0.06358376890420914, 0.07117670774459839, 0.09900790452957153, -0.013702213764190674, 0.21258917605563643, -0.6503952309673307, 0.7248398943455938,-0.07999291530816549,-0.8175506591796875,-0.3499908447265625,-0.1051025390625
20220223-1405,2022-02-23 14:05:26Z,u01, 244,40,movements,el-ex, rt, d,204654.51330125, -1.4977739973799973, 0.4191458043513145, 0.16927811065628118, -0.11372099071741104, -0.07728620618581772, 0.18377387523651123, -0.9110024571418762, -0.40698033571243286, -0.06664201617240906, 0.07907819747924805, 0.0325908362865448, -0.011712126433849335, 0.20813060624558447, -0.650661696418039, 0.7258302677502464,-0.08056825924607128,-0.8481292724609375,-0.38836669921875,-0.066375732421875
20220223-1405,2022-02-23 14:05:27Z,u01, 245,40,movements,el-ex, rt, d,204654.53824625, -1.4994869932350672, 0.41465194080875445, 0.16978638218402642, -0.00043294578790664673, 0.024680569767951965, 0.16226398944854736, -0.9129304885864258, -0.40287140011787415, -0.06521103531122208, -0.004671931266784668, -0.02265036106109619, 0.046457767486572266, 0.20665083310806, -0.6516823732879842, 0.7255053690808813,-0.07904066279539698,-0.944854736328125,-0.4268035888671875,0.00933837890625
20220223-1405,2022-02-23 14:05:27Z,u01, 246,40,movements,el-ex, rt, d,204654.56319125002, -1.4941442501396351, 0.40815051716815254, 0.1663981777561388, -0.23854917287826538, 0.24302822351455688, 0.3034209907054901, -0.9151613712310791, -0.39691245555877686, -0.07028672844171524, 0.0325014591217041, 0.0028542280197143555, 0.004780523478984833, 0.20347107623903887, -0.6507350895042426, 0.7274154538523313,-0.07752497067322514,-0.84912109375,-0.3756561279296875,-0.0890655517578125
20220223-1405,2022-02-23 14:05:27Z,u01, 247,40,movements,el-ex, rt, d,204654.58813625, -1.4896542298324247, 0.40064976573018124, 0.16429346668277497, 0.09012658149003983, 0.03576211631298065, 0.21810181438922882, -0.9177778959274292, -0.39001673460006714, -0.07463429123163223, 0.1289902925491333, 0.03425818681716919, -0.04211091250181198, 0.20031130549999812, -0.6500447941058658, 0.7291403792005463,-0.07530758827500053,-0.8108367919921875,-0.349273681640625,-0.0885162353515625
20220223-1405,2022-02-23 14:05:27Z,u01, 248,40,movements,el-ex, rt, d,204654.61308225, -1.4904074762463, 0.3953973851601637, 0.1687425567519602, 0.10283865034580231, 0.11325930058956146, 0.24181939661502838, -0.9198631644248962, -0.3851749300956726, -0.07410643994808197, 0.008043825626373291, -0.04428359866142273, 0.07496071606874466, 0.19987347213947576, -0.650382482421314, 0.7292945488734754,-0.07198969736437122,-0.925994873046875,-0.4440155029296875,0.014556884765625
