SessionID,LoggingTime,UID,RecNo,Hertz,Activity,MoveType,Wrist,Side,TimeStamp,DMRoll,DMPitch,DMYaw,DMRotX,DMRotY,DMRotZ,DMGrvX,DMGrvY,DMGrvZ,DMUAccelX,DMUAccelY,DMUAccelZ,DMQuatX,DMQuatY,DMQuatW,DMQuatZ,AccelroX,AceelroY,AceelroZ
20220223-1408,2022-02-23 14:08:21Z,u01, 1,40,movements,el-ex, rt, d,204828.74179625002, -1.1644262343470355, -0.20567492849745797, -0.13567405138408323, 0.10452073812484741, 0.18611839413642883, -0.18032033741474152, -0.8992016315460205, 0.20422790944576263, -0.38694658875465393, -0.016966819763183594, 0.014766305685043335, -0.02247709035873413, -0.12262249584372534, -0.5398985383469113, 0.832750582359574,5.551115123125783e-17,-0.91156005859375,0.2052459716796875,-0.4038848876953125
20220223-1408,2022-02-23 14:08:21Z,u01, 2,40,movements,el-ex, rt, d,204828.76674125, -1.159825771742629, -0.20030428442464485, -0.13428985792298057, 0.19530849158763885, 0.15371878445148468, -0.1823686957359314, -0.8984044790267944, 0.19896754622459412, -0.3915117084980011, -0.016070127487182617, -0.00740872323513031, 0.0021229088306427, -0.12003011592724075, -0.5383650348458202, 0.8341190262141762,-0.0011806731093342848,-0.918548583984375,0.2062530517578125,-0.382476806640625
20220223-1408,2022-02-23 14:08:21Z,u01, 3,40,movements,el-ex, rt, d,204828.79168625, -1.1550520555109716, -0.1930359737845828, -0.12812342056502057, 0.512791097164154, 0.7863094210624695, -0.8344635367393494, -0.8978246450424194, 0.19183935225009918, -0.396369606256485, 0.1598331332206726, -0.0100308358669281, -0.0319291353225708, -0.11536126767987095, -0.5371284489050989, 0.8355742228256678,-0.000881022063917769,-1.1676177978515625,0.2872161865234375,-0.3254241943359375
20220223-1408,2022-02-23 14:08:21Z,u01, 4,40,movements,el-ex, rt, d,204828.81663225, -1.150123008822882, -0.18282843720105693, -0.11841993620044962, 0.402559369802475, 0.1349005401134491, -0.2922816872596741, -0.8976007103919983, 0.1818116009235382, -0.4015689492225647, 0.03447192907333374, 0.038677945733070374, -0.003353327512741089, -0.10852031150332705, -0.5361332588431578, 0.8371287314202562,0.0001125208024824742,-0.90118408203125,0.2333984375,-0.4158935546875
20220223-1408,2022-02-23 14:08:21Z,u01, 5,40,movements,el-ex, rt, d,204828.84157825002, -1.1464053844830069, -0.17469235558396573, -0.11678101270958047, 0.054164886474609375, 0.13114409148693085, -0.24279648065567017, -0.8974199891090393, 0.17380517721176147, -0.40549880266189575, 0.00821387767791748, -5.3316354751586914e-05, 0.008648395538330078, -0.10469532775084184, -0.5350602610237026, 0.838300027689848,-0.0016138449187318438,-0.8946990966796875,0.16796875,-0.3815155029296875
20220223-1408,2022-02-23 14:08:21Z,u01, 6,40,movements,el-ex, rt, d,204828.86652325, -1.1433169886643504, -0.16860313368348284, -0.1167385555738583, 0.2952251434326172, 0.13558803498744965, -0.20149412751197815, -0.8971097469329834, 0.16780544817447662, -0.4086996018886566, -0.017090141773223877, -0.013249173760414124, 0.06264573335647583, -0.10214286366611255, -0.5340571426379034, 0.839248554905969,-0.0034088554073336552,-0.92938232421875,0.154510498046875,-0.34320068359375
20220223-1408,2022-02-23 14:08:21Z,u01, 7,40,movements,el-ex, rt, d,204828.89146925003, -1.1384693903827454, -0.1585044409784657, -0.10910987138631772, 0.49713385105133057, 0.1344829648733139, -0.29425960779190063, -0.8966110944747925, 0.15784157812595367, -0.4137325882911682, -0.02364659309387207, 0.07406151294708252, 0.009603738784790039, -0.095883757580104, -0.5328602143306097, 0.8407474571237208,-0.0031776423885150895,-0.9156646728515625,0.2214202880859375,-0.4185028076171875
20220223-1408,2022-02-23 14:08:21Z,u01, 8,40,movements,el-ex, rt, d,204828.91641425, -1.1340332206245562, -0.1475565836051317, -0.10392571066101237, 0.19281837344169617, 0.1464170515537262, -0.32624369859695435, -0.8962790369987488, 0.14702171087265015, -0.4184119403362274, -0.012473523616790771, 0.010113298892974854, -0.005660116672515869, -0.08991388005532872, -0.5317043561179549, 0.8421334622933223,-0.004153873168803723,-0.9132232666015625,0.1181182861328125,-0.4139556884765625
20220223-1408,2022-02-23 14:08:21Z,u01, 9,40,movements,el-ex, rt, d,204828.94136025, -1.1304457476146332, -0.14031450041800644, -0.10523665444016482, 0.052211225032806396, 0.13175642490386963, -0.2512620687484741, -0.8957119584083557, 0.1398545354604721, -0.42206743359565735, -0.020898938179016113, -0.04488381743431091, 0.009790420532226562, -0.08721540310924514, -0.5304335562579635, 0.8432007146921743,-0.0068110786919761135,-0.9196319580078125,0.1030731201171875,-0.4156341552734375
20220223-1408,2022-02-23 14:08:21Z,u01, 10,40,movements,el-ex, rt, d,204828.96630525, -1.1276284432444161, -0.13346327759558219, -0.10607721852080503, 0.08147560060024261, 0.08637236058712006, -0.26357898116111755, -0.895363986492157, 0.13306741416454315, -0.424990177154541, -0.026572227478027344, 0.03053736686706543, -0.013638794422149658, -0.08455021892978648, -0.5294867130595169, 0.8440450433074991,-0.009122961678081465,-0.9150390625,0.1841583251953125,-0.4571685791015625
20220223-1408,2022-02-23 14:08:21Z,u01, 11,40,movements,el-ex, rt, d,204828.99125025002, -1.1267424517576787, -0.12771255043416022, -0.1080566103033802, -0.02691139280796051, 0.005819328129291534, -0.22466447949409485, -0.8956632018089294, 0.12736566364765167, -0.42610493302345276, -0.026333928108215332, 0.016311123967170715, 0.000491797924041748, -0.08265292597593335, -0.5292598864579379, 0.8443455396743219,-0.01153459903723858,-0.9296417236328125,0.1339569091796875,-0.4190216064453125
20220223-1408,2022-02-23 14:08:21Z,u01, 12,40,movements,el-ex, rt, d,204829.01619625, -1.126743056383788, -0.12302566234457873, -0.1091764697297842, 0.15617741644382477, -0.0013801269233226776, -0.17839859426021576, -0.896192729473114, 0.1227155551314354, -0.4263561964035034, -0.04994386434555054, 0.0118517205119133, 0.014002889394760132, -0.08097908497634251, -0.5293999301601086, 0.8443946830276767,-0.013261296734956185,-0.9530029296875,0.1645965576171875,-0.4218292236328125
20220223-1408,2022-02-23 14:08:21Z,u01, 13,40,movements,el-ex, rt, d,204829.04114125003, -1.1264521308061624, -0.11735731665246654, -0.10768332667115259, 0.07616815716028214, 0.0006113182753324509, -0.18251536786556244, -0.8966823220252991, 0.11708811670541763, -0.42690905928611755, -0.06475883722305298, 0.07187672704458237, -0.02240106463432312, -0.07819827605253277, -0.5295568879201669, 0.8445437769399755,-0.01415865007620487,-0.957000732421875,0.17962646484375,-0.454010009765625
20220223-1408,2022-02-23 14:08:21Z,u01, 14,40,movements,el-ex, rt, d,204829.06608725002, -1.1275943857250093, -0.114838579794413, -0.11131508715170335, -0.22617216408252716, -0.05942784994840622, -0.10780525207519531, -0.8974329829216003, 0.11458633095026016, -0.4260096848011017, -0.06547313928604126, 0.06308703124523163, -0.022278130054473877, -0.07810985455691274, -0.5299943437294472, 0.8442385339095632,-0.016321273505671974,-0.9783782958984375,0.1793365478515625,-0.435394287109375
20220223-1408,2022-02-23 14:08:21Z,u01, 15,40,movements,el-ex, rt, d,204829.09103225, -1.1306127058807478, -0.1160304274118743, -0.11744625663993302, -0.20239660143852234, -0.08293330669403076, -0.04912182688713074, -0.8985905051231384, 0.11577025055885315, -0.4232404828071594, -0.0855252742767334, 0.07009708881378174, -0.01538848876953125, -0.08026310687846633, -0.5309779524992748, 0.8433737429183037,-0.018469076850724353,-0.98529052734375,0.1861114501953125,-0.4428253173828125
20220223-1408,2022-02-23 14:08:21Z,u01, 16,40,movements,el-ex, rt, d,204829.11597825002, -1.1332217806505696, -0.1184634175013771, -0.12194825447438942, -0.19948109984397888, -0.06413885205984116, -0.016184916719794273, -0.8994339108467102, 0.11818653345108032, -0.4207739531993866, -0.09347093105316162, 0.060265034437179565, -0.03142005205154419, -0.0825050232620152, -0.5317950163108996, 0.8426165602707907,-0.019606862590898944,-0.9868621826171875,0.1753387451171875,-0.451873779296875
20220223-1408,2022-02-23 14:08:21Z,u01, 17,40,movements,el-ex, rt, d,204829.14092325, -1.1356280114924031, -0.12270538112902683, -0.12689254075399864, -0.22965797781944275, -0.09671583771705627, 0.06688852608203888, -0.8999810218811035, 0.12239769101142883, -0.4183933734893799, -0.07610857486724854, 0.029396772384643555, -0.013872683048248291, -0.0856224368917877, -0.5324209910343661, 0.8418899596414923,-0.02044589580067263,-0.9802398681640625,0.148101806640625,-0.42462158203125
20220223-1408,2022-02-23 14:08:21Z,u01, 18,40,movements,el-ex, rt, d,204829.16586925002, -1.1392654059825056, -0.12821228363600662, -0.13020266832931168, -0.17311882972717285, -0.13439349830150604, 0.14746905863285065, -0.9008710384368896, 0.12786130607128143, -0.4148288071155548, -0.1137317419052124, 0.04050421714782715, 0.019290685653686523, -0.08884624651658629, -0.5335653115115209, 0.8408368766354711,-0.020193494019225378,-1.032073974609375,0.1793670654296875,-0.3983154296875
20220223-1408,2022-02-23 14:08:21Z,u01, 19,40,movements,el-ex, rt, d,204829.19081425, -1.14282903126646, -0.13418619611845606, -0.13348212278129098, -0.30649444460868835, -0.1313294619321823, 0.14239101111888885, -0.9016326665878296, 0.13378386199474335, -0.4112915098667145, -0.10256373882293701, 0.03540562093257904, -0.03098440170288086, -0.09225370256015336, -0.5346433382203584, 0.8397941531052567,-0.019792982847521623,-0.996490478515625,0.16949462890625,-0.4420013427734375
20220223-1408,2022-02-23 14:08:21Z,u01, 20,40,movements,el-ex, rt, d,204829.21576025002, -1.1483933288546864, -0.14301673763327633, -0.14141720094541307, -0.5123317241668701, -0.24310199916362762, 0.2454191893339157, -0.902794361114502, 0.14252969622612, -0.4057680368423462, -0.0918499231338501, 0.0191371887922287, -0.017510563135147095, -0.09811548300144216, -0.5361803206774919, 0.8381321920000548,-0.020457476546693443,-1.0175018310546875,0.15716552734375,-0.402679443359375
20220223-1408,2022-02-23 14:08:21Z,u01, 21,40,movements,el-ex, rt, d,204829.24070525, -1.1566414236446325, -0.15434283634995657, -0.15023521403604664, -0.4722423255443573, -0.31874531507492065, 0.2894708812236786, -0.9045746326446533, 0.15373077988624573, -0.3976328670978546, -0.14182758331298828, 0.00856173038482666, -0.021373271942138672, -0.10527572678965677, -0.5386098686799299, 0.8356978604646235,-0.020633319057077715,-1.04315185546875,0.1681976318359375,-0.4296112060546875
20220223-1408,2022-02-23 14:08:21Z,u01, 22,40,movements,el-ex, rt, d,204829.26565125003, -1.1668801431876699, -0.1654481823469797, -0.15672786205212091, -0.33408159017562866, -0.41861799359321594, 0.33163872361183167, -0.9069725275039673, 0.1646944135427475, -0.3876555860042572, -0.12130212783813477, 0.027261167764663696, -0.05109548568725586, -0.11172778509740239, -0.5419309106569339, 0.8327297038495654,-0.019729157904206762,-1.0205841064453125,0.21343994140625,-0.4237213134765625
20220223-1408,2022-02-23 14:08:21Z,u01, 23,40,movements,el-ex, rt, d,204829.29059625, -1.1796414136346578, -0.17685448524808053, -0.15960643267465222, -0.23126021027565002, -0.578449010848999, 0.43959325551986694, -0.9100494384765625, 0.17593400180339813, -0.3753094971179962, -0.10891729593276978, 0.08160386979579926, 0.0004165470600128174, -0.11732447498634047, -0.5464249449867167, 0.8290746733522731,-0.017026586838712332,-1.025543212890625,0.259765625,-0.36602783203125
20220223-1408,2022-02-23 14:08:21Z,u01, 24,40,movements,el-ex, rt, d,204829.3155425, -1.1955269633387127, -0.189922633846884, -0.16103627786886268, -0.3044872283935547, -0.6655729413032532, 0.47158217430114746, -0.9136791229248047, 0.18878291547298431, -0.35993266105651855, -0.1351643204689026, 0.06561164557933807, 0.0047540366649627686, -0.12318515930777735, -0.552140459964833, 0.8244983433172846,-0.012993975319829043,-1.056976318359375,0.2348480224609375,-0.3579254150390625
20220223-1408,2022-02-23 14:08:21Z,u01, 25,40,movements,el-ex, rt, d,204829.3404875, -1.213490289414061, -0.20448928596734842, -0.16624747905017861, -0.48768675327301025, -0.7113897204399109, 0.4824633002281189, -0.9173232913017273, 0.2030671089887619, -0.3424645960330963, -0.13774585723876953, 0.03553462028503418, -0.006106972694396973, -0.13065409459566116, -0.558298498097216, 0.8192285086765898,-0.009854947647972234,-1.055328369140625,0.2467041015625,-0.3450927734375
20220223-1408,2022-02-23 14:08:21Z,u01, 26,40,movements,el-ex, rt, d,204829.3654335, -1.232736981183151, -0.21985594887786547, -0.17395469670074254, -0.4954325258731842, -0.7272144556045532, 0.47469863295555115, -0.9206914901733398, 0.2180890440940857, -0.3236736059188843, -0.1374446153640747, 0.06081110239028931, -0.0077623724937438965, -0.13909343504783225, -0.564638132231716, 0.8135011025321139,-0.007275707545491783,-1.053497314453125,0.3047027587890625,-0.3107452392578125
20220223-1408,2022-02-23 14:08:21Z,u01, 27,40,movements,el-ex, rt, d,204829.39037850001, -1.2519519894048825, -0.23516274817297894, -0.18124057644470917, -0.3869039714336395, -0.7077561616897583, 0.5140517950057983, -0.9234620332717896, 0.23300126194953918, -0.3048415780067444, -0.1218414306640625, 0.0892796516418457, 0.002732992172241211, -0.1473321218317902, -0.570852396987694, 0.8077138366899043,-0.004382156798260539,-1.03948974609375,0.3225860595703125,-0.3030242919921875
20220223-1408,2022-02-23 14:08:21Z,u01, 28,40,movements,el-ex, rt, d,204829.4153245, -1.270195044550081, -0.2495739072034753, -0.18336009404218537, -0.12759745121002197, -0.7237173318862915, 0.5218330025672913, -0.9255657196044922, 0.2469910830259323, -0.2869209349155426, -0.09033405780792236, 0.04997551441192627, -0.02046722173690796, -0.15366517042672503, -0.5769978770030668, 0.8021598510759574,0.00040124043195616244,-1.0142669677734375,0.28057861328125,-0.29876708984375
20220223-1408,2022-02-23 14:08:21Z,u01, 29,40,movements,el-ex, rt, d,204829.44026950002, -1.2875503216318334, -0.2625979765273456, -0.18147439812580649, -0.0487423874437809, -0.6957473158836365, 0.49864739179611206, -0.9272381663322449, 0.2595903277397156, -0.2698931097984314, -0.11467784643173218, 0.040550053119659424, -0.005543053150177002, -0.15820470852432617, -0.5831163865287096, 0.7968096052962539,0.006407191968545112,-1.046417236328125,0.3136749267578125,-0.276336669921875
20220223-1408,2022-02-23 14:08:21Z,u01, 30,40,movements,el-ex, rt, d,204829.4652155, -1.30393685777338, -0.27498328313957576, -0.1806495619854244, -0.19039079546928406, -0.6364798545837402, 0.4842456877231598, -0.9283635020256042, 0.2715308368206024, -0.2537960112094879, -0.1132473349571228, 0.0758507251739502, -0.02273884415626526, -0.16271650043858882, -0.5887489634623714, 0.7916810925250926,0.011797638190829907,-1.0298004150390625,0.3500213623046875,-0.2880096435546875
20220223-1408,2022-02-23 14:08:21Z,u01, 31,40,movements,el-ex, rt, d,204829.49016050002, -1.3200368720387152, -0.28773040093015206, -0.1828825699695549, -0.22265799343585968, -0.6164045333862305, 0.47391167283058167, -0.9289004802703857, 0.2837766706943512, -0.23793883621692657, -0.06740701198577881, 0.02594628930091858, -0.05560952425003052, -0.168194971018991, -0.5939200567463351, 0.7865804860273317,0.016146025682699516,-0.987823486328125,0.299652099609375,-0.2841796875
20220223-1408,2022-02-23 14:08:21Z,u01, 32,40,movements,el-ex, rt, d,204829.5151065, -1.3359117077235942, -0.30052881495768735, -0.18391344497672288, -0.10189705342054367, -0.6453123092651367, 0.4850562810897827, -0.9289519786834717, 0.2960253655910492, -0.22229979932308197, -0.048907577991485596, -0.011891424655914307, -0.03236910700798035, -0.17326622370681646, -0.5990233042183832, 0.7814773114054283,0.021049361556820023,-0.9911651611328125,0.3011322021484375,-0.2413787841796875
20220223-1408,2022-02-23 14:08:22Z,u01, 33,40,movements,el-ex, rt, d,204829.54005150002, -1.3515599473765847, -0.3124133222430736, -0.18286844062536112, -0.07017384469509125, -0.6256969571113586, 0.4517740309238434, -0.9288171529769897, 0.3073560297489166, -0.20695695281028748, -0.0945899486541748, 0.03860655426979065, -0.03523033857345581, -0.17729100328350605, -0.6042263025641246, 0.7763856146370509,0.026532827523769564,-1.027923583984375,0.3525390625,-0.2430877685546875
20220223-1408,2022-02-23 14:08:22Z,u01, 34,40,movements,el-ex, rt, d,204829.5649975, -1.3655686955115962, -0.3229202225051711, -0.18178314693351072, 0.002496764063835144, -0.5346866250038147, 0.3710954189300537, -0.928412139415741, 0.31733718514442444, -0.1932566910982132, -0.08280318975448608, 0.02656543254852295, -0.05707883834838867, -0.18073018145615144, -0.6088581553591921, 0.7717742659746998,0.031510941785053315,-0.9790496826171875,0.3239288330078125,-0.2684478759765625
20220223-1408,2022-02-23 14:08:22Z,u01, 35,40,movements,el-ex, rt, d,204829.58994250002, -1.3776698940004748, -0.3304775317926817, -0.17605030686610362, 0.2893039584159851, -0.6222872138023376, 0.3241557478904724, -0.9283025860786438, 0.32449474930763245, -0.18154244124889374, 0.010501563549041748, -0.042313963174819946, -0.09290193021297455, -0.1816096357133002, -0.6133895323824265, 0.7677153865946441,0.0372077863539117,-0.91888427734375,0.28326416015625,-0.2709197998046875
20220223-1408,2022-02-23 14:08:22Z,u01, 36,40,movements,el-ex, rt, d,204829.61488850001, -1.3905663685485832, -0.3373076158766157, -0.16496528275454295, 0.39415985345840454, -0.6851422786712646, 0.34880656003952026, -0.9283644556999207, 0.3309476375579834, -0.1691545993089676, -0.02302110195159912, -0.06259128451347351, -0.07620649039745331, -0.18048320020900196, -0.6187475363183758, 0.7632631679449897,0.044796356545407756,-0.9860382080078125,0.2655792236328125,-0.226593017578125
20220223-1408,2022-02-23 14:08:22Z,u01, 37,40,movements,el-ex, rt, d,204829.63983350003, -1.4026604235300961, -0.3449312596924644, -0.15418232252283146, 0.3124001920223236, -0.5515223145484924, 0.41759079694747925, -0.9278279542922974, 0.33813199400901794, -0.15748804807662964, -0.08190739154815674, -0.06083393096923828, -0.05096210539340973, -0.17967485489998491, -0.6236769401645872, 0.7589431940370144,0.052435777153844676,-1.003021240234375,0.29034423828125,-0.213409423828125
20220223-1408,2022-02-23 14:08:22Z,u01, 38,40,movements,el-ex, rt, d,204829.66477950002, -1.413780410147854, -0.3538977455384611, -0.14477159250479593, 0.33975890278816223, -0.5725249648094177, 0.38294103741645813, -0.9264897704124451, 0.3465566337108612, -0.1466810554265976, -0.05178177356719971, -0.04110616445541382, -0.07751606404781342, -0.17973583869338342, -0.6279765154438263, 0.75482028477681,0.05989086655331016,-0.957366943359375,0.2927703857421875,-0.22265625
20220223-1408,2022-02-23 14:08:22Z,u01, 39,40,movements,el-ex, rt, d,204829.6897245, -1.4235545331562613, -0.3610241189837171, -0.1302967486954635, 0.6152288317680359, -0.6163455843925476, 0.3405217230319977, -0.9254125952720642, 0.3532325327396393, -0.13725273311138153, -0.006731569766998291, -0.07916942238807678, -0.058669909834861755, -0.17748727393361063, -0.6323542518088836, 0.7509532655293631,0.06852426620585783,-0.9320526123046875,0.2808380126953125,-0.190216064453125
20220223-1408,2022-02-23 14:08:22Z,u01, 40,40,movements,el-ex, rt, d,204829.71467050002, -1.4317413516092572, -0.36693880838639903, -0.11152266158155394, 0.6503721475601196, -0.5674667358398438, 0.33466652035713196, -0.9244201183319092, 0.35875970125198364, -0.12938019633293152, -0.010257124900817871, -0.059092313051223755, -0.05235177278518677, -0.17340436302875284, -0.6365852856918865, 0.7473787449914959,0.07820023588915376,-0.93304443359375,0.31427001953125,-0.176971435546875
20220223-1408,2022-02-23 14:08:22Z,u01, 41,40,movements,el-ex, rt, d,204829.7396155, -1.4395798611326034, -0.3729457191863244, -0.09591407349307865, 0.44613662362098694, -0.521331787109375, 0.3166390657424927, -0.9232525825500488, 0.3643602430820465, -0.12184605002403259, 0.006626546382904053, -0.03672346472740173, -0.025324754416942596, -0.17030030466872273, -0.6403708165002828, 0.7439181391187881,0.0866539037130104,-0.9140625,0.327545166015625,-0.136962890625
20220223-1408,2022-02-23 14:08:22Z,u01, 42,40,movements,el-ex, rt, d,204829.76456150002, -1.4476260383347752, -0.379100815505323, -0.08404232955631318, 0.37506377696990967, -0.46839290857315063, 0.27300047874450684, -0.9219598770141602, 0.3700852692127228, -0.11413583159446716, -0.0005559921264648438, -0.042479008436203, -0.01939360797405243, -0.16837577117672062, -0.6438801787322888, 0.7404578555518904,0.09375576218751525,-0.933197021484375,0.3329620361328125,-0.131134033203125
20220223-1408,2022-02-23 14:08:22Z,u01, 43,40,movements,el-ex, rt, d,204829.7895065, -1.4537931593594249, -0.3842598264485101, -0.07276075502047889, 0.4198651611804962, -0.38322827219963074, 0.2348354607820511, -0.9207379221916199, 0.3748730421066284, -0.10822355002164841, -0.004738330841064453, -0.05938225984573364, -0.01560133695602417, -0.16631779322592505, -0.6467044263583926, 0.7376213366129811,0.10013379457755245,-0.918853759765625,0.309356689453125,-0.118927001953125
20220223-1408,2022-02-23 14:08:22Z,u01, 44,40,movements,el-ex, rt, d,204829.81445250002, -1.4576917171503496, -0.38847905589516185, -0.0608652896715716, 0.38959792256355286, -0.29202964901924133, 0.226216658949852, -0.9195728898048401, 0.3787812292575836, -0.10445372760295868, 0.011522293090820312, -0.06570136547088623, 0.006751902401447296, -0.16379986722362688, -0.6488010024232099, 0.7354886540383379,0.10622313519658821,-0.8961334228515625,0.326629638671875,-0.0963134765625
20220223-1408,2022-02-23 14:08:22Z,u01, 45,40,movements,el-ex, rt, d,204829.8393975, -1.4609080492092452, -0.39304453173488535, -0.052396304670628994, 0.14899738132953644, -0.22991690039634705, 0.19241249561309814, -0.9181756973266602, 0.38300254940986633, -0.10130484402179718, 0.025750041007995605, -0.04720231890678406, 0.023500502109527588, -0.1625346987686999, -0.6503307238081575, 0.7336960437076576,0.11109765197081362,-0.8975677490234375,0.33380126953125,-0.078033447265625
20220223-1408,2022-02-23 14:08:22Z,u01, 46,40,movements,el-ex, rt, d,204829.86434350003, -1.4650464629479043, -0.39764000460454607, -0.052150895295736084, -0.12958534061908722, -0.1065986305475235, 0.18096895515918732, -0.9168272018432617, 0.3872435688972473, -0.09731739014387131, 0.014742732048034668, -0.07440781593322754, 0.01516425609588623, -0.1638911173472554, -0.6515220692085374, 0.7320390639052614,0.11303850390099485,-0.8930511474609375,0.3161773681640625,-0.08319091796875
20220223-1408,2022-02-23 14:08:22Z,u01, 47,40,movements,el-ex, rt, d,204829.8892885, -1.4688314066201729, -0.4024924405981891, -0.055280011255875235, -0.09940869361162186, -0.11822818219661713, 0.19743575155735016, -0.9153087735176086, 0.39171281456947327, -0.09365417808294296, 0.018778502941131592, -0.03967726230621338, 0.012782812118530273, -0.16645349597625023, -0.6522776586723361, 0.7306674884497488,0.11380774927054499,-0.909881591796875,0.359344482421875,-0.079986572265625
20220223-1408,2022-02-23 14:08:22Z,u01, 48,40,movements,el-ex, rt, d,204829.9142345, -1.4703414675410167, -0.40726616265368215, -0.05480253320838066, 0.11249420046806335, 0.019514966756105423, 0.18930558860301971, -0.9135782122612, 0.39610058069229126, -0.09208332002162933, -0.034496188163757324, -0.03832772374153137, -0.005328528583049774, -0.16793641108505755, -0.652499579857049, 0.7298346981392319,0.11568508797116717,-0.9297943115234375,0.3419647216796875,-0.1049346923828125
20220223-1408,2022-02-23 14:08:22Z,u01, 49,40,movements,el-ex, rt, d,204829.9391795, -1.4686514978660798, -0.4108726327561969, -0.049887720368265616, 0.15602891147136688, -0.06622843444347382, 0.1293828785419464, -0.9119941592216492, 0.3994094729423523, -0.09348082542419434, 0.03752821683883667, -0.057337939739227295, -0.02184484899044037, -0.16773574060902366, -0.6520155739557636, 0.7298572954225133,0.1185272131424916,-0.88214111328125,0.346588134765625,-0.117401123046875
20220223-1408,2022-02-23 14:08:22Z,u01, 50,40,movements,el-ex, rt, d,204829.9641255, -1.46868747350703, -0.413296861589049, -0.047236262220597285, 0.012901036068797112, -0.011990494094789028, 0.09170766174793243, -0.9110317826271057, 0.40163078904151917, -0.09334906190633774, 0.0003414154052734375, -0.04240831732749939, -0.003757655620574951, -0.16774556018789855, -0.6520635678944445, 0.7295226611770772,0.12029686169211223,-0.9097900390625,0.3614044189453125,-0.0850982666015625
20220223-1408,2022-02-23 14:08:22Z,u01, 51,40,movements,el-ex, rt, d,204829.9890705, -1.4690194057040797, -0.413726274665477, -0.04738822603698599, -0.005172773730009794, -0.023656204342842102, 0.11360310018062592, -0.9108909368515015, 0.4020240008831024, -0.09302911162376404, 0.029268622398376465, -0.04554814100265503, 0.02271682769060135, -0.16793035840061712, -0.6521386650460641, 0.7293941226669327,0.12041086684831132,-0.880950927734375,0.3629913330078125,-0.064910888671875
20220223-1408,2022-02-23 14:08:22Z,u01, 52,40,movements,el-ex, rt, d,204830.0140165, -1.4691583589992618, -0.4142004110731868, -0.04671610692201151, 0.006445332430303097, -0.02169039286673069, 0.13708779215812683, -0.9107140898704529, 0.4024580717086792, -0.09288319200277328, 0.01329892873764038, -0.008186191320419312, 0.03338945657014847, -0.16787417516345368, -0.6522090669770064, 0.7292757809142258,0.12082394457804135,-0.9189453125,0.401458740234375,-0.058990478515625
20220223-1408,2022-02-23 14:08:22Z,u01, 53,40,movements,el-ex, rt, d,204830.03896150002, -1.46778014887364, -0.41323982701057066, -0.045200569928981825, 0.0650663673877716, 0.025967808440327644, 0.13197359442710876, -0.9109693765640259, 0.40157854557037354, -0.0941779688000679, -0.01841294765472412, -0.03416219353675842, 0.0446481853723526, -0.16711603752115414, -0.6519073901395751, 0.7296995061076801,0.12094475833999113,-0.9280242919921875,0.359405517578125,-0.0470428466796875
20220223-1408,2022-02-23 14:08:22Z,u01, 54,40,movements,el-ex, rt, d,204830.0639075, -1.4656812960069163, -0.4135910029414076, -0.04163534457993133, 0.17677734792232513, 0.07496923208236694, 0.1245863139629364, -0.910629391670227, 0.40190014243125916, -0.09607494622468948, -0.007491946220397949, -0.04133492708206177, 0.06174291670322418, -0.16620907372383975, -0.6514115987216799, 0.7301423789265106,0.12218661574655076,-0.920806884765625,0.3745574951171875,-0.0238494873046875
20220223-1408,2022-02-23 14:08:22Z,u01, 55,40,movements,el-ex, rt, d,204830.08885250002, -1.4630986043924246, -0.41375602607288536, -0.038935776629705, 0.016192102804780006, 0.16010576486587524, 0.06399361044168472, -0.9103124141693115, 0.40205124020576477, -0.09841938316822052, 0.04341471195220947, -0.025571048259735107, 0.0622105598449707, -0.16554843298933247, -0.6506796626352078, 0.7308062412843106,0.12301259048015789,-0.8479766845703125,0.37835693359375,-0.02911376953125
20220223-1408,2022-02-23 14:08:22Z,u01, 56,40,movements,el-ex, rt, d,204830.1137985, -1.4632031760938085, -0.4164382141736362, -0.04118778587555341, -0.1523299217224121, 0.023091724142432213, 0.15104621648788452, -0.9092472195625305, 0.4045056402683258, -0.09820803254842758, 0.06398653984069824, -0.0031383931636810303, 0.07412993907928467, -0.1672470989623336, -0.6503263744365205, 0.7307226902876784,0.12307908175266691,-0.8948822021484375,0.4210052490234375,-0.0336151123046875
20220223-1408,2022-02-23 14:08:22Z,u01, 57,40,movements,el-ex, rt, d,204830.13874350002, -1.4673923973169936, -0.41672368981369634, -0.049207552447953946, -0.38005387783050537, 0.08948839455842972, 0.11267413198947906, -0.9095357656478882, 0.404766708612442, -0.09438621997833252, 0.0016682744026184082, -0.003002762794494629, 0.03582323342561722, -0.16970464744830768, -0.6511583710046711, 0.7298283606959541,0.12059752666839874,-0.891265869140625,0.386749267578125,-0.062835693359375
20220223-1408,2022-02-23 14:08:22Z,u01, 58,40,movements,el-ex, rt, d,204830.1636895, -1.4745786812638755, -0.4180402365561411, -0.06422807154575226, -0.6113136410713196, 0.0013163238763809204, 0.018950967118144035, -0.9096594452857971, 0.4059702455997467, -0.08779639005661011, 0.04808706045150757, -0.02921539545059204, 0.001599729061126709, -0.17464898900387102, -0.6523799000242714, 0.7282867895708178,0.11617550588954245,-0.864166259765625,0.391204833984375,-0.090728759765625
20220223-1408,2022-02-23 14:08:22Z,u01, 59,40,movements,el-ex, rt, d,204830.18863450002, -1.4825965394933567, -0.41888458445894716, -0.0809352873513511, -0.5309349298477173, -0.02720027230679989, -0.07906774431467056, -0.9099923372268677, 0.406741738319397, -0.08046990633010864, 0.029773712158203125, 0.04754301905632019, -0.01958179473876953, -0.17995173438923995, -0.6537449208809155, 0.7265632248991457,0.11109004173572617,-0.8798370361328125,0.4635772705078125,-0.1042938232421875
20220223-1408,2022-02-23 14:08:22Z,u01, 60,40,movements,el-ex, rt, d,204830.2135795, -1.4877620362328787, -0.41728312223056074, -0.09013913586842537, -0.09873317927122116, -0.09733462333679199, -0.1457516998052597, -0.9110438823699951, 0.40527820587158203, -0.07582221925258636, 0.05472046136856079, 0.04549703001976013, -0.03309476375579834, -0.18210868012008904, -0.6549239040291955, 0.7254762961185893,0.10768208167812349,-0.85101318359375,0.4353485107421875,-0.1012725830078125
20220223-1408,2022-02-23 14:08:22Z,u01, 61,40,movements,el-ex, rt, d,204830.23852550003, -1.4899636475057592, -0.41426252898716354, -0.08739168381870129, 0.2898992598056793, -0.1378072053194046, -0.13207530975341797, -0.9124245047569275, 0.4025149345397949, -0.0739147737622261, 0.021311163902282715, 0.021755754947662354, -0.008177272975444794, -0.18001303541858382, -0.6562300824846454, 0.7247911144774224,0.10786708480957086,-0.90521240234375,0.4213104248046875,-0.09039306640625
20220223-1408,2022-02-23 14:08:22Z,u01, 62,40,movements,el-ex, rt, d,204830.2634705, -1.4888563026711983, -0.4104470950687253, -0.07801140604792386, 0.32659927010536194, -0.10688911378383636, -0.1620788723230362, -0.9138661623001099, 0.399019330739975, -0.07505025714635849, 0.0007190704345703125, -0.003938734531402588, -0.0192030668258667, -0.17563283195921686, -0.6569840027249186, 0.7248786723087659,0.10989182357600702,-0.9102630615234375,0.363525390625,-0.094635009765625
20220223-1408,2022-02-23 14:08:22Z,u01, 63,40,movements,el-ex, rt, d,204830.2884165, -1.489722153393661, -0.40669380719492976, -0.073594993757197, 0.007074504159390926, -0.11282669007778168, -0.14967873692512512, -0.915416955947876, 0.39557498693466187, -0.07437971234321594, 0.004284083843231201, -0.04466858506202698, -0.013907365500926971, -0.17279279232966813, -0.6579914865517164, 0.7245833522503826,0.11031253307098016,-0.9072113037109375,0.3584747314453125,-0.0837860107421875
20220223-1408,2022-02-23 14:08:22Z,u01, 64,40,movements,el-ex, rt, d,204830.3133615, -1.492797728288023, -0.4037670858724903, -0.0736253511261811, 0.09042332321405411, -0.1340227872133255, -0.10845592617988586, -0.9167917966842651, 0.39288529753685, -0.07165384292602539, 0.013379812240600586, -0.0058307945728302, -0.003602266311645508, -0.1715886890599743, -0.6593408831033873, 0.7237526453946812,0.10958652444258543,-0.9131011962890625,0.3919830322265625,-0.076629638671875
20220223-1408,2022-02-23 14:08:22Z,u01, 65,40,movements,el-ex, rt, d,204830.33830675003, -1.4918391897194865, -0.40099758954305165, -0.06686603317795682, 0.3852071464061737, -0.022556785494089127, -0.11475250124931335, -0.9178037047386169, 0.3903369903564453, -0.07261811941862106, 0.0027646422386169434, -0.0234089195728302, -0.03291141241788864, -0.1684233481232177, -0.6597912670670331, 0.7238665397544672,0.11102370103532438,-0.9068603515625,0.3593902587890625,-0.1085205078125
20220223-1408,2022-02-23 14:08:22Z,u01, 66,40,movements,el-ex, rt, d,204830.36325175, -1.4884466283433153, -0.39794757708263206, -0.05673055957645243, 0.35159197449684143, -0.06706206500530243, -0.08907363563776016, -0.9187344312667847, 0.38752710819244385, -0.07582899183034897, 0.03958392143249512, -0.05805930495262146, -0.02715235948562622, -0.1641785988013755, -0.6596445196657394, 0.7246080839380058,0.11339201075809074,-0.88836669921875,0.31976318359375,-0.0880889892578125
20220223-1408,2022-02-23 14:08:22Z,u01, 67,40,movements,el-ex, rt, d,204830.38819775, -1.486412307648138, -0.39604555709868633, -0.049388162738062055, 0.19732899963855743, -0.00020321086049079895, -0.07943306118249893, -0.9193110466003418, 0.38577303290367126, -0.07775981724262238, -0.006943345069885254, -0.0391848087310791, -0.004637420177459717, -0.1611906326328973, -0.6596496583041942, 0.7249805779247422,0.11525274514246753,-0.9271392822265625,0.3433990478515625,-0.081573486328125
20220223-1408,2022-02-23 14:08:22Z,u01, 68,40,movements,el-ex, rt, d,204830.41314275, -1.4844926154277038, -0.39302946162410984, -0.04807679121861164, -0.13280610740184784, 0.07282612472772598, -0.16386659443378448, -0.9203150868415833, 0.3829886317253113, -0.07962439954280853, 0.0062677860260009766, -0.047936081886291504, -0.04423093795776367, -0.15978439428916583, -0.6592850281635185, 0.7257315207147055,0.11456918735007043,-0.886505126953125,0.321197509765625,-0.1239471435546875
20220223-1408,2022-02-23 14:08:22Z,u01, 69,40,movements,el-ex, rt, d,204830.43808875, -1.4857137828037894, -0.3909765936923992, -0.0549911630119325, -0.24538996815681458, 0.03331480175256729, -0.09910343587398529, -0.9211931824684143, 0.38109150528907776, -0.07856713980436325, 0.035267770290374756, -0.06901869177818298, -0.05332958698272705, -0.1612567147277703, -0.659327463237321, 0.7258494533725828,0.11147366502570583,-0.896728515625,0.3125,-0.13623046875
20220223-1408,2022-02-23 14:08:22Z,u01, 70,40,movements,el-ex, rt, d,204830.46303375, -1.4846703754221597, -0.3888454267325147, -0.057039603062078635, 0.05437653511762619, 0.1017511859536171, -0.12492138892412186, -0.9219176173210144, 0.3791202902793884, -0.07959794253110886, 0.008541703224182129, -0.04415932297706604, -0.07918477058410645, -0.16122362464507617, -0.6589445895659324, 0.7264388190680102,0.10993495507063383,-0.9002685546875,0.34521484375,-0.15283203125
20220223-1408,2022-02-23 14:08:22Z,u01, 71,40,movements,el-ex, rt, d,204830.48797975, -1.48128075352134, -0.38590650302476254, -0.05627209317017652, -0.04870923236012459, 0.1129273995757103, -0.13746514916419983, -0.922748327255249, 0.37639912962913513, -0.08282168209552765, 0.03607523441314697, -0.03837108612060547, -0.05145543813705444, -0.1600988523824699, -0.6579950741230749, 0.7276937265096526,0.1089622647239743,-0.8905029296875,0.331787109375,-0.1384429931640625
20220223-1408,2022-02-23 14:08:22Z,u01, 72,40,movements,el-ex, rt, d,204830.51292475002, -1.478022508453611, -0.38082686241611863, -0.06050869997320826, -0.22779828310012817, 0.21681013703346252, -0.2140219658613205, -0.9243654012680054, 0.37168821692466736, -0.08600379526615143, 0.042208969593048096, -0.05862358212471008, -0.05881714075803757, -0.1598349266559571, -0.6568492206797429, 0.7293000315072611,0.10546787752500625,-0.86090087890625,0.304473876953125,-0.1546630859375
20220223-1408,2022-02-23 14:08:23Z,u01, 73,40,movements,el-ex, rt, d,204830.53787075, -1.4736815025591192, -0.3753587576533479, -0.06609890187385328, -0.11303262412548065, 0.22079089283943176, -0.1668417900800705, -0.925992488861084, 0.36660632491111755, -0.09021137654781342, 0.08918499946594238, -0.04771280288696289, -0.07087541371583939, -0.15991811231482198, -0.6552255402242442, 0.7313357105695844,0.1012618338930964,-0.8354034423828125,0.3195037841796875,-0.15887451171875
20220223-1408,2022-02-23 14:08:23Z,u01, 74,40,movements,el-ex, rt, d,204830.56281575002, -1.4676586539665037, -0.37157715837832456, -0.06659763849734578, 0.055340804159641266, 0.25177785754203796, -0.12958525121212006, -0.9268046021461487, 0.36308541893959045, -0.095928855240345, 0.1017618179321289, -0.046129822731018066, -0.0491819903254509, -0.15901403500250427, -0.6532611334822888, 0.7335496909850321,0.09934466506909184,-0.8145904541015625,0.313995361328125,-0.1297149658203125
20220223-1408,2022-02-23 14:08:23Z,u01, 75,40,movements,el-ex, rt, d,204830.58776175, -1.4609370593510935, -0.36851693693400617, -0.06572033679801698, -0.04799786955118179, 0.20522065460681915, -0.06438153982162476, -0.927238941192627, 0.36023232340812683, -0.10227758437395096, 0.12764781713485718, -0.02049538493156433, -0.023256294429302216, -0.15794803652188932, -0.6510864958319068, 0.7358741664435829,0.0981225811947059,-0.813232421875,0.3502960205078125,-0.12493896484375
20220223-1408,2022-02-23 14:08:23Z,u01, 76,40,movements,el-ex, rt, d,204830.61270675002, -1.4567700544044724, -0.3671563287503434, -0.07165133630753659, -0.3833911120891571, 0.3359026312828064, -0.11422432959079742, -0.9272907972335815, 0.358962744474411, -0.10619616508483887, 0.04902535676956177, 0.01779201626777649, -0.025990478694438934, -0.15958185158845792, -0.6491806763683976, 0.7375927099030137,0.09515834708597098,-0.8799896240234375,0.3674774169921875,-0.140716552734375
20220223-1408,2022-02-23 14:08:23Z,u01, 77,40,movements,el-ex, rt, d,204830.63765275, -1.4513915251925373, -0.36522598779648985, -0.08241685140464988, -0.39238160848617554, 0.3131557106971741, -0.1693291962146759, -0.9273926019668579, 0.35716038942337036, -0.1112644150853157, 0.12557363510131836, 0.008516520261764526, -0.04759460687637329, -0.16261402543837242, -0.6464707807960515, 0.739940558286815,0.09011309084303998,-0.7872772216796875,0.368865966796875,-0.166290283203125
20220223-1408,2022-02-23 14:08:23Z,u01, 78,40,movements,el-ex, rt, d,204830.66259775002, -1.448618410523654, -0.36357430539069446, -0.09053060643029104, -0.2063547521829605, 0.17788943648338318, -0.0827576145529747, -0.9276646375656128, 0.3556171655654907, -0.11390747874975204, 0.11681252717971802, 0.03502315282821655, -0.03718482702970505, -0.16475278943283916, -0.6449052476883175, 0.7412823114094762,0.0863386522471668,-0.8582763671875,0.40753173828125,-0.14617919921875
20220223-1408,2022-02-23 14:08:23Z,u01, 79,40,movements,el-ex, rt, d,204830.68754375, -1.4442282653474392, -0.3619485352583342, -0.09249265556862123, 0.0963817834854126, 0.2397252917289734, -0.0960117056965828, -0.927727997303009, 0.3540971875190735, -0.11805178225040436, 0.026436984539031982, 0.03434586524963379, -0.019734859466552734, -0.16497803087746718, -0.6432389577592834, 0.7428656701442329,0.0847151428535553,-0.8983917236328125,0.3921966552734375,-0.1347808837890625
20220223-1408,2022-02-23 14:08:23Z,u01, 80,40,movements,el-ex, rt, d,204830.71248875002, -1.4384672379295123, -0.3596778498455438, -0.09315385805463583, -0.24392352998256683, 0.23071596026420593, -0.12350151687860489, -0.9278271198272705, 0.3519727289676666, -0.12350022792816162, 0.04051315784454346, 0.08798399567604065, 0.007472634315490723, -0.1646001996678197, -0.6412149867523246, 0.744862067346204,0.08325119334372588,-0.89453125,0.4425506591796875,-0.106597900390625
20220223-1408,2022-02-23 14:08:23Z,u01, 81,40,movements,el-ex, rt, d,204830.73743475002, -1.4356098423497377, -0.3559349856174625, -0.10386237565967983, -0.5215447545051575, 0.31226009130477905, -0.3039059340953827, -0.9287692904472351, 0.3484669029712677, -0.12632755935192108, 0.026364386081695557, 0.03405570983886719, -0.01086394488811493, -0.1667702058935132, -0.6395497802240026, 0.74639882006165,0.07779904898285306,-0.8871917724609375,0.3612213134765625,-0.1434783935546875
20220223-1408,2022-02-23 14:08:23Z,u01, 82,40,movements,el-ex, rt, d,204830.76237975, -1.4332964635081373, -0.35036492521170265, -0.1187020509546587, -0.41802871227264404, 0.22806724905967712, -0.28762516379356384, -0.9303826093673706, 0.3432405889034271, -0.1287398338317871, 0.09244632720947266, -0.02449977397918701, -0.023756295442581177, -0.1695498109663831, -0.6378737676943506, 0.7479546016008647,0.07024074927881174,-0.8226776123046875,0.3479156494140625,-0.1419677734375
20220223-1408,2022-02-23 14:08:23Z,u01, 83,40,movements,el-ex, rt, d,204830.78732475, -1.4318334836490905, -0.3465165993861172, -0.12635662999464845, -0.15943756699562073, 0.17308056354522705, -0.13640353083610535, -0.9314947128295898, 0.33962351083755493, -0.13028284907341003, 0.04079335927963257, 0.14752861857414246, 0.016071096062660217, -0.1706260078488076, -0.6369814286310734, 0.7488566036115631,0.06599462165292747,-0.90869140625,0.5060577392578125,-0.1121368408203125
20220223-1408,2022-02-23 14:08:23Z,u01, 84,40,movements,el-ex, rt, d,204830.81227075, -1.426452831904679, -0.341657469264149, -0.12747909024912404, 0.08508452028036118, 0.25722014904022217, -0.2834785282611847, -0.9324023127555847, 0.33504921197891235, -0.1355287730693817, 0.02072012424468994, 0.15484943985939026, 0.007950320839881897, -0.1693700373904884, -0.635255386478134, 0.7508183863506595,0.06353109757695435,-0.87725830078125,0.446380615234375,-0.1334381103515625
20220223-1408,2022-02-23 14:08:23Z,u01, 85,40,movements,el-ex, rt, d,204830.83721575, -1.4207200677408094, -0.3344749070204007, -0.13012803919484756, -0.23631776869297028, 0.2637794315814972, -0.32188111543655396, -0.9339655041694641, 0.328273206949234, -0.14122793078422546, 0.13345879316329956, 0.06891313195228577, 0.0014118552207946777, -0.167737271781791, -0.6334431646987903, 0.7530260175691466,0.059715035246417414,-0.78692626953125,0.3878021240234375,-0.1415863037109375
20220223-1408,2022-02-23 14:08:23Z,u01, 86,40,movements,el-ex, rt, d,204830.86216175, -1.4185520665690634, -0.32829683832742124, -0.13771642202099282, -0.254184365272522, 0.08188134431838989, -0.2711363732814789, -0.9356439113616943, 0.3224312961101532, -0.14355726540088654, 0.15646898746490479, 0.06474527716636658, 0.014727532863616943, -0.16791734857599938, -0.6324753976422548, 0.7541818493157537,0.054666840341650536,-0.8175048828125,0.4127044677734375,-0.118011474609375
20220223-1408,2022-02-23 14:08:23Z,u01, 87,40,movements,el-ex, rt, d,204830.88710675001, -1.4179329953070707, -0.3219731995438087, -0.1423465781309283, -0.026161346584558487, 0.11795777827501297, -0.3072504997253418, -0.9375512003898621, 0.3164389729499817, -0.1444440484046936, 0.05316704511642456, 0.09873738884925842, 0.0307358056306839, -0.16705890646899438, -0.6323521962037272, 0.7547449312331247,0.050814445293245636,-0.880035400390625,0.4062652587890625,-0.115570068359375
20220223-1408,2022-02-23 14:08:23Z,u01, 88,40,movements,el-ex, rt, d,204830.91205275, -1.4149970113614536, -0.31535977695897327, -0.14220602688571596, 0.1078031063079834, 0.11264824122190475, -0.18807005882263184, -0.9391701817512512, 0.31015852093696594, -0.147517591714859, 0.10704725980758667, 0.07036522030830383, 0.013286232948303223, -0.16463820477026886, -0.6317716860708339, 0.7559159959068603,0.048477339284761056,-0.8111724853515625,0.373291015625,-0.126708984375
20220223-1408,2022-02-23 14:08:23Z,u01, 89,40,movements,el-ex, rt, d,204830.93699775002, -1.4113203764839235, -0.3101244396559178, -0.13726412418105557, 0.31860843300819397, 0.07449579238891602, -0.1977333426475525, -0.9402116537094116, 0.30517715215682983, -0.15122534334659576, 0.11771708726882935, 0.09162771701812744, 0.028712764382362366, -0.16122346067634005, -0.6311848573504568, 0.7571492268543337,0.04835089453461827,-0.8321075439453125,0.4044342041015625,-0.124114990234375
20220223-1408,2022-02-23 14:08:23Z,u01, 90,40,movements,el-ex, rt, d,204830.96194375, -1.4073542933076622, -0.30349270741071915, -0.1325531961096972, 0.06912992149591446, 0.09432628750801086, -0.23653686046600342, -0.9415807127952576, 0.29885509610176086, -0.1552790105342865, 0.09557229280471802, 0.12294360995292664, 0.007253721356391907, -0.1573640308909761, -0.6305529783957391, 0.7585292325619772,0.04767614703202494,-0.8444061279296875,0.396240234375,-0.1943359375
20220223-1408,2022-02-23 14:08:23Z,u01, 91,40,movements,el-ex, rt, d,204830.98688875002, -1.4065677451134628, -0.2974760333611186, -0.13633804155106877, -0.24384763836860657, 0.057063207030296326, -0.2778540849685669, -0.9432150721549988, 0.2931080162525177, -0.15631069242954254, 0.09145420789718628, 0.05740159749984741, -0.06549082696437836, -0.156331626257999, -0.6304007253314974, 0.759077457166756,0.04423567549333807,-0.849273681640625,0.3466644287109375,-0.2194366455078125
20220223-1408,2022-02-23 14:08:23Z,u01, 92,40,movements,el-ex, rt, d,204831.01183475, -1.4070583176764253, -0.29235853436842124, -0.14147451660946528, 0.029156338423490524, -0.041019417345523834, -0.2288053035736084, -0.9447592496871948, 0.288211464881897, -0.15609042346477509, 0.12682706117630005, 0.05485188961029053, -0.059287115931510925, -0.15603173140362414, -0.6305623550842794, 0.7592042611461185,0.04067128941949577,-0.793609619140625,0.3651123046875,-0.19342041015625
20220223-1408,2022-02-23 14:08:23Z,u01, 93,40,movements,el-ex, rt, d,204831.03677975002, -1.409083017494695, -0.2873605620694428, -0.13745088600074284, 0.30936866998672485, -0.1480071246623993, -0.15656200051307678, -0.946483314037323, 0.28342199325561523, -0.15440727770328522, 0.12618589401245117, 0.09629300236701965, -0.021938323974609375, -0.15285649971979917, -0.6320057381809685, 0.7586462650792626,0.040738539562545584,-0.8320159912109375,0.365814208984375,-0.175750732421875
20220223-1408,2022-02-23 14:08:23Z,u01, 94,40,movements,el-ex, rt, d,204831.06172575, -1.410133263865941, -0.2829699284664668, -0.1314834801693798, 0.115723617374897, -0.10808546841144562, -0.0933225080370903, -0.9478641152381897, 0.2792086899280548, -0.1536107212305069, 0.11651945114135742, 0.05389067530632019, -0.016127809882164, -0.14930944721959935, -0.633167691612507, 0.7583335869901566,0.041660333285153006,-0.8168792724609375,0.3137359619140625,-0.17706298828125
20220223-1408,2022-02-23 14:08:23Z,u01, 95,40,movements,el-ex, rt, d,204831.08667075002, -1.4120961219828336, -0.28175803422419454, -0.13065996516104553, 0.004913715645670891, -0.11501854658126831, 0.02127644047141075, -0.9484972357749939, 0.27804479002952576, -0.15180326998233795, 0.16779649257659912, 0.00850003957748413, -0.016943439841270447, -0.14855554568741675, -0.6340580513351788, 0.7577338786142374,0.0417261867612751,-0.7706451416015625,0.285400390625,-0.1604461669921875
20220223-1408,2022-02-23 14:08:23Z,u01, 96,40,movements,el-ex, rt, d,204831.11161675001, -1.4164104323788909, -0.2852187210085014, -0.1284488966476984, 0.1333097666501999, -0.2488168179988861, 0.2567417025566101, -0.9481867551803589, 0.28136733174324036, -0.14756090939044952, 0.1751154661178589, 0.0069017112255096436, 0.0008021146059036255, -0.14905050652575233, -0.6356126925147197, 0.7562035825265006,0.04400658558856474,-0.8078155517578125,0.3166961669921875,-0.14141845703125
20220223-1408,2022-02-23 14:08:23Z,u01, 97,40,movements,el-ex, rt, d,204831.13656175003, -1.4214218082889054, -0.29216059410221173, -0.12551528285745225, -0.05482461303472519, -0.21034139394760132, 0.2992565929889679, -0.9469602108001709, 0.28802192211151123, -0.14251326024532318, 0.10684168338775635, 0.039248645305633545, 0.010082423686981201, -0.1505822105014689, -0.6372349397412191, 0.7543056677164938,0.04774683452816153,-0.8410491943359375,0.326568603515625,-0.1319732666015625
20220223-1408,2022-02-23 14:08:23Z,u01, 98,40,movements,el-ex, rt, d,204831.16150775002, -1.4268711231770281, -0.3006304417088114, -0.13076057164385418, -0.3829064667224884, -0.09717056900262833, 0.3150063157081604, -0.9452743530273438, 0.2961224317550659, -0.1369960457086563, 0.09850311279296875, 0.04118838906288147, -0.007092460989952087, -0.15526116947093055, -0.6382757599150649, 0.7523975116399858,0.048949216512404525,-0.8577423095703125,0.355316162109375,-0.1533966064453125
20220223-1408,2022-02-23 14:08:23Z,u01, 99,40,movements,el-ex, rt, d,204831.18645275, -1.4314716216928196, -0.30937760697245603, -0.1395301377090679, -0.2982196807861328, -0.08868101239204407, 0.2707218825817108, -0.9432933330535889, 0.3044658601284027, -0.132281094789505, 0.06348681449890137, 0.07019847631454468, -0.023159965872764587, -0.16117666458082588, -0.6386560385742944, 0.7508339042524055,0.048877673714895764,-0.886566162109375,0.374786376953125,-0.154327392578125
20220223-1408,2022-02-23 14:08:23Z,u01, 100,40,movements,el-ex, rt, d,204831.21139775, -1.4343876549958805, -0.3168072500269588, -0.1439082002997808, -0.11038917303085327, -0.03925080969929695, 0.2732407748699188, -0.9414080381393433, 0.3115342855453491, -0.1292186826467514, 0.03923201560974121, 0.050373733043670654, -0.013298213481903076, -0.16523619579023122, -0.6388173875452073, 0.7497457381524777,0.04990786506324746,-0.8820648193359375,0.3511962890625,-0.1450042724609375
20220223-1408,2022-02-23 14:08:23Z,u01, 101,40,movements,el-ex, rt, d,204831.23634375, -1.437266294986467, -0.3243342055406174, -0.14584044303859808, -0.17215964198112488, -0.13482187688350677, 0.306425005197525, -0.9394254088401794, 0.31867778301239014, -0.12619242072105408, 0.07589995861053467, 0.04388636350631714, -0.010571837425231934, -0.16854257041418852, -0.6391378521981772, 0.7486008767273377,0.051894550091621416,-0.880706787109375,0.373291015625,-0.1304473876953125
20220223-1408,2022-02-23 14:08:23Z,u01, 102,40,movements,el-ex, rt, d,204831.26128875, -1.4423790865091708, -0.3314682592308113, -0.15462510423304235, -0.5109325647354126, -0.004417397081851959, 0.164758563041687, -0.9377796649932861, 0.3254317045211792, -0.12109345942735672, 0.0023853182792663574, 0.03311935067176819, -0.010315053164958954, -0.17382882592001964, -0.6397161932509413, 0.7469306882709774,0.051394310116012976,-0.92340087890625,0.324859619140625,-0.140960693359375
20220223-1408,2022-02-23 14:08:23Z,u01, 103,40,movements,el-ex, rt, d,204831.28623475, -1.4467577010080772, -0.33758997951200587, -0.16622477941575914, -0.3888138234615326, -0.0936918780207634, 0.2340414971113205, -0.9363065361976624, 0.3312140703201294, -0.1167374849319458, 0.09823262691497803, -0.02181151509284973, -0.04285396635532379, -0.1796591742779935, -0.6398076580133791, 0.7456013729519831,0.04947253522125816,-0.839630126953125,0.31976318359375,-0.1617584228515625
20220223-1408,2022-02-23 14:08:23Z,u01, 104,40,movements,el-ex, rt, d,204831.31117975002, -1.4506825889573407, -0.3449529319742505, -0.16981749496993553, 0.07607977092266083, -0.10559681057929993, 0.2872900366783142, -0.9343108534812927, 0.33815237879753113, -0.11276639252901077, 0.057159364223480225, -0.01922839879989624, -0.03562508523464203, -0.18338320184078488, -0.6403025874019871, 0.7441705500311304,0.05092563050034615,-0.8931121826171875,0.3448944091796875,-0.12603759765625
20220223-1408,2022-02-23 14:08:23Z,u01, 105,40,movements,el-ex, rt, d,204831.3361260417, -1.4527039939322168, -0.3525618538568603, -0.16651453463931923, 0.05751301348209381, -0.14155161380767822, 0.3193264901638031, -0.9319548606872559, 0.3453032076358795, -0.11057119816541672, 0.021188199520111084, 0.04487928748130798, 0.04758311063051224, -0.1850276253285386, -0.6406864889070376, 0.7431528109890475,0.05485960502187204,-0.9228973388671875,0.37786865234375,-0.0692291259765625
20220223-1408,2022-02-23 14:08:23Z,u01, 106,40,movements,el-ex, rt, d,204831.36107104167, -1.4543475612020944, -0.35926609116548003, -0.16593594937790296, -0.15096743404865265, -0.011281095445156097, 0.2353329360485077, -0.9298151135444641, 0.3515872657299042, -0.10876791179180145, -0.002573251724243164, -0.014200150966644287, 0.01550639420747757, -0.18722044900596904, -0.6407531098976389, 0.7423501360164171,0.057448822964581425,-0.9078369140625,0.31219482421875,-0.10498046875
20220223-1408,2022-02-23 14:08:23Z,u01, 107,40,movements,el-ex, rt, d,204831.3860170417, -1.4558222051671694, -0.3657005065882874, -0.16950951848859308, -0.11389978229999542, -0.051714204251766205, 0.2743493616580963, -0.927708089351654, 0.3576035797595978, -0.10713490843772888, 0.09120583534240723, -0.0814652144908905, -0.03939497470855713, -0.19064497117277968, -0.6403803864426598, 0.7417261402517994,0.058395643451724044,-0.8270416259765625,0.2936859130859375,-0.1369781494140625
20220223-1408,2022-02-23 14:08:23Z,u01, 108,40,movements,el-ex, rt, d,204831.41096204167, -1.459612939001859, -0.3755690157421243, -0.17008384630671006, 0.0845518484711647, -0.1984209567308426, 0.4437068700790405, -0.9245551228523254, 0.3668019473552704, -0.1032208502292633, 0.07192432880401611, -0.01005139946937561, 0.008021458983421326, -0.19426823473093688, -0.6408193395969933, 0.7401273605107632,0.06182356457257837,-0.899566650390625,0.3867340087890625,-0.0919189453125
20220223-1408,2022-02-23 14:08:23Z,u01, 109,40,movements,el-ex, rt, d,204831.4359080417, -1.4616254002234172, -0.38536714375104236, -0.16569302616354523, 0.09570833295583725, -0.0842161551117897, 0.3533784747123718, -0.9211440086364746, 0.37589937448501587, -0.10096357017755508, 0.0036023855209350586, -0.009657859802246094, 0.017498254776000977, -0.1963157057508562, -0.6410759391924784, 0.7389224560300027,0.06689941669617411,-0.8964996337890625,0.3374786376953125,-0.0821685791015625
20220223-1408,2022-02-23 14:08:23Z,u01, 110,40,movements,el-ex, rt, d,204831.46085304167, -1.4646218063966496, -0.3944624485145683, -0.16471443785902876, -0.1065746322274208, -0.19754090905189514, 0.4045606255531311, -0.9180047512054443, 0.3843119740486145, -0.09783662855625153, 0.07301855087280273, -0.07951757311820984, 0.02247367799282074, -0.1991590181707402, -0.6414182487459735, 0.7375207546564935,0.07058121318007793,-0.862457275390625,0.3183746337890625,-0.0761871337890625
20220223-1408,2022-02-23 14:08:23Z,u01, 111,40,movements,el-ex, rt, d,204831.4857990417, -1.469068018786846, -0.4045995964442487, -0.16506638600550244, -0.0352587029337883, -0.1269979029893875, 0.3775371313095093, -0.9145076870918274, 0.39365071058273315, -0.09335356950759888, -0.004697084426879883, 0.004206985235214233, 0.015106745064258575, -0.20273345944275828, -0.6420454487196742, 0.7356359280646103,0.07427409067683471,-0.9167327880859375,0.408203125,-0.0721435546875
20220223-1408,2022-02-23 14:08:23Z,u01, 112,40,movements,el-ex, rt, d,204831.51074404168, -1.4716866521455678, -0.4135468029894673, -0.16487832864239954, 0.027885109186172485, -0.11808910220861435, 0.3721242845058441, -0.9112077355384827, 0.40185967087745667, -0.09060636162757874, 0.038847386837005615, -0.009678244590759277, 0.035781748592853546, -0.20576132088851468, -0.6421519269879056, 0.7343585274501312,0.07759417624710108,-0.8565673828125,0.385986328125,-0.038116455078125
20220223-1408,2022-02-23 14:08:24Z,u01, 113,40,movements,el-ex, rt, d,204831.53569004167, -1.4730812605807637, -0.42291969945969926, -0.16042669054986142, 0.1960795372724533, -0.09834369271993637, 0.34636372327804565, -0.9075444936752319, 0.4104246497154236, -0.08896409720182419, 0.023023009300231934, 0.028235018253326416, 0.042608149349689484, -0.20760899607754965, -0.6421965854366333, 0.7332639987431884,0.08249829855638219,-0.8849029541015625,0.44085693359375,-0.0503997802734375
20220223-1408,2022-02-23 14:08:24Z,u01, 114,40,movements,el-ex, rt, d,204831.56063504168, -1.4740039999278434, -0.4300705526000835, -0.15709439681484036, -0.1561414897441864, -0.10680482536554337, 0.26721325516700745, -0.9046820402145386, 0.41693493723869324, -0.08784077316522598, 0.04524588584899902, 0.0004388093948364258, 0.031932830810546875, -0.20903975757433085, -0.6421697550347192, 0.7324548181273585,0.08620039731681894,-0.844970703125,0.4026336669921875,-0.0652313232421875
20220223-1408,2022-02-23 14:08:24Z,u01, 115,40,movements,el-ex, rt, d,204831.5855800417, -1.483083737441209, -0.43752741633259484, -0.1709869478023355, -0.8162308931350708, -0.13967016339302063, 0.32175177335739136, -0.9023199677467346, 0.42370107769966125, -0.07934841513633728, 0.06557369232177734, -0.025477200746536255, 0.03126818686723709, -0.21575388881872767, -0.6432542671167552, 0.7297400462111127,0.08457976192527766,-0.835693359375,0.3845062255859375,-0.05126953125
20220223-1408,2022-02-23 14:08:24Z,u01, 116,40,movements,el-ex, rt, d,204831.61052604168, -1.4917672029164981, -0.44773544321802694, -0.18407076500667777, -0.005443916656076908, -0.13935917615890503, 0.3560391366481781, -0.898616373538971, 0.4329253137111664, -0.07116508483886719, 0.06003904342651367, -0.02807903289794922, 0.02993607521057129, -0.2231808315881656, -0.6439004386092919, 0.7269753735758189,0.08419886338316723,-0.84832763671875,0.4481201171875,-0.0443267822265625
20220223-1408,2022-02-23 14:08:24Z,u01, 117,40,movements,el-ex, rt, d,204831.6354710417, -1.4913269193756549, -0.4551584282559866, -0.17379566384576908, 0.43258607387542725, -0.18167699873447418, 0.2721642553806305, -0.8953567743301392, 0.43960461020469666, -0.07130364328622818, 0.017411768436431885, 0.07959097623825073, 0.016112811863422394, -0.22248767678369216, -0.6440864955557315, 0.726280250539336,0.09038212084001412,-0.8833770751953125,0.5142364501953125,-0.057769775390625
20220223-1408,2022-02-23 14:08:24Z,u01, 118,40,movements,el-ex, rt, d,204831.66041704168, -1.4919632237803102, -0.4604594771622584, -0.1653674741601991, 0.09060971438884735, -0.09773196280002594, 0.18942123651504517, -0.8930661082267761, 0.44435977935791016, -0.0705493837594986, -0.017181575298309326, 0.015814781188964844, 0.024483337998390198, -0.22159737578810187, -0.6446859018542936, 0.7253920692109515,0.09529432665126497,-0.9287872314453125,0.44635009765625,-0.0374908447265625
20220223-1408,2022-02-23 14:08:24Z,u01, 119,40,movements,el-ex, rt, d,204831.68536204167, -1.4921434026076286, -0.4642006048305864, -0.1666145783694375, -0.09604299068450928, 0.08658301830291748, 0.09676933288574219, -0.8914154171943665, 0.4477081298828125, -0.07025736570358276, -0.00607609748840332, 0.024627715349197388, 0.026541173458099365, -0.22329906161467397, -0.6442118015725933, 0.7251825684637034,0.09611976001109651,-0.8746337890625,0.479949951171875,-0.0544891357421875
20220223-1408,2022-02-23 14:08:24Z,u01, 120,40,movements,el-ex, rt, d,204831.7103080417, -1.4912908236865445, -0.4675667014696823, -0.16662436609744874, 0.0834607258439064, -0.06872774660587311, 0.17410621047019958, -0.889847993850708, 0.45071548223495483, -0.07089725881814957, 0.07360947132110596, 0.032255738973617554, 0.008977293968200684, -0.224520108227162, -0.6435387248718343, 0.7252657055234255,0.09715190456360123,-0.82232666015625,0.4893798828125,-0.055267333984375
20220223-1408,2022-02-23 14:08:24Z,u01, 121,40,movements,el-ex, rt, d,204831.73525304167, -1.492260850161353, -0.4719448530838457, -0.16375835149617907, 0.11483605951070786, -0.027473047375679016, 0.12175983190536499, -0.8879404664039612, 0.4546194076538086, -0.06987854838371277, -0.019118309020996094, 0.001404792070388794, 0.016488321125507355, -0.22507987081033948, -0.6437389037089875, 0.7245585873462697,0.09977048916990022,-0.9113006591796875,0.441680908203125,-0.0582733154296875
20220223-1408,2022-02-23 14:08:24Z,u01, 122,40,movements,el-ex, rt, d,204831.7601990417, -1.4906228112358368, -0.47385442799839955, -0.16248099539593583, -0.02819293923676014, 0.07257139682769775, 0.08754287660121918, -0.8869578838348389, 0.4563193917274475, -0.07126329094171524, 0.024271667003631592, -0.04192116856575012, -0.0019938871264457703, -0.22541826389592137, -0.6430823915282675, 0.7249091518433627,0.1006899545007488,-0.8153533935546875,0.40142822265625,-0.0714263916015625
20220223-1408,2022-02-23 14:08:24Z,u01, 123,40,movements,el-ex, rt, d,204831.78514404167, -1.4919060352821847, -0.4797940126369328, -0.16538125761705819, -0.157330721616745, 0.01130370981991291, 0.15377509593963623, -0.8843311071395874, 0.46159645915031433, -0.06991022825241089, 0.05562615394592285, -0.03882116079330444, -0.011647820472717285, -0.22835948914827053, -0.6425704849306044, 0.7242902951495302,0.10177819825017448,-0.845428466796875,0.4258575439453125,-0.07781982421875
20220223-1408,2022-02-23 14:08:24Z,u01, 124,40,movements,el-ex, rt, d,204831.8100900417, -1.493241058478242, -0.48660105019870586, -0.1700559831260427, -0.20872657001018524, 0.06717915832996368, 0.17683854699134827, -0.8812704682350159, 0.46762415766716003, -0.06848452985286713, 0.0023641586303710938, -0.0077089667320251465, -0.0043759942054748535, -0.23216378341150315, -0.6417614134962721, 0.7236925351609866,0.10252546629456066,-0.883331298828125,0.480316162109375,-0.0647735595703125
20220223-1408,2022-02-23 14:08:24Z,u01, 125,40,movements,el-ex, rt, d,204831.83503504167, -1.4960654331708383, -0.4879133267035195, -0.17770715147074312, -0.3129614591598511, 0.026296773925423622, 0.1188964694738388, -0.8808477520942688, 0.46878373622894287, -0.06594935804605484, -0.024837791919708252, 0.0029875636100769043, -0.008604884147644043, -0.2349314485431786, -0.6417417994485797, 0.7230966160606715,0.10052910197476167,-0.91485595703125,0.470367431640625,-0.083953857421875
20220223-1408,2022-02-23 14:08:24Z,u01, 126,40,movements,el-ex, rt, d,204831.8599810417, -1.4973361300409198, -0.4893977116619192, -0.18704836170797146, -0.33521515130996704, 0.16312719881534576, 0.07269582152366638, -0.8802359104156494, 0.47009438276290894, -0.0647788718342781, -0.03281962871551514, 0.011762946844100952, -0.03786677122116089, -0.2383782850577664, -0.6409261728775091, 0.7230659081354591,0.09780218613884384,-0.88018798828125,0.4860076904296875,-0.1290740966796875
20220223-1408,2022-02-23 14:08:24Z,u01, 127,40,movements,el-ex, rt, d,204831.88492604168, -1.4986799656810696, -0.4899924589503248, -0.19464086073064343, -0.2989684045314789, -0.046671174466609955, 0.08620963245630264, -0.880043089389801, 0.47061923146247864, -0.06357575953006744, 0.01902008056640625, 0.04517364501953125, -0.03084539622068405, -0.24095120993317604, -0.6404331622654273, 0.722968315466328,0.09541905458143835,-0.88031005859375,0.523223876953125,-0.076629638671875
20220223-1408,2022-02-23 14:08:24Z,u01, 128,40,movements,el-ex, rt, d,204831.9098710417, -1.502189265451388, -0.49274954911890484, -0.20189972079101362, -0.1816481351852417, 0.10137694329023361, 0.0495278500020504, -0.8789629340171814, 0.4730501174926758, -0.060397855937480927, -0.07515394687652588, 0.06933876872062683, 0.004291541874408722, -0.24406017290551174, -0.6404964510746792, 0.7220346802004033,0.0941537659494221,-0.9648895263671875,0.554229736328125,-0.0644989013671875
20220223-1408,2022-02-23 14:08:24Z,u01, 129,40,movements,el-ex, rt, d,204831.93481704168, -1.4993271336882894, -0.4925809988167436, -0.20478049752954652, -0.05983218923211098, 0.17860549688339233, -0.0656956136226654, -0.8788660168647766, 0.4729016125202179, -0.0629190057516098, 0.01019829511642456, 0.06286504864692688, -0.030891776084899902, -0.24505740663893102, -0.6391301619676875, 0.7230941790734922,0.09270603755723417,-0.8438720703125,0.5224456787109375,-0.09429931640625
20220223-1408,2022-02-23 14:08:24Z,u01, 130,40,movements,el-ex, rt, d,204831.9597620417, -1.4987335352040088, -0.49104195309210014, -0.20731364574534278, -0.061879660934209824, -0.012526189908385277, -0.08365364372730255, -0.8795533776283264, 0.4715449810028076, -0.0634930208325386, 0.057211339473724365, 0.01731613278388977, -0.03498697280883789, -0.24536364732626761, -0.6387880486395406, 0.723484407316392,0.09119725729549433,-0.8428497314453125,0.471954345703125,-0.104400634765625
20220223-1408,2022-02-23 14:08:24Z,u01, 131,40,movements,el-ex, rt, d,204831.98470804168, -1.498750130223737, -0.48869991693443343, -0.20554048076816828, 0.2087104171514511, 0.008714385330677032, -0.13656185567378998, -0.8806535005569458, 0.46947839856147766, -0.06355774402618408, -0.0033797621726989746, 4.0531158447265625e-06, -0.06936132162809372, -0.24398895670323367, -0.6392890725024536, 0.7235253328001003,0.09104957957812387,-0.8828887939453125,0.4683837890625,-0.1357574462890625
20220223-1408,2022-02-23 14:08:24Z,u01, 132,40,movements,el-ex, rt, d,204832.0096530417, -1.49486571153932, -0.48685722282943616, -0.19902724880454767, 0.2146163433790207, 0.00864693894982338, -0.128749281167984, -0.8812611103057861, 0.46785059571266174, -0.06704359501600266, 0.03340643644332886, -0.010605663061141968, -0.058139316737651825, -0.24144922101413244, -0.6388900354174651, 0.7245687904009779,0.09231436273039972,-0.82086181640625,0.44171142578125,-0.121978759765625
20220223-1408,2022-02-23 14:08:24Z,u01, 133,40,movements,el-ex, rt, d,204832.03459904168, -1.4939184545323982, -0.48769678100598807, -0.19490101550812236, 0.061234280467033386, -0.15893587470054626, -0.05603239685297012, -0.8808053135871887, 0.46859243512153625, -0.06784815341234207, 0.03923720121383667, -0.027704954147338867, -0.017585568130016327, -0.24046581071076342, -0.6389460977372894, 0.7246325566065406,0.0939779786736829,-0.871917724609375,0.44866943359375,-0.07684326171875
20220223-1408,2022-02-23 14:08:24Z,u01, 134,40,movements,el-ex, rt, d,204832.05954404167, -1.4940405037441395, -0.48544099448943473, -0.1916046040770042, 0.15610213577747345, 0.01444510743021965, -0.16784188151359558, -0.881865382194519, 0.4665984511375427, -0.06782154738903046, -0.06909310817718506, -0.006423771381378174, -0.00821281224489212, -0.23862471179123837, -0.6396463670753104, 0.7245650208367534,0.09442734185320267,-0.95721435546875,0.467864990234375,-0.0742340087890625
20220223-1408,2022-02-23 14:08:24Z,u01, 135,40,movements,el-ex, rt, d,204832.08449004169, -1.4890502375624155, -0.48042408607883624, -0.1877197703923922, 0.04694109410047531, 0.004209648817777634, -0.17464107275009155, -0.8838376998901367, 0.462155282497406, -0.07241164147853851, 0.01846599578857422, -0.00025647878646850586, 0.019463904201984406, -0.2358749550969175, -0.6388718056333245, 0.7262594948425932,0.09355745838226298,-0.850860595703125,0.455902099609375,-0.0501861572265625
20220223-1408,2022-02-23 14:08:24Z,u01, 136,40,movements,el-ex, rt, d,204832.10943504167, -1.4900059760654858, -0.4772838514097515, -0.18700801728513738, 0.039189960807561874, -0.07896459847688675, -0.12709325551986694, -0.8853488564491272, 0.4593682587146759, -0.07168367505073547, -0.009869158267974854, -0.004992008209228516, 0.024518966674804688, -0.23450993063071496, -0.6396587022428375, 0.7260968067520008,0.09287330973107627,-0.9513092041015625,0.4580841064453125,-0.04827880859375
20220223-1408,2022-02-23 14:08:24Z,u01, 137,40,movements,el-ex, rt, d,204832.1343810417, -1.4870024243511757, -0.4721596958643554, -0.18429186041585816, 0.14602969586849213, 0.16366954147815704, -0.21700777113437653, -0.8874635100364685, 0.4548107385635376, -0.07453856617212296, -0.044589221477508545, 0.00133553147315979, 0.02993733435869217, -0.2319939282467215, -0.6394603462330998, 0.7272167291180602,0.09178912607611484,-0.899993896484375,0.4459686279296875,-0.0468292236328125
20220223-1408,2022-02-23 14:08:24Z,u01, 138,40,movements,el-ex, rt, d,204832.15932604167, -1.4832583441149323, -0.466541622091644, -0.1820015835786926, 0.06543218344449997, 0.026139112189412117, -0.16618400812149048, -0.8897095918655396, 0.44980019330978394, -0.07808293402194977, 0.064453125, -0.02693331241607666, 0.014392971992492676, -0.22946839812137662, -0.6389857496112494, 0.7286194244803927,0.09030713034672028,-0.8242340087890625,0.4075927734375,-0.0628204345703125
20220223-1408,2022-02-23 14:08:24Z,u01, 139,40,movements,el-ex, rt, d,204832.1842720417, -1.4824887200073438, -0.46410685425477466, -0.17988967525137564, 0.16017550230026245, 0.11502803862094879, -0.11685313284397125, -0.8907373547554016, 0.4476242959499359, -0.07886399328708649, -0.04012507200241089, -0.04827126860618591, 0.02501595765352249, -0.2279753433870168, -0.6392145546646388, 0.7289038640138361,0.09017323802887461,-0.948699951171875,0.3981781005859375,-0.0508880615234375
20220223-1408,2022-02-23 14:08:24Z,u01, 140,40,movements,el-ex, rt, d,204832.20921704167, -1.475850158732745, -0.4594630876844986, -0.1768478674305053, 0.01888948678970337, 0.306378573179245, -0.16072659194469452, -0.8922538757324219, 0.4434669315814972, -0.08497157692909241, -0.0289345383644104, -0.05275037884712219, 0.030330128967761993, -0.22567044322873156, -0.6376417993686304, 0.7311420394486349,0.0889783615810143,-0.86602783203125,0.3828887939453125,-0.0628814697265625
20220223-1408,2022-02-23 14:08:24Z,u01, 141,40,movements,el-ex, rt, d,204832.23416204168, -1.4732195556473182, -0.45720595440534767, -0.18196558436350752, -0.291242778301239, 0.09039147198200226, -0.048900119960308075, -0.8930213451385498, 0.4414427578449249, -0.08741575479507446, 0.07482969760894775, -0.04802533984184265, 0.013807535171508789, -0.22662058696039672, -0.6363452160733463, 0.7323267771319836,0.08605558341660513,-0.835601806640625,0.402984619140625,-0.0654144287109375
20220223-1408,2022-02-23 14:08:24Z,u01, 142,40,movements,el-ex, rt, d,204832.25910804168, -1.4747933011512169, -0.45681196503641247, -0.18890891804649979, -0.07782057672739029, 0.1836099624633789, -0.06385096907615662, -0.8933309316635132, 0.4410892128944397, -0.08602692186832428, -0.05626952648162842, -0.019092023372650146, 0.03661917895078659, -0.22862403931191486, -0.6361741788651906, 0.7321415509236693,0.08356114972792861,-0.995452880859375,0.427093505859375,-0.050262451171875
20220223-1408,2022-02-23 14:08:24Z,u01, 143,40,movements,el-ex, rt, d,204832.2840530417, -1.4666484230695, -0.4530032025492531, -0.1877377682744913, 0.09796333312988281, 0.36597996950149536, -0.1556645780801773, -0.894264817237854, 0.4376677870750427, -0.09347401559352875, -0.01991981267929077, -0.011444002389907837, -0.014603786170482635, -0.2272462253376287, -0.6337366529107353, 0.7348788252848506,0.08179337176223228,-0.87664794921875,0.4158935546875,-0.1216278076171875
20220223-1408,2022-02-23 14:08:24Z,u01, 144,40,movements,el-ex, rt, d,204832.30899904168, -1.4595831344257424, -0.4502249609050765, -0.18700145237948462, 0.05384624004364014, 0.1528637707233429, -0.05955742299556732, -0.8947871923446655, 0.4351680874824524, -0.09992444515228271, 0.08999276161193848, -0.0769374668598175, -0.022832274436950684, -0.2263160926289444, -0.6315210236733233, 0.7372297245960829,0.0803410998316153,-0.798309326171875,0.325408935546875,-0.0892181396484375
20220223-1408,2022-02-23 14:08:24Z,u01, 145,40,movements,el-ex, rt, d,204832.333943625, -1.4545249150845807, -0.44954462116708094, -0.18143701278016075, 0.3319329619407654, 0.17533385753631592, 0.013893290422856808, -0.894564151763916, 0.43455544114112854, -0.10448350012302399, 0.004030585289001465, -0.08123815059661865, 0.022803425788879395, -0.22452373311680063, -0.6303549345399986, 0.7386362304327198,0.08159904134515306,-0.9100189208984375,0.3766632080078125,-0.08551025390625
20220223-1408,2022-02-23 14:08:24Z,u01, 146,40,movements,el-ex, rt, d,204832.358889625, -1.4451601530094402, -0.44794888481296796, -0.17441600064906584, 0.03747595474123955, 0.2889074385166168, -0.09435688704252243, -0.8942333459854126, 0.43311768770217896, -0.11294293403625488, -0.014336109161376953, -0.011257916688919067, -0.013903141021728516, -0.22213022436472252, -0.6278428921132988, 0.7413802566429015,0.0826255863702447,-0.8721160888671875,0.4231109619140625,-0.1489410400390625
20220223-1408,2022-02-23 14:08:24Z,u01, 147,40,movements,el-ex, rt, d,204832.383834625, -1.4448493196164265, -0.44644546295354814, -0.18469370899829404, -0.6857482194900513, 0.09862636029720306, -0.11345740407705307, -0.8948431611061096, 0.43176212906837463, -0.1133025512099266, 0.05362600088119507, -0.02221617102622986, -0.03159475326538086, -0.22482852655527655, -0.6267382706489639, 0.7419722537724194,0.07828552037426978,-0.84918212890625,0.41046142578125,-0.1318206787109375
20220223-1408,2022-02-23 14:08:24Z,u01, 148,40,movements,el-ex, rt, d,204832.408780625, -1.4519555531441373, -0.44544250409049835, -0.20224037273287387, -0.40003710985183716, -0.0204449649900198, -0.12196867167949677, -0.896055281162262, 0.43085724115371704, -0.10699206590652466, 0.0006999373435974121, 0.019643306732177734, 0.021604061126708984, -0.22970546367373018, -0.6274865467712403, 0.7404558046113521,0.07225952465897106,-0.93463134765625,0.47613525390625,-0.0835113525390625
20220223-1408,2022-02-23 14:08:24Z,u01, 149,40,movements,el-ex, rt, d,204832.43372562501, -1.4489899291272026, -0.4411010349449677, -0.1998536089528679, 0.5468089580535889, 0.17941682040691376, -0.21283353865146637, -0.8975822329521179, 0.4269353747367859, -0.10987519472837448, -0.06181424856185913, 0.04315745830535889, -0.034457504749298096, -0.22751838340282518, -0.6271345848582512, 0.7415145638493497,0.07137142678145408,-0.9448089599609375,0.4641571044921875,-0.1514129638671875
20220223-1408,2022-02-23 14:08:24Z,u01, 150,40,movements,el-ex, rt, d,204832.458671625, -1.4387695946390728, -0.43344345909973336, -0.18563859938210744, 0.3659258484840393, 0.12404463440179825, -0.22196418046951294, -0.8996267914772034, 0.41999831795692444, -0.11946975439786911, 0.005690634250640869, 0.024749577045440674, -0.0380464643239975, -0.2206953822380225, -0.6257464918336162, 0.7445854210556067,0.07298896925405218,-0.8872528076171875,0.4205322265625,-0.136077880859375
20220223-1408,2022-02-23 14:08:24Z,u01, 151,40,movements,el-ex, rt, d,204832.48361662502, -1.4368829003894883, -0.4270955641234449, -0.18514644343097125, -0.1994696408510208, 0.06792783737182617, -0.3203645348548889, -0.9020240902900696, 0.41422900557518005, -0.12152040749788284, -0.037581801414489746, 0.001405179500579834, 0.027724862098693848, -0.2183271603672237, -0.6257579794969164, 0.7454768518530477,0.07088469475212339,-0.948089599609375,0.4233551025390625,-0.08892822265625
20220223-1408,2022-02-23 14:08:24Z,u01, 152,40,movements,el-ex, rt, d,204832.508561625, -1.4363746012995253, -0.4193054388906177, -0.18989461932335672, 0.09971998631954193, 0.06915395706892014, -0.340981662273407, -0.9051325917243958, 0.40712615847587585, -0.12240764498710632, -0.022540926933288574, 0.015832245349884033, 0.029771745204925537, -0.21702609025593209, -0.6258560964986344, 0.7461775983569776,0.0665058194192566,-0.91607666015625,0.4331207275390625,-0.099151611328125
20220223-1408,2022-02-23 14:08:25Z,u01, 153,40,movements,el-ex, rt, d,204832.53350762502, -1.4311597756521484, -0.4090803547994306, -0.18057223778887294, 0.6090719103813171, 0.09065072983503342, -0.3844907879829407, -0.9085569977760315, 0.39776572585105896, -0.12769882380962372, -0.04186737537384033, 0.038834065198898315, 0.0024243593215942383, -0.2105897705065, -0.6259413232479576, 0.7479856330478114,0.06608406019451185,-0.9585418701171875,0.4324798583984375,-0.1345672607421875
20220223-1408,2022-02-23 14:08:25Z,u01, 154,40,movements,el-ex, rt, d,204832.558452625, -1.4224500146557726, -0.39759888491270967, -0.16720487980460175, 0.4522330164909363, 0.15731516480445862, -0.3831038773059845, -0.911867082118988, 0.38720566034317017, -0.13627322018146515, -0.035047709941864014, 0.006394833326339722, -0.007174432277679443, -0.2025258493398422, -0.6251773092705195, 0.7508135352845783,0.06645102863398622,-0.931427001953125,0.3609619140625,-0.1419525146484375
20220223-1408,2022-02-23 14:08:25Z,u01, 155,40,movements,el-ex, rt, d,204832.58339862502, -1.4169065609833993, -0.387586378674144, -0.1620841678016343, 0.031007736921310425, 0.1300598531961441, -0.36733394861221313, -0.9148829579353333, 0.3779549300670624, -0.14191316068172455, -0.0053899288177490234, -0.03457111120223999, 0.015784263610839844, -0.197448337186477, -0.6245458929381655, 0.7528526767479089,0.06457164495402029,-0.9183502197265625,0.3418121337890625,-0.1282501220703125
20220223-1408,2022-02-23 14:08:25Z,u01, 156,40,movements,el-ex, rt, d,204832.608343625, -1.414643991832341, -0.37958708695071286, -0.16499341919689664, -0.05224098265171051, 0.1433958262205124, -0.3101447522640228, -0.9175167083740234, 0.3705369830131531, -0.14444833993911743, -0.006799638271331787, -0.028297632932662964, 0.013558655977249146, -0.19549486921546896, -0.624145481816133, 0.754018764240187,0.060661642886816525,-0.927642822265625,0.3401336669921875,-0.1393890380859375
20220223-1408,2022-02-23 14:08:25Z,u01, 157,40,movements,el-ex, rt, d,204832.63328962502, -1.409777831700743, -0.37178811321674304, -0.16331587209737422, 0.2856924831867218, 0.19144092500209808, -0.2771422863006592, -0.9196276068687439, 0.3632819652557373, -0.1493701934814453, -0.001728653907775879, -0.025421828031539917, 0.025301232933998108, -0.19225011217495133, -0.6231811899533816, 0.7558348330489013,0.05830029701879541,-0.9195556640625,0.336517333984375,-0.1261444091796875
20220223-1408,2022-02-23 14:08:25Z,u01, 158,40,movements,el-ex, rt, d,204832.658234625, -1.4011795355502, -0.36342879803214967, -0.15457052523380033, 0.35392749309539795, 0.24062930047512054, -0.28700336813926697, -0.9212703108787537, 0.3554811477661133, -0.15777891874313354, -0.0016270875930786133, -0.0038118362426757812, -0.0013852566480636597, -0.18669245319235475, -0.6214953505338074, 0.7586260520478212,0.058103121693671544,-0.930572509765625,0.354583740234375,-0.179931640625
20220223-1408,2022-02-23 14:08:25Z,u01, 159,40,movements,el-ex, rt, d,204832.68318062503, -1.3943535797674487, -0.35607387621346975, -0.15256888216172856, -0.12222176790237427, 0.23252418637275696, -0.2629143297672272, -0.9227209687232971, 0.34859707951545715, -0.16451823711395264, -0.02466684579849243, -0.03940823674201965, -0.04004089534282684, -0.18353655541309458, -0.619721884842379, 0.761010836491964,0.055872212561093426,-0.9563751220703125,0.2940521240234375,-0.20025634765625
20220223-1408,2022-02-23 14:08:25Z,u01, 160,40,movements,el-ex, rt, d,204832.708125625, -1.3911417964437847, -0.35228334050235693, -0.16062523736196907, -0.3093641996383667, 0.2613971531391144, -0.1354018598794937, -0.9234814643859863, 0.34504181146621704, -0.1677159070968628, -0.05582785606384277, -0.08176660537719727, -0.0160607248544693, -0.18470551702428528, -0.6180824517564003, 0.7623824908153516,0.051295191303166676,-0.979888916015625,0.2700653076171875,-0.1798858642578125
20220223-1408,2022-02-23 14:08:25Z,u01, 161,40,movements,el-ex, rt, d,204832.733071625, -1.3861889851343356, -0.3501739386274884, -0.16490735393691408, 0.08888987451791763, 0.2635576128959656, -0.11578574031591415, -0.923352837562561, 0.3430612087249756, -0.17242087423801422, -0.046572327613830566, -0.021314263343811035, -0.034884825348854065, -0.18536439916121372, -0.6159785743601858, 0.7641044514074444,0.04852901780461588,-0.9658355712890625,0.33270263671875,-0.218231201171875
20220223-1408,2022-02-23 14:08:25Z,u01, 162,40,movements,el-ex, rt, d,204832.758016625, -1.3786055966237862, -0.3458832854884979, -0.16094616905120077, 0.2117307484149933, 0.23044151067733765, -0.14536967873573303, -0.9234551191329956, 0.3390277922153473, -0.17969749867916107, -0.026648879051208496, 0.021873176097869873, -0.0458577424287796, -0.18272619771602167, -0.6138097334318873, 0.7665160142149801,0.047981212060599854,-0.944915771484375,0.33880615234375,-0.2095489501953125
20220223-1408,2022-02-23 14:08:25Z,u01, 163,40,movements,el-ex, rt, d,204832.78296162502, -1.3716775385157598, -0.34176889004602845, -0.15532467151667062, 0.2923884987831116, 0.22848396003246307, -0.09558439999818802, -0.9235474467277527, 0.3351542055606842, -0.18636521697044373, -0.06337589025497437, -0.02004489302635193, -0.00046318769454956055, -0.17962625130529916, -0.6120063766136934, 0.7686734182478439,0.0482072997423752,-0.999481201171875,0.3184051513671875,-0.1851806640625
20220223-1408,2022-02-23 14:08:25Z,u01, 164,40,movements,el-ex, rt, d,204832.807907625, -1.3608566166038398, -0.33746280361717534, -0.14630069030102166, 0.3785950541496277, 0.36566850543022156, -0.1339160054922104, -0.9228796362876892, 0.33109405636787415, -0.19664666056632996, -0.07863098382949829, 0.0036379992961883545, -0.0034416168928146362, -0.17551171475109126, -0.608992864631373, 0.771936802452297,0.04936524492115807,-0.966033935546875,0.339019775390625,-0.23468017578125
20220223-1408,2022-02-23 14:08:25Z,u01, 165,40,movements,el-ex, rt, d,204832.83285262503, -1.350697296966871, -0.33310542090571443, -0.13972999237107647, 0.1964244544506073, 0.24450907111167908, -0.07891853898763657, -0.922233521938324, 0.32697930932044983, -0.2063252329826355, 0.012931644916534424, -0.031385987997055054, -0.021350979804992676, -0.17211475811611152, -0.6059817630610874, 0.7750462607310493,0.049659515474036076,-0.9134521484375,0.2929534912109375,-0.21484375
20220223-1408,2022-02-23 14:08:25Z,u01, 166,40,movements,el-ex, rt, d,204832.85779862502, -1.3423590252770268, -0.33077554118194, -0.13179311636423646, 0.6195135712623596, 0.2993420660495758, 0.010270858183503151, -0.921220600605011, 0.32477661967277527, -0.21417972445487976, -0.036863625049591064, -0.02118775248527527, 0.022376909852027893, -0.1690371143495452, -0.6036030085785372, 0.7774688847294517,0.05130394584336456,-0.98046875,0.3192291259765625,-0.1858673095703125
20220223-1408,2022-02-23 14:08:25Z,u01, 167,40,movements,el-ex, rt, d,204832.882743625, -1.325006551473861, -0.3234945293708906, -0.10838628704462958, 1.0031535625457764, 0.4254453182220459, -0.181910440325737, -0.9196348190307617, 0.3178817629814148, -0.23070140182971954, -0.017605900764465332, 0.04814609885215759, -0.013728916645050049, -0.15967126786911162, -0.5992949037002496, 0.7823867644450757,0.056760361641107815,-0.916351318359375,0.36297607421875,-0.26165771484375
20220223-1408,2022-02-23 14:08:25Z,u01, 168,40,movements,el-ex, rt, d,204832.90768962502, -1.310979574406471, -0.3146691229515522, -0.0941461128587592, 0.12226934731006622, 0.325096994638443, -0.195939302444458, -0.9189839959144592, 0.30950185656547546, -0.24428923428058624, 0.03292125463485718, -0.0011521875858306885, -0.043689727783203125, -0.15240373715398936, -0.5955069147913808, 0.7865847507730808,0.05855930857380387,-0.8948822021484375,0.2720184326171875,-0.2674102783203125
20220223-1408,2022-02-23 14:08:25Z,u01, 169,40,movements,el-ex, rt, d,204832.932634625, -1.3059277724749678, -0.3125065730967467, -0.0990177597585889, -0.23665034770965576, 0.26174649596214294, -0.07896101474761963, -0.918381929397583, 0.3074447810649872, -0.24910323321819305, -0.03993117809295654, -0.052302539348602295, 0.013492465019226074, -0.15315422964909448, -0.593289274297095, 0.7883275852133875,0.05559965781541465,-0.9695587158203125,0.27001953125,-0.2286834716796875
20220223-1408,2022-02-23 14:08:25Z,u01, 170,40,movements,el-ex, rt, d,204832.95758062502, -1.2990403700621302, -0.31026681619006535, -0.09916761585704849, 0.30448800325393677, 0.25166964530944824, -0.11964292824268341, -0.9173055291175842, 0.30531272292137146, -0.2556067407131195, -0.03893232345581055, 0.00129738450050354, -0.02515473961830139, -0.1525142749880166, -0.5907080738193404, 0.790475079647986,0.054337547685982146,-0.926361083984375,0.3193206787109375,-0.3164520263671875
20220223-1408,2022-02-23 14:08:25Z,u01, 171,40,movements,el-ex, rt, d,204832.982525625, -1.29190772661566, -0.30483958203273337, -0.09064934175830151, 0.30215147137641907, 0.12757906317710876, -0.14001432061195374, -0.91703861951828, 0.3001401424407959, -0.2625952959060669, 0.0072332024574279785, -0.001571357250213623, -0.09580296277999878, -0.14807403619340853, -0.5888772609917021, 0.7925989038463092,0.055540877479879125,-0.9180450439453125,0.292724609375,-0.3503265380859375
20220223-1408,2022-02-23 14:08:25Z,u01, 172,40,movements,el-ex, rt, d,204833.00747062502, -1.2890560702572034, -0.30098866664369933, -0.0881869206093859, 0.01873389072716236, 0.06464836001396179, -0.12284219264984131, -0.9173893928527832, 0.29646456241607666, -0.2655286490917206, -0.03224140405654907, -0.021638482809066772, -0.05083158612251282, -0.14591694690550827, -0.5881699710416066, 0.7935505010101551,0.05515381772854544,-0.963775634765625,0.2817840576171875,-0.306915283203125
20220223-1408,2022-02-23 14:08:25Z,u01, 173,40,movements,el-ex, rt, d,204833.032416625, -1.288379642613528, -0.29801742195222486, -0.08786433983359258, 0.11390817165374756, -0.022473294287919998, -0.08442455530166626, -0.9180516600608826, 0.2936255931854248, -0.2663934826850891, -0.04137539863586426, 0.02311640977859497, -0.03705781698226929, -0.14467314867728928, -0.5881096285707944, 0.7938789249403302,0.05434332935388886,-0.9623565673828125,0.3333282470703125,-0.29852294921875
20220223-1408,2022-02-23 14:08:25Z,u01, 174,40,movements,el-ex, rt, d,204833.05736162502, -1.288251640387382, -0.2958829999037509, -0.08393364154696008, 0.23214656114578247, -0.03656641021370888, 0.005888627842068672, -0.9186172485351562, 0.2915845811367035, -0.2666850984096527, -0.0550309419631958, 0.0646929144859314, -0.008583307266235352, -0.14268135211820865, -0.5884721572583396, 0.7939077180288188,0.055255748922984016,-0.971160888671875,0.358306884765625,-0.26318359375
20220223-1408,2022-02-23 14:08:25Z,u01, 175,40,movements,el-ex, rt, d,204833.082307625, -1.288275155978785, -0.29561781266700066, -0.08029556271513556, -0.10582251846790314, -0.08180785179138184, 0.09369498491287231, -0.918697714805603, 0.2913309335708618, -0.26668503880500793, -0.04445242881774902, 0.09521999955177307, -0.01624321937561035, -0.1415056844953482, -0.5887559913134648, 0.7938114145558461,0.05662215324563974,-0.95953369140625,0.3797607421875,-0.28875732421875
20220223-1408,2022-02-23 14:08:25Z,u01, 176,40,movements,el-ex, rt, d,204833.10725262502, -1.2925066079376148, -0.3004254661044609, -0.08971415799325189, -0.7195408344268799, -0.02804422751069069, 0.060700275003910065, -0.9184606075286865, 0.29592663049697876, -0.26240745186805725, -0.04188191890716553, 0.021776646375656128, -0.019574761390686035, -0.14605079422435166, -0.5894619940917083, 0.7926028383020376,0.054631253383926104,-0.9667205810546875,0.28387451171875,-0.2681732177734375
20220223-1408,2022-02-23 14:08:25Z,u01, 177,40,movements,el-ex, rt, d,204833.132198625, -1.2969898935895294, -0.306505055762446, -0.10887988857732964, -0.643574059009552, 0.13073596358299255, 0.02177431806921959, -0.9178787469863892, 0.30172842741012573, -0.25779587030410767, -0.04655313491821289, -0.03366196155548096, 0.016936063766479492, -0.15396313559169814, -0.5894042968099175, 0.7915029114483942,0.04920551781659377,-0.9588775634765625,0.2962799072265625,-0.235504150390625
20220223-1408,2022-02-23 14:08:25Z,u01, 178,40,movements,el-ex, rt, d,204833.15714362502, -1.2955728348034592, -0.30918339824846675, -0.11605128934128282, 0.05655071139335632, 0.1295318752527237, -0.0102784913033247, -0.9167314767837524, 0.3042808473110199, -0.2588757276535034, -0.014207303524017334, 0.07668530941009521, 0.006129354238510132, -0.15715468361939675, -0.5881024957015821, 0.7919740861957494,0.04706321097014954,-0.922943115234375,0.420318603515625,-0.275421142578125
20220223-1408,2022-02-23 14:08:25Z,u01, 179,40,movements,el-ex, rt, d,204833.182089625, -1.290906255305444, -0.3066605706015511, -0.11129716257959389, 0.27837568521499634, 0.12897880375385284, -0.07446487247943878, -0.9162482619285583, 0.3018766939640045, -0.2633621096611023, 0.0020331144332885742, 0.06553971767425537, -0.01907786726951599, -0.1548823470467629, -0.58679673309649, 0.7933434635672434,0.04782481921943976,-0.9095611572265625,0.343292236328125,-0.276031494140625
20220223-1408,2022-02-23 14:08:25Z,u01, 180,40,movements,el-ex, rt, d,204833.20703462503, -1.2857404362137017, -0.3027363229276792, -0.10390143073168047, 0.3753148019313812, 0.10310227423906326, -0.07722170650959015, -0.9160053730010986, 0.2981331944465637, -0.26842281222343445, 0.008397281169891357, -0.005957901477813721, 0.01027485728263855, -0.15130110225215265, -0.5855737073157109, 0.7948533166372455,0.049190084526216704,-0.9200592041015625,0.2848968505859375,-0.2582550048828125
20220223-1408,2022-02-23 14:08:25Z,u01, 181,40,movements,el-ex, rt, d,204833.23198062502, -1.2804083819068637, -0.29666850043039095, -0.09311234353750536, 0.515529215335846, 0.0753878802061081, -0.17015238106250763, -0.9162776470184326, 0.2923358678817749, -0.27381613850593567, -0.02280944585800171, 0.018409430980682373, -0.014574766159057617, -0.1458914011166199, -0.5846431673589411, 0.7964164228105934,0.05127508301641692,-0.938446044921875,0.3189849853515625,-0.29730224609375
20220223-1408,2022-02-23 14:08:25Z,u01, 182,40,movements,el-ex, rt, d,204833.256925625, -1.2754168483494857, -0.288808777012067, -0.08167484991901368, 0.5192413330078125, 0.05574541538953781, -0.1683177947998047, -0.9170693159103394, 0.28481054306030273, -0.27904656529426575, -0.008162736892700195, 0.02483612298965454, -0.02426743507385254, -0.13957730640447083, -0.5839476738636442, 0.7979344861793534,0.053141274979724984,-0.9105682373046875,0.2842864990234375,-0.29083251953125
20220223-1408,2022-02-23 14:08:25Z,u01, 183,40,movements,el-ex, rt, d,204833.281870625, -1.2710467309808466, -0.28057678344042014, -0.0692592650807907, 0.5704253911972046, 0.018890323117375374, -0.19282940030097961, -0.9180499315261841, 0.2769099175930023, -0.2837342619895935, 0.008397221565246582, -0.01209363341331482, 0.00755038857460022, -0.1328113125649254, -0.5835186556609151, 0.7992509173143716,0.055363094226163645,-0.9121246337890625,0.27606201171875,-0.276702880859375
20220223-1408,2022-02-23 14:08:25Z,u01, 184,40,movements,el-ex, rt, d,204833.306816625, -1.2684352432248596, -0.27133452730093743, -0.05877631168107366, 0.4077973961830139, -0.017811831086874008, -0.2615850865840912, -0.9197099804878235, 0.26801738142967224, -0.2868806719779968, 0.00821077823638916, 0.035312145948410034, -0.005080819129943848, -0.12615420049361845, -0.5836478224538357, 0.800144114854401,0.05665599410994676,-0.9137420654296875,0.3049468994140625,-0.2937164306640625
20220223-1408,2022-02-23 14:08:25Z,u01, 185,40,movements,el-ex, rt, d,204833.33176237502, -1.2671908347473617, -0.26189420798504925, -0.05268892269351498, 0.30699726939201355, 0.0027216076850891113, -0.33271899819374084, -0.9217257499694824, 0.2589106261730194, -0.28876855969429016, -0.00831294059753418, 0.030701249837875366, 0.0007743537425994873, -0.1206547629982179, -0.5840018443862613, 0.800763725054215,0.05623160175662112,-0.929901123046875,0.2822723388671875,-0.288665771484375
20220223-1408,2022-02-23 14:08:25Z,u01, 186,40,movements,el-ex, rt, d,204833.356708375, -1.2650731783803146, -0.25125395994675037, -0.04561701796612622, 0.5136570930480957, 0.021155674010515213, -0.3244999945163727, -0.9236869215965271, 0.2486187368631363, -0.291532427072525, -0.004215359687805176, 0.007316961884498596, 0.010145336389541626, -0.1144061974492663, -0.5840761988588603, 0.8016557109844008,0.0558060564759329,-0.9365234375,0.2603759765625,-0.2777252197265625
20220223-1408,2022-02-23 14:08:25Z,u01, 187,40,movements,el-ex, rt, d,204833.38165337502, -1.2617660584510346, -0.23807863285121986, -0.035162653187092656, 0.5298921465873718, 0.03794470801949501, -0.42293423414230347, -0.9257581830024719, 0.23583589494228363, -0.29555627703666687, -0.007774651050567627, 0.05910131335258484, -0.04624044895172119, -0.10617995630772925, -0.5839072575877065, 0.8029001283193726,0.05594389349065576,-0.9246673583984375,0.2846527099609375,-0.35028076171875
20220223-1408,2022-02-23 14:08:25Z,u01, 188,40,movements,el-ex, rt, d,204833.406599375, -1.2597808620336837, -0.22509430331071129, -0.028942841403521404, 0.27165791392326355, 0.012765783816576004, -0.39553943276405334, -0.9280067086219788, 0.2231982946395874, -0.2983054518699646, 0.017133235931396484, 0.03217285871505737, -0.039096683263778687, -0.09921732447557616, -0.5839547877720765, 0.8038527408749827,0.054529950212533373,-0.9173583984375,0.2293853759765625,-0.3190460205078125
20220223-1408,2022-02-23 14:08:25Z,u01, 189,40,movements,el-ex, rt, d,204833.43154437502, -1.2584746980179011, -0.21380328294970902, -0.023968534311859212, 0.4592021703720093, 0.006074460223317146, -0.37757202982902527, -0.9299553036689758, 0.21217811107635498, -0.3002725839614868, -0.005866289138793945, -0.010334804654121399, 0.01293453574180603, -0.09326940733252972, -0.584092904831444, 0.8045562158659099,0.05315691061105032,-0.9427337646484375,0.2044525146484375,-0.2870941162109375
20220223-1408,2022-02-23 14:08:25Z,u01, 190,40,movements,el-ex, rt, d,204833.456490375, -1.2550655665808461, -0.19945042666793927, -0.011828304731596394, 0.7504761219024658, 0.05870118737220764, -0.44309481978416443, -0.931725263595581, 0.19813068211078644, -0.3043555021286011, -0.01908046007156372, 0.03592394292354584, 0.006092160940170288, -0.08404549602358127, -0.5837453221880969, 0.8057884087781118,0.05369200143534558,-0.94635009765625,0.25335693359375,-0.31768798828125
20220223-1408,2022-02-23 14:08:25Z,u01, 191,40,movements,el-ex, rt, d,204833.48143537503, -1.2511331350036288, -0.18361003231159082, -0.0004063326004659714, 0.43199726939201355, 0.09255089610815048, -0.46061402559280396, -0.9333839416503906, 0.1825801134109497, -0.30896469950675964, -0.008281886577606201, 0.05621999502182007, -0.011225581169128418, -0.07443400471693276, -0.5830756674577899, 0.8072288346566441,0.053517545283382595,-0.941162109375,0.2279815673828125,-0.31756591796875
20220223-1408,2022-02-23 14:08:25Z,u01, 192,40,movements,el-ex, rt, d,204833.506380375, -1.2477301462673425, -0.171767188794913, 0.0028794098905472274, 0.19308185577392578, 0.12846994400024414, -0.35710209608078003, -0.9343120455741882, 0.17092379927635193, -0.3128037452697754, -0.004988610744476318, 0.031438276171684265, -0.0034191906452178955, -0.06878173887138117, -0.5821230159365477, 0.8085622855558573,0.05127366272724848,-0.940216064453125,0.198211669921875,-0.3129119873046875
20220223-1408,2022-02-23 14:08:26Z,u01, 193,40,movements,el-ex, rt, d,204833.531326375, -1.2444932425226938, -0.16232372381824908, 0.004226626790788895, 0.16205516457557678, 0.12317439168691635, -0.332261323928833, -0.9347819089889526, 0.16161182522773743, -0.3163296580314636, -0.02968043088912964, 0.07842423021793365, -0.008438199758529663, -0.06464953569400433, -0.58108141564939, 0.8097945366574402,0.04896571704946451,-0.969940185546875,0.2451629638671875,-0.3316192626953125
20220223-1408,2022-02-23 14:08:26Z,u01, 194,40,movements,el-ex, rt, d,204833.556271375, -1.2412881571866252, -0.15344242432667948, 0.0052883340675946465, 0.16319815814495087, 0.11333447694778442, -0.2949574291706085, -0.9350845217704773, 0.1528410166501999, -0.31977593898773193, -0.037419259548187256, 0.08925499022006989, -0.03782883286476135, -0.06081837349783448, -0.5800113448825873, 0.810990380114502,0.046718722588855954,-0.976470947265625,0.2180938720703125,-0.3636932373046875
20220223-1408,2022-02-23 14:08:26Z,u01, 195,40,movements,el-ex, rt, d,204833.581217375, -1.2383062670165677, -0.14575205723982937, 0.008416480020721012, 0.2869117558002472, 0.08037605881690979, -0.21719145774841309, -0.9352102279663086, 0.1452365517616272, -0.3229369521141052, -0.05299484729766846, 0.03147551417350769, -0.02322375774383545, -0.05685927942338659, -0.579049698836612, 0.8120237092783126,0.045673443917450096,-0.9922332763671875,0.171844482421875,-0.3389434814453125
20220223-1408,2022-02-23 14:08:26Z,u01, 196,40,movements,el-ex, rt, d,204833.606162375, -1.235245764813739, -0.13804471457610992, 0.01669402498952143, 0.5257982015609741, 0.06935396045446396, -0.17348319292068481, -0.9352468252182007, 0.1376066952943802, -0.3261565864086151, -0.06017571687698364, 0.022992074489593506, -0.0027617216110229492, -0.05140217522063267, -0.5781691129485952, 0.8129546011722317,0.046726315281969966,-0.9916229248046875,0.1660614013671875,-0.3309173583984375
20220223-1408,2022-02-23 14:08:26Z,u01, 197,40,movements,el-ex, rt, d,204833.631108375, -1.2318019416366421, -0.1298432283659977, 0.027881441851742437, 0.48970717191696167, 0.07820071280002594, -0.1639575958251953, -0.9351509213447571, 0.12947869300842285, -0.32973966002464294, -0.03973323106765747, 0.021217167377471924, -0.011461913585662842, -0.044913870999861605, -0.5771593467451474, 0.8139322129300051,0.048829668737528475,-0.97088623046875,0.14630126953125,-0.334320068359375
20220223-1408,2022-02-23 14:08:26Z,u01, 198,40,movements,el-ex, rt, d,204833.65605337502, -1.2286432792488484, -0.1235823663890913, 0.03551967346480984, 0.24694116413593292, 0.08847606182098389, -0.10062623023986816, -0.9348500370979309, 0.12326803803443909, -0.33295729756355286, -0.03274047374725342, 0.0163651704788208, 0.0038101673126220703, -0.040236713990005335, -0.5761096779224668, 0.8148444432482198,0.05007267922106495,-0.96295166015625,0.13690185546875,-0.3382110595703125
20220223-1408,2022-02-23 14:08:26Z,u01, 199,40,movements,el-ex, rt, d,204833.680999375, -1.2262913025809112, -0.1206367750359267, 0.03880550218414416, 0.08619648963212967, 0.055961523205041885, -0.04746101051568985, -0.9344019889831543, 0.120344378054142, -0.3352762758731842, -0.02265983819961548, 0.019090436398983, -0.012242406606674194, -0.03814754650204172, -0.5752448388023033, 0.8155279574219982,0.050520746515897885,-0.9568634033203125,0.1385498046875,-0.35150146484375
20220223-1408,2022-02-23 14:08:26Z,u01, 200,40,movements,el-ex, rt, d,204833.70594437502, -1.22543751755193, -0.11948349165239566, 0.03956008220132374, 0.021692197769880295, 0.006074393168091774, -0.03153424337506294, -0.9342454671859741, 0.11919939517974854, -0.33612072467803955, -0.02460169792175293, 0.01758044958114624, -0.009841620922088623, -0.03748101012720251, -0.5749215688682817, 0.8157892679996122,0.05048182996370598,-0.95770263671875,0.141510009765625,-0.3523101806640625
20220223-1408,2022-02-23 14:08:26Z,u01, 201,40,movements,el-ex, rt, d,204833.730889375, -1.2260360962292238, -0.1185949103261005, 0.03947547353187089, 0.0039474209770560265, -0.03621287643909454, -0.041900333017110825, -0.9345458149909973, 0.11831710487604141, -0.33559712767601013, -0.028940021991729736, 0.03460651636123657, -0.01343226432800293, -0.037127253749538736, -0.5751721555828991, 0.8156459608716414,0.05020385178100756,-0.965087890625,0.1468963623046875,-0.3502655029296875
20220223-1408,2022-02-23 14:08:26Z,u01, 202,40,movements,el-ex, rt, d,204833.75583537502, -1.2270490429129102, -0.11770870626137633, 0.039864354444621435, 0.06392786651849747, -0.041600584983825684, -0.041520167142152786, -0.9349836111068726, 0.11743707954883575, -0.3346855044364929, -0.03860354423522949, 0.02361518144607544, -0.017059922218322754, -0.036628017172809724, -0.5756002401123554, 0.8153712221365494,0.050126991397587306,-0.9778900146484375,0.13983154296875,-0.3522796630859375
20220223-1408,2022-02-23 14:08:26Z,u01, 203,40,movements,el-ex, rt, d,204833.780780375, -1.2279490537518656, -0.11792385421384854, 0.04096017608675969, 0.014911788515746593, -0.06960385292768478, 0.007776408456265926, -0.9352607131004333, 0.11765073239803314, -0.3338353931903839, -0.04700887203216553, 0.04741890728473663, -0.014522582292556763, -0.03637770350612013, -0.575985213894797, 0.8150781398018423,0.050651815433549574,-0.982879638671875,0.160369873046875,-0.3518829345703125
20220223-1408,2022-02-23 14:08:26Z,u01, 204,40,movements,el-ex, rt, d,204833.80572637502, -1.230207122160892, -0.12027554146868738, 0.03988567952362755, -0.14967429637908936, -0.11690279096364975, 0.0716460719704628, -0.9357486963272095, 0.11998575925827026, -0.33162927627563477, -0.05535554885864258, 0.03089320659637451, -0.028142273426055908, -0.03758966756743476, -0.5768642619409033, 0.8143836578537371,0.05093134089360368,-1.006622314453125,0.1497650146484375,-0.36322021484375
20220223-1408,2022-02-23 14:08:26Z,u01, 205,40,movements,el-ex, rt, d,204833.830671375, -1.2339292062808687, -0.12533942398691694, 0.03506341756409891, -0.32645687460899353, -0.16243000328540802, 0.11472170054912567, -0.9363911151885986, 0.12501150369644165, -0.3279390335083008, -0.09289062023162842, 0.013309448957443237, -0.03631860017776489, -0.04095176901454006, -0.5782330302661318, 0.8132769760439058,0.050499744127823265,-1.0364837646484375,0.1360626220703125,-0.3618011474609375
20220223-1408,2022-02-23 14:08:26Z,u01, 206,40,movements,el-ex, rt, d,204833.85561737503, -1.239340540238791, -0.13207091114665223, 0.027203348227649707, -0.39163264632225037, -0.20162761211395264, 0.1909971535205841, -0.9373350143432617, 0.13168729841709137, -0.32258597016334534, -0.10665619373321533, 0.040843844413757324, -0.04273974895477295, -0.04583151263547375, -0.5801779804611363, 0.8116993973306416,0.0493680209438892,-1.0373687744140625,0.20166015625,-0.3706817626953125
20220223-1408,2022-02-23 14:08:26Z,u01, 207,40,movements,el-ex, rt, d,204833.880562375, -1.2466551233123262, -0.14099871516866058, 0.019910161870396004, -0.39111340045928955, -0.2967119812965393, 0.25810834765434265, -0.9385176301002502, 0.140531986951828, -0.31533417105674744, -0.11259949207305908, 0.053910791873931885, -0.042530059814453125, -0.05139439678136315, -0.5828306247166923, 0.809474236486081,0.049179904078032244,-1.058563232421875,0.1868896484375,-0.3532867431640625
20220223-1408,2022-02-23 14:08:26Z,u01, 208,40,movements,el-ex, rt, d,204833.905508375, -1.2556364067233148, -0.15105076648474627, 0.012647104360506834, -0.36037683486938477, -0.34978482127189636, 0.35019320249557495, -0.9399212002754211, 0.15047702193260193, -0.306439071893692, -0.10957843065261841, 0.03964753448963165, -0.026339620351791382, -0.05736049073225308, -0.5860804021870425, 0.806707519345409,0.04942217714825181,-1.0411834716796875,0.199920654296875,-0.31787109375
20220223-1408,2022-02-23 14:08:26Z,u01, 209,40,movements,el-ex, rt, d,204833.930453375, -1.2656288664594793, -0.16229967979963206, 0.009322709429716752, -0.2100512534379959, -0.3921530544757843, 0.4128584563732147, -0.9412622451782227, 0.16158808767795563, -0.2965044677257538, -0.1170111894607544, 0.05847424268722534, -0.0025829076766967773, -0.06261626084036409, -0.5897685744174757, 0.8034804650694836,0.0516865494856088,-1.0605010986328125,0.2258148193359375,-0.2928009033203125
20220223-1408,2022-02-23 14:08:26Z,u01, 210,40,movements,el-ex, rt, d,204833.95539837502, -1.2758517698433605, -0.17465481108471376, 0.005108967871067492, -0.4368268549442291, -0.3423617482185364, 0.47590968012809753, -0.9422618746757507, 0.17376820743083954, -0.2862645089626312, -0.11637777090072632, 0.05033767223358154, -0.001378774642944336, -0.06854812320139064, -0.593438207656578, 0.8001363185164964,0.0539841586164721,-1.0510101318359375,0.220916748046875,-0.287506103515625
20220223-1408,2022-02-23 14:08:26Z,u01, 211,40,movements,el-ex, rt, d,204833.980344375, -1.286925633296156, -0.1903645708031581, -0.00524889744682738, -0.6698331832885742, -0.3666335344314575, 0.48666536808013916, -0.9426369667053223, 0.18921689689159393, -0.27501413226127625, -0.11050951480865479, 0.07663702964782715, 0.0010274648666381836, -0.07760028330562707, -0.5970520369989825, 0.7965487824071177,0.054929944177964096,-1.052032470703125,0.275726318359375,-0.270416259765625
20220223-1408,2022-02-23 14:08:26Z,u01, 212,40,movements,el-ex, rt, d,204834.00528937503, -1.2988550943222663, -0.20698528593625715, -0.017681855438368924, -0.6014835834503174, -0.3809645175933838, 0.5369125604629517, -0.9426907896995544, 0.2055104672908783, -0.2628685534000397, -0.09879803657531738, 0.09224957227706909, 0.014974474906921387, -0.08759208151442494, -0.6007439945797117, 0.7926902822062737,0.0554676288381879,-1.040374755859375,0.30633544921875,-0.24163818359375
20220223-1408,2022-02-23 14:08:26Z,u01, 213,40,movements,el-ex, rt, d,204834.03023537502, -1.310594560690896, -0.22322490499338601, -0.026980894389582778, -0.4803292453289032, -0.397641658782959, 0.5010595917701721, -0.9423620700836182, 0.22137565910816193, -0.2508922219276428, -0.08374595642089844, 0.05355727672576904, -0.0005266368389129639, -0.09647175842638786, -0.60435675705482, 0.7887775478870171,0.05723949014989138,-1.023712158203125,0.267730712890625,-0.254302978515625
20220223-1408,2022-02-23 14:08:26Z,u01, 214,40,movements,el-ex, rt, d,204834.055180375, -1.3224297568817187, -0.2383738263614342, -0.03696102937718551, -0.5932132005691528, -0.3658519387245178, 0.46436771750450134, -0.941906213760376, 0.2361227422952652, -0.23886996507644653, -0.06943118572235107, 0.022559508681297302, -0.012884601950645447, -0.10509659763844958, -0.6078813369559626, 0.7848631306731818,0.05852281934197334,-0.9995880126953125,0.25982666015625,-0.25439453125
20220223-1408,2022-02-23 14:08:26Z,u01, 215,40,movements,el-ex, rt, d,204834.08012637502, -1.3338407788602906, -0.2525476305224051, -0.04979235041753241, -0.589653491973877, -0.2669889032840729, 0.4531724452972412, -0.9412226676940918, 0.24987158179283142, -0.22729803621768951, -0.05439823865890503, 0.007376372814178467, -0.05468416213989258, -0.11419885144302422, -0.610990672600999, 0.7811722150188636,0.05847359730795704,-0.994354248046875,0.2537689208984375,-0.2858123779296875
20220223-1408,2022-02-23 14:08:26Z,u01, 216,40,movements,el-ex, rt, d,204834.105071375, -1.3426399280397858, -0.26717695945272785, -0.05783754147485679, -0.33254116773605347, -0.2937811017036438, 0.4991186559200287, -0.9395245909690857, 0.26400962471961975, -0.21815717220306396, -0.05481445789337158, 0.001478046178817749, -0.03066764771938324, -0.12207081413994578, -0.6132048054447105, 0.7780961067544124,0.06037457795516776,-0.9932708740234375,0.2848663330078125,-0.212005615234375
20220223-1408,2022-02-23 14:08:26Z,u01, 217,40,movements,el-ex, rt, d,204834.130016375, -1.3524602348676564, -0.28078939115222795, -0.061987114140313826, -0.2414078712463379, -0.392826646566391, 0.49894002079963684, -0.9380260705947876, 0.27711421251296997, -0.2081226110458374, -0.04825639724731445, 0.005860060453414917, 0.02594810724258423, -0.12829093921037754, -0.6160195836308721, 0.7746068714846179,0.06360522213936048,-0.9883575439453125,0.283599853515625,-0.1851959228515625
20220223-1408,2022-02-23 14:08:26Z,u01, 218,40,movements,el-ex, rt, d,204834.154962375, -1.3630110378663365, -0.2941829058021541, -0.06612554530572776, -0.3139412999153137, -0.3392419219017029, 0.46816325187683105, -0.9364537000656128, 0.2899579703807831, -0.19743086397647858, -0.05277365446090698, -0.015818536281585693, -0.026110157370567322, -0.1343608869570609, -0.6190571237400819, 0.7708710949847307,0.06688244460604248,-0.975311279296875,0.2663421630859375,-0.233428955078125
20220223-1408,2022-02-23 14:08:26Z,u01, 219,40,movements,el-ex, rt, d,204834.17990737502, -1.372633143690014, -0.3064140189586353, -0.07093225994854832, -0.20343023538589478, -0.3473523259162903, 0.4264048933982849, -0.9347628951072693, 0.30164164304733276, -0.18769893050193787, -0.025854289531707764, -0.06606113910675049, -0.046813175082206726, -0.14018805209953147, -0.621689505863481, 0.7674726146023433,0.06953684246456637,-0.967010498046875,0.2481842041015625,-0.22607421875
20220223-1408,2022-02-23 14:08:26Z,u01, 220,40,movements,el-ex, rt, d,204834.204853375, -1.3812051178585314, -0.3184588609304528, -0.07089559941716726, 0.07161211967468262, -0.29993098974227905, 0.5448623299598694, -0.9327016472816467, 0.3131032884120941, -0.17898167669773102, -0.0689312219619751, -0.03363850712776184, -0.02338021993637085, -0.1444391542472859, -0.6242167044942831, 0.7642123031340533,0.07396383797190181,-1.0141754150390625,0.300689697265625,-0.190155029296875
20220223-1408,2022-02-23 14:08:26Z,u01, 221,40,movements,el-ex, rt, d,204834.22979837502, -1.385815897634632, -0.3324292028332882, -0.06501932377110413, 0.0733606219291687, -0.1546206772327423, 0.798403263092041, -0.9291263222694397, 0.3263401985168457, -0.17385773360729218, -0.03248262405395508, -0.00939980149269104, -0.004929304122924805, -0.1477054625928646, -0.6255031797991348, 0.761822441998302,0.0809664360121658,-0.922882080078125,0.2951812744140625,-0.1853790283203125
20220223-1408,2022-02-23 14:08:26Z,u01, 222,40,movements,el-ex, rt, d,204834.254744375, -1.3919334346500984, -0.3512386455949168, -0.06310345849717666, -0.18965350091457367, -0.34293532371520996, 0.603598415851593, -0.9239680767059326, 0.34406110644340515, -0.16704882681369781, -0.040540099143981934, -0.03267490863800049, -0.04443776607513428, -0.15393204613931868, -0.6267220393977959, 0.7587878025228849,0.08812325798911741,-0.99139404296875,0.31671142578125,-0.2348785400390625
20220223-1408,2022-02-23 14:08:26Z,u01, 223,40,movements,el-ex, rt, d,204834.27968937502, -1.4004485809355114, -0.3653213175222928, -0.06655969508092809, -0.18811140954494476, -0.26465731859207153, 0.5069371461868286, -0.9204901456832886, 0.3572494387626648, -0.15833796560764313, -0.07064461708068848, -0.06574547290802002, -0.06250226497650146, -0.15991233884600997, -0.6286963199066573, 0.7554544856287697,0.09196525837589564,-0.9781036376953125,0.2911834716796875,-0.2198028564453125
20220223-1408,2022-02-23 14:08:26Z,u01, 224,40,movements,el-ex, rt, d,204834.304635375, -1.408428085655484, -0.37990421175474554, -0.06601825884920301, 0.07868557423353195, -0.40275251865386963, 0.6798362731933594, -0.9164853096008301, 0.37083151936531067, -0.15012973546981812, -0.022433936595916748, -0.0699586272239685, -0.07072573900222778, -0.16480208136586028, -0.6306943815653736, 0.7520394132367689,0.09747684061275635,-0.9425048828125,0.3220062255859375,-0.2193756103515625
20220223-1408,2022-02-23 14:08:26Z,u01, 225,40,movements,el-ex, rt, d,204834.32957950002, -1.4160269643869001, -0.396048336829081, -0.05911964075507327, 0.14032913744449615, -0.41077920794487, 0.6507024765014648, -0.9115650653839111, 0.3857755959033966, -0.14221972227096558, -0.06350213289260864, -0.02617165446281433, -0.059089288115501404, -0.16822867907812752, -0.6329212058842784, 0.7482654832418598,0.10587112545092603,-0.978363037109375,0.3653564453125,-0.198944091796875
20220223-1408,2022-02-23 14:08:26Z,u01, 226,40,movements,el-ex, rt, d,204834.3545245, -1.423787691100259, -0.4102014058207365, -0.054640003407707416, 0.012915748171508312, -0.3759520649909973, 0.5369225740432739, -0.9071491360664368, 0.398794025182724, -0.13432782888412476, -0.06381350755691528, -0.013448566198348999, -0.050761088728904724, -0.17161416096803717, -0.6351257085629095, 0.7446149362934503,0.11275019761212274,-0.9577178955078125,0.4062347412109375,-0.1752471923828125
20220223-1408,2022-02-23 14:08:26Z,u01, 227,40,movements,el-ex, rt, d,204834.37947050002, -1.4322973519660964, -0.42263721929525433, -0.05158165598238677, 0.11451034992933273, -0.4006405174732208, 0.48679080605506897, -0.903277575969696, 0.41016703844070435, -0.12590910494327545, -0.04356104135513306, 0.015736430883407593, -0.050100818276405334, -0.17472243699047893, -0.6375872602045034, 0.7408653611468952,0.11863116999674872,-0.9470367431640625,0.4270172119140625,-0.172515869140625
20220223-1408,2022-02-23 14:08:26Z,u01, 228,40,movements,el-ex, rt, d,204834.4044155, -1.4380097561424119, -0.43401026292210315, -0.04308021972373583, 0.36955949664115906, -0.35180729627609253, 0.4928962290287018, -0.8992998600006104, 0.4205126464366913, -0.1201217845082283, -0.0452650785446167, 0.003162980079650879, -0.03979009389877319, -0.17582515573289223, -0.6395503293783171, 0.7376977897388859,0.12594862927544342,-0.9299163818359375,0.4259033203125,-0.1451416015625
20220223-1408,2022-02-23 14:08:26Z,u01, 229,40,movements,el-ex, rt, d,204834.42936150002, -1.442036101903761, -0.44418315604122405, -0.031073177733407027, 0.3349739611148834, -0.37649741768836975, 0.42014139890670776, -0.895487368106842, 0.4297204315662384, -0.11594461649656296, -0.025304436683654785, -0.002474278211593628, -0.01540285348892212, -0.17543671803796157, -0.6412874931735557, 0.7348562046376191,0.13401081807488519,-0.9244232177734375,0.42822265625,-0.1313323974609375
20220223-1408,2022-02-23 14:08:26Z,u01, 230,40,movements,el-ex, rt, d,204834.4543065, -1.4471312768282807, -0.45371336888253466, -0.024214533115413335, 0.0888851135969162, -0.2573169767856598, 0.39350631833076477, -0.8919616937637329, 0.43830621242523193, -0.11087024956941605, -0.04682016372680664, -0.0043614208698272705, -0.007278323173522949, -0.17636097832569916, -0.6430098610344612, 0.7319969759145635,0.14005602798204753,-0.935272216796875,0.4382476806640625,-0.1187896728515625
20220223-1408,2022-02-23 14:08:26Z,u01, 231,40,movements,el-ex, rt, d,204834.47925250002, -1.4510951811995132, -0.4624624713679555, -0.021732954143053776, 0.021486200392246246, -0.17324955761432648, 0.3474697768688202, -0.8885526657104492, 0.4461532533168793, -0.10687168687582016, -0.021313726902008057, -0.0013900399208068848, -0.012467078864574432, -0.178463211945725, -0.6439837239673373, 0.729833979645712,0.1441466787575572,-0.9106597900390625,0.447967529296875,-0.118377685546875
20220223-1408,2022-02-23 14:08:26Z,u01, 232,40,movements,el-ex, rt, d,204834.5041975, -1.453001221749561, -0.4712547588917254, -0.019140976969797975, 0.09014159440994263, -0.07045041024684906, 0.35872864723205566, -0.884824812412262, 0.4540046453475952, -0.10471279919147491, -0.03743159770965576, 0.008336663246154785, 0.008246980607509613, -0.18068050804309949, -0.6442035044438471, 0.7282992687846768,0.14810977176230145,-0.91888427734375,0.4669342041015625,-0.086883544921875
20220223-1408,2022-02-23 14:08:27Z,u01, 233,40,movements,el-ex, rt, d,204834.52914250002, -1.45228020557958, -0.4787543012238533, -0.01456901096668419, 0.1294856071472168, -0.06501476466655731, 0.28133437037467957, -0.881343424320221, 0.46067389845848083, -0.10494522005319595, -0.008747577667236328, -0.00510743260383606, 0.009440667927265167, -0.18198219474849836, -0.6437467440502438, 0.7275492172220435,0.15213427033700866,-0.8843841552734375,0.4481964111328125,-0.0946197509765625
20220223-1408,2022-02-23 14:08:27Z,u01, 234,40,movements,el-ex, rt, d,204834.5540885, -1.4529615857685465, -0.48472226945108393, -0.01248625895019513, -0.07201056182384491, -0.0471930205821991, 0.20268657803535461, -0.8786687254905701, 0.46596264839172363, -0.10401958972215652, -0.007042944431304932, -0.028416812419891357, 0.010727591812610626, -0.18342280408977515, -0.6436973513863593, 0.7266508462785805,0.15488176869579395,-0.8952178955078125,0.4405517578125,-0.0961761474609375
20220223-1408,2022-02-23 14:08:27Z,u01, 235,40,movements,el-ex, rt, d,204834.57903350002, -1.4547316084591544, -0.4898100573382681, -0.016083757426235235, -0.20940621197223663, 0.030717553570866585, 0.16080524027347565, -0.8764855265617371, 0.4704582989215851, -0.10218831896781921, -0.02866595983505249, -0.02754133939743042, 0.013626515865325928, -0.1862850177191412, -0.64358661601447, 0.7259135792657878,0.15538284521606271,-0.90283203125,0.446197509765625,-0.09027099609375
20220223-1408,2022-02-23 14:08:27Z,u01, 236,40,movements,el-ex, rt, d,204834.6039795, -1.456224321776227, -0.4941896694072742, -0.022763193250842934, -0.29337841272354126, 0.09574349224567413, 0.135877326130867, -0.8745816349983215, 0.47431841492652893, -0.1006433293223381, -0.022772550582885742, -0.014876246452331543, 0.0093197301030159, -0.18990035161040356, -0.6431299947162042, 0.7255663469238642,0.15451605636437316,-0.8880157470703125,0.460479736328125,-0.09503173828125
20220223-1408,2022-02-23 14:08:27Z,u01, 237,40,movements,el-ex, rt, d,204834.62892450002, -1.4585491879499923, -0.49805854221128965, -0.031432851273073985, -0.357959121465683, 0.06829462200403214, 0.10146854817867279, -0.8729832768440247, 0.47772085666656494, -0.09840349853038788, -0.017977476119995117, -0.02290201187133789, 0.0046536922454833984, -0.19390345636575457, -0.6428061129808156, 0.7251478118632035,0.15284819829384194,-0.89654541015625,0.456390380859375,-0.0963134765625
20220223-1408,2022-02-23 14:08:27Z,u01, 238,40,movements,el-ex, rt, d,204834.6538705, -1.4607211409213008, -0.501116422003744, -0.04128604535685137, -0.3338753581047058, 0.11187991499900818, 0.04472324252128601, -0.8717387914657593, 0.4804050028324127, -0.09634625166654587, -0.022563576698303223, -0.021985143423080444, -0.01080070436000824, -0.1980038852311233, -0.642356080772885, 0.724933395355957,0.1504817501254262,-0.8791656494140625,0.4655609130859375,-0.1108551025390625
20220223-1408,2022-02-23 14:08:27Z,u01, 239,40,movements,el-ex, rt, d,204834.67881550002, -1.4625346294582142, -0.5023768339458964, -0.04897545488657711, -0.21351100504398346, 0.06976228952407837, 5.324278026819229e-05, -0.8713095188140869, 0.4815100431442261, -0.09469971805810928, -0.0008829832077026367, -0.002872288227081299, -0.012233614921569824, -0.20078978209467163, -0.6421320780894142, 0.7248181610017483,0.14828560644446048,-0.8778228759765625,0.4851531982421875,-0.10711669921875
20220223-1408,2022-02-23 14:08:27Z,u01, 240,40,movements,el-ex, rt, d,204834.7037605, -1.4627633230387758, -0.5022184564961337, -0.05373727515975276, -0.11796343326568604, 0.08283601701259613, -0.05648220330476761, -0.8714068531990051, 0.4813712239265442, -0.09450865536928177, -0.013862311840057373, 0.006620079278945923, 0.0021169334650039673, -0.20224460013058773, -0.6417497895081767, 0.7251089628974153,0.1465310114276922,-0.8824310302734375,0.4795074462890625,-0.090057373046875
20220223-1408,2022-02-23 14:08:27Z,u01, 241,40,movements,el-ex, rt, d,204834.7287065, -1.461899335076843, -0.5010254545779718, -0.05578543857723711, -0.04109998047351837, 0.0911247730255127, -0.0684923306107521, -0.8718950152397156, 0.48032522201538086, -0.095323845744133, -0.025016486644744873, -0.02054736018180847, 0.01149226725101471, -0.20253736161886593, -0.6413397650635068, 0.7256350849445532,0.14531203768919743,-0.89776611328125,0.4633331298828125,-0.0819091796875
20220223-1408,2022-02-23 14:08:27Z,u01, 242,40,movements,el-ex, rt, d,204834.7536515, -1.459168644473568, -0.498350213471645, -0.05667119009125434, -0.02604876086115837, 0.09451277554035187, -0.12464647740125656, -0.872905433177948, 0.47797706723213196, -0.09784716367721558, -0.006199181079864502, -0.03580787777900696, 0.0112384632229805, -0.20205960811247214, -0.6405063090148347, 0.7267962566408147,0.14384302444917024,-0.859375,0.4333953857421875,-0.1010894775390625
20220223-1408,2022-02-23 14:08:27Z,u01, 243,40,movements,el-ex, rt, d,204834.7785975, -1.457954463950544, -0.4962069007809101, -0.058535899019894755, -0.0668724849820137, 0.08425375074148178, -0.1401921510696411, -0.8738018870353699, 0.4760933518409729, -0.09902208298444748, 0.022681891918182373, -0.04961022734642029, 0.007927313446998596, -0.20197432921296968, -0.640074472559245, 0.7274949670386904,0.14234493940442766,-0.849853515625,0.4239501953125,-0.089385986328125
20220223-1408,2022-02-23 14:08:27Z,u01, 244,40,movements,el-ex, rt, d,204834.8035425, -1.4575666412405097, -0.49154076148611364, -0.060562180879614874, -0.014352989383041859, 0.0996912270784378, -0.15290161967277527, -0.8759613037109375, 0.4719848036766052, -0.09961088746786118, 0.028991639614105225, -0.04893481731414795, 0.007264919579029083, -0.20097479418996517, -0.640159110847973, 0.7281425873460241,0.14004969795439154,-0.847137451171875,0.430084228515625,-0.0907440185546875
20220223-1408,2022-02-23 14:08:27Z,u01, 245,40,movements,el-ex, rt, d,204834.8284885, -1.4570641534292232, -0.4864295118568345, -0.06209951931915171, -0.037905119359493256, 0.034623146057128906, -0.11321825534105301, -0.8782966136932373, 0.46747252345085144, -0.10032352060079575, 0.049011826515197754, -0.060017019510269165, 0.0030031800270080566, -0.19966534481270617, -0.6402905516596404, 0.72882097976088,0.13777491412232723,-0.8324127197265625,0.4044952392578125,-0.092529296875
20220223-1408,2022-02-23 14:08:27Z,u01, 246,40,movements,el-ex, rt, d,204834.85343350001, -1.4579949626557722, -0.48320424426575426, -0.06629642650504425, -0.2667786478996277, 0.07855518162250519, -0.13382525742053986, -0.8798832893371582, 0.4646189510822296, -0.09967515617609024, 0.0220339298248291, -0.06573882699012756, 0.02209971845149994, -0.19978667221116175, -0.6405058224990241, 0.7290646715564617,0.13528693517546547,-0.862884521484375,0.411956787109375,-0.0737762451171875
20220223-1408,2022-02-23 14:08:27Z,u01, 247,40,movements,el-ex, rt, d,204834.87837850003, -1.4596859764240917, -0.4802752165076235, -0.07550201646807131, -0.3268304765224457, 0.10839976370334625, -0.12090799957513809, -0.8813990950584412, 0.4620232880115509, -0.0983375757932663, 0.05356395244598389, -0.04948660731315613, 0.012034066021442413, -0.20157063372131528, -0.6404689634481602, 0.7293628715999976,0.13114374840895443,-0.826629638671875,0.41357421875,-0.0810089111328125
20220223-1408,2022-02-23 14:08:27Z,u01, 248,40,movements,el-ex, rt, d,204834.90332450002, -1.461809202546559, -0.47732968921637026, -0.08416036877701334, -0.27266883850097656, 0.051847271621227264, -0.16863849759101868, -0.8829548954963684, 0.4594089686870575, -0.09661354869604111, 0.04456067085266113, -0.05476108193397522, 0.017908930778503418, -0.20315090131633212, -0.6406425964138608, 0.7294639704241768,0.12723666413352475,-0.8551025390625,0.4284210205078125,-0.0787200927734375
