SessionID,LoggingTime,UID,RecNo,Hertz,Activity,MoveType,Wrist,Side,TimeStamp,DMRoll,DMPitch,DMYaw,DMRotX,DMRotY,DMRotZ,DMGrvX,DMGrvY,DMGrvZ,DMUAccelX,DMUAccelY,DMUAccelZ,DMQuatX,DMQuatY,DMQuatW,DMQuatZ,AccelroX,AceelroY,AceelroZ
20220223-1423,2022-02-23 14:23:21Z,u01, 1,40,movements,el-ex, rt, d,205729.1646261667, -1.3026422292419995, 0.24455572431758466, 0.1868121491292387, -0.16201990842819214, -0.05945920944213867, 0.4095599353313446, -0.9355700612068176, -0.24212528765201569, -0.25706833600997925, -0.05597662925720215, -0.029191255569458008, 0.12511038780212402, 0.15270233652182097, -0.5900405339816864, 0.7928015312590596,0.0,-0.9847412109375,-0.26531982421875,-0.129058837890625
20220223-1423,2022-02-23 14:23:21Z,u01, 2,40,movements,el-ex, rt, d,205729.18957216668, -1.3022975483532653, 0.23448860089138526, 0.19291645248518208, 0.46631482243537903, 0.19106268882751465, 0.5040612816810608, -0.9377841949462891, -0.2323456108570099, -0.2580243945121765, -0.02976047992706299, -0.06658938527107239, 0.0387556254863739, 0.1505807163784189, -0.5901806964037903, 0.7930839000184357,0.0055073569385808985,-0.9675445556640625,-0.2989349365234375,-0.219268798828125
20220223-1423,2022-02-23 14:23:21Z,u01, 3,40,movements,el-ex, rt, d,205729.21451929168, -1.3012674310527728, 0.228474805532437, 0.21705974844052772, 1.236741304397583, 0.9929478764533997, -0.1814345121383667, -0.9388477206230164, -0.22649222612380981, -0.25935763120651245, 0.16232788562774658, -0.05219432711601257, -0.03576254844665527, 0.15534642760314896, -0.5883779982759896, 0.7933412084931174,0.016990112588145312,-0.996063232421875,-0.2921905517578125,-0.2759552001953125
20220223-1423,2022-02-23 14:23:21Z,u01, 4,40,movements,el-ex, rt, d,205729.23946529167, -1.3010847846217524, 0.2270391190518025, 0.24958142480845869, 1.0045138597488403, 0.3716874420642853, 0.4722153842449188, -0.9391127228736877, -0.22509361803531647, -0.2596154510974884, 0.006434500217437744, -0.06598307192325592, 0.019426971673965454, 0.16433330185209472, -0.5858215039866915, 0.7930241222651493,0.030339383692477295,-0.93267822265625,-0.29107666015625,-0.2401885986328125
20220223-1423,2022-02-23 14:23:21Z,u01, 5,40,movements,el-ex, rt, d,205729.2644112917, -1.2960684620187117, 0.22192295928298783, 0.27227358506275673, 0.554912269115448, 0.3956265449523926, 0.4070195257663727, -0.9388947486877441, -0.2201058268547058, -0.2646320164203644, 0.005148410797119141, -0.06607276201248169, -0.021973729133605957, 0.16888573146885427, -0.5823758187290127, 0.7941090213516584,0.04131484758146414,-0.9486846923828125,-0.30072021484375,-0.2709808349609375
20220223-1423,2022-02-23 14:23:21Z,u01, 6,40,movements,el-ex, rt, d,205729.28935729168, -1.2903177677003075, 0.21312558435207057, 0.2820994041897001, 0.029696326702833176, 0.24008823931217194, 0.4671112298965454, -0.9391818642616272, -0.21151579916477203, -0.27055248618125916, 0.011096477508544922, -0.03489840030670166, -0.06131088733673096, 0.16819537754302474, -0.5800293721945889, 0.79557338572689,0.04836628962213907,-0.9280853271484375,-0.2464141845703125,-0.3318634033203125
20220223-1423,2022-02-23 14:23:21Z,u01, 7,40,movements,el-ex, rt, d,205729.31430329167, -1.2856438574752067, 0.20043063886243737, 0.28433210088755845, -0.128846675157547, 0.165598064661026, 0.555000901222229, -0.9404080510139465, -0.1990913599729538, -0.2756723165512085, -0.014990448951721191, 0.013407126069068909, -0.08828023076057434, 0.16378042860430128, -0.5790853224320215, 0.7968545190339764,0.05346965275222759,-0.9560699462890625,-0.192138671875,-0.3635711669921875
20220223-1423,2022-02-23 14:23:21Z,u01, 8,40,movements,el-ex, rt, d,205729.3392492917, -1.2830066025998978, 0.1861689828484015, 0.284504706138547, -0.25056397914886475, 0.06923525035381317, 0.5067585110664368, -0.942304790019989, -0.18509544432163239, -0.27892905473709106, -0.01841914653778076, 0.011831879615783691, -0.09779512882232666, 0.15818894923070084, -0.579233737119558, 0.7975564632956992,0.05803684268730497,-0.960723876953125,-0.1732635498046875,-0.3767242431640625
20220223-1423,2022-02-23 14:23:21Z,u01, 9,40,movements,el-ex, rt, d,205729.36419529168, -1.2807626905895515, 0.17247099759477344, 0.27884461386729625, -0.46630391478538513, 0.038802310824394226, 0.4227193593978882, -0.9440177083015442, -0.17161720991134644, -0.28174152970314026, -0.039426565170288086, 0.022554099559783936, 0.002200603485107422, 0.1511204537835738, -0.5799067517244253, 0.7982879985051612,0.0600597262257041,-0.985076904296875,-0.160888671875,-0.2879486083984375
20220223-1423,2022-02-23 14:23:21Z,u01, 10,40,movements,el-ex, rt, d,205729.38914129167, -1.2779897407654373, 0.1590656903484946, 0.26834340694421827, -0.6103013157844543, 0.04013974964618683, 0.3787124752998352, -0.9453506469726562, -0.15839576721191406, -0.2849966287612915, -0.023048460483551025, 0.054040879011154175, 0.0031210780143737793, 0.1427266777850563, -0.5806296456824708, 0.7993051702533721,0.06008010636382638,-0.9683990478515625,-0.1043548583984375,-0.2818756103515625
20220223-1423,2022-02-23 14:23:21Z,u01, 11,40,movements,el-ex, rt, d,205729.4140872917, -1.275479514579421, 0.14654105326226283, 0.25828710326017873, -0.416846364736557, 0.04560775309801102, 0.3533131182193756, -0.9464561343193054, -0.1460171341896057, -0.2879236340522766, -0.02612394094467163, -0.001153901219367981, -0.030466228723526, 0.13479660117206663, -0.5812641961685258, 0.8002283286741334,0.05997185045596648,-0.9702301025390625,-0.1433258056640625,-0.319091796875
20220223-1423,2022-02-23 14:23:21Z,u01, 12,40,movements,el-ex, rt, d,205729.43903329168, -1.273170627087052, 0.13678456625207175, 0.2547950107542899, -0.09761282056570053, 0.10196057707071304, 0.30925971269607544, -0.9471057653427124, -0.13635842502117157, -0.2905120551586151, -0.03455322980880737, 0.004781872034072876, -0.023651123046875, 0.12985866117318104, -0.5812750652130793, 0.8009104039859009,0.06163336862385177,-0.981658935546875,-0.1315765380859375,-0.3141632080078125
20220223-1423,2022-02-23 14:23:21Z,u01, 13,40,movements,el-ex, rt, d,205729.46397929167, -1.269866895701771, 0.1291449493831445, 0.25473507203778006, -0.1593674272298813, 0.15122632682323456, 0.28852853178977966, -0.9471080303192139, -0.12878626585006714, -0.29393962025642395, -0.029988527297973633, -0.018384769558906555, 0.0508977472782135, 0.12671470590329395, -0.5804942487141848, 0.8017867622623212,0.06409201124183622,-0.9783477783203125,-0.139495849609375,-0.2545166015625
20220223-1423,2022-02-23 14:23:21Z,u01, 14,40,movements,el-ex, rt, d,205729.48892629167, -1.2656773442065774, 0.12032265495632588, 0.2515326115285113, -0.2646806836128235, 0.1516718864440918, 0.2932390868663788, -0.9469151496887207, -0.12003253400325775, -0.2982347309589386, -0.0338587760925293, -0.040581487119197845, 0.033220142126083374, 0.12215160634094566, -0.5796219680029016, 0.8029963877693295,0.0656825188038852,-0.98077392578125,-0.160614013671875,-0.2650146484375
20220223-1423,2022-02-23 14:23:21Z,u01, 15,40,movements,el-ex, rt, d,205729.5138722917, -1.2613264271485323, 0.11185279799420345, 0.2476117192581686, -0.22629626095294952, 0.16446170210838318, 0.25624778866767883, -0.9465429186820984, -0.11161971092224121, -0.3026505708694458, -0.037297964096069336, 0.012696996331214905, -0.003989964723587036, 0.11750482084134262, -0.5786772217539043, 0.8042721059155828,0.06686973782261091,-0.98211669921875,-0.10552978515625,-0.3081512451171875
20220223-1423,2022-02-23 14:23:22Z,u01, 16,40,movements,el-ex, rt, d,205729.53881829168, -1.2561007185571074, 0.10510235535600734, 0.2438090627139344, -0.24986407160758972, 0.21785162389278412, 0.182539165019989, -0.9456435441970825, -0.10490895807743073, -0.30781903862953186, -0.03943347930908203, 0.012379631400108337, 0.031619757413864136, 0.11353939722664555, -0.5772341654896934, 0.8058139454324811,0.06762792643798626,-0.985076904296875,-0.092529296875,-0.2761993408203125
20220223-1423,2022-02-23 14:23:22Z,u01, 17,40,movements,el-ex, rt, d,205729.56376429167, -1.2499561587855115, 0.09891205817112592, 0.23806343501852234, -0.33997276425361633, 0.21177488565444946, 0.15173763036727905, -0.944332480430603, -0.09875085204839706, -0.31382253766059875, -0.023593604564666748, -0.009525537490844727, 0.013529658317565918, 0.10920133749612435, -0.575468326555807, 0.8076877822672507,0.06746706768700866,-0.971038818359375,-0.112396240234375,-0.2820281982421875
20220223-1423,2022-02-23 14:23:22Z,u01, 18,40,movements,el-ex, rt, d,205729.5887102917, -1.2451483037401043, 0.09330008617184692, 0.2317800404565141, -0.2183421403169632, 0.13624563813209534, 0.11152271181344986, -0.9433229565620422, -0.09316478669643402, -0.3185313940048218, -0.04462265968322754, -0.020024925470352173, -0.031215250492095947, 0.10498392709439627, -0.5742061292290311, 0.8091973855054562,0.06682326353107726,-0.987945556640625,-0.113189697265625,-0.3497467041015625
20220223-1423,2022-02-23 14:23:22Z,u01, 19,40,movements,el-ex, rt, d,205729.61365629168, -1.2418216276860774, 0.09097358580249713, 0.2304870329359897, 0.013625182211399078, 0.13133877515792847, 0.014647831209003925, -0.9424605965614319, -0.0908481553196907, -0.3217369019985199, -0.06918185949325562, 0.018429942429065704, -0.017160743474960327, 0.10356698875334658, -0.5730666907202986, 0.8101600092067786,0.06715057294468768,-1.0130615234375,-0.0817413330078125,-0.3476104736328125
20220223-1423,2022-02-23 14:23:22Z,u01, 20,40,movements,el-ex, rt, d,205729.63860229167, -1.238561516382737, 0.09057324141268389, 0.23076621160876784, -0.05147342383861542, 0.12471063435077667, 0.02344498410820961, -0.941440999507904, -0.09044945240020752, -0.32481953501701355, -0.04833561182022095, -0.020100466907024384, -0.0012454092502593994, 0.10337605823057547, -0.571754859531098, 0.8110776446873552,0.06754867284005633,-0.989776611328125,-0.1105499267578125,-0.3260650634765625
20220223-1423,2022-02-23 14:23:22Z,u01, 21,40,movements,el-ex, rt, d,205729.6635482917, -1.2359254097154406, 0.08945338135552242, 0.228790694831378, -0.1086302176117897, 0.06294626742601395, 0.016511112451553345, -0.9406765699386597, -0.08933413028717041, -0.3273332417011261, -0.014569461345672607, -0.03079833835363388, -0.019895702600479126, 0.10227191416491019, -0.570853601589834, 0.811880436797293,0.06720725157042207,-0.9625244140625,-0.1357574462890625,-0.3458251953125
20220223-1423,2022-02-23 14:23:22Z,u01, 22,40,movements,el-ex, rt, d,205729.68849429168, -1.2348706982536317, 0.08862066696961449, 0.22723994647185008, -0.0356944315135479, 0.010229656472802162, 0.017332298681139946, -0.9404007792472839, -0.08850471675395966, -0.32834964990615845, -0.02360379695892334, -0.014370054006576538, -0.009022116661071777, 0.10145837842211272, -0.5705535701528315, 0.8122210808133967,0.06687238317174043,-0.9640045166015625,-0.102874755859375,-0.337371826171875
20220223-1423,2022-02-23 14:23:22Z,u01, 23,40,movements,el-ex, rt, d,205729.71344029167, -1.2355623712254038, 0.08804414079664472, 0.22745287841968267, 0.01965021714568138, -0.006883483380079269, 0.011300037615001202, -0.940675675868988, -0.08793043345212936, -0.32771581411361694, -0.03509342670440674, -0.016439706087112427, -0.014416694641113281, 0.10130988097163265, -0.5708575965933785, 0.8120079064021735,0.06709064917184543,-0.9779510498046875,-0.10797119140625,-0.3414764404296875
20220223-1423,2022-02-23 14:23:22Z,u01, 24,40,movements,el-ex, rt, d,205729.7383862917, -1.236835932118541, 0.09058978107310116, 0.22831446993032484, 0.07045097649097443, -0.07368321716785431, -0.028299503028392792, -0.9408777356147766, -0.09046592563390732, -0.3264431357383728, -0.039057016372680664, -0.019092202186584473, -9.489059448242188e-05, 0.10262427836727481, -0.5711800912703224, 0.8116532526875416,0.06663811663137553,-0.9799346923828125,-0.10955810546875,-0.3265380859375
20220223-1423,2022-02-23 14:23:22Z,u01, 25,40,movements,el-ex, rt, d,205729.7633332917, -1.238915436068092, 0.09364209948380939, 0.2296575383356392, 0.08871167153120041, -0.1301564872264862, -0.07423783838748932, -0.9412890672683716, -0.09350530058145523, -0.3243943750858307, -0.05933654308319092, 0.002883344888687134, -0.01627326011657715, 0.10430604371968147, -0.5717718621601001, 0.8110586381515926,0.06619015078408319,-0.997344970703125,-0.0958709716796875,-0.3408355712890625
20220223-1423,2022-02-23 14:23:22Z,u01, 26,40,movements,el-ex, rt, d,205729.78827929168, -1.242612808274589, 0.09710248672506841, 0.23069795303178858, 0.052477505058050156, -0.16341882944107056, -0.11834830045700073, -0.9421701431274414, -0.09694996476173401, -0.3208056688308716, -0.07723915576934814, 0.008876219391822815, -0.00467953085899353, 0.10611681980621893, -0.5730064453469884, 0.8100149941087273,0.06541153867045973,-1.0194091796875,-0.08807373046875,-0.3254852294921875
20220223-1423,2022-02-23 14:23:22Z,u01, 27,40,movements,el-ex, rt, d,205729.81322529167, -1.2469336270413984, 0.10139350292240557, 0.2292803847539745, -0.014500295743346214, -0.19012945890426636, -0.23099622130393982, -0.9431444406509399, -0.10121986269950867, -0.31659644842147827, -0.11781454086303711, -0.02164393663406372, -0.011940479278564453, 0.10757166164261181, -0.5745695069309066, 0.8088784609691715,0.06335607691416995,-1.0571136474609375,-0.123687744140625,-0.3184356689453125
20220223-1423,2022-02-23 14:23:22Z,u01, 28,40,movements,el-ex, rt, d,205729.8381712917, -1.2519697963559602, 0.10885293197848453, 0.22963607703414662, 0.25936833024024963, -0.21903102099895477, -0.3377099931240082, -0.9439836144447327, -0.10863809287548065, -0.3115972578525543, -0.12156820297241211, -0.003727644681930542, -0.047197818756103516, 0.11081871149233041, -0.5761254929532662, 0.8075100884675668,0.06104256997055563,-1.0655517578125,-0.11236572265625,-0.358795166015625
20220223-1423,2022-02-23 14:23:22Z,u01, 29,40,movements,el-ex, rt, d,205729.86311729168, -1.2582525935670106, 0.1205968408944263, 0.23518403084483483, 0.4185373783111572, -0.25283074378967285, -0.47412052750587463, -0.9446433782577515, -0.12030473351478577, -0.30524691939353943, -0.12312090396881104, -0.0033982694149017334, -0.047063231468200684, 0.1172986187058874, -0.5775963792622362, 0.8056591573344176,0.059471181214666824,-1.0685272216796875,-0.1228790283203125,-0.3594512939453125
20220223-1423,2022-02-23 14:23:22Z,u01, 30,40,movements,el-ex, rt, d,205729.88806329167, -1.2658412256278917, 0.13549397676737368, 0.23840109902024545, 0.15831755101680756, -0.3133142590522766, -0.5869686603546143, -0.9451181292533875, -0.1350797712802887, -0.297498494386673, -0.1408042311668396, -0.025885194540023804, 0.0006388425827026367, 0.12437470066328055, -0.5794667279565797, 0.8035071700938925,0.05590670490091476,-1.0859222412109375,-0.1609649658203125,-0.2968597412109375
20220223-1423,2022-02-23 14:23:22Z,u01, 31,40,movements,el-ex, rt, d,205729.9130092917, -1.273310871105843, 0.1511015318304982, 0.2364265854691087, 0.11684158444404602, -0.2968786358833313, -0.6692351698875427, -0.9451829791069031, -0.1505272090435028, -0.2897772490978241, -0.1513746976852417, -0.06976392865180969, -0.016924381256103516, 0.13018349603344004, -0.5815183891466504, 0.8014913925109658,0.05000245883384208,-1.1034088134765625,-0.22735595703125,-0.2979278564453125
20220223-1423,2022-02-23 14:23:22Z,u01, 32,40,movements,el-ex, rt, d,205729.93795529168, -1.2812639322662067, 0.16813450960921192, 0.23707834224354066, 0.3724406361579895, -0.3398396074771881, -0.6232521533966064, -0.9448630809783936, -0.16734345257282257, -0.2814781367778778, -0.11778950691223145, -0.04437226057052612, -0.043289899826049805, 0.13728215496764876, -0.5834505494595453, 0.7992159960226006,0.044641942359837816,-1.062652587890625,-0.2117156982421875,-0.32476806640625
20220223-1423,2022-02-23 14:23:22Z,u01, 33,40,movements,el-ex, rt, d,205729.96290129167, -1.2914491888923765, 0.18566613469685322, 0.24466378807061445, 0.5038917064666748, -0.34850001335144043, -0.6027495861053467, -0.9447153806686401, -0.18460126221179962, -0.2709893584251404, -0.13777363300323486, -0.07531695067882538, -0.023993462324142456, 0.1465995742228577, -0.5856738756689018, 0.7960893137835788,0.04167118451644308,-1.0800018310546875,-0.2564239501953125,-0.305145263671875
20220223-1423,2022-02-23 14:23:22Z,u01, 34,40,movements,el-ex, rt, d,205729.9878472917, -1.3019762935906931, 0.20243194593135425, 0.25028674512443644, 0.21599481999874115, -0.40930604934692383, -0.5985638499259949, -0.9443988800048828, -0.2010522037744522, -0.26017075777053833, -0.12675291299819946, -0.0774359405040741, -0.0052253007888793945, 0.15499843359120605, -0.5881242293592854, 0.7928676076491541,0.0380313055960293,-1.0711517333984375,-0.2784881591796875,-0.2653961181640625
20220223-1423,2022-02-23 14:23:22Z,u01, 35,40,movements,el-ex, rt, d,205730.0127942917, -1.3107586651564709, 0.21717861681171047, 0.24533845700729165, -0.23135198652744293, -0.4102090001106262, -0.6319767832756042, -0.9436793327331543, -0.21547538042068481, -0.2510770857334137, -0.12887626886367798, -0.08370369672775269, 0.01639699935913086, 0.15941205932652233, -0.5908039020005926, 0.7903067228705969,0.030884585189739022,-1.0771942138671875,-0.2988739013671875,-0.2350921630859375
20220223-1423,2022-02-23 14:23:22Z,u01, 36,40,movements,el-ex, rt, d,205730.03774029168, -1.3192371862642958, 0.2304421835096264, 0.23397211605517745, -0.2601911127567291, -0.49207088351249695, -0.5829310417175293, -0.9429230690002441, -0.22840803861618042, -0.24233441054821014, -0.10991811752319336, -0.03868183493614197, -0.006017565727233887, 0.16128159416788093, -0.593987407500731, 0.7878442023142956,0.02165155105009625,-1.0528411865234375,-0.26708984375,-0.24835205078125
20220223-1423,2022-02-23 14:23:22Z,u01, 37,40,movements,el-ex, rt, d,205730.06268629167, -1.3298626212378295, 0.24340201838505568, 0.2278753561037603, 0.019638366997241974, -0.4633660912513733, -0.6031156778335571, -0.9424908757209778, -0.24100574851036072, -0.23157617449760437, -0.11427199840545654, 0.04244306683540344, -0.01630285382270813, 0.1645472850419365, -0.5976086540196663, 0.7845898443412689,0.01438943633941564,-1.0581207275390625,-0.20758056640625,-0.255615234375
20220223-1423,2022-02-23 14:23:22Z,u01, 38,40,movements,el-ex, rt, d,205730.0876322917, -1.3405943906812945, 0.25882294682210827, 0.22469976321721694, -0.043642204254865646, -0.4783516824245453, -0.6544768810272217, -0.9411908984184265, -0.2559428811073303, -0.22057408094406128, -0.09295827150344849, 0.02501639723777771, -0.0062324851751327515, 0.16955597521186105, -0.6008025706924413, 0.7811730754505571,0.0074585595987736175,-1.034149169921875,-0.230926513671875,-0.226806640625
20220223-1423,2022-02-23 14:23:22Z,u01, 39,40,movements,el-ex, rt, d,205730.11257829168, -1.351102485171567, 0.27422666715788846, 0.217143979891832, -0.22201822698116302, -0.5147377252578735, -0.695894718170166, -0.9394972324371338, -0.2708025872707367, -0.20978783071041107, -0.08812123537063599, 0.007786780595779419, 0.010157167911529541, 0.17315889480310975, -0.6042533267026726, 0.7777483343932069,-0.0012035488405148231,-1.027587890625,-0.270965576171875,-0.202056884765625
20220223-1423,2022-02-23 14:23:22Z,u01, 40,40,movements,el-ex, rt, d,205730.13752429167, -1.361420430469234, 0.29002397127074675, 0.20812720175988214, -0.11485249549150467, -0.5154088139533997, -0.670622706413269, -0.9373099207878113, -0.2859751880168915, -0.19916905462741852, -0.07788783311843872, 0.07415270805358887, -0.0056343525648117065, 0.17637815488605943, -0.6077057004645385, 0.7742562492624863,-0.010573718519011094,-1.01519775390625,-0.211822509765625,-0.204803466796875
20220223-1423,2022-02-23 14:23:22Z,u01, 41,40,movements,el-ex, rt, d,205730.1624702917, -1.3729527564101256, 0.30676166076448264, 0.20530920156624402, 0.12464943528175354, -0.47775307297706604, -0.689017117023468, -0.9347198605537415, -0.3019730746746063, -0.18737952411174774, -0.08459776639938354, 0.06147924065589905, -0.01864457130432129, 0.18173828606184725, -0.6109676174916362, 0.7703025876975946,-0.017992867719896943,-1.01861572265625,-0.228302001953125,-0.2067718505859375
20220223-1423,2022-02-23 14:23:22Z,u01, 42,40,movements,el-ex, rt, d,205730.18741629168, -1.3849732716616328, 0.323668536423905, 0.20589921760892232, 0.14935767650604248, -0.47371605038642883, -0.6516922116279602, -0.9317536354064941, -0.3180467486381531, -0.17516209185123444, -0.06820070743560791, 0.0415574312210083, -0.027337253093719482, 0.18811299021644262, -0.614029689371494, 0.7661542881955599,-0.024265595822807323,-0.9999542236328125,-0.2764892578125,-0.2024993896484375
20220223-1423,2022-02-23 14:23:22Z,u01, 43,40,movements,el-ex, rt, d,205730.21236229167, -1.3965553113325455, 0.339843971053643, 0.20445481834845045, -0.036915890872478485, -0.4946630597114563, -0.6200758814811707, -0.9285311102867126, -0.33333998918533325, -0.1634456217288971, -0.061977922916412354, 0.02209123969078064, 0.01903654634952545, 0.19351286301987738, -0.6171142194945589, 0.7620727766297403,-0.031111113778978655,-0.9894256591796875,-0.3057098388671875,-0.1528167724609375
20220223-1423,2022-02-23 14:23:22Z,u01, 44,40,movements,el-ex, rt, d,205730.23730825, -1.4058360620689763, 0.3529508679602512, 0.19872257699410625, -0.16624988615512848, -0.3867349624633789, -0.49043312668800354, -0.9256185293197632, -0.3456682860851288, -0.1540905088186264, -0.05941265821456909, 0.017650067806243896, -0.006782889366149902, 0.19641525925451234, -0.6199804741442504, 0.7586626470204432,-0.03842252808512581,-0.9850311279296875,-0.3280181884765625,-0.1608734130859375
20220223-1423,2022-02-23 14:23:22Z,u01, 45,40,movements,el-ex, rt, d,205730.26225425, -1.4132218701221817, 0.36305983783592793, 0.19372308727419324, -0.05426258593797684, -0.3840903341770172, -0.3728070855140686, -0.9232329726219177, -0.35513627529144287, -0.14669406414031982, 0.011550843715667725, 0.03427445888519287, -0.029361769556999207, 0.19842323930500486, -0.622319196872992, 0.7558987495488348,-0.04431850692513467,-0.9147796630859375,-0.3202362060546875,-0.176605224609375
20220223-1423,2022-02-23 14:23:22Z,u01, 46,40,movements,el-ex, rt, d,205730.28720025002, -1.4220267433237188, 0.37195464691770064, 0.19203579945270605, 0.018898341804742813, -0.3740706741809845, -0.3574448227882385, -0.9213283658027649, -0.36343711614608765, -0.13808587193489075, -0.024350404739379883, 0.03274860978126526, -0.00354611873626709, 0.20094527495262984, -0.6249624485057246, 0.7527740714848193,-0.04872638778319219,-0.9456787109375,-0.3306884765625,-0.141632080078125
20220223-1423,2022-02-23 14:23:22Z,u01, 47,40,movements,el-ex, rt, d,205730.31214725002, -1.4313666537387788, 0.3798807829236481, 0.19293693024073258, 0.12874208390712738, -0.3351180851459503, -0.2732485830783844, -0.9196960926055908, -0.37080976366996765, -0.12907041609287262, -0.01588129997253418, 0.06998273730278015, -0.026309773325920105, 0.2038762675621507, -0.6276139408073637, 0.7495593471825687,-0.05192286676339383,-0.9386138916015625,-0.304931640625,-0.148773193359375
20220223-1423,2022-02-23 14:23:22Z,u01, 48,40,movements,el-ex, rt, d,205730.33709325, -1.4400540882434263, 0.3860946295074137, 0.19684939936316395, 0.2078847587108612, -0.2900362014770508, -0.18020853400230408, -0.9184804558753967, -0.3765734136104584, -0.12077312916517258, 0.013771593570709229, 0.050813496112823486, -0.04472362995147705, 0.20712616709236284, -0.6298509252873148, 0.7466832570266259,-0.05339210250908022,-0.9047088623046875,-0.3257598876953125,-0.165496826171875
20220223-1423,2022-02-23 14:23:22Z,u01, 49,40,movements,el-ex, rt, d,205730.36203925, -1.4498254122396723, 0.3902637355868458, 0.20237118410828273, 0.20499397814273834, -0.3167630434036255, -0.14732955396175385, -0.9180501699447632, -0.3804323375225067, -0.1116022989153862, -0.009272158145904541, 0.045883357524871826, -0.02590983361005783, 0.21010740281747342, -0.6324980080958391, 0.7435820323822383,-0.053729935312534755,-0.914215087890625,-0.334930419921875,-0.153045654296875
20220223-1423,2022-02-23 14:23:22Z,u01, 50,40,movements,el-ex, rt, d,205730.38698525002, -1.4578632697834149, 0.39375646033428213, 0.20500191940230636, -0.01857636496424675, -0.24858605861663818, -0.11065376549959183, -0.9175915718078613, -0.38366010785102844, -0.10406922549009323, -0.02532517910003662, 0.02925950288772583, 0.008793368935585022, 0.21197324979881677, -0.6348485863652739, 0.7409695234911582,-0.054760043917344486,-0.9429168701171875,-0.354400634765625,-0.09527587890625
20220223-1423,2022-02-23 14:23:22Z,u01, 51,40,movements,el-ex, rt, d,205730.41193125, -1.462274572845635, 0.39616903641338813, 0.200321256890838, -0.29349783062934875, -0.26920104026794434, -0.1267339289188385, -0.9171190857887268, -0.38588693737983704, -0.09991993755102158, 0.01987171173095703, 0.04479193687438965, -0.018030405044555664, 0.2112220895193954, -0.6367301326009264, 0.7393400266360418,-0.05776156008520883,-0.9021759033203125,-0.3557891845703125,-0.120391845703125
20220223-1423,2022-02-23 14:23:22Z,u01, 52,40,movements,el-ex, rt, d,205730.43687725, -1.4648469022470787, 0.39807101290792485, 0.18995625459907342, -0.42084693908691406, -0.22834303975105286, -0.09071727097034454, -0.9166414737701416, -0.38764089345932007, -0.09748266637325287, -0.005553901195526123, 0.09912773966789246, 0.004846639931201935, 0.20851823479348092, -0.6385756125872856, 0.7381299564763194,-0.06249361188609584,-0.9221954345703125,-0.28851318359375,-0.0926361083984375
20220223-1423,2022-02-23 14:23:22Z,u01, 53,40,movements,el-ex, rt, d,205730.46182325002, -1.464726865851517, 0.3984308622458751, 0.17939440259178852, -0.353353887796402, -0.11236310005187988, -0.05902878940105438, -0.9164910316467285, -0.3879725933074951, -0.09757792204618454, 0.0013604164123535156, 0.068621426820755, -0.004426948726177216, 0.2052755415211807, -0.6395881402855761, 0.737812271097647,-0.0664982350138777,-0.9206695556640625,-0.311248779296875,-0.10137939453125
20220223-1423,2022-02-23 14:23:22Z,u01, 54,40,movements,el-ex, rt, d,205730.48676925, -1.4651322620912601, 0.39970810602600443, 0.17112705092363734, -0.1904701292514801, -0.16712428629398346, -0.1017514169216156, -0.9160369634628296, -0.3891494870185852, -0.09715402871370316, -0.005578577518463135, 0.05518040060997009, -0.006880268454551697, 0.203072278839239, -0.6404565827723487, 0.7373432440656273,-0.07001374508678992,-0.9216156005859375,-0.3339691162109375,-0.104034423828125
20220223-1423,2022-02-23 14:23:22Z,u01, 55,40,movements,el-ex, rt, d,205730.51171525, -1.467151218899765, 0.4025066933736137, 0.16852311570735398, 0.009305234998464584, -0.07732635736465454, -0.13150730729103088, -0.9151445031166077, -0.39172592759132385, -0.0951913595199585, -0.030610501766204834, 0.09990158677101135, -0.025322429835796356, 0.20316571799135663, -0.6411926489959553, 0.7364753065322575,-0.07211004773692636,-0.950653076171875,-0.2928619384765625,-0.116424560546875
20220223-1423,2022-02-23 14:23:23Z,u01, 56,40,movements,el-ex, rt, d,205730.53666125002, -1.468238848982973, 0.4054911758349656, 0.16881931172399028, 0.016502559185028076, 0.0076130349189043045, -0.10565148293972015, -0.9140803217887878, -0.3944701552391052, -0.09407583624124527, -0.010998904705047607, 0.09878534078598022, -0.03606627881526947, 0.20428607073985267, -0.6412716136302865, 0.7359981842399066,-0.07310615147914332,-0.925079345703125,-0.295684814453125,-0.1301422119140625
20220223-1423,2022-02-23 14:23:23Z,u01, 57,40,movements,el-ex, rt, d,205730.56160725, -1.4682957148652542, 0.4088461308535346, 0.16903242755431389, 0.07219505310058594, -0.030020227655768394, -0.16095641255378723, -0.9127641916275024, -0.3975508213043213, -0.09388792514801025, 0.013990998268127441, 0.05447220802307129, -0.01263362169265747, 0.2055484262196369, -0.6409414024006307, 0.7358298482829642,-0.07415146729889177,-0.901214599609375,-0.34136962890625,-0.1062774658203125
20220223-1423,2022-02-23 14:23:23Z,u01, 58,40,movements,el-ex, rt, d,205730.58655425, -1.4703816940945875, 0.4128247908962731, 0.17171063217675064, 0.12319988012313843, -0.036155153065919876, -0.12557744979858398, -0.9113771319389343, -0.4011984169483185, -0.09182442724704742, 0.01045238971710205, 0.0752248764038086, -0.02099895477294922, 0.20774591371947299, -0.6410377679928875, 0.735072053402346,-0.07470852948596951,-0.9009246826171875,-0.3259735107421875,-0.112823486328125
20220223-1423,2022-02-23 14:23:23Z,u01, 59,40,movements,el-ex, rt, d,205730.61150025, -1.4699344538781143, 0.4039439303185046, 0.17256005135326832, -0.01761596091091633, -0.02282576449215412, -0.10650096088647842, -0.9148447513580322, -0.39304789900779724, -0.09258712828159332, 0.027210474014282227, 0.04630720615386963, -0.030703775584697723, 0.2048731120493683, -0.6416645868772342, 0.7356611652643783,-0.0713873898019188,-0.8860321044921875,-0.3437652587890625,-0.129486083984375
20220223-1423,2022-02-23 14:23:23Z,u01, 60,40,movements,el-ex, rt, d,205730.63644625002, -1.4680709079017147, 0.4023830231057395, 0.16899197084210787, -0.15193894505500793, 0.015444528311491013, -0.09837765246629715, -0.9152798056602478, -0.39161214232444763, -0.09435462951660156, 0.023556172847747803, 0.024912893772125244, 0.0014439821243286133, 0.20323880219016305, -0.6414956545265789, 0.7362029655306501,-0.07198967423214445,-0.8917236328125,-0.36669921875,-0.0929107666015625
20220223-1423,2022-02-23 14:23:23Z,u01, 61,40,movements,el-ex, rt, d,205730.66139225, -1.4661163162646693, 0.4016066831206388, 0.16449112308162697, -0.13058030605316162, -0.05676715075969696, -0.09513505548238754, -0.9153957962989807, -0.3908976912498474, -0.0961751863360405, 0.05425071716308594, 0.05801194906234741, -0.015213847160339355, 0.20158908812564139, -0.6413066702680289, 0.7367026365281962,-0.07319062089421718,-0.855804443359375,-0.3303985595703125,-0.1070098876953125
20220223-1423,2022-02-23 14:23:23Z,u01, 62,40,movements,el-ex, rt, d,205730.68633825, -1.4652586112895918, 0.40242565092289717, 0.1608197737648955, -0.11167924851179123, -0.033129867166280746, -0.08484979718923569, -0.9149942398071289, -0.39165136218070984, -0.09692653268575668, 0.030167579650878906, 0.02861425280570984, -0.02279382199048996, 0.20073640416694016, -0.6412812411267141, 0.7368030955810099,-0.0747292707343718,-0.88482666015625,-0.363037109375,-0.119720458984375
20220223-1423,2022-02-23 14:23:23Z,u01, 63,40,movements,el-ex, rt, d,205730.71128425002, -1.4646913798088375, 0.40362368446759345, 0.1567007196204055, -0.1978062391281128, -0.06333564221858978, -0.09550850093364716, -0.9144719243049622, -0.3927534222602844, -0.09739577770233154, 0.03559613227844238, 0.010642826557159424, 0.006957054138183594, 0.19986566291971417, -0.6413702751110846, 0.7367714705737818,-0.07658818916346505,-0.8770599365234375,-0.3825836181640625,-0.0864715576171875
20220223-1423,2022-02-23 14:23:23Z,u01, 64,40,movements,el-ex, rt, d,205730.73623025, -1.4621009371030644, 0.4039192707508183, 0.14832782791233798, -0.3402908444404602, -0.016873933374881744, 0.0031873835250735283, -0.9141011834144592, -0.3930252194404602, -0.09975173324346542, 0.04013866186141968, 0.016316235065460205, 0.006688416004180908, 0.19738791437243458, -0.6412192629211914, 0.7372607378772318,-0.07951454106142125,-0.87396240234375,-0.376708984375,-0.0930633544921875
20220223-1423,2022-02-23 14:23:23Z,u01, 65,40,movements,el-ex, rt, d,205730.76117625, -1.460351005889663, 0.40184914770499075, 0.1422091321575182, -0.09341927617788315, -0.06691765785217285, 0.021199140697717667, -0.9147316813468933, -0.3911208510398865, -0.10144063830375671, 0.06464940309524536, 0.01575469970703125, -0.016235098242759705, 0.194752900261219, -0.6413665018856187, 0.7376810292957257,-0.08091302962656716,-0.8480072021484375,-0.3818206787109375,-0.1239013671875
20220223-1423,2022-02-23 14:23:23Z,u01, 66,40,movements,el-ex, rt, d,205730.78612225002, -1.4617107473929658, 0.40189337444108947, 0.14007966492720347, -0.14161427319049835, -0.055298082530498505, -0.025171885266900063, -0.9148516654968262, -0.39116156101226807, -0.10019486397504807, 0.009776592254638672, 0.014712035655975342, 0.01593591272830963, 0.19403020243070132, -0.6420707499516085, 0.737155867013892,-0.08184499326106426,-0.9050750732421875,-0.3764495849609375,-0.084259033203125
20220223-1423,2022-02-23 14:23:23Z,u01, 67,40,movements,el-ex, rt, d,205730.81106825, -1.4586890572918476, 0.40162713888597695, 0.13216839585359832, -0.4150477647781372, 0.05102122575044632, 0.008797332644462585, -0.914648175239563, -0.39091652631759644, -0.10297045111656189, 0.012701213359832764, 0.0022293925285339355, 0.022297337651252747, 0.19152085624447043, -0.6417433568545696, 0.737810769638648,-0.0843828131969454,-0.916351318359375,-0.393218994140625,-0.0664825439453125
20220223-1423,2022-02-23 14:23:23Z,u01, 68,40,movements,el-ex, rt, d,205730.83601425, -1.452852368175091, 0.4009803644246501, 0.12187809675269083, -0.2214539796113968, 0.024670781567692757, 0.03548187017440796, -0.914282500743866, -0.39032113552093506, -0.1083369180560112, 0.06612271070480347, 0.035966306924819946, -0.01710551232099533, 0.18823914872940103, -0.6406227951093026, 0.7392746669934213,-0.08741513986750213,-0.8481597900390625,-0.3543548583984375,-0.1254425048828125
20220223-1423,2022-02-23 14:23:23Z,u01, 69,40,movements,el-ex, rt, d,205730.86096025002, -1.4523179904345622, 0.3994867535082814, 0.12203503369078231, 0.16232258081436157, 0.022514421492815018, 0.05969240516424179, -0.9148023724555969, -0.3889455497264862, -0.10889425873756409, 0.040839970111846924, 0.050444573163986206, -0.003196708858013153, 0.18777251615518398, -0.6405422337540683, 0.7395338097019907,-0.08681497128139504,-0.8620147705078125,-0.3266448974609375,-0.12225341796875
20220223-1423,2022-02-23 14:23:23Z,u01, 70,40,movements,el-ex, rt, d,205730.88590725002, -1.4519167465261524, 0.39879431141913685, 0.12397044545124719, -0.13041424751281738, 0.07996858656406403, 0.014413805678486824, -0.9150257110595703, -0.3883075416088104, -0.10929321497678757, 0.028932690620422363, 0.0055866241455078125, 0.043299101293087006, 0.1881590799351642, -0.640273029008538, 0.7397831735582471,-0.08583346420427107,-0.8860931396484375,-0.382720947265625,-0.0659942626953125
20220223-1423,2022-02-23 14:23:23Z,u01, 71,40,movements,el-ex, rt, d,205730.91085325, -1.447525086719084, 0.3970186281789784, 0.11653082743357168, -0.3601001501083374, 0.0503697507083416, 0.036071497946977615, -0.9152199029922485, -0.3866705894470215, -0.11339525133371353, 0.05578380823135376, -0.0030236244201660156, 0.023597359657287598, 0.1853258716171133, -0.6394972208088804, 0.7409622466935295,-0.08759353312588128,-0.8580474853515625,-0.3921356201171875,-0.082427978515625
20220223-1423,2022-02-23 14:23:23Z,u01, 72,40,movements,el-ex, rt, d,205730.93579925, -1.4428643626061313, 0.39385254209436166, 0.10885678483931738, -0.18644298613071442, 0.05994861200451851, 0.10556454956531525, -0.9158911108970642, -0.3837488293647766, -0.11781518906354904, 0.051434874534606934, 0.011144459247589111, -0.008405447006225586, 0.18192841344443694, -0.6387444372274487, 0.7422879531078369,-0.08897321849332562,-0.8644561767578125,-0.3726043701171875,-0.126220703125
20220223-1423,2022-02-23 14:23:23Z,u01, 73,40,movements,el-ex, rt, d,205730.96074525002, -1.4424711173089395, 0.3906457039675116, 0.10806992340356777, 0.05521746724843979, 0.043780893087387085, 0.10714014619588852, -0.9170604944229126, -0.3807855546474457, -0.11833222955465317, -0.017586112022399902, 0.03543338179588318, 0.01828039437532425, 0.180526444700497, -0.6389398144016596, 0.7425567107946189,-0.08817990737012085,-0.9121551513671875,-0.345306396484375,-0.112091064453125
20220223-1423,2022-02-23 14:23:23Z,u01, 74,40,movements,el-ex, rt, d,205730.98569125, -1.4410818038776965, 0.38860090736652936, 0.10958349465104386, -0.04732392355799675, 0.12205658853054047, 0.1286417841911316, -0.9176653027534485, -0.37889400124549866, -0.1197066605091095, -0.022688090801239014, 0.0074492692947387695, 0.03492891788482666, 0.180325291225883, -0.6384586575550971, 0.7431790295992481,-0.08682320992005332,-0.9403533935546875,-0.3714447021484375,-0.08477783203125
20220223-1423,2022-02-23 14:23:23Z,u01, 75,40,movements,el-ex, rt, d,205731.01063725, -1.4383660715903268, 0.38677250950587105, 0.10718035875760129, -0.14425116777420044, 0.07023460417985916, 0.11784978955984116, -0.9180221557617188, -0.3772013187408447, -0.12228964269161224, -0.022666990756988525, 0.020511865615844727, 0.010046005249023438, 0.1790092172834141, -0.6378172782401593, 0.7440414537926336,-0.0868749971163692,-0.932281494140625,-0.374969482421875,-0.1072235107421875
20220223-1423,2022-02-23 14:23:23Z,u01, 76,40,movements,el-ex, rt, d,205731.03558325002, -1.4339588052092052, 0.38264690338517193, 0.10398161694115454, -0.1211223155260086, 0.1292848140001297, 0.13110879063606262, -0.9190080165863037, -0.37337726354599, -0.12654559314250946, 0.011491477489471436, 0.07975232601165771, 0.01019740104675293, 0.17667179537610875, -0.6368000288595769, 0.7455335422405867,-0.08632832045718891,-0.9075164794921875,-0.2936248779296875,-0.1163482666015625
20220223-1423,2022-02-23 14:23:23Z,u01, 77,40,movements,el-ex, rt, d,205731.06052925, -1.4324127118880625, 0.3781082512670951, 0.10213781603369361, -0.10785254836082458, 0.13444076478481293, 0.12874877452850342, -0.9204801917076111, -0.36916300654411316, -0.1281987577676773, 0.001443326473236084, 0.02472636103630066, 0.03594423830509186, 0.17448754647393214, -0.6367532603795256, 0.7461943147508492,-0.08540182125821369,-0.913055419921875,-0.3372344970703125,-0.0849609375
20220223-1423,2022-02-23 14:23:23Z,u01, 78,40,movements,el-ex, rt, d,205731.08547525, -1.4284905992978834, 0.3752154110288567, 0.09942745363750789, -0.1753683090209961, 0.1540462225675583, 0.1447850614786148, -0.9210236668586731, -0.3664729595184326, -0.13195891678333282, 0.01878666877746582, 0.03145095705986023, 0.036942481994628906, 0.17273016280101222, -0.6357553265736521, 0.7474837836338089,-0.08513257096707211,-0.9022369384765625,-0.33502197265625,-0.0950164794921875
20220223-1423,2022-02-23 14:23:23Z,u01, 79,40,movements,el-ex, rt, d,205731.11042125002, -1.42549172744171, 0.366999429689245, 0.09685048253362304, -0.08595766127109528, 0.14427973330020905, 0.09419737756252289, -0.9235718250274658, -0.3588162958621979, -0.13515174388885498, -0.0034759044647216797, 0.029882580041885376, 0.007100000977516174, 0.16901270806549643, -0.6354988834008513, 0.7487710982592465,-0.08317294900744363,-0.926849365234375,-0.3401641845703125,-0.1281280517578125
20220223-1423,2022-02-23 14:23:23Z,u01, 80,40,movements,el-ex, rt, d,205731.13536725, -1.4232862618208473, 0.3623533695952909, 0.09770720916931222, 0.027583107352256775, 0.18081824481487274, 0.09076104313135147, -0.9249106645584106, -0.3544757664203644, -0.13743188977241516, 0.01801961660385132, 0.04752993583679199, 0.02608858048915863, 0.16766162501998788, -0.6349595552182195, 0.7497527900924328,-0.08115967679798541,-0.906890869140625,-0.30694580078125,-0.1113433837890625
20220223-1423,2022-02-23 14:23:23Z,u01, 81,40,movements,el-ex, rt, d,205731.16031325, -1.4213424358402487, 0.3589799365121128, 0.0992570651858101, -0.03338460624217987, 0.1755628138780594, 0.15002256631851196, -0.9258188605308533, -0.3513193726539612, -0.1394067406654358, 0.047583937644958496, -0.008574485778808594, 0.0038934946060180664, 0.16698552973881878, -0.6343598862511186, 0.7506073337972546,-0.0793226775902579,-0.88494873046875,-0.3564605712890625,-0.1414947509765625
20220223-1423,2022-02-23 14:23:23Z,u01, 82,40,movements,el-ex, rt, d,205731.18525925002, -1.4183794775219105, 0.3553679640303035, 0.0999024566469943, -0.01600092090666294, 0.11405932158231735, 0.17294526100158691, -0.9266500473022461, -0.34793534874916077, -0.1423410326242447, 0.03913772106170654, -0.02004566788673401, 0.028251156210899353, 0.16597056078676686, -0.6334692236274504, 0.7517572258919526,-0.07766456640194355,-0.88751220703125,-0.36798095703125,-0.1140899658203125
20220223-1423,2022-02-23 14:23:23Z,u01, 83,40,movements,el-ex, rt, d,205731.21020625002, -1.415929313281675, 0.34855398035685414, 0.10113087496347693, -0.043040163815021515, 0.2213556170463562, 0.24417731165885925, -0.9286193251609802, -0.34153908491134644, -0.14497336745262146, 0.01124560832977295, -0.020048439502716064, 0.03704804182052612, 0.16392866333034514, -0.6329618554427092, 0.7529223604501447,-0.0747975450214268,-0.9332122802734375,-0.3886566162109375,-0.1116790771484375
20220223-1423,2022-02-23 14:23:23Z,u01, 84,40,movements,el-ex, rt, d,205731.23515154168, -1.4109400870819684, 0.34224452920206466, 0.09929590359355395, -0.14669105410575867, 0.1550559550523758, 0.23802992701530457, -0.9299935698509216, -0.3356022834777832, -0.14994467794895172, 0.07850724458694458, 0.04966777563095093, 0.001995563507080078, 0.1611900351305009, -0.6317004288743403, 0.7547427214055044,-0.0730475039498999,-0.8514862060546875,-0.2859344482421875,-0.14794921875
20220223-1423,2022-02-23 14:23:23Z,u01, 85,40,movements,el-ex, rt, d,205731.26009754167, -1.4067267335614337, 0.3387819780924094, 0.09781069610744268, -0.07201161980628967, 0.17592155933380127, 0.16574187576770782, -0.9304942488670349, -0.3323385417461395, -0.15405058860778809, 0.06817430257797241, 0.034700602293014526, 0.008497074246406555, 0.15958513574274766, -0.630481794397825, 0.7561870086962879,-0.0721560377799888,-0.866241455078125,-0.30218505859375,-0.1556854248046875
20220223-1423,2022-02-23 14:23:23Z,u01, 86,40,movements,el-ex, rt, d,205731.2850435417, -1.4036622429614696, 0.33617330158097436, 0.0974344415743025, -0.013773253187537193, 0.1595907211303711, 0.12816700339317322, -0.9308695197105408, -0.32987701892852783, -0.15704505145549774, 0.03900855779647827, 0.009961217641830444, 0.014695882797241211, 0.1586032373524274, -0.6295414922027718, 0.7572653258956559,-0.07121655847806396,-0.8918609619140625,-0.319915771484375,-0.1423492431640625
20220223-1423,2022-02-23 14:23:23Z,u01, 87,40,movements,el-ex, rt, d,205731.30998954168, -1.399424717803029, 0.3336365275744973, 0.09842980125146739, 0.04018235579133034, 0.16666533052921295, 0.09389951080083847, -0.9310172200202942, -0.3274811804294586, -0.1611303836107254, 0.09691077470779419, 0.06255808472633362, -0.011644825339317322, 0.1581173439573169, -0.6280395784023686, 0.7587545274204937,-0.06969042165869949,-0.85467529296875,-0.2745208740234375,-0.17608642578125
20220223-1423,2022-02-23 14:23:23Z,u01, 88,40,movements,el-ex, rt, d,205731.33493554167, -1.3976295237372878, 0.3323946308949611, 0.10013902383393583, -0.06034142151474953, 0.09443089365959167, 0.057153016328811646, -0.9311263561248779, -0.3263075053691864, -0.16287143528461456, 0.04849696159362793, 0.010435342788696289, -0.01516801118850708, 0.1582509984452293, -0.6273124459954087, 0.7594360884818089,-0.06850213272065178,-0.88262939453125,-0.3158721923828125,-0.17803955078125
20220223-1423,2022-02-23 14:23:23Z,u01, 89,40,movements,el-ex, rt, d,205731.3598815417, -1.3931944184468892, 0.3291865776438486, 0.09602953273013817, -0.27821511030197144, 0.1293913871049881, 0.12800787389278412, -0.9314205050468445, -0.3232733905315399, -0.16718356311321259, 0.05066788196563721, -0.04235774278640747, -0.0021584033966064453, 0.155912658449613, -0.6261784594069054, 0.7608373739720107,-0.06869050886789571,-0.89129638671875,-0.37591552734375,-0.1764984130859375
20220223-1423,2022-02-23 14:23:23Z,u01, 90,40,movements,el-ex, rt, d,205731.38482754168, -1.387760179730783, 0.3240957832681848, 0.0893248231752421, -0.25989124178886414, 0.18370597064495087, 0.16490085422992706, -0.9321044683456421, -0.31845176219940186, -0.17253994941711426, 0.055593669414520264, -0.06054610013961792, 0.002877458930015564, 0.15208857118880975, -0.6249792740577942, 0.7625489945250823,-0.06920373467518853,-0.8765106201171875,-0.378997802734375,-0.1696624755859375
20220223-1423,2022-02-23 14:23:23Z,u01, 91,40,movements,el-ex, rt, d,205731.40977354167, -1.3808451643091726, 0.31843488763668115, 0.08439593043819346, -0.17666210234165192, 0.17879784107208252, 0.18314649164676666, -0.9326443076133728, -0.3130805194377899, -0.17931877076625824, 0.0575222373008728, -0.13043144345283508, 0.028851881623268127, 0.14865272258583948, -0.6230914738507849, 0.7648072750945449,-0.06876931563080191,-0.8652496337890625,-0.4292449951171875,-0.1614837646484375
20220223-1423,2022-02-23 14:23:23Z,u01, 92,40,movements,el-ex, rt, d,205731.4347195417, -1.373426858174644, 0.3135228862463752, 0.0834783167419806, -0.09818850457668304, 0.45847439765930176, 0.24901625514030457, -0.9327850937843323, -0.30841168761253357, -0.18653170764446259, -0.01078784465789795, -0.11518755555152893, 0.05100323259830475, 0.1467583892197134, -0.6206416992918273, 0.767316137784648,-0.06702058420270118,-0.943572998046875,-0.4235992431640625,-0.135528564453125
20220223-1423,2022-02-23 14:23:23Z,u01, 93,40,movements,el-ex, rt, d,205731.45966554168, -1.3586108919246762, 0.3054930300406424, 0.0813042741829893, -0.14525428414344788, 0.5904383063316345, 0.3706777095794678, -0.932310163974762, -0.30076342821121216, -0.20084594190120697, 0.18017393350601196, 0.04609420895576477, -0.018666982650756836, 0.14351433370789476, -0.6156140580675309, 0.7722004391231481,-0.06426083829496604,-0.788482666015625,-0.253021240234375,-0.181427001953125
20220223-1423,2022-02-23 14:23:23Z,u01, 94,40,movements,el-ex, rt, d,205731.48461154167, -1.347368312340866, 0.30079308367083935, 0.08213728178613858, 0.06743288785219193, 0.30911436676979065, 0.011422477662563324, -0.9313614964485168, -0.2962777614593506, -0.21162547171115875, 0.19108128547668457, -0.022051095962524414, -0.053358614444732666, 0.14232297720998527, -0.6114993308005755, 0.7758927323989172,-0.06167058921654606,-0.7402801513671875,-0.318328857421875,-0.264984130859375
20220223-1423,2022-02-23 14:23:23Z,u01, 95,40,movements,el-ex, rt, d,205731.50955854167, -1.3406120551218492, 0.30217542515803714, 0.08659430811760663, 0.23456212878227234, 0.41925209760665894, 0.003335854969918728, -0.929510772228241, -0.2975977659225464, -0.2178194522857666, 0.05458700656890869, -0.08858692646026611, -0.04005402326583862, 0.14441921766134874, -0.608468046053819, 0.778025520355203,-0.05988325542843756,-0.8776092529296875,-0.3936767578125,-0.271240234375
20220223-1423,2022-02-23 14:23:24Z,u01, 96,40,movements,el-ex, rt, d,205731.5345045417, -1.3314417136623182, 0.3033706946177516, 0.08897125923830412, -0.020713582634925842, 0.3334472179412842, 0.008200119249522686, -0.9271280765533447, -0.29873865842819214, -0.22624963521957397, 0.13206881284713745, -0.10038548707962036, -0.02036285400390625, 0.14587278117160626, -0.6046456121452533, 0.7808225681376856,-0.05866010492945217,-0.7950592041015625,-0.3991241455078125,-0.246612548828125
20220223-1423,2022-02-23 14:23:24Z,u01, 97,40,movements,el-ex, rt, d,205731.55945054168, -1.3247032090899915, 0.30101031943199424, 0.08722147927034758, -0.1427583396434784, 0.16718938946723938, 0.1957342028617859, -0.9262637495994568, -0.2964852452278137, -0.23266303539276123, 0.1577242612838745, -0.14946812391281128, -0.0679197907447815, 0.14462844932551017, -0.602288213265975, 0.7829128157689254,-0.058130240759325325,-0.7659454345703125,-0.4448699951171875,-0.2922515869140625
20220223-1423,2022-02-23 14:23:24Z,u01, 98,40,movements,el-ex, rt, d,205731.58439654167, -1.3195521743702532, 0.2947681748678732, 0.08531805175865276, -0.15811635553836823, 0.1812533438205719, 0.258322536945343, -0.9268275499343872, -0.29051804542541504, -0.23788662254810333, 0.1590052843093872, -0.12331563234329224, -0.02107018232345581, 0.1417819135044531, -0.6007949561940213, 0.7846910231561959,-0.056598379599494264,-0.767822265625,-0.4138336181640625,-0.2589569091796875
20220223-1423,2022-02-23 14:23:24Z,u01, 99,40,movements,el-ex, rt, d,205731.6093425417, -1.3150290010704169, 0.28811867016195514, 0.08211665824104937, -0.20025508105754852, 0.09836790710687637, 0.22953204810619354, -0.927590548992157, -0.2841489613056183, -0.24255973100662231, 0.1702662706375122, -0.1580355167388916, -0.01802980899810791, 0.13836113725081758, -0.5996468388742403, 0.786255916481876,-0.05551135890179512,-0.7598114013671875,-0.4421844482421875,-0.24542236328125
20220223-1423,2022-02-23 14:23:24Z,u01, 100,40,movements,el-ex, rt, d,205731.63428854168, -1.3124080373180134, 0.2826856752073121, 0.07797461132535008, -0.12828272581100464, -0.015686696395277977, 0.09528295695781708, -0.9284303784370422, -0.2789357304573059, -0.24538090825080872, 0.1713656187057495, -0.09641525149345398, -0.0030015408992767334, 0.1350740904028416, -0.5992199388866265, 0.7871666507077266,-0.05530865095449855,-0.7570648193359375,-0.3753509521484375,-0.248382568359375
20220223-1423,2022-02-23 14:23:24Z,u01, 101,40,movements,el-ex, rt, d,205731.65923454167, -1.312497368599649, 0.28206838724899674, 0.07860482851907444, 0.10242339223623276, 0.023046718910336494, 0.017018910497426987, -0.9286186695098877, -0.2783429026603699, -0.2453419268131256, 0.12033003568649292, -0.03604918718338013, -0.024479210376739502, 0.1350195666355182, -0.599248491197007, 0.787184400252372,-0.054878984764031746,-0.810699462890625,-0.3206329345703125,-0.2654571533203125
20220223-1423,2022-02-23 14:23:24Z,u01, 102,40,movements,el-ex, rt, d,205731.6841805417, -1.3128135584415992, 0.283915310016092, 0.08055981779634883, 0.0004493594169616699, -0.04966876655817032, -0.13318577408790588, -0.92819744348526, -0.28011634945869446, -0.24491669237613678, 0.15123522281646729, -0.07355183362960815, -0.02824607491493225, 0.1363171719215154, -0.599132108205504, 0.7870622304168143,-0.05469257536671707,-0.7769622802734375,-0.353668212890625,-0.273162841796875
20220223-1423,2022-02-23 14:23:24Z,u01, 103,40,movements,el-ex, rt, d,205731.70912654168, -1.313777768172616, 0.29003967573735334, 0.07779921857380817, -0.0386064313352108, -0.0941411554813385, -0.21769000589847565, -0.9267567992210388, -0.28599023818969727, -0.24358099699020386, 0.138594388961792, -0.10493996739387512, -0.039393216371536255, 0.1378509355209941, -0.5993384865606217, 0.7864226363958512,-0.05770699961629869,-0.791351318359375,-0.39215087890625,-0.2773284912109375
20220223-1423,2022-02-23 14:23:24Z,u01, 104,40,movements,el-ex, rt, d,205731.73407254167, -1.3166916575943746, 0.2973686662636902, 0.07807242435264306, 0.19048233330249786, -0.16469907760620117, -0.276040256023407, -0.9254088997840881, -0.2930053770542145, -0.24034611880779266, 0.11570119857788086, -0.09801638126373291, -0.029047727584838867, 0.14070119243524465, -0.6000250970746341, 0.7852191488913582,-0.060033185743375045,-0.8097076416015625,-0.391021728515625,-0.2693939208984375
20220223-1423,2022-02-23 14:23:24Z,u01, 105,40,movements,el-ex, rt, d,205731.7590185417, -1.320003941207156, 0.30486497627676, 0.08132610432724535, 0.10950300842523575, -0.07603751868009567, -0.18568146228790283, -0.9240462183952332, -0.3001643717288971, -0.23672783374786377, 0.11000502109527588, -0.05608254671096802, -0.001446545124053955, 0.14449072519705503, -0.600631762298873, 0.7839699901278836,-0.06127847402789513,-0.8315887451171875,-0.3638916015625,-0.25640869140625
20220223-1423,2022-02-23 14:23:24Z,u01, 106,40,movements,el-ex, rt, d,205731.78396454168, -1.3230019699861761, 0.3108214981429258, 0.07983717055769737, -0.12966829538345337, -0.24321772158145905, -0.2152809202671051, -0.9230021238327026, -0.3058408796787262, -0.23351380228996277, 0.12046605348587036, -0.11022058129310608, 0.022301673889160156, 0.14625986846108607, -0.6015406468175973, 0.782734946573685,-0.06389880171350559,-0.8025360107421875,-0.4160614013671875,-0.211212158203125
20220223-1423,2022-02-23 14:23:24Z,u01, 107,40,movements,el-ex, rt, d,205731.80891054167, -1.3256926934970654, 0.31729021974398464, 0.07875254055687816, 0.14218862354755402, -0.01150493323802948, -0.060237325727939606, -0.921688437461853, -0.31199318170547485, -0.23054449260234833, -0.013370215892791748, -0.13884299993515015, 0.009902477264404297, 0.1483508474779973, -0.6022622155592213, 0.7815690228260501,-0.06649955250947984,-0.93878173828125,-0.4864959716796875,-0.225738525390625
20220223-1423,2022-02-23 14:23:24Z,u01, 108,40,movements,el-ex, rt, d,205731.83385754167, -1.3263367185101353, 0.32131867680908915, 0.08501941604720216, 0.3390059471130371, 0.039727360010147095, -0.014713519252836704, -0.9206096529960632, -0.31581801176071167, -0.229644775390625, 0.03881955146789551, -0.07059553265571594, 0.00987251102924347, 0.1517739656702484, -0.6017825844031601, 0.781379538518531,-0.06533246475820675,-0.8817901611328125,-0.38641357421875,-0.2197723388671875
20220223-1423,2022-02-23 14:23:24Z,u01, 109,40,movements,el-ex, rt, d,205731.8588035417, -1.327103633874374, 0.3249758108009576, 0.08914060377858862, -0.015930013731122017, -0.035972658544778824, -0.09079330414533615, -0.9196586012840271, -0.31928586959838867, -0.22865848243236542, 0.052760958671569824, -0.07584047317504883, 0.07796275615692139, 0.15440153412493354, -0.6015238346374701, 0.7810999236729677,-0.06490167580695361,-0.863006591796875,-0.38934326171875,-0.1529388427734375
20220223-1423,2022-02-23 14:23:24Z,u01, 110,40,movements,el-ex, rt, d,205731.88374954168, -1.3260358817076914, 0.33245686802394103, 0.0844724906440475, -0.2275523841381073, 0.009918399155139923, -0.03138004615902901, -0.917070746421814, -0.3263663351535797, -0.22905507683753967, 0.043886542320251465, -0.0510445237159729, 0.056493476033210754, 0.1559225524991684, -0.6009664065102054, 0.7808814471270513,-0.06893254887268568,-0.8731842041015625,-0.377410888671875,-0.1725616455078125
20220223-1423,2022-02-23 14:23:24Z,u01, 111,40,movements,el-ex, rt, d,205731.90869554167, -1.3252350850192143, 0.33621882076313414, 0.08240910556792007, 0.0631321519613266, 0.0005804914981126785, 0.024661846458911896, -0.9156896471977234, -0.3299199938774109, -0.2294892966747284, 0.07523554563522339, 0.0436040461063385, -0.038271889090538025, 0.15678345261904628, -0.6005616530115861, 0.7808510515489957,-0.07082615429511707,-0.8406219482421875,-0.305267333984375,-0.2633209228515625
20220223-1423,2022-02-23 14:23:24Z,u01, 112,40,movements,el-ex, rt, d,205731.9336415417, -1.3263737865926604, 0.3374575688277531, 0.0846843602969895, 0.07243672758340836, 0.0025960393249988556, -0.007888037711381912, -0.915553092956543, -0.3310891389846802, -0.22834736108779907, 0.05378246307373047, 0.08307281136512756, -0.008850440382957458, 0.1579047698572301, -0.6007432071470568, 0.7805232899831105,-0.07040647825795995,-0.8617706298828125,-0.248016357421875,-0.2371978759765625
20220223-1423,2022-02-23 14:23:24Z,u01, 113,40,movements,el-ex, rt, d,205731.95858754168, -1.3274532894321143, 0.340513484526956, 0.08454006410047987, -0.056453436613082886, -0.04577355831861496, -0.09500423073768616, -0.9148128032684326, -0.33397114276885986, -0.22711405158042908, 0.04039263725280762, 0.028230786323547363, 0.0009025335311889648, 0.15900192950486375, -0.6009670231632873, 0.7800302203949911,-0.07148355446051058,-0.877410888671875,-0.3087615966796875,-0.211761474609375
20220223-1423,2022-02-23 14:23:24Z,u01, 114,40,movements,el-ex, rt, d,205731.98353354167, -1.3282963432115384, 0.3438157665195389, 0.08241674174582925, -0.0016647577285766602, -0.13280698657035828, -0.16756391525268555, -0.9139285087585449, -0.33708199858665466, -0.22607669234275818, 0.062182843685150146, 0.09016421437263489, -0.04208117723464966, 0.1596062849857557, -0.6012382941639323, 0.7795206846913861,-0.07338952546352295,-0.85174560546875,-0.246917724609375,-0.268157958984375
20220223-1423,2022-02-23 14:23:24Z,u01, 115,40,movements,el-ex, rt, d,205732.0084795417, -1.3310559016970736, 0.3465168615470991, 0.08317468647173748, 0.14704641699790955, -0.10105438530445099, -0.11385834217071533, -0.913661003112793, -0.3396237790584564, -0.22333675622940063, 0.02494335174560547, 0.07950720191001892, -0.043203696608543396, 0.16077281552772527, -0.6020662119587904, 0.778569979199618,-0.07414300266185597,-0.891693115234375,-0.26080322265625,-0.2785491943359375
20220223-1423,2022-02-23 14:23:24Z,u01, 116,40,movements,el-ex, rt, d,205732.03342554168, -1.3344142852745997, 0.34898893386018015, 0.08447443654093513, -0.03182615339756012, -0.17378458380699158, -0.13648462295532227, -0.9135868549346924, -0.34194785356521606, -0.2200697809457779, 0.05143475532531738, 0.04049518704414368, 0.007896438241004944, 0.16199006265594784, -0.6030956191681175, 0.7774700672473267,-0.07466727641082074,-0.862152099609375,-0.30145263671875,-0.2121734619140625
20220223-1423,2022-02-23 14:23:24Z,u01, 117,40,movements,el-ex, rt, d,205732.05837154167, -1.3357020294680475, 0.34996044301296, 0.07815518378543594, -0.329115629196167, -0.18144649267196655, -0.13230879604816437, -0.913546085357666, -0.3428606390953064, -0.2188156694173813, 0.03915637731552124, 0.0039476752281188965, -0.017466604709625244, 0.16040726129456334, -0.6040378111151695, 0.7767868280552499,-0.07752507484919144,-0.8881378173828125,-0.34515380859375,-0.2207794189453125
20220223-1423,2022-02-23 14:23:24Z,u01, 118,40,movements,el-ex, rt, d,205732.0833175417, -1.3372877257432245, 0.3508087461791375, 0.06807385269319433, -0.3152960240840912, -0.3069345951080322, -0.24050390720367432, -0.9136086106300354, -0.34365740418434143, -0.21729940176010132, 0.055744171142578125, 0.04565322399139404, -0.022294044494628906, 0.15762183788726167, -0.6053971039264182, 0.77585722483415,-0.08182507419493246,-0.8578643798828125,-0.298004150390625,-0.239593505859375
20220223-1423,2022-02-23 14:23:24Z,u01, 119,40,movements,el-ex, rt, d,205732.10826354168, -1.340889342042791, 0.3520266014484541, 0.05840440130518238, -0.3198428750038147, -0.25787782669067383, -0.15048639476299286, -0.9139770269393921, -0.34480082988739014, -0.2139119803905487, 0.02615964412689209, 0.09769999980926514, -0.012070655822753906, 0.15500637090437241, -0.6074677209240693, 0.7742871897487412,-0.08622840180890023,-0.8885345458984375,-0.2444305419921875,-0.2283782958984375
20220223-1423,2022-02-23 14:23:24Z,u01, 120,40,movements,el-ex, rt, d,205732.13320954167, -1.3441813115119279, 0.3544012519864219, 0.050497218845418836, -0.19738519191741943, -0.22235192358493805, -0.14011803269386292, -0.9138758778572083, -0.3470288813114166, -0.21071749925613403, 0.025280296802520752, 0.003584057092666626, -0.0070863813161849976, 0.15336739649161868, -0.6091959415071577, 0.772793500346252,-0.09027164098604645,-0.8885955810546875,-0.34344482421875,-0.217803955078125
20220223-1423,2022-02-23 14:23:24Z,u01, 121,40,movements,el-ex, rt, d,205732.15815654167, -1.3477610284028936, 0.35705747483047573, 0.04564531212142606, -0.13458767533302307, -0.24399882555007935, -0.13252609968185425, -0.9137221574783325, -0.3495188057422638, -0.20724010467529297, 0.03124535083770752, -0.021300286054611206, -0.008229121565818787, 0.15274170360059777, -0.61077812431234, 0.7713150000482406,-0.09323752230275231,-0.8805389404296875,-0.373046875,-0.2295074462890625
20220223-1423,2022-02-23 14:23:24Z,u01, 122,40,movements,el-ex, rt, d,205732.1831025417, -1.3523843684366668, 0.35887664304934125, 0.03971636075528155, -0.2977534234523773, -0.24179667234420776, -0.08979648351669312, -0.9140483736991882, -0.3512226641178131, -0.20287537574768066, -0.010649561882019043, -0.0026744604110717773, 0.042230963706970215, 0.1514051288020327, -0.61289378900413, 0.7695051469135501,-0.09643482718997998,-0.9246978759765625,-0.3538970947265625,-0.16064453125
20220223-1423,2022-02-23 14:23:24Z,u01, 123,40,movements,el-ex, rt, d,205732.20804854168, -1.3541665740184148, 0.35819769811232954, 0.029925870853853096, -0.32930904626846313, -0.2008645385503769, -0.0439753383398056, -0.9146410822868347, -0.3505868911743164, -0.20129722356796265, 0.029204070568084717, 0.060761481523513794, -0.005856022238731384, 0.14805396901855142, -0.6143544692715157, 0.7685206734936593,-0.10012283430641494,-0.89373779296875,-0.2969818115234375,-0.192779541015625
20220223-1423,2022-02-23 14:23:24Z,u01, 124,40,movements,el-ex, rt, d,205732.23299437502, -1.3574982091684606, 0.35928466915896423, 0.02554984439715936, 0.019023507833480835, -0.23784998059272766, -0.08793427050113678, -0.9149336814880371, -0.3516046702861786, -0.198168084025383, 0.07653951644897461, 0.0977441668510437, -0.044202446937561035, 0.14695503628647352, -0.6158897451818675, 0.7672036163056987,-0.10238504357404143,-0.8383941650390625,-0.2538604736328125,-0.24237060546875
20220223-1423,2022-02-23 14:23:24Z,u01, 125,40,movements,el-ex, rt, d,205732.257940375, -1.3678284988474991, 0.3606724718090834, 0.031272419300177705, 0.399926096200943, -0.4689895212650299, 0.0843743160367012, -0.9164530634880066, -0.3529035151004791, -0.1886075884103775, 0.08645129203796387, 0.15901008248329163, 0.03754565119743347, 0.14872506433682484, -0.6193359864525085, 0.7642146275298499,-0.10138905316294725,-0.8099822998046875,-0.2094879150390625,-0.174652099609375
20220223-1423,2022-02-23 14:23:24Z,u01, 126,40,movements,el-ex, rt, d,205732.282886375, -1.3836138701899408, 0.3607065381569124, 0.046535754120807696, 0.7965219616889954, -0.24323856830596924, 0.08159064501523972, -0.919304370880127, -0.35293540358543396, -0.17411592602729797, -0.0448223352432251, 0.09617573022842407, 0.009336352348327637, 0.15270115483086333, -0.6241990013732016, 0.7600612724896441,-0.09677276296615428,-0.9641265869140625,-0.2567596435546875,-0.1647796630859375
20220223-1423,2022-02-23 14:23:24Z,u01, 127,40,movements,el-ex, rt, d,205732.30783237502, -1.395474404759832, 0.36535871512776474, 0.06919852344636841, 1.0046155452728271, -0.23763035237789154, -0.09241803735494614, -0.9196779727935791, -0.3572843670845032, -0.16291232407093048, 0.16674822568893433, -0.0586397647857666, -0.04776573181152344, 0.16098146703347388, -0.6266009915878691, 0.7571337103151307,-0.09058026279757866,-0.8042449951171875,-0.4090423583984375,-0.204254150390625
20220223-1423,2022-02-23 14:23:24Z,u01, 128,40,movements,el-ex, rt, d,205732.332778375, -1.4197377341500097, 0.37366419211824675, 0.10168237981404445, 1.5066678524017334, -0.6011808514595032, -0.11511722207069397, -0.9203941822052002, -0.3650292158126831, -0.14010071754455566, 0.0885155200958252, 0.03159409761428833, 0.05469733476638794, 0.17324162260972256, -0.6324057099001982, 0.750437659251195,-0.08302830453533191,-0.831878662109375,-0.33343505859375,-0.0854034423828125
20220223-1423,2022-02-23 14:23:24Z,u01, 129,40,movements,el-ex, rt, d,205732.357724375, -1.4396588724978205, 0.37945921095443497, 0.14005575378103174, 1.1637005805969238, 0.04192020744085312, 0.05714203044772148, -0.9208897352218628, -0.3704181909561157, -0.12146018445491791, -0.08971518278121948, 0.014949411153793335, 0.05928075313568115, 0.18676004967601542, -0.6359171249895132, 0.7453149786542707,-0.07235854724245216,-1.061981201171875,-0.3488616943359375,-0.0574493408203125
20220223-1423,2022-02-23 14:23:24Z,u01, 130,40,movements,el-ex, rt, d,205732.38267037502, -1.4494842636106176, 0.38092945896600217, 0.16242214317522835, 0.5699816346168518, -0.20127014815807343, -0.014197465032339096, -0.9214972257614136, -0.37178346514701843, -0.11234036087989807, 0.06944620609283447, -0.015667766332626343, -0.0020852237939834595, 0.19407415209107404, -0.6373107904881591, 0.7428902343800946,-0.0654561960347981,-0.85205078125,-0.387451171875,-0.1144256591796875
20220223-1423,2022-02-23 14:23:24Z,u01, 131,40,movements,el-ex, rt, d,205732.407616375, -1.458424455920341, 0.382672040928991, 0.17146726374120444, 0.08842545747756958, -0.15420949459075928, -0.03351743519306183, -0.9218193292617798, -0.37340056896209717, -0.10402479022741318, -0.08304822444915771, -0.014004796743392944, 0.025930412113666534, 0.19730105097479506, -0.6395779087725676, 0.7402521840399534,-0.06355402783384534,-0.9792633056640625,-0.3846435546875,-0.0908203125
20220223-1423,2022-02-23 14:23:24Z,u01, 132,40,movements,el-ex, rt, d,205732.432562375, -1.4590074021687014, 0.3834380021061893, 0.1674711509208461, -0.30489876866340637, -0.04482300952076912, -0.027018988505005836, -0.9215953946113586, -0.37411102652549744, -0.10345546901226044, -0.07944226264953613, -0.04011934995651245, 0.013031959533691406, 0.19627902505485093, -0.6401146851731989, 0.7399039946991691,-0.06534434726701244,-1.00103759765625,-0.4142303466796875,-0.090423583984375
20220223-1423,2022-02-23 14:23:24Z,u01, 133,40,movements,el-ex, rt, d,205732.45750837502, -1.4581155201188543, 0.3838324842166329, 0.16144853750651222, -0.033632345497608185, -0.05402762442827225, -0.0443800687789917, -0.9213559031486511, -0.374476820230484, -0.10426076501607895, -0.0054018497467041016, 0.01577320694923401, -0.07310735434293747, 0.19452259265315772, -0.6403363003252063, 0.7399718775067696,-0.06761629239519193,-0.9363555908203125,-0.3618621826171875,-0.1696929931640625
20220223-1423,2022-02-23 14:23:24Z,u01, 134,40,movements,el-ex, rt, d,205732.48245437501, -1.4627900808767904, 0.3849703556206481, 0.16702359199074235, 0.33597245812416077, -0.19302679598331451, -0.0019766855984926224, -0.9214091300964355, -0.3755316734313965, -0.09990672022104263, 0.03675025701522827, 0.046582698822021484, -0.0407487154006958, 0.1965611556861769, -0.6414127768904632, 0.7386106856226992,-0.06639041608645374,-0.8846588134765625,-0.328948974609375,-0.140655517578125
20220223-1423,2022-02-23 14:23:24Z,u01, 135,40,movements,el-ex, rt, d,205732.507401375, -1.468653750043775, 0.3856176561906, 0.17138284107762233, -0.10188646614551544, -0.12262233346700668, -0.0490591786801815, -0.9217370748519897, -0.37613150477409363, -0.09447739273309708, -0.03489750623703003, 0.02929919958114624, 0.03634148836135864, 0.1979993268170212, -0.643084418752658, 0.7368436061793714,-0.0655764853084485,-0.950408935546875,-0.3405609130859375,-0.0635223388671875
20220223-1423,2022-02-23 14:23:25Z,u01, 136,40,movements,el-ex, rt, d,205732.532347375, -1.4665348923614128, 0.38593650709369565, 0.16258909543271774, -0.42290687561035156, -0.016051216050982475, -0.04109479486942291, -0.9214155077934265, -0.37642693519592285, -0.09641772508621216, 0.024885356426239014, 0.04872918128967285, -0.0012079477310180664, 0.19535686562223592, -0.6431382679221638, 0.7372158522022196,-0.06871505965201538,-0.8965301513671875,-0.32769775390625,-0.097625732421875
20220223-1423,2022-02-23 14:23:25Z,u01, 137,40,movements,el-ex, rt, d,205732.55729337502, -1.4669572249524203, 0.38671682629711807, 0.1572765788207407, 0.10206606239080429, -0.266586035490036, -0.08859366923570633, -0.9211636185646057, -0.3771497309207916, -0.09599808603525162, 0.09830296039581299, 0.07586497068405151, -0.03728734701871872, 0.1939125379902257, -0.6437382103617674, 0.7368593873677064,-0.0709738718665694,-0.8037872314453125,-0.30841064453125,-0.1495208740234375
20220223-1423,2022-02-23 14:23:25Z,u01, 138,40,movements,el-ex, rt, d,205732.582239375, -1.476441608435493, 0.3883124960986224, 0.16453643549148525, 0.31200069189071655, -0.13784822821617126, 0.017640158534049988, -0.9214325547218323, -0.37862709164619446, -0.08720044046640396, -0.06134045124053955, 0.0801956057548523, 0.02814900130033493, 0.19649051167848722, -0.6463677432538912, 0.7339846933833807,-0.06976294214769255,-0.9827728271484375,-0.298431396484375,-0.059051513671875
20220223-1423,2022-02-23 14:23:25Z,u01, 139,40,movements,el-ex, rt, d,205732.607185375, -1.4753874153784985, 0.389754946760277, 0.16544050248754424, -0.3013763427734375, 0.11940667033195496, -0.07264160364866257, -0.9207954406738281, -0.379961758852005, -0.08811963349580765, 0.048053622245788574, 0.006212890148162842, 0.017196886241436005, 0.19733336304856638, -0.6457551603696932, 0.7342931846085232,-0.0698102548123643,-0.9239654541015625,-0.3773956298828125,-0.0566558837890625
20220223-1423,2022-02-23 14:23:25Z,u01, 140,40,movements,el-ex, rt, d,205732.63213137502, -1.470736259022552, 0.3909968521824553, 0.15612503690881582, -0.1537121832370758, -0.0702681839466095, -0.07772158086299896, -0.9199053049087524, -0.38111022114753723, -0.09235421568155289, 0.12621939182281494, 0.07070064544677734, -0.04909467697143555, 0.1949373269596044, -0.6448428739288415, 0.735404730782044,-0.07319190658549393,-0.7936859130859375,-0.3104095458984375,-0.141448974609375
20220223-1423,2022-02-23 14:23:25Z,u01, 141,40,movements,el-ex, rt, d,205732.657077375, -1.4772429813903354, 0.3925772790004545, 0.16174987100553107, 0.49539342522621155, -0.21960167586803436, -0.04757719114422798, -0.9198858737945557, -0.38257089257240295, -0.08631034940481186, -0.021627187728881836, 0.019075989723205566, -0.007851600646972656, 0.19708056144651315, -0.6465323475742947, 0.7334364243708257,-0.07229241835831987,-0.8945159912109375,-0.3294219970703125,-0.116058349609375
20220223-1423,2022-02-23 14:23:25Z,u01, 142,40,movements,el-ex, rt, d,205732.682023375, -1.4816889843916117, 0.39527919363379466, 0.1691889708214525, -0.08653730154037476, 0.11517937481403351, -0.09643488377332687, -0.919227659702301, -0.38506588339805603, -0.0821274146437645, -0.12680816650390625, -0.06445807218551636, 0.025761544704437256, 0.2002878898648748, -0.6471638543670865, 0.7321440219076139,-0.07091458021215274,-1.0460357666015625,-0.44952392578125,-0.056365966796875
20220223-1423,2022-02-23 14:23:25Z,u01, 143,40,movements,el-ex, rt, d,205732.70696937502, -1.4743104437858656, 0.39660810847352784, 0.1595933440907667, -0.39947178959846497, 0.08809662610292435, -0.0976886972784996, -0.9180865287780762, -0.3862919807434082, -0.08885830640792847, 0.0969805121421814, 0.0658726692199707, -0.04483914375305176, 0.19792766674235734, -0.6452871355839057, 0.7341199411625785,-0.0741427108972777,-0.841033935546875,-0.3353729248046875,-0.130462646484375
20220223-1423,2022-02-23 14:23:25Z,u01, 144,40,movements,el-ex, rt, d,205732.731915375, -1.4748452294561916, 0.39843354799078556, 0.1568377786221819, 0.23559610545635223, -0.16404567658901215, -0.05941008776426315, -0.9174304604530334, -0.3879750669002533, -0.08829960972070694, 0.022273600101470947, 0.028615295886993408, -0.022845327854156494, 0.1976690792556549, -0.6455827837582895, 0.7337586015808615,-0.07581699466298056,-0.8951568603515625,-0.3593597412109375,-0.11114501953125
20220223-1423,2022-02-23 14:23:25Z,u01, 145,40,movements,el-ex, rt, d,205732.756861375, -1.47737009639966, 0.39924930907682626, 0.16370515966310542, 0.16042980551719666, 0.15954405069351196, 0.07464459538459778, -0.9173351526260376, -0.3887268006801605, -0.08595339208841324, -0.10089921951293945, -0.04526373744010925, 0.020874731242656708, 0.2000820966083139, -0.6457479830844649, 0.733162414259403,-0.0738224950124036,-1.0485382080078125,-0.4401702880859375,-0.0607452392578125
20220223-1423,2022-02-23 14:23:25Z,u01, 146,40,movements,el-ex, rt, d,205732.78180737502, -1.4731276103757585, 0.3968972835665895, 0.16353633709810675, -0.19806480407714844, 0.07920080423355103, 0.04572352394461632, -0.9178696274757385, -0.3865586817264557, -0.08993329107761383, 0.05690765380859375, 0.028694242238998413, -0.03480726480484009, 0.19934551048224078, -0.6444336440447612, 0.7346327341915645,-0.07267405062888757,-0.8609619140625,-0.3578643798828125,-0.1247406005859375
20220223-1423,2022-02-23 14:23:25Z,u01, 147,40,movements,el-ex, rt, d,205732.806753375, -1.471440349361614, 0.39695447486947993, 0.15598024841590022, -0.2838978171348572, -0.08086849749088287, -0.05545555800199509, -0.9176944494247437, -0.3866114318370819, -0.09147964417934418, -0.03343164920806885, 0.06178233027458191, -0.018841318786144257, 0.1969934098390489, -0.6445570379692223, 0.7348941625188462,-0.07530195674102735,-0.922088623046875,-0.3377532958984375,-0.1250762939453125
20220223-1423,2022-02-23 14:23:25Z,u01, 148,40,movements,el-ex, rt, d,205732.831699375, -1.4701746558902469, 0.39584457135071527, 0.151258336245796, -0.038082219660282135, 0.05358458682894707, 0.09215407818555832, -0.9180043339729309, -0.38558757305145264, -0.09268414229154587, -0.05791735649108887, 0.10793864727020264, 0.016741275787353516, 0.195122901674354, -0.6446588100841149, 0.7351756927386585,-0.0765430934702834,-0.975921630859375,-0.27764892578125,-0.0759429931640625
20220223-1423,2022-02-23 14:23:25Z,u01, 149,40,movements,el-ex, rt, d,205732.856646375, -1.4679089376706824, 0.3939254217468648, 0.15191952144743032, -0.002207676414400339, 0.10311704874038696, 0.0858784019947052, -0.9185263514518738, -0.383816123008728, -0.0948396697640419, 0.0026175379753112793, -0.02751508355140686, -0.014794647693634033, 0.19473523450959176, -0.6439397128817966, 0.7360222447491487,-0.07543967546667163,-0.927276611328125,-0.3977813720703125,-0.1066131591796875
20220223-1423,2022-02-23 14:23:25Z,u01, 150,40,movements,el-ex, rt, d,205732.88159237502, -1.466076574971934, 0.39074469491565417, 0.1519755741114433, 0.03343304246664047, -0.024937517940998077, 0.07485485076904297, -0.9195606112480164, -0.3808770775794983, -0.09664971381425858, 0.04097473621368408, 0.019350558519363403, -0.052611708641052246, 0.1936821817679007, -0.6435544711403998, 0.7367645155208197,-0.07418235080668356,-0.8785858154296875,-0.3615264892578125,-0.149261474609375
20220223-1423,2022-02-23 14:23:25Z,u01, 151,40,movements,el-ex, rt, d,205732.906538375, -1.4677741193970264, 0.3846851626586888, 0.15257620497644298, -0.08801612257957458, -0.00634352769702673, 0.030865352600812912, -0.9220020174980164, -0.3752673268318176, -0.09532416611909866, -0.04026293754577637, 0.026985466480255127, -0.0010502785444259644, 0.19164112974644384, -0.6446794512880255, 0.7365206200079383,-0.0721071842751935,-0.9517822265625,-0.3430328369140625,-0.112579345703125
20220223-1423,2022-02-23 14:23:25Z,u01, 152,40,movements,el-ex, rt, d,205732.931484375, -1.4652454244519193, 0.38008691162000113, 0.14880991986591438, -0.1130814254283905, 0.06348901987075806, 0.1417614370584488, -0.9234643578529358, -0.3710011839866638, -0.09783609956502914, -0.004025936126708984, 0.027113795280456543, -0.004535019397735596, 0.18886781609086986, -0.6445237766681564, 0.7374102739765698,-0.07172353223335881,-0.927490234375,-0.3438873291015625,-0.1023712158203125
20220223-1423,2022-02-23 14:23:25Z,u01, 153,40,movements,el-ex, rt, d,205732.95643037502, -1.462633282542043, 0.37969894477109056, 0.15042609899506268, 0.25232404470443726, -0.0019527068361639977, 0.1595216691493988, -0.923348605632782, -0.3706408739089966, -0.10026350617408752, 0.05121719837188721, 0.006184637546539307, -0.09539985656738281, 0.18934178254676332, -0.6434422559615872, 0.7383265277785666,-0.07075129949721257,-0.874847412109375,-0.3523712158203125,-0.180328369140625
20220223-1423,2022-02-23 14:23:25Z,u01, 154,40,movements,el-ex, rt, d,205732.981376375, -1.4664237026343068, 0.3764140210871641, 0.15973458607287438, 0.4579784572124481, -0.16881532967090607, 0.10165157169103622, -0.9249277710914612, -0.3675879240036011, -0.09688922017812729, 0.018143832683563232, -0.042369961738586426, -0.07963959872722626, 0.19102819057835002, -0.64425431259609, 0.7375710606809429,-0.0665841018887173,-0.9067840576171875,-0.4099578857421875,-0.1765289306640625
20220223-1423,2022-02-23 14:23:25Z,u01, 155,40,movements,el-ex, rt, d,205733.006322375, -1.4768800906895547, 0.3710290602876703, 0.17730028554401095, 0.7906636595726013, -0.0813433974981308, 0.17682048678398132, -0.927847683429718, -0.36257466673851013, -0.08739706873893738, -0.05437582731246948, 0.07740318775177002, -0.017079822719097137, 0.19444322700378006, -0.6469105794445892, 0.7349687793310136,-0.05932447343700764,-0.979461669921875,-0.3052825927734375,-0.1207275390625
20220223-1423,2022-02-23 14:23:25Z,u01, 156,40,movements,el-ex, rt, d,205733.03126837502, -1.4847413867154522, 0.36921435610889297, 0.19876021010760864, 0.7738457918167114, 0.06285877525806427, 0.10587148368358612, -0.9291602969169617, -0.36088284850120544, -0.08015680313110352, 0.005911886692047119, 0.05001544952392578, -0.0063909366726875305, 0.20052673611790375, -0.6478507762396176, 0.7330857001489072,-0.05161395194483018,-0.923248291015625,-0.3108673095703125,-0.0865478515625
20220223-1423,2022-02-23 14:23:25Z,u01, 157,40,movements,el-ex, rt, d,205733.056214375, -1.4882157657871902, 0.37070853939580023, 0.21297014954858415, 0.16992737352848053, 0.06930455565452576, -0.11087240278720856, -0.9288945198059082, -0.3622759282588959, -0.0768834799528122, -0.01869148015975952, -0.0039044618606567383, 0.10318971425294876, 0.205570995895935, -0.6475328759461991, 0.7322620175173559,-0.0472657602968983,-0.925506591796875,-0.3583526611328125,0.0103759765625
20220223-1423,2022-02-23 14:23:25Z,u01, 158,40,movements,el-ex, rt, d,205733.081160375, -1.485258979198374, 0.37334996614720295, 0.2111533594663021, -0.14844711124897003, 0.14896084368228912, -0.04551783949136734, -0.9277065396308899, -0.3647366762161255, -0.07954765856266022, -0.08900189399719238, 0.0271511971950531, 0.09813296794891357, 0.20598677110117852, -0.6463711166595101, 0.7330891729497625,-0.04851958662024608,-1.0167083740234375,-0.33758544921875,0.018585205078125
20220223-1423,2022-02-23 14:23:25Z,u01, 159,40,movements,el-ex, rt, d,205733.10610637502, -1.4789002479302322, 0.3736514350373482, 0.2133099393000192, 0.35677042603492737, 0.4124775230884552, 0.010016859509050846, -0.927072286605835, -0.3650173544883728, -0.0854349434375763, -0.06560337543487549, 0.09902617335319519, -0.007490985095500946, 0.2069411446722228, -0.6437840416501357, 0.7351816598914918,-0.04717317766823917,-1.0078125,-0.2642669677734375,-0.0793914794921875
20220223-1423,2022-02-23 14:23:25Z,u01, 160,40,movements,el-ex, rt, d,205733.131052375, -1.4741727359911847, 0.3748368254249577, 0.2296632836201738, 0.7643315196037292, 0.41915297508239746, -0.0167660191655159, -0.9262269139289856, -0.36612069606781006, -0.08977492898702621, -0.01281428337097168, 0.016373932361602783, -0.017005980014801025, 0.21271472185666362, -0.6402069855930407, 0.7370223102928227,-0.04105679782912955,-0.9390411376953125,-0.3497467041015625,-0.106781005859375
20220223-1423,2022-02-23 14:23:25Z,u01, 161,40,movements,el-ex, rt, d,205733.155998375, -1.4701943348197715, 0.3779865317048632, 0.2475671853797894, 0.5432044267654419, 0.389575332403183, -0.057404857128858566, -0.9247104525566101, -0.36904987692832947, -0.09334282577037811, -0.004946589469909668, 0.011948436498641968, 0.024586796760559082, 0.2196196983854612, -0.6364713457421715, 0.7385397291475068,-0.035079455804877896,-0.9319000244140625,-0.36566162109375,-0.06866455078125
20220223-1423,2022-02-23 14:23:25Z,u01, 162,40,movements,el-ex, rt, d,205733.18094437502, -1.4652301765642797, 0.37928690603157605, 0.26020652833846547, 0.4325282871723175, 0.4250588119029999, 0.03679734095931053, -0.923757791519165, -0.3702581524848938, -0.09788142144680023, -0.02391993999481201, 0.0015905499458312988, -0.009128332138061523, 0.22417246510515723, -0.6330924051245537, 0.7402859492763376,-0.030291547835093163,-0.9476776123046875,-0.3686676025390625,-0.1070098876953125
20220223-1423,2022-02-23 14:23:25Z,u01, 163,40,movements,el-ex, rt, d,205733.20589037501, -1.4587248126700332, 0.37802937473447173, 0.2714183277146033, 0.3815095126628876, 0.3470655381679535, 0.125214621424675, -0.9235633611679077, -0.36908969283103943, -0.10394067317247391, 0.02358466386795044, -0.04395049810409546, -0.043764352798461914, 0.2273562817021247, -0.6295544337543184, 0.7425270126733962,-0.02498063501580547,-0.8988037109375,-0.405853271484375,-0.1463470458984375
20220223-1423,2022-02-23 14:23:25Z,u01, 164,40,movements,el-ex, rt, d,205733.23083850002, -1.4535288289310204, 0.37646691624433715, 0.2775719985841773, 0.013922790996730328, 0.2915412187576294, 0.0981893315911293, -0.9235824942588806, -0.36763709783554077, -0.10880541801452637, -0.02801680564880371, -0.055290788412094116, -9.657442569732666e-05, 0.22879591998896698, -0.6270962602553545, 0.7442695380032905,-0.0215799755500323,-0.95159912109375,-0.4229278564453125,-0.1089019775390625
20220223-1423,2022-02-23 14:23:25Z,u01, 165,40,movements,el-ex, rt, d,205733.2557845, -1.4442864435576024, 0.37219844779754696, 0.27383145800021724, -0.29276806116104126, 0.3420999348163605, 0.2388707399368286, -0.9240856766700745, -0.3636642396450043, -0.11753366887569427, -0.007905960083007812, 0.018418818712234497, 0.05823802947998047, 0.22620342685273695, -0.6245519782610061, 0.7472258211128889,-0.020506016787435577,-0.948089599609375,-0.360931396484375,-0.0530242919921875
20220223-1423,2022-02-23 14:23:25Z,u01, 166,40,movements,el-ex, rt, d,205733.2807305, -1.4343235163684585, 0.3627917409784534, 0.2683103633365931, -0.11683865636587143, 0.2778361439704895, 0.4215205907821655, -0.9262168407440186, -0.35488563776016235, -0.12719406187534332, 0.0641106367111206, 0.009151995182037354, -0.0359833687543869, 0.2212098642034694, -0.6224702146433582, 0.750506587083204,-0.018351655752612828,-0.8621063232421875,-0.345733642578125,-0.163177490234375
20220223-1423,2022-02-23 14:23:25Z,u01, 167,40,movements,el-ex, rt, d,205733.30567650002, -1.4301956106199143, 0.3527485371598317, 0.2705469027892275, 0.09153662621974945, 0.14282871782779694, 0.4138016104698181, -0.9291663765907288, -0.3454784154891968, -0.1315091848373413, 0.01753002405166626, 0.001362144947052002, -0.019796907901763916, 0.2183236087874701, -0.6217557463034818, 0.7520409317257933,-0.013752851961163964,-0.8873443603515625,-0.3417510986328125,-0.1601104736328125
20220223-1423,2022-02-23 14:23:25Z,u01, 168,40,movements,el-ex, rt, d,205733.3306225, -1.4252049370856466, 0.34217499650513095, 0.2713378719184819, -0.2287113219499588, 0.278810977935791, 0.43419867753982544, -0.932060718536377, -0.33553677797317505, -0.13666702806949615, -0.03563642501831055, -0.004902064800262451, 0.038202181458473206, 0.21477932683062895, -0.6209157181161731, 0.7538198480651768,-0.009443271001484926,-0.9676971435546875,-0.3404388427734375,-0.0984649658203125
20220223-1423,2022-02-23 14:23:25Z,u01, 169,40,movements,el-ex, rt, d,205733.3555685, -1.415662670312391, 0.32935257514308675, 0.26107181915225086, -0.6047157645225525, 0.18686234951019287, 0.4917285144329071, -0.9348884224891663, -0.32343047857284546, -0.14620743691921234, 0.011579036712646484, 0.008077025413513184, 0.02758568525314331, 0.2069793776006899, -0.6197223711133666, 0.7569926500120402,-0.008121970877326995,-0.9261627197265625,-0.305511474609375,-0.081634521484375
20220223-1423,2022-02-23 14:23:25Z,u01, 170,40,movements,el-ex, rt, d,205733.38051450002, -1.4101100192176348, 0.3137366092374767, 0.25372517785791004, -0.04743334278464317, 0.13181421160697937, 0.6382664442062378, -0.9389337301254272, -0.3086149990558624, -0.15218587219715118, -0.03219681978225708, 0.02921125292778015, -0.07445289194583893, 0.19901100862523022, -0.619920707325281, 0.7589897529953723,-0.005259030945889254,-0.97113037109375,-0.2794036865234375,-0.2266387939453125
20220223-1423,2022-02-23 14:23:25Z,u01, 171,40,movements,el-ex, rt, d,205733.4054605, -1.4069763985068668, 0.30008318736731204, 0.2645021278660983, 0.6830937266349792, 0.3556894361972809, 0.6085826754570007, -0.9425218105316162, -0.29559966921806335, -0.15580008924007416, -0.06516867876052856, 0.0045230090618133545, -0.05710577964782715, 0.19733925724263096, -0.6189969081297633, 0.7601890315487565,0.0035788548176150514,-1.0200958251953125,-0.2764129638671875,-0.21466064453125
20220223-1423,2022-02-23 14:23:25Z,u01, 172,40,movements,el-ex, rt, d,205733.4304065, -1.406708524905005, 0.2890688989820303, 0.2907064864100802, 1.102576732635498, 0.24309580028057098, 0.5858813524246216, -0.9456348419189453, -0.2850598692893982, -0.15657491981983185, 0.016984879970550537, 0.005228936672210693, -0.08076024055480957, 0.2013953248179702, -0.617375464629845, 0.7602589447928578,0.01714136376033565,-0.92864990234375,-0.2798309326171875,-0.237335205078125
20220223-1423,2022-02-23 14:23:25Z,u01, 173,40,movements,el-ex, rt, d,205733.45535250002, -1.4111647001098833, 0.2791910409315707, 0.3226895360634714, 1.1141855716705322, 0.14791221916675568, 0.6054680943489075, -0.9490569829940796, -0.275578111410141, -0.1527996063232422, -0.013909995555877686, -0.012950360774993896, -0.05554383993148804, 0.207706058241215, -0.6168130900779254, 0.7585336477469704,0.032040471382905444,-0.948883056640625,-0.2757415771484375,-0.227264404296875
20220223-1423,2022-02-23 14:23:25Z,u01, 174,40,movements,el-ex, rt, d,205733.4802985, -1.4147509942838912, 0.2684440501502128, 0.347015536437935, 0.48738083243370056, 0.12387247383594513, 0.5401468873023987, -0.9524694681167603, -0.26523154973983765, -0.1498466581106186, -0.0709221363067627, -0.06742531061172485, -0.020075172185897827, 0.21136348921858897, -0.6167674987690261, 0.7569369405571986,0.04438149758351226,-1.0233917236328125,-0.3326568603515625,-0.169921875
20220223-1423,2022-02-23 14:23:25Z,u01, 175,40,movements,el-ex, rt, d,205733.5052445, -1.4126004627096203, 0.2574629837169984, 0.35165115468345065, -0.19959647953510284, 0.1326550394296646, 0.40542319416999817, -0.9549638032913208, -0.2546279728412628, -0.15234430134296417, -0.07668298482894897, 0.005421429872512817, 0.028351426124572754, 0.20874731982568498, -0.6166460956485348, 0.7574155328252086,0.04993864820409766,-1.037628173828125,-0.280059814453125,-0.1294097900390625
20220223-1423,2022-02-23 14:23:26Z,u01, 176,40,movements,el-ex, rt, d,205733.53019050002, -1.4066167851635112, 0.24743761732680453, 0.3418940815268872, -0.6625679135322571, 0.17746365070343018, 0.27073100209236145, -0.9565055966377258, -0.24492043256759644, -0.15846502780914307, -0.08068013191223145, 0.11222997307777405, 0.05655169486999512, 0.20192916077734246, -0.6164349953591945, 0.7594219137049455,0.05010944748295909,-1.0371856689453125,-0.1326904296875,-0.1019134521484375
20220223-1423,2022-02-23 14:23:26Z,u01, 177,40,movements,el-ex, rt, d,205733.5551365, -1.3975311208508359, 0.23882052054224392, 0.3261758734136176, -0.5521032214164734, 0.23553141951560974, 0.20759539306163788, -0.9570697546005249, -0.2365567833185196, -0.16750648617744446, -0.04663819074630737, 0.11419656872749329, 0.01607835292816162, 0.19369938591644192, -0.615408243877491, 0.7625399061995687,0.04781398003555953,-1.006256103515625,-0.1151885986328125,-0.1510009765625
20220223-1423,2022-02-23 14:23:26Z,u01, 178,40,movements,el-ex, rt, d,205733.5800825, -1.3896917962360948, 0.2336768839356637, 0.31882988798830836, -0.0867195650935173, 0.28015828132629395, 0.10713481903076172, -0.9569115042686462, -0.2315560281276703, -0.17522089183330536, -0.061658501625061035, 0.09286889433860779, 0.03804445266723633, 0.18935367820338483, -0.613624264117624, 0.7650898361888561,0.04741428912695034,-1.0185699462890625,-0.1386871337890625,-0.137176513671875
20220223-1423,2022-02-23 14:23:26Z,u01, 179,40,movements,el-ex, rt, d,205733.6050295, -1.381443212322492, 0.23273806396522057, 0.32064581965972594, 0.13816776871681213, 0.4081147015094757, -0.012120932340621948, -0.9556466341018677, -0.230642631649971, -0.1831488162279129, -0.06705844402313232, 0.07782584428787231, 0.05245734751224518, 0.1893615432239215, -0.6103833186921809, 0.7675640380494202,0.04919170724004224,-1.0269012451171875,-0.15155029296875,-0.1395263671875
20220223-1423,2022-02-23 14:23:26Z,u01, 180,40,movements,el-ex, rt, d,205733.62997550002, -1.3725462471419063, 0.23293354854988227, 0.3246209066061587, 0.21100902557373047, 0.36582839488983154, 0.08185549825429916, -0.9539352059364319, -0.23083283007144928, -0.19163495302200317, -0.03886270523071289, 0.0651833713054657, 0.04240405559539795, 0.190419768734712, -0.6065664306098322, 0.770172121571406,0.05150232132191379,-0.9927978515625,-0.1656494140625,-0.14923095703125
20220223-1423,2022-02-23 14:23:26Z,u01, 181,40,movements,el-ex, rt, d,205733.6549215, -1.365156813220071, 0.23255896247720317, 0.33078140507074955, 0.1717473864555359, 0.3151891827583313, 0.050505828112363815, -0.9525775909423828, -0.23046834766864777, -0.1986963152885437, -0.04705619812011719, -0.008636906743049622, 0.03185679018497467, 0.19194677069192517, -0.6031652149050648, 0.772240725160464,0.05470298601184298,-0.9987030029296875,-0.2193756103515625,-0.1616668701171875
20220223-1423,2022-02-23 14:23:26Z,u01, 182,40,movements,el-ex, rt, d,205733.6798675, -1.3579716552789463, 0.2316888858029453, 0.3324848867787767, -0.0901629701256752, 0.33602115511894226, 0.012476888485252857, -0.951321005821228, -0.22962160408496857, -0.20557783544063568, -0.0818668007850647, -0.07923157513141632, 0.027111127972602844, 0.1919339074310104, -0.6003103010541319, 0.7743489683688969,0.05632590123722908,-1.0331878662109375,-0.3088531494140625,-0.178466796875
20220223-1423,2022-02-23 14:23:26Z,u01, 183,40,movements,el-ex, rt, d,205733.70481350002, -1.3485105995198547, 0.22979082863154143, 0.32658801736438486, -0.3443741798400879, 0.3018547296524048, 0.04619284346699715, -0.949756920337677, -0.22777386009693146, -0.21466469764709473, -0.03615927696228027, -0.055688679218292236, 0.00037032365798950195, 0.18918977835083725, -0.5973900532984336, 0.7773339921598412,0.05553610708708895,-0.9924163818359375,-0.295806884765625,-0.204193115234375
20220223-1423,2022-02-23 14:23:26Z,u01, 184,40,movements,el-ex, rt, d,205733.7297595, -1.3405538334566247, 0.22693556740690746, 0.3192113181285753, -0.2035367339849472, 0.19003957509994507, 0.08390992879867554, -0.94864821434021, -0.22499272227287292, -0.22236233949661255, -0.026922523975372314, -0.047941237688064575, -0.028415799140930176, 0.18569280131018262, -0.5952621370358164, 0.7798926322522054,0.0543022716004084,-0.9755706787109375,-0.2729339599609375,-0.2507781982421875
20220223-1423,2022-02-23 14:23:26Z,u01, 185,40,movements,el-ex, rt, d,205733.7547055, -1.3381396887019388, 0.2241937606009053, 0.319703472414729, 0.22718773782253265, 0.02722368761897087, 0.13963650166988373, -0.9487053155899048, -0.22232037782669067, -0.22479325532913208, -0.058496832847595215, -0.07325762510299683, -0.06584084033966064, 0.184733709487331, -0.5945391712700862, 0.7805821652738041,0.055571868772290256,-0.9980621337890625,-0.2899932861328125,-0.284393310546875
20220223-1423,2022-02-23 14:23:26Z,u01, 186,40,movements,el-ex, rt, d,205733.77965150002, -1.3398073032529052, 0.2233848455138371, 0.32950078719271586, 0.42051076889038086, 0.03692518174648285, 0.08825014531612396, -0.949253499507904, -0.22153162956237793, -0.22325193881988525, -0.09312009811401367, -0.10099336504936218, -0.03422477841377258, 0.1873872030020505, -0.5943568485264463, 0.7797992180417409,0.05949048975342347,-1.0423736572265625,-0.3225250244140625,-0.257476806640625
20220223-1423,2022-02-23 14:23:26Z,u01, 187,40,movements,el-ex, rt, d,205733.8045975, -1.3403202988850587, 0.22337594396691005, 0.33487672388630046, -0.06729064136743546, 0.0022115465253591537, 0.028598399832844734, -0.9493699073791504, -0.22152294218540192, -0.22276541590690613, -0.02726888656616211, -0.04439195990562439, 0.02800235152244568, 0.1889965504295463, -0.5940518450056316, 0.7794841282707794,0.0615406508548742,-0.987640380859375,-0.2809600830078125,-0.20013427734375
20220223-1423,2022-02-23 14:23:26Z,u01, 188,40,movements,el-ex, rt, d,205733.8295435, -1.33884261908134, 0.2210295045301342, 0.3272136239395538, -0.5006060600280762, -0.01860012672841549, 0.044948745518922806, -0.9495428800582886, -0.21923419833183289, -0.22428689897060394, -0.010997891426086426, 0.026134207844734192, 0.060575440526008606, 0.1857867381788876, -0.5944239552596553, 0.7801361765849656,0.05942199371440554,-0.960540771484375,-0.1930999755859375,-0.1637115478515625
20220223-1423,2022-02-23 14:23:26Z,u01, 189,40,movements,el-ex, rt, d,205733.85448950002, -1.336483892128918, 0.21642935358956267, 0.31401165457481683, -0.4948185384273529, -0.021433861926198006, 0.0619150772690773, -0.9499821662902832, -0.21474365890026093, -0.22675774991512299, 0.0007328391075134277, 0.07540038228034973, -0.00021666288375854492, 0.18004662332815274, -0.5951506874129425, 0.781186499359094,0.05591552660908383,-0.949615478515625,-0.1341400146484375,-0.2065277099609375
20220223-1423,2022-02-23 14:23:26Z,u01, 190,40,movements,el-ex, rt, d,205733.8794355, -1.3351750600993602, 0.21419773472166273, 0.30571568905712054, -0.2019163966178894, -0.00622142106294632, -0.04255147650837898, -0.9501482248306274, -0.21256355941295624, -0.22811223566532135, -0.008927762508392334, 0.07172492146492004, -0.03879439830780029, 0.17669216148588207, -0.5955869076397541, 0.7817900183748057,0.05348402562629745,-0.959075927734375,-0.140838623046875,-0.26690673828125
20220223-1423,2022-02-23 14:23:26Z,u01, 191,40,movements,el-ex, rt, d,205733.9043815, -1.3342932164703942, 0.21644198423110408, 0.3027592459731032, -0.012539910152554512, 0.030418414622545242, -0.15952569246292114, -0.9494805335998535, -0.21475599706172943, -0.22883766889572144, -0.00613170862197876, 0.04616162180900574, -0.009947061538696289, 0.17664362373994075, -0.5952967277509184, 0.7821413235412564,0.051709140925550234,-0.9578094482421875,-0.1662445068359375,-0.25445556640625
20220223-1423,2022-02-23 14:23:26Z,u01, 192,40,movements,el-ex, rt, d,205733.92932750002, -1.3326787443076415, 0.21962870136008633, 0.3015441150730512, -0.06442531198263168, 0.0813751369714737, -0.09020062536001205, -0.9484398365020752, -0.21786725521087646, -0.2302076667547226, 0.0011437535285949707, 0.042681097984313965, 0.03222492337226868, 0.17745537884333595, -0.5944794013121162, 0.7826651821220028,0.05038781328584685,-0.947296142578125,-0.1751861572265625,-0.1979827880859375
20220223-1423,2022-02-23 14:23:26Z,u01, 193,40,movements,el-ex, rt, d,205733.9542735, -1.3288787915752172, 0.21924964752869971, 0.29674536254970335, -0.28888002038002014, 0.12398138642311096, 0.043396785855293274, -0.9476383924484253, -0.21749728918075562, -0.2338298112154007, 0.023795008659362793, -0.050889551639556885, 0.011356711387634277, 0.17579120182314878, -0.5934497032441121, 0.783911789070679,0.0489614335288272,-0.927734375,-0.25146484375,-0.2093048095703125
20220223-1423,2022-02-23 14:23:26Z,u01, 194,40,movements,el-ex, rt, d,205733.9792195, -1.3250404154597397, 0.2152273830125217, 0.2914274176930547, -0.1725936233997345, 0.09377820789813995, 0.14059950411319733, -0.9475748538970947, -0.21356956660747528, -0.23767639696598053, 0.02505892515182495, -0.06441503763198853, -0.03586786985397339, 0.17258218097997086, -0.5927707782335929, 0.78516913442632,0.0484528208921538,-0.922515869140625,-0.277984619140625,-0.2735443115234375
20220223-1423,2022-02-23 14:23:26Z,u01, 195,40,movements,el-ex, rt, d,205734.00416550002, -1.3221155703118386, 0.21119437237542013, 0.28979915644754245, -0.07217564433813095, 0.13673372566699982, 0.11240468174219131, -0.9477027058601379, -0.2096278816461563, -0.24065691232681274, -0.0008904337882995605, -0.09367109835147858, -0.028370723128318787, 0.17048235789397845, -0.5921210279601438, 0.7860643693144639,0.04930776608874471,-0.943939208984375,-0.302490234375,-0.274871826171875
20220223-1423,2022-02-23 14:23:26Z,u01, 196,40,movements,el-ex, rt, d,205734.02911250002, -1.318439809547411, 0.20769581958299738, 0.2875175147042745, -0.2212608903646469, 0.1516636162996292, 0.16574613749980927, -0.947516143321991, -0.20620578527450562, -0.24432043731212616, 0.0016542673110961914, -0.07995757460594177, -0.01666581630706787, 0.1683725307730338, -0.5911771907860436, 0.78719782550534,0.049798260436518305,-0.94586181640625,-0.286163330078125,-0.260986328125
20220223-1423,2022-02-23 14:23:26Z,u01, 197,40,movements,el-ex, rt, d,205734.0540585, -1.314072484111356, 0.20442791708093885, 0.2822608965169114, -0.3202022910118103, 0.0985816940665245, 0.31786447763442993, -0.9470868706703186, -0.2030070275068283, -0.2486260086297989, -0.024425148963928223, -0.05659079551696777, 0.008941024541854858, 0.16545384348809655, -0.5901796542272832, 0.7886081843877539,0.04909478601424039,-0.9637908935546875,-0.2686004638671875,-0.2461700439453125
20220223-1423,2022-02-23 14:23:26Z,u01, 198,40,movements,el-ex, rt, d,205734.0790045, -1.3099510436376856, 0.195793536988897, 0.27698010490839825, -0.32438036799430847, 0.11086319386959076, 0.3712926506996155, -0.9477123022079468, -0.1945449709892273, -0.2529698610305786, -0.04207956790924072, -0.047596752643585205, 0.011972606182098389, 0.16045994500984595, -0.5897183020351977, 0.7899279321194157,0.04998879414872892,-0.9897918701171875,-0.2421417236328125,-0.240997314453125
20220223-1423,2022-02-23 14:23:26Z,u01, 199,40,movements,el-ex, rt, d,205734.10395050002, -1.3057498041685538, 0.1855593960346999, 0.2705458810338753, -0.3616545498371124, 0.12625613808631897, 0.2738477289676666, -0.9485129117965698, -0.18449635803699493, -0.25745725631713867, -0.0473671555519104, -0.05453254282474518, -0.014912039041519165, 0.1544925599148805, -0.5894093890318461, 0.791288770680588,0.05089849380202954,-0.9962615966796875,-0.2571868896484375,-0.2667694091796875
20220223-1423,2022-02-23 14:23:26Z,u01, 200,40,movements,el-ex, rt, d,205734.1288965, -1.3013131013964536, 0.17745121744010334, 0.2645928209084249, -0.23958760499954224, 0.14627783000469208, 0.24392396211624146, -0.948772132396698, -0.1765213906764984, -0.26205262541770935, -0.04889321327209473, 0.023948773741722107, -0.006639331579208374, 0.14947434301998003, -0.5887538593724326, 0.7927105628471341,0.05134436847387841,-0.9976654052734375,-0.1525726318359375,-0.2686920166015625
20220223-1423,2022-02-23 14:23:26Z,u01, 201,40,movements,el-ex, rt, d,205734.1538425, -1.2970339115628835, 0.17076664517848833, 0.26247036252046796, -0.09163995087146759, 0.15175169706344604, 0.21853312849998474, -0.9487570524215698, -0.1699378937482834, -0.2664232850074768, -0.05313509702682495, 0.01669389009475708, -0.005946040153503418, 0.14613318156540409, -0.5877358659889805, 0.7939893736677136,0.052845586866937855,-1.00421142578125,-0.153564453125,-0.26611328125
20220223-1423,2022-02-23 14:23:26Z,u01, 202,40,movements,el-ex, rt, d,205734.17878850002, -1.2941752247253295, 0.16596073353932486, 0.26196720444090993, -0.06229431554675102, 0.07684336602687836, 0.11417289078235626, -0.94876629114151, -0.16519993543624878, -0.26935434341430664, -0.051493167877197266, 0.01940220594406128, -0.038506925106048584, 0.14403179513928077, -0.5870073850351335, 0.7948132690329485,0.054306662288033325,-1.0002593994140625,-0.1457977294921875,-0.307861328125
20220223-1423,2022-02-23 14:23:26Z,u01, 203,40,movements,el-ex, rt, d,205734.2037345, -1.2922126396778266, 0.16357520124006322, 0.2600591175499427, -0.13499921560287476, 0.04466506093740463, 0.041816532611846924, -0.9486119151115417, -0.16284671425819397, -0.27132341265678406, -0.05585891008377075, 0.008931323885917664, -0.028755873441696167, 0.14248565987474854, -0.5865459271016458, 0.7954252849371882,0.054408933013868455,-1.00848388671875,-0.1586761474609375,-0.301239013671875
20220223-1423,2022-02-23 14:23:26Z,u01, 204,40,movements,el-ex, rt, d,205734.22868025, -1.2913378887021765, 0.16201449196580303, 0.25706646188477367, -0.10149478167295456, -0.012006739154458046, 0.02363060601055622, -0.9486172795295715, -0.16130664944648743, -0.2722228765487671, -0.04732382297515869, 0.0021117180585861206, -0.015878230333328247, 0.14097336935822932, -0.5865279808653089, 0.7957525677846012,0.05375122751167938,-0.995941162109375,-0.1591949462890625,-0.2881011962890625
20220223-1423,2022-02-23 14:23:26Z,u01, 205,40,movements,el-ex, rt, d,205734.25362625002, -1.2913077246313878, 0.16020151852339745, 0.25620375166442116, 0.0034585315734148026, -0.0034289639443159103, 0.07350335270166397, -0.9488887786865234, -0.15951715409755707, -0.27233177423477173, -0.029565870761871338, -0.00021186470985412598, -0.0006021261215209961, 0.1400093730849991, -0.5867124413296395, 0.795773049061177,0.0539567759362079,-0.9860382080078125,-0.1566619873046875,-0.2698974609375
20220223-1423,2022-02-23 14:23:26Z,u01, 206,40,movements,el-ex, rt, d,205734.27857225, -1.2917450145466813, 0.158543792078147, 0.25644266636711127, -0.00802831444889307, -0.06072787195444107, 0.02499075047671795, -0.9492606520652771, -0.15788042545318604, -0.27198925614356995, -0.008289456367492676, -0.044908881187438965, -0.007521152496337891, 0.13944196493982333, -0.5869934484375847, 0.795626927944166,0.05452116590253675,-0.957550048828125,-0.202789306640625,-0.279510498046875
20220223-1423,2022-02-23 14:23:26Z,u01, 207,40,movements,el-ex, rt, d,205734.30351825, -1.2934640635364794, 0.1577138351553344, 0.25678821727516027, 0.0729115754365921, -0.09192381054162979, 0.026445968076586723, -0.949852466583252, -0.15706083178520203, -0.2703928053379059, -0.019507884979248047, -0.0037668049335479736, -0.019310474395751953, 0.13926542083678012, -0.5877148473130657, 0.7951066626779163,0.05478924034429844,-0.9671783447265625,-0.1653900146484375,-0.292694091796875
20220223-1423,2022-02-23 14:23:26Z,u01, 208,40,movements,el-ex, rt, d,205734.32846425002, -1.2964480980825195, 0.15758110480964832, 0.2600740423461572, 0.12718933820724487, -0.0878576934337616, 0.06496167182922363, -0.9506751298904419, -0.15692974627017975, -0.2675628364086151, -0.03147214651107788, -0.030417680740356445, 0.011444151401519775, 0.14026245511657928, -0.5886807459358848, 0.7941370738222421,0.055926313435125885,-0.982147216796875,-0.187347412109375,-0.2561187744140625
20220223-1423,2022-02-23 14:23:26Z,u01, 209,40,movements,el-ex, rt, d,205734.35341025, -1.2996901336696969, 0.1579434246545553, 0.26307611324135255, 0.08827018737792969, -0.15746545791625977, 0.06561607122421265, -0.9514827132225037, -0.1572875678539276, -0.2644640803337097, -0.03948408365249634, -0.049972549080848694, 0.02574041485786438, 0.14137974584835486, -0.5897285225948996, 0.7931003181909819,0.056779582837229114,-0.987030029296875,-0.2099151611328125,-0.2395782470703125
20220223-1423,2022-02-23 14:23:26Z,u01, 210,40,movements,el-ex, rt, d,205734.37835625, -1.3039485152870551, 0.15899006692416712, 0.2656752054016126, 0.10493848472833633, -0.17898786067962646, -0.00904704537242651, -0.9524410367012024, -0.1583210974931717, -0.26036638021469116, -0.07427716255187988, -0.0388224720954895, 0.0066738128662109375, 0.14267645284783959, -0.5911516185990737, 0.7917781981185178,0.05718931939358468,-1.0267181396484375,-0.1971435546875,-0.253692626953125
20220223-1423,2022-02-23 14:23:26Z,u01, 211,40,movements,el-ex, rt, d,205734.40330225002, -1.309005242671601, 0.16067973645778752, 0.26811645981767845, 0.1437302529811859, -0.23481778800487518, -0.030971985310316086, -0.9534856081008911, -0.15998922288417816, -0.2554772198200226, -0.09221446514129639, 0.009430751204490662, -0.003464311361312866, 0.1442011505660918, -0.5928468814889083, 0.7902264253808898,0.05727777060357048,-1.042633056640625,-0.1597747802734375,-0.2617340087890625
20220223-1423,2022-02-23 14:23:26Z,u01, 212,40,movements,el-ex, rt, d,205734.42824825, -1.3169460019162527, 0.1642816974135742, 0.2739364907448908, 0.3604991137981415, -0.30059000849723816, -0.04607889801263809, -0.95492023229599, -0.16354374587535858, -0.24775151908397675, -0.11934435367584229, 0.039566099643707275, -0.005010247230529785, 0.1475553571810904, -0.5952744404144465, 0.787733534372852,0.05789335099459547,-1.0742645263671875,-0.1239776611328125,-0.2527618408203125
20220223-1423,2022-02-23 14:23:26Z,u01, 213,40,movements,el-ex, rt, d,205734.45319525, -1.32773677569585, 0.16859959962092946, 0.28418541679554693, 0.3891553282737732, -0.41755855083465576, -0.057755131274461746, -0.9568437337875366, -0.16780197620391846, -0.23726080358028412, -0.12318867444992065, 0.007538884878158569, -0.018354415893554688, 0.15259759906159695, -0.5984008437266319, 0.7842553190965731,0.05978349454008813,-1.0803070068359375,-0.1347808837890625,-0.2455596923828125
20220223-1423,2022-02-23 14:23:26Z,u01, 214,40,movements,el-ex, rt, d,205734.47814125, -1.3396983401640805, 0.17308824359151392, 0.2875775044947609, -0.04328930005431175, -0.4383152425289154, -0.24936291575431824, -0.9588703513145447, -0.17222526669502258, -0.2256239652633667, -0.15311390161514282, -0.1288001388311386, -0.02933506667613983, 0.15569286869564877, -0.6024514492704554, 0.7806118204891985,0.05879820201480257,-1.1119842529296875,-0.301025390625,-0.2549591064453125
20220223-1423,2022-02-23 14:23:26Z,u01, 215,40,movements,el-ex, rt, d,205734.50308725002, -1.3496147654010848, 0.17858723765818046, 0.27854710207514044, -0.31252866983413696, -0.5696728229522705, -0.2812093198299408, -0.9601219892501831, -0.1776394546031952, -0.21589340269565582, -0.0898352861404419, -0.005176082253456116, 0.0071380287408828735, 0.15534022948376183, -0.6065663279149957, 0.7779200108519901,0.05279314491886661,-1.056610107421875,-0.202606201171875,-0.195037841796875
20220223-1423,2022-02-23 14:23:27Z,u01, 216,40,movements,el-ex, rt, d,205734.52803325, -1.36333186875617, 0.18282649219561817, 0.2758501891341907, 0.10179661959409714, -0.5155650973320007, -0.19473062455654144, -0.9622474312782288, -0.1818096786737442, -0.20254649221897125, -0.11598438024520874, 0.09147763252258301, -0.025801241397857666, 0.15648049955374893, -0.6117520812796006, 0.773846432911181,0.049345211518715903,-1.0782318115234375,-0.09033203125,-0.2283477783203125
20220223-1423,2022-02-23 14:23:27Z,u01, 217,40,movements,el-ex, rt, d,205734.55297925, -1.37501775487461, 0.18928301858555235, 0.27631661805176744, -0.03871122747659683, -0.4655243158340454, -0.3401045799255371, -0.9633771181106567, -0.18815477192401886, -0.19105587899684906, -0.11007869243621826, -0.05508558452129364, -0.009703978896141052, 0.15934408828425145, -0.6156959685176447, 0.770298904121913,0.046557382531384084,-1.0865325927734375,-0.235198974609375,-0.200592041015625
20220223-1423,2022-02-23 14:23:27Z,u01, 218,40,movements,el-ex, rt, d,205734.57792525002, -1.3873220462164133, 0.1968326549601752, 0.27079704795883885, -0.20493818819522858, -0.5575568079948425, -0.4333706796169281, -0.9642308950424194, -0.1955641359090805, -0.17892378568649292, -0.08844250440597534, -0.02816024422645569, -0.025742292404174805, 0.16074578943947931, -0.6202410001902519, 0.7666665351016754,0.04104267888490987,-1.05267333984375,-0.223724365234375,-0.2046661376953125
20220223-1423,2022-02-23 14:23:27Z,u01, 219,40,movements,el-ex, rt, d,205734.60287125, -1.3992027732333596, 0.2095241352217205, 0.2631604698682016, -0.1442357748746872, -0.5424036383628845, -0.6199657917022705, -0.9637651443481445, -0.2079944610595703, -0.1670183688402176, -0.09444713592529297, -0.027418136596679688, 0.002009868621826172, 0.1633339554408686, -0.6243499312857517, 0.7631612080395567,0.0330790552138861,-1.0627288818359375,-0.2384185791015625,-0.1696929931640625
20220223-1423,2022-02-23 14:23:27Z,u01, 220,40,movements,el-ex, rt, d,205734.62781725, -1.4124573884138472, 0.22378266194963423, 0.26010060482952474, 0.08054745197296143, -0.5661314725875854, -0.5776948928833008, -0.9628675580024719, -0.22191953659057617, -0.15374645590782166, -0.10430169105529785, 0.04348325729370117, 0.005034327507019043, 0.167868306169031, -0.6284480942641689, 0.7590698273497767,0.026197859065792167,-1.067169189453125,-0.178436279296875,-0.148712158203125
20220223-1423,2022-02-23 14:23:27Z,u01, 221,40,movements,el-ex, rt, d,205734.65276325002, -1.4260050887523972, 0.2382141587149158, 0.2590200382149245, -0.05893493816256523, -0.543143093585968, -0.5493221282958984, -0.9615924954414368, -0.23596759140491486, -0.14021135866641998, -0.146134614944458, 0.039052873849868774, 0.0010207891464233398, 0.17300555858193872, -0.6324265934552062, 0.7547905901561621,0.01992195041886466,-1.1109466552734375,-0.1884307861328125,-0.1294403076171875
20220223-1423,2022-02-23 14:23:27Z,u01, 222,40,movements,el-ex, rt, d,205734.67770925, -1.438719505926405, 0.24951915626608864, 0.2544216540625672, -0.08866813033819199, -0.5497784614562988, -0.447695255279541, -0.9605916142463684, -0.24693803489208221, -0.1276147961616516, -0.11767077445983887, 0.0042317211627960205, -0.07486927509307861, 0.17579199272590532, -0.6366237319813861, 0.7507522309915823,0.013363016016805396,-1.0782623291015625,-0.242706298828125,-0.202484130859375
20220223-1423,2022-02-23 14:23:27Z,u01, 223,40,movements,el-ex, rt, d,205734.70265525, -1.4520304739092607, 0.26207878106073057, 0.2516005856315249, -0.010647633112967014, -0.5662652850151062, -0.5947621464729309, -0.9590497612953186, -0.2590889036655426, -0.11444094032049179, -0.07966184616088867, -0.002309441566467285, -0.03091418743133545, 0.17952616037922384, -0.6407416686332207, 0.7464396282101469,0.006962222910896293,-1.0387725830078125,-0.2558441162109375,-0.1541595458984375
20220223-1423,2022-02-23 14:23:27Z,u01, 224,40,movements,el-ex, rt, d,205734.72760125002, -1.4651579305109375, 0.2778505566951217, 0.24948571723880827, -0.028017602860927582, -0.5297366380691528, -0.6573454737663269, -0.9562865495681763, -0.2742892801761627, -0.1013980358839035, -0.061764657497406006, 0.03953278064727783, 0.007297158241271973, 0.1845611780907214, -0.6443897517921204, 0.7420909564213541,-0.00028469978381800987,-1.0180511474609375,-0.2347564697265625,-0.0941009521484375
20220223-1423,2022-02-23 14:23:27Z,u01, 225,40,movements,el-ex, rt, d,205734.75254725, -1.477241991316374, 0.2945638862833586, 0.24571710604615019, -0.09790574014186859, -0.5201932191848755, -0.7142340540885925, -0.9527442455291748, -0.29032254219055176, -0.08939431607723236, -0.039077043533325195, 0.05852624773979187, -0.03543776273727417, 0.18930439454814102, -0.647662480672003, 0.7379879810535717,-0.008425539846161512,-0.9922943115234375,-0.218658447265625,-0.113616943359375
20220223-1423,2022-02-23 14:23:27Z,u01, 226,40,movements,el-ex, rt, d,205734.77749325, -1.4889748905969005, 0.31261162206621307, 0.24236785025371985, 0.031205175444483757, -0.5275029540061951, -0.7267249226570129, -0.9483503103256226, -0.3075447380542755, -0.07776901125907898, -0.03838986158370972, 0.06816485524177551, -0.07878607511520386, 0.19455987911295997, -0.6505858496556739, 0.7338933277388874,-0.016886575694551292,-0.9867401123046875,-0.2393798828125,-0.15655517578125
20220223-1423,2022-02-23 14:23:27Z,u01, 227,40,movements,el-ex, rt, d,205734.80243925002, -1.504623186120961, 0.3318557755583314, 0.24767400501111875, 0.47758451104164124, -0.5439689755439758, -0.8544394969940186, -0.9433701634407043, -0.3257981240749359, -0.06251703947782516, -0.07138508558273315, 0.11258703470230103, -0.19619572162628174, 0.20291314436249114, -0.6538866371809704, 0.7285101465131669,-0.023054105166659622,-1.0045013427734375,-0.210784912109375,-0.2504119873046875
20220223-1423,2022-02-23 14:23:27Z,u01, 228,40,movements,el-ex, rt, d,205734.82738525, -1.5201917250112589, 0.3565567443107635, 0.2609357850114231, 0.5300464034080505, -0.3810062110424042, -1.000848650932312, -0.9359047412872314, -0.3490496277809143, -0.0474015548825264, -0.04930955171585083, 0.09451770782470703, -0.16681647300720215, 0.21565078661825038, -0.6555867294916109, 0.7231164053350001,-0.028347413372410896,-0.9852142333984375,-0.2545318603515625,-0.2142181396484375
20220223-1423,2022-02-23 14:23:27Z,u01, 229,40,movements,el-ex, rt, d,205734.85233125, -1.5360980720746666, 0.3813422648696392, 0.2724675473223064, 0.45293930172920227, -0.6006630063056946, -0.9748067855834961, -0.9276072382926941, -0.3721666634082794, -0.032199274748563766, 0.026606261730194092, 0.02684500813484192, -0.09363985061645508, 0.22769474381467575, -0.657309262111436, 0.7175704598774683,-0.0345291078116762,-0.8963165283203125,-0.332183837890625,-0.13446044921875
20220223-1423,2022-02-23 14:23:27Z,u01, 230,40,movements,el-ex, rt, d,205734.87727825, -1.5578166194780463, 0.40556682952878126, 0.2857676344310934, 0.5836772322654724, -0.7147473692893982, -0.8949586749076843, -0.918801486492157, -0.3945396840572357, -0.011926444247364998, -0.03278231620788574, 0.026726603507995605, -0.05626499652862549, 0.23985478242641214, -0.6606863560934002, 0.7101413089316679,-0.04077433462547528,-0.9515838623046875,-0.3678131103515625,-0.0681915283203125
20220223-1423,2022-02-23 14:23:27Z,u01, 231,40,movements,el-ex, rt, d,205734.90222425002, -1.5814653904691578, 0.42639976813948943, 0.3024279988062046, 0.5384960770606995, -0.6094597578048706, -0.8292214274406433, -0.9104087352752686, -0.41359561681747437, 0.00971357710659504, -0.06230837106704712, -0.03470754623413086, -0.017648102715611458, 0.2517768412297945, -0.6644284843760754, 0.7022142779133804,-0.04514634476883933,-0.978240966796875,-0.431671142578125,-0.026885986328125
20220223-1423,2022-02-23 14:23:27Z,u01, 232,40,movements,el-ex, rt, d,205734.92717025, -1.597454485747203, 0.44733716233915183, 0.30783902300567706, -0.24752381443977356, -0.5624662637710571, -0.8283336758613586, -0.901282012462616, -0.43256625533103943, 0.024032212793827057, 0.009756624698638916, -0.06570959091186523, 0.018356803804636, 0.26001578397357505, -0.666639256724734, 0.6965640659417976,-0.05275037907472116,-0.8915252685546875,-0.4982757568359375,0.042388916015625
20220223-1423,2022-02-23 14:23:27Z,u01, 233,40,movements,el-ex, rt, d,205734.95211625, -1.6045579195435566, 0.46791555357608233, 0.2894411707601491, -1.0670119524002075, -0.6090477108955383, -0.781732439994812, -0.8920018076896667, -0.45102688670158386, 0.030126849189400673, 0.007495582103729248, -0.03203585743904114, 0.009759662672877312, 0.2603113105314992, -0.6688059852365142, 0.6931025357065895,-0.06742016347364083,-0.8744049072265625,-0.4910125732421875,0.044189453125
20220223-1423,2022-02-23 14:23:27Z,u01, 234,40,movements,el-ex, rt, d,205734.97706225002, -1.6027945128326582, 0.4862591859019936, 0.2567584851477908, -1.1790108680725098, -0.4444212019443512, -0.585920512676239, -0.8836345672607422, -0.4673219621181488, 0.028284355998039246, -0.031236588954925537, 0.028586000204086304, 0.030019519850611687, 0.2553670186446996, -0.6700222863003611, 0.6918256150663226,-0.08505916342448186,-0.9148712158203125,-0.4387359619140625,0.0583038330078125
20220223-1423,2022-02-23 14:23:27Z,u01, 235,40,movements,el-ex, rt, d,205735.00200825, -1.5988783221272589, 0.4975324715286991, 0.22908918168672532, -0.7260076999664307, -0.2617570459842682, -0.32726922631263733, -0.8784163594245911, -0.4772586226463318, 0.024674171581864357, 0.00733792781829834, 0.03737825155258179, 0.004027722403407097, 0.24993182227661057, -0.6707243618535075, 0.6913977107975701,-0.09814317865823913,-0.880126953125,-0.425079345703125,0.028106689453125
20220223-1423,2022-02-23 14:23:27Z,u01, 236,40,movements,el-ex, rt, d,205735.02695425, -1.5974725100387592, 0.5070507757983268, 0.2136904803422533, -0.47884219884872437, -0.251721054315567, -0.38526394963264465, -0.8738695383071899, -0.4856012165546417, 0.023317035287618637, 0.033018648624420166, -0.014551401138305664, 0.03181302547454834, 0.2479401587913064, -0.6709576702111589, 0.6906261551116841,-0.1066634286743279,-0.840850830078125,-0.500152587890625,0.0551300048828125
20220223-1423,2022-02-23 14:23:27Z,u01, 237,40,movements,el-ex, rt, d,205735.05190025002, -1.59531181686364, 0.5158931381938756, 0.19756216266120005, -0.6469122171401978, -0.2025953233242035, -0.2862390875816345, -0.8695911169052124, -0.49331194162368774, 0.02132272534072399, -0.0035015344619750977, -0.006245613098144531, 0.07174074649810791, 0.2455363242044433, -0.6710985588752459, 0.6899947830241043,-0.11509067977090776,-0.8667449951171875,-0.50469970703125,0.102447509765625
20220223-1423,2022-02-23 14:23:27Z,u01, 238,40,movements,el-ex, rt, d,205735.07684625, -1.5905622866546194, 0.522150470847166, 0.18058586479603692, -0.49475568532943726, -0.0973787009716034, -0.21825052797794342, -0.866579532623291, -0.4987452030181885, 0.017131006345152855, -0.01740807294845581, 0.026973843574523926, 0.05675208568572998, 0.24217436042320659, -0.6707585874270676, 0.6902247070911892,-0.12257446750667729,-0.8839874267578125,-0.471771240234375,0.073883056640625
20220223-1423,2022-02-23 14:23:27Z,u01, 239,40,movements,el-ex, rt, d,205735.10179225, -1.5877429531370832, 0.5264467324900648, 0.1704570898506481, -0.21863548457622528, -0.09854130446910858, -0.13449504971504211, -0.8644738793373108, -0.5024643540382385, 0.014651318080723286, 0.012514591217041016, 0.033653318881988525, 0.05166339874267578, 0.24036727613714062, -0.6704843262972205, 0.6902786897189505,-0.1272390333608253,-0.8546295166015625,-0.46734619140625,0.061492919921875
20220223-1423,2022-02-23 14:23:27Z,u01, 240,40,movements,el-ex, rt, d,205735.12673825002, -1.5878763475252649, 0.5298214023330365, 0.16505074653625257, -0.20241819322109222, -0.09112100303173065, -0.087647445499897, -0.8627714514732361, -0.5053792595863342, 0.014737587422132492, -0.01244211196899414, 0.02971702814102173, 0.050509095191955566, 0.23965747665553738, -0.6707705179012156, 0.6896754214361104,-0.13030350225798162,-0.875213623046875,-0.4756622314453125,0.06524658203125
20220223-1423,2022-02-23 14:23:27Z,u01, 241,40,movements,el-ex, rt, d,205735.15168425, -1.5870862187746495, 0.5307014403014959, 0.15996444248199973, -0.13463105261325836, -0.06368917226791382, -0.014974376186728477, -0.8623378872871399, -0.5061384439468384, 0.01404863316565752, -0.024213075637817383, 0.03291761875152588, 0.02702808380126953, 0.23829327602760816, -0.6709997252137153, 0.6895506072376267,-0.13227120027025546,-0.88702392578125,-0.4824981689453125,0.0352020263671875
20220223-1423,2022-02-23 14:23:27Z,u01, 242,40,movements,el-ex, rt, d,205735.17663025, -1.5873361658770875, 0.5312669037052047, 0.15744883675006896, -0.07286746799945831, -0.04865036904811859, -0.028169605880975723, -0.8620480895042419, -0.5066260099411011, 0.01425943709909916, -0.04057043790817261, 0.0450323224067688, 0.05780792236328125, 0.2376190204638647, -0.6713173018653413, 0.689263285145779,-0.1333660661444928,-0.902618408203125,-0.4615936279296875,0.0720672607421875
20220223-1423,2022-02-23 14:23:27Z,u01, 243,40,movements,el-ex, rt, d,205735.20157625002, -1.5858882012857118, 0.5319188657441692, 0.15302453874089533, -0.24557219445705414, 0.0073171574622392654, -0.02818598598241806, -0.8617371320724487, -0.5071880221366882, 0.013006215915083885, -0.04974651336669922, 0.020951569080352783, 0.05997657775878906, 0.23644641143698267, -0.6712646293811598, 0.6894098380745664,-0.1349475661669957,-0.91168212890625,-0.48223876953125,0.0718536376953125
20220223-1423,2022-02-23 14:23:27Z,u01, 244,40,movements,el-ex, rt, d,205735.2265219167, -1.5799402538410758, 0.5330380020381658, 0.14215719819724928, -0.4651368260383606, -0.010587407276034355, -0.046302273869514465, -0.8612313866615295, -0.508152186870575, 0.00787525624036789, -0.038899898529052734, 0.042896389961242676, 0.05868363380432129, 0.23357852909654286, -0.6703571428420873, 0.6905875025625277,-0.13838846186209625,-0.9001312255859375,-0.4652557373046875,0.066558837890625
20220223-1423,2022-02-23 14:23:27Z,u01, 245,40,movements,el-ex, rt, d,205735.25146791668, -1.5763514116033963, 0.5300467590301371, 0.13181450274834264, -0.26994210481643677, 0.07429832220077515, -0.006760056130588055, -0.8627703189849854, -0.5055736899375916, 0.004792811349034309, -0.054710328578948975, 0.10423696041107178, 0.01952981948852539, 0.22936608949865792, -0.6706620629791551, 0.6912756116447587,-0.14050542550395417,-0.9242706298828125,-0.4075927734375,0.0349884033203125
20220223-1423,2022-02-23 14:23:27Z,u01, 246,40,movements,el-ex, rt, d,205735.27641391667, -1.577457077139384, 0.5256652026432489, 0.13296760298766006, 0.18345136940479279, 0.09530327469110489, 0.03149152547121048, -0.8649712204933167, -0.5017884969711304, 0.005761442705988884, -0.01266855001449585, 0.11172813177108765, -0.007897615432739258, 0.2282149827495492, -0.6714154026278862, 0.6912878327909788,-0.13870997530948107,-0.8776397705078125,-0.3900604248046875,-0.00213623046875
20220223-1423,2022-02-23 14:23:27Z,u01, 247,40,movements,el-ex, rt, d,205735.3013599167, -1.5827463724039406, 0.5220352311197737, 0.14090445281225528, 0.1314130425453186, 0.021523524075746536, -0.0432906374335289, -0.8667441606521606, -0.4986453056335449, 0.01035812497138977, -0.009873151779174805, 0.02189972996711731, 0.013399838469922543, 0.2293116599650147, -0.672751978972486, 0.6902988280887825,-0.13530854278706583,-0.8676300048828125,-0.463104248046875,0.0173492431640625
20220223-1423,2022-02-23 14:23:27Z,u01, 248,40,movements,el-ex, rt, d,205735.32630591668, -1.5836868888487097, 0.5187213271534545, 0.1413714877174849, -0.15422816574573517, 0.061218470335006714, -0.051872141659259796, -0.8683817386627197, -0.49577006697654724, 0.01119454950094223, -0.06304526329040527, 0.010082811117172241, 0.0035912981256842613, 0.22830451468695367, -0.6734050216025459, 0.6902323479009126,-0.1340974205074515,-0.931427001953125,-0.485687255859375,0.0147857666015625
