SessionID,LoggingTime,UID,RecNo,Hertz,Activity,MoveType,Wrist,Side,TimeStamp,DMRoll,DMPitch,DMYaw,DMRotX,DMRotY,DMRotZ,DMGrvX,DMGrvY,DMGrvZ,DMUAccelX,DMUAccelY,DMUAccelZ,DMQuatX,DMQuatY,DMQuatW,DMQuatZ,AccelroX,AceelroY,AceelroZ
20220223-1417,2022-02-23 14:17:21Z,u01, 1,40,movements,el-ex, rt, d,205369.05237754167, -1.2957666310441767, 0.34415275167200726, 0.2615788153708706, 0.549139678478241, 0.6172318458557129, 0.5544723272323608, -0.9059825539588928, -0.3373992443084717, -0.2556507885456085, 0.0722728967666626, 0.08179926872253418, -0.04992175102233887, 0.21290931261346518, -0.5717029268660996, 0.7923543296769352,-2.7755575615628914e-17,-0.83349609375,-0.2657470703125,-0.314239501953125
20220223-1417,2022-02-23 14:17:21Z,u01, 2,40,movements,el-ex, rt, d,205369.0773235417, -1.2928899530764346, 0.3369562483766423, 0.28787506344139335, 1.058329463005066, 0.36954888701438904, 0.4922899603843689, -0.9075548648834229, -0.3306160271167755, -0.25891536474227905, -0.05190247297286987, 0.0235024094581604, -0.08520090579986572, 0.21764356514931715, -0.5684835905770516, 0.7932785081621,0.012918477193291561,-0.9594573974609375,-0.3071136474609375,-0.3441162109375
20220223-1417,2022-02-23 14:17:21Z,u01, 3,40,movements,el-ex, rt, d,205369.10226954168, -1.2933443536008227, 0.3328611519663974, 0.3148113750102585, 0.730790376663208, -0.13170771300792694, 0.6763030290603638, -0.9089668989181519, -0.32674846053123474, -0.2588716149330139, -0.23499971628189087, 0.03492417931556702, -0.02118822932243347, 0.22372626507388624, -0.5661366934696018, 0.7929823224743138,0.02479390366511902,-0.8137359619140625,-0.355438232421875,-0.351776123046875
20220223-1417,2022-02-23 14:17:21Z,u01, 4,40,movements,el-ex, rt, d,205369.12721554167, -1.288159908426423, 0.3256482281751133, 0.3231135108651979, -0.2186608761548996, 0.2570973038673401, 0.3739733099937439, -0.9098523259162903, -0.3199230134487152, -0.2642310559749603, -0.08407467603683472, -0.0380328893661499, -0.031560659408569336, 0.22325003164216242, -0.5639538079605271, 0.7944579854958008,0.030855832234025826,-0.993927001953125,-0.3579559326171875,-0.2957916259765625
20220223-1417,2022-02-23 14:17:21Z,u01, 5,40,movements,el-ex, rt, d,205369.15216054168, -1.2802147867909026, 0.31411669441003054, 0.31794602805478517, -0.22968827188014984, 0.21044105291366577, 0.43152308464050293, -0.9111984372138977, -0.30897650122642517, -0.2724904716014862, -0.07410740852355957, -0.004133880138397217, -0.08715930581092834, 0.217255088298677, -0.5626322047810051, 0.7969604280769006,0.03315745998113995,-0.981719970703125,-0.3076171875,-0.3753814697265625
20220223-1417,2022-02-23 14:17:21Z,u01, 6,40,movements,el-ex, rt, d,205369.17710654167, -1.2777008469696431, 0.30399188833442314, 0.3223373434472056, 0.3377144932746887, 0.1146366223692894, 0.4349336624145508, -0.9134587049484253, -0.2993314266204834, -0.27566999197006226, -0.1277858018875122, 0.023650914430618286, -0.11684715747833252, 0.21455689150097673, -0.5622546930128071, 0.7977303984969037,0.038226155431963144,-1.0412445068359375,-0.2756805419921875,-0.39251708984375
20220223-1417,2022-02-23 14:17:21Z,u01, 7,40,movements,el-ex, rt, d,205369.2020525417, -1.280109417533605, 0.29828056856831536, 0.3393671535797396, 0.6544220447540283, 0.08725200593471527, 0.3237082064151764, -0.9157428741455078, -0.29387712478637695, -0.2739545702934265, -0.1445750594139099, 0.02558189630508423, -0.07811149954795837, 0.21720188459274245, -0.5620018265338622, 0.7967543450287958,0.04647311902749507,-1.053131103515625,-0.2752685546875,-0.33367919921875
20220223-1417,2022-02-23 14:17:21Z,u01, 8,40,movements,el-ex, rt, d,205369.22699754167, -1.2829785587402083, 0.29495826724084767, 0.35369956693859406, 0.28552836179733276, 0.03685520961880684, 0.2452707141637802, -0.9174563884735107, -0.29069992899894714, -0.27160173654556274, -0.10764431953430176, -0.02288341522216797, -0.0005846023559570312, 0.22002836455045582, -0.5619489746195167, 0.7956167999459253,0.05286654964096621,-1.0251007080078125,-0.3135833740234375,-0.272186279296875
20220223-1417,2022-02-23 14:17:21Z,u01, 9,40,movements,el-ex, rt, d,205369.2519435417, -1.2843812672168897, 0.29055049244962267, 0.3600537465327305, 0.10497952997684479, 0.019417962059378624, 0.23012778162956238, -0.9190565943717957, -0.2864796817302704, -0.2706739008426666, -0.10262614488601685, -0.011371880769729614, 0.01840031147003174, 0.22016814437759574, -0.5623068901141375, 0.7950703555722326,0.05656932452866739,-1.018707275390625,-0.290069580078125,-0.24871826171875
20220223-1417,2022-02-23 14:17:21Z,u01, 10,40,movements,el-ex, rt, d,205369.27688954168, -1.2849672866510895, 0.2831876911098797, 0.3644389620079492, 0.06119436398148537, 0.0362992063164711, 0.39570021629333496, -0.9212139248847961, -0.2794177830219269, -0.2707226872444153, -0.05290722846984863, -0.01872369647026062, 0.02731439471244812, 0.21860592898682962, -0.5628943989445858, 0.7947985472518831,0.06047098932698572,-0.97412109375,-0.2981414794921875,-0.243408203125
20220223-1417,2022-02-23 14:17:21Z,u01, 11,40,movements,el-ex, rt, d,205369.3018345417, -1.2840450879998215, 0.27286475533323606, 0.3666442122914756, -0.09740353375673294, 0.08738343417644501, 0.441676527261734, -0.9236811995506287, -0.2694913148880005, -0.27237340807914734, -0.04755586385726929, -0.034768909215927124, 0.024540096521377563, 0.21525098539259913, -0.5634539150239857, 0.7949957689944309,0.06456245769031485,-0.971038818359375,-0.2962188720703125,-0.2559661865234375
20220223-1417,2022-02-23 14:17:21Z,u01, 12,40,movements,el-ex, rt, d,205369.32678054168, -1.2824851797126477, 0.26180917290930794, 0.3686878208925888, 0.043661877512931824, 0.0693267360329628, 0.4134739637374878, -0.9260551333427429, -0.2588284909725189, -0.27464431524276733, -0.03300541639328003, 0.014993101358413696, 0.0009931623935699463, 0.21154052670629214, -0.5638514424118423, 0.7953480780396442,0.06887293359907057,-0.9590606689453125,-0.24383544921875,-0.273651123046875
20220223-1417,2022-02-23 14:17:21Z,u01, 13,40,movements,el-ex, rt, d,205369.35172654167, -1.2833927197557147, 0.2539450558583177, 0.37607635407424445, 0.29242631793022156, 0.009752951562404633, 0.33649778366088867, -0.9282273650169373, -0.25122442841529846, -0.27437227964401245, -0.03530406951904297, 0.02272409200668335, 0.020557522773742676, 0.21064253102784597, -0.5643080531444757, 0.7947942667800246,0.07408233304491879,-0.96551513671875,-0.2315826416015625,-0.2436981201171875
20220223-1417,2022-02-23 14:17:21Z,u01, 14,40,movements,el-ex, rt, d,205369.3766715417, -1.2854666430064952, 0.2478664809116219, 0.384766627008477, 0.1876513957977295, 0.002769278362393379, 0.33345267176628113, -0.9302425980567932, -0.24533620476722717, -0.2728714346885681, -0.02239406108856201, -0.01900702714920044, 0.05287015438079834, 0.21084721609510235, -0.5648962161638319, 0.7938334623938512,0.07914634938446599,-0.95263671875,-0.26434326171875,-0.220001220703125
20220223-1417,2022-02-23 14:17:21Z,u01, 15,40,movements,el-ex, rt, d,205369.40161754168, -1.2873791466115163, 0.2400900245863175, 0.3905855823071926, 0.05902355909347534, -0.05093489587306976, 0.3834093511104584, -0.932566225528717, -0.2377900630235672, -0.2716171145439148, -0.003621339797973633, -0.02011394500732422, 0.011271625757217407, 0.2095944490917605, -0.5659166109208793, 0.792981564551715,0.08359800431299885,-0.9351043701171875,-0.254730224609375,-0.2667694091796875
20220223-1417,2022-02-23 14:17:21Z,u01, 16,40,movements,el-ex, rt, d,205369.42656354167, -1.2892642877729519, 0.2295728117555834, 0.3930045046912769, -0.08984392136335373, -0.03293399512767792, 0.4505394697189331, -0.9354275465011597, -0.2275615632534027, -0.2705385386943817, -0.04119598865509033, -0.003960013389587402, 0.03532421588897705, 0.20633656355193447, -0.5675878376562604, 0.7922167340925791,0.08753270110947303,-0.97662353515625,-0.2315216064453125,-0.2352142333984375
20220223-1417,2022-02-23 14:17:21Z,u01, 17,40,movements,el-ex, rt, d,205369.4515095417, -1.2883678971147488, 0.21800298002443425, 0.3908278293243724, -0.3809540867805481, 0.04903724044561386, 0.36601439118385315, -0.9376505613327026, -0.21628029644489288, -0.2720924913883209, -0.03849995136260986, -0.04569783806800842, 0.06693804264068604, 0.2012460287432476, -0.5687299745109633, 0.7924022476735122,0.09024960271777155,-0.9725494384765625,-0.2741546630859375,-0.193634033203125
20220223-1417,2022-02-23 14:17:21Z,u01, 18,40,movements,el-ex, rt, d,205369.47645454167, -1.28398829890418, 0.2061768826848197, 0.37861501391723307, -0.7293419241905212, 0.1065274327993393, 0.2922948896884918, -0.9388376474380493, -0.20471926033496857, -0.27690064907073975, -0.024785399436950684, -0.07840755581855774, 0.05099421739578247, 0.19302738839989192, -0.5694647542231749, 0.7940144798988542,0.08939431586841728,-0.963623046875,-0.2831268310546875,-0.2259063720703125
20220223-1417,2022-02-23 14:17:21Z,u01, 19,40,movements,el-ex, rt, d,205369.5014005417, -1.2777478017094244, 0.19254016820328365, 0.36323723457708035, -0.6350501179695129, 0.1459885537624359, 0.4789870083332062, -0.9396768808364868, -0.1913527399301529, -0.2835341691970825, 0.005503296852111816, -0.05030068755149841, 0.043650686740875244, 0.18309865422593183, -0.5698313777590182, 0.7962609910202753,0.08795224054258585,-0.9259185791015625,-0.22918701171875,-0.24847412109375
20220223-1417,2022-02-23 14:17:22Z,u01, 20,40,movements,el-ex, rt, d,205369.52634654168, -1.2735734604973161, 0.17366273056004325, 0.3611447530550925, -0.004467003047466278, 0.1843298077583313, 0.8135796189308167, -0.9417714476585388, -0.17279113829135895, -0.2884608209133148, 0.01686006784439087, -0.07441647350788116, -0.046393364667892456, 0.17497816162927984, -0.5702212189055974, 0.7972192510561082,0.09312243810686024,-0.9249114990234375,-0.2472076416015625,-0.3348541259765625
20220223-1417,2022-02-23 14:17:22Z,u01, 21,40,movements,el-ex, rt, d,205369.5512915417, -1.2695696300273758, 0.15328637673423082, 0.36789874703219866, -0.0552823469042778, 0.21747319400310516, 0.8916134834289551, -0.9437758326530457, -0.15268678963184357, -0.2932130694389343, 0.02658534049987793, -0.09349846839904785, -0.06278979778289795, 0.16876269808646163, -0.5700110691425262, 0.7975961021141006,0.1022104242838929,-0.914154052734375,-0.2293853759765625,-0.35809326171875
20220223-1417,2022-02-23 14:17:22Z,u01, 22,40,movements,el-ex, rt, d,205369.57623754168, -1.2650041920909072, 0.1313175106922543, 0.370547478911142, -0.25337815284729004, 0.18826091289520264, 0.8352476358413696, -0.9453983902931213, -0.13094042241573334, -0.29845669865608215, -0.005636036396026611, -0.008006080985069275, -0.005483180284500122, 0.16068051922695153, -0.5700468616029187, 0.7981844732883627,0.11013565422813779,-0.9510345458984375,-0.138946533203125,-0.3039398193359375
20220223-1417,2022-02-23 14:17:22Z,u01, 23,40,movements,el-ex, rt, d,205369.60118354167, -1.2605267160484108, 0.1094123756910707, 0.3689266225370843, -0.3890966773033142, 0.1684160977602005, 0.7927246689796448, -0.9465572237968445, -0.10919421166181564, -0.30348971486091614, -0.024313688278198242, 0.024111218750476837, 0.03575894236564636, 0.15136180468654253, -0.5703899912182832, 0.7988892827362455,0.11627872161974726,-0.9720458984375,-0.0824737548828125,-0.2653961181640625
20220223-1417,2022-02-23 14:17:22Z,u01, 24,40,movements,el-ex, rt, d,205369.62612854168, -1.2558052128648922, 0.0876331080294473, 0.36597134880642673, -0.32346227765083313, 0.18545480072498322, 0.7933154106140137, -0.9471505880355835, -0.08752098679542542, -0.3086191713809967, -0.01995140314102173, 0.05575219541788101, -0.04391995072364807, 0.14164911551476467, -0.5706364326029779, 0.7996691294890506,0.12181474467418882,-0.96710205078125,-0.031768798828125,-0.3525390625
20220223-1417,2022-02-23 14:17:22Z,u01, 25,40,movements,el-ex, rt, d,205369.65107454167, -1.250891579035987, 0.06834900999243326, 0.36679604521502623, -0.0817398875951767, 0.20630767941474915, 0.6764227151870728, -0.9470489621162415, -0.06829580664634705, -0.31374186277389526, -0.04059135913848877, 0.06425226479768753, -0.07215294241905212, 0.13394415342518118, -0.5702525980674699, 0.8002891758645043,0.12809438026218303,-0.9927825927734375,-0.007354736328125,-0.3826446533203125
20220223-1417,2022-02-23 14:17:22Z,u01, 26,40,movements,el-ex, rt, d,205369.67602054166, -1.246457632987217, 0.05413642117071905, 0.37105985153645343, -0.013063155114650726, 0.17110002040863037, 0.5198619961738586, -0.9464731216430664, -0.05410998314619064, -0.31821519136428833, -0.0723257064819336, 0.025942295789718628, 0.023949384689331055, 0.12922628131180863, -0.5693794653288462, 0.8006848934940387,0.1342067024219636,-1.018798828125,-0.028167724609375,-0.2942657470703125
20220223-1417,2022-02-23 14:17:22Z,u01, 27,40,movements,el-ex, rt, d,205369.70096554168, -1.2424275589595992, 0.04170111819161045, 0.3715577101753299, -0.30872058868408203, 0.17780034244060516, 0.4466610848903656, -0.9457467198371887, -0.041689034551382065, -0.32221901416778564, -0.07462364435195923, 0.00782981887459755, 0.06652745604515076, 0.12414536238787478, -0.5687516371044277, 0.8012477723326206,0.1382443116412721,-1.014373779296875,-0.0328826904296875,-0.2681427001953125
20220223-1417,2022-02-23 14:17:22Z,u01, 28,40,movements,el-ex, rt, d,205369.72591154167, -1.2375370795043124, 0.02765850642788713, 0.36629421155754677, -0.376069039106369, 0.20957905054092407, 0.4450160562992096, -0.9446197152137756, -0.027654979377985, -0.3269995450973511, -0.05011594295501709, 0.004736306145787239, -0.04082879424095154, 0.11670474273683598, -0.5682255044137386, 0.8023538304894492,0.140456573461526,-0.9947357177734375,-0.022918701171875,-0.367828369140625
20220223-1417,2022-02-23 14:17:22Z,u01, 29,40,movements,el-ex, rt, d,205369.7508575417, -1.231976551209254, 0.016363333026593117, 0.364698312761775, 0.002911550924181938, 0.23355914652347565, 0.3400168716907501, -0.943021297454834, -0.01636260189116001, -0.3323296904563904, -0.06619495153427124, -0.006113559007644653, -0.030509114265441895, 0.11133575073066299, -0.566956349021151, 0.8035008715498371,0.14335684129399148,-1.008544921875,-0.013427734375,-0.350433349609375
20220223-1417,2022-02-23 14:17:22Z,u01, 30,40,movements,el-ex, rt, d,205369.77580354168, -1.2263482638085672, 0.010908361799344563, 0.3691980659981762, 0.11424010246992111, 0.22854502499103546, 0.20651106536388397, -0.9412058591842651, -0.01090814545750618, -0.33765709400177, -0.06183052062988281, 0.009916366077959538, 0.07804402709007263, 0.11001141303577085, -0.5648618805369819, 0.8044946782162091,0.14702624917563373,-1.0030364990234375,-0.0009918212890625,-0.259613037109375
20220223-1417,2022-02-23 14:17:22Z,u01, 31,40,movements,el-ex, rt, d,205369.8007485417, -1.2208413701442316, 0.006267658454818847, 0.3713857100782877, -0.05075787007808685, 0.2157278209924698, 0.2042200267314911, -0.939369797706604, -0.006267617456614971, -0.3428487777709961, -0.047507643699645996, -0.021137148141860962, 0.04777425527572632, 0.10835395157193724, -0.5628810080420406, 0.8056479415345208,0.14951886478520593,-0.983551025390625,-0.0308380126953125,-0.3206939697265625
20220223-1417,2022-02-23 14:17:22Z,u01, 32,40,movements,el-ex, rt, d,205369.82569454168, -1.2160078753334895, 0.0011900149909441114, 0.3714119694872271, -0.04573408141732216, 0.17724619805812836, 0.16722765564918518, -0.937719464302063, -0.0011900147655978799, -0.3473917841911316, -0.03872108459472656, 0.012893527746200562, -0.005986601114273071, 0.10595213713966424, -0.5613183133897524, 0.8067400483939355,0.15121691714611785,-0.9764404296875,0.0117034912109375,-0.3533782958984375
20220223-1417,2022-02-23 14:17:22Z,u01, 33,40,movements,el-ex, rt, d,205369.85064054167, -1.2125986160043882, -0.002405979810273186, 0.37338306793196846, 0.11212745308876038, 0.1036636009812355, 0.14904412627220154, -0.9365275502204895, 0.002405977575108409, -0.3505859076976776, -0.03759360313415527, 0.02716556191444397, 0.03918448090553284, 0.1047941071068878, -0.5601118052304072, 0.8073554854832794,0.15319992394781673,-0.9752197265625,0.0312347412109375,-0.30560302734375
20220223-1417,2022-02-23 14:17:22Z,u01, 34,40,movements,el-ex, rt, d,205369.875585625, -1.211083178969849, -0.004674800103704313, 0.37821443631970825, 0.13459940254688263, 0.026663493365049362, 0.13459473848342896, -0.9359877109527588, 0.0046747829765081406, -0.35200193524360657, -0.03897273540496826, 0.010675579309463501, 0.021298140287399292, 0.10511297143292281, -0.5594196036141511, 0.8072840294402586,0.15586406715077342,-0.9749603271484375,0.015350341796875,-0.3307037353515625
20220223-1417,2022-02-23 14:17:22Z,u01, 35,40,movements,el-ex, rt, d,205369.90053162503, -1.2110416262434724, -0.0072084793251043075, 0.38074155954588657, -0.009354036301374435, -0.01860865019261837, 0.11709190905094147, -0.9359589219093323, 0.0072084167040884495, -0.3520355224609375, -0.0436248779296875, -0.005804567597806454, 0.012588411569595337, 0.10479330846951705, -0.5594645664381861, 0.8069585470424593,0.15759365235990674,-0.9795074462890625,0.0049285888671875,-0.3362274169921875
20220223-1417,2022-02-23 14:17:22Z,u01, 36,40,movements,el-ex, rt, d,205369.92547762502, -1.2129823432207005, -0.011403982357912512, 0.3806947529409431, -0.06693680584430695, -0.013764690607786179, 0.12437479197978973, -0.9366037845611572, 0.011403734795749187, -0.3502047657966614, -0.0400349497795105, 0.00834113359451294, 0.008194148540496826, 0.10323954355844477, -0.5605704411573199, 0.806184870195826,0.15864558507128082,-0.9766387939453125,0.019744873046875,-0.342010498046875
20220223-1417,2022-02-23 14:17:22Z,u01, 37,40,movements,el-ex, rt, d,205369.950422625, -1.2147431226170673, -0.015370625747770381, 0.38072216667220593, -0.004105179104954004, -0.0025955280289053917, 0.13346882164478302, -0.9371692538261414, 0.015370020642876625, -0.34853655099868774, -0.024210810661315918, 0.007716536521911621, -0.03374195098876953, 0.1017862797370339, -0.5615792697088788, 0.8054640066487477,0.15967504463929466,-0.959442138671875,0.022216796875,-0.39129638671875
20220223-1417,2022-02-23 14:17:22Z,u01, 38,40,movements,el-ex, rt, d,205369.97536862502, -1.2159853458031793, -0.016705711058300977, 0.38283053982401966, 0.10304979979991913, 0.0007673129439353943, 0.0548209473490715, -0.9375813603401184, 0.01670493371784687, -0.3473646640777588, -0.029337525367736816, -0.010280966758728027, -0.030381977558135986, 0.10193944645352844, -0.5620729636033945, 0.8048694598712287,0.16083394874822846,-0.9669189453125,0.0064239501953125,-0.37774658203125
20220223-1417,2022-02-23 14:17:22Z,u01, 39,40,movements,el-ex, rt, d,205370.000314625, -1.217206096512439, -0.014987686337737595, 0.3864250300819731, 0.19487646222114563, -0.021183127537369728, -0.06326320767402649, -0.9380303025245667, 0.014987125061452389, -0.34622928500175476, -0.04759591817855835, -0.022967427968978882, -0.020805656909942627, 0.10374087580087812, -0.5622483295357318, 0.8043358052025675,0.16173647604947602,-0.9937896728515625,-0.0064849853515625,-0.3677825927734375
20220223-1417,2022-02-23 14:17:22Z,u01, 40,40,movements,el-ex, rt, d,205370.02525962502, -1.217373925636017, -0.011534290579966721, 0.39013998898863933, 0.1914084255695343, 0.0018940959125757217, -0.10616740584373474, -0.9381313323974609, 0.011534035205841064, -0.3460876941680908, -0.06649208068847656, -0.014921456575393677, -0.042675793170928955, 0.10618971511416246, -0.561853978453777, 0.8041873928851657,0.16225469794463887,-1.0046234130859375,-0.003387451171875,-0.388763427734375
20220223-1417,2022-02-23 14:17:22Z,u01, 41,40,movements,el-ex, rt, d,205370.050205625, -1.2170126923125844, -0.007155089328474745, 0.39461483140509296, 0.26956042647361755, -0.025419415906071663, -0.11266244947910309, -0.938044548034668, 0.00715502817183733, -0.34644070267677307, -0.08212751150131226, -0.026304811239242554, -0.03095492720603943, 0.10917977753365478, -0.5611233542815809, 0.8041772828382014,0.16284727819540007,-1.02532958984375,-0.0248565673828125,-0.3687744140625
20220223-1417,2022-02-23 14:17:22Z,u01, 42,40,movements,el-ex, rt, d,205370.075151625, -1.2181647086824365, -0.0008885940443375856, 0.3992935432089487, 0.24299460649490356, -0.07982426881790161, -0.22074997425079346, -0.9384667277336121, 0.0008885939023457468, -0.34536856412887573, -0.11077332496643066, -0.054523199796676636, 0.005280643701553345, 0.11310647640408106, -0.5608231870964041, 0.8038315290881913,0.16290847265853903,-1.0492401123046875,-0.0536346435546875,-0.340087890625
20220223-1417,2022-02-23 14:17:22Z,u01, 43,40,movements,el-ex, rt, d,205370.100096625, -1.220794455615456, 0.0075306421955210765, 0.4029909357921583, 0.287261962890625, -0.13052792847156525, -0.2826876640319824, -0.9393454194068909, -0.007530570961534977, -0.34288984537124634, -0.10592734813690186, -0.020774483680725098, -0.0016383826732635498, 0.11773799026025887, -0.5609749089510435, 0.8032684164376688,0.16187876147931987,-1.043182373046875,-0.0313720703125,-0.35345458984375
20220223-1417,2022-02-23 14:17:22Z,u01, 44,40,movements,el-ex, rt, d,205370.125042625, -1.2241303551289333, 0.017217114694910537, 0.4075905628172002, 0.3032064437866211, -0.14199362695217133, -0.33940818905830383, -0.9403713345527649, -0.017216263338923454, -0.3397136628627777, -0.10302466154098511, -0.013148695230484009, -0.018288135528564453, 0.12317914706967992, -0.5612219440864498, 0.8024968421534094,0.16079689228848995,-1.04339599609375,-0.030364990234375,-0.358001708984375
20220223-1417,2022-02-23 14:17:22Z,u01, 45,40,movements,el-ex, rt, d,205370.14998862502, -1.227801387952455, 0.02814714639391479, 0.4122268173452473, 0.3367167115211487, -0.15148282051086426, -0.407743364572525, -0.941378653049469, -0.02814343012869358, -0.3361758887767792, -0.10744941234588623, 0.0009064991027116776, -0.0257473886013031, 0.12914314023779427, -0.5614571311925669, 0.8016856746278626,0.15933627981599238,-1.0507965087890625,-0.041778564453125,-0.3563995361328125
20220223-1417,2022-02-23 14:17:22Z,u01, 46,40,movements,el-ex, rt, d,205370.174934625, -1.2321171969934983, 0.04165928265688316, 0.41545737006147404, 0.29731932282447815, -0.19191046059131622, -0.5562149286270142, -0.9423760175704956, -0.041647233068943024, -0.3319532871246338, -0.1085425615310669, -0.025506675243377686, 0.0034009814262390137, 0.13577683177546518, -0.561772204428688, 0.8009250840908908,0.15651086476381287,-1.0509185791015625,-0.0671539306640625,-0.32855224609375
20220223-1417,2022-02-23 14:17:22Z,u01, 47,40,movements,el-ex, rt, d,205370.19987962503, -1.237750533189645, 0.059048570574644535, 0.4190337941704907, 0.4573214650154114, -0.23674803972244263, -0.6666059494018555, -0.943403959274292, -0.05901426076889038, -0.3263532221317291, -0.11090207099914551, -0.01431947946548462, -0.011308550834655762, 0.1441240579636681, -0.5621847120545419, 0.7999335355953044,0.1525878138513057,-1.05584716796875,-0.0751190185546875,-0.3416748046875
20220223-1417,2022-02-23 14:17:22Z,u01, 48,40,movements,el-ex, rt, d,205370.22482562502, -1.2439425017912564, 0.07977618653233078, 0.4264673175533905, 0.6136544942855835, -0.21741342544555664, -0.7231770157814026, -0.9440451264381409, -0.07969159632921219, -0.3200438916683197, -0.10159385204315186, -0.01173904538154602, -0.036920249462127686, 0.15487637145649874, -0.5621310865611279, 0.7986095992834183,0.14914663463772665,-1.0456390380859375,-0.0914306640625,-0.356964111328125
20220223-1417,2022-02-23 14:17:22Z,u01, 49,40,movements,el-ex, rt, d,205370.249771625, -1.2500426242049385, 0.10211736097057468, 0.43441805167033715, 0.505160927772522, -0.21676993370056152, -0.7618122696876526, -0.9440543055534363, -0.10193997621536255, -0.31363946199417114, -0.09892964363098145, 0.021236270666122437, 0.009196043014526367, 0.16634639459238065, -0.5617020019343838, 0.7972989910004173,0.14537570660004998,-1.044189453125,-0.087921142578125,-0.286041259765625
20220223-1417,2022-02-23 14:17:22Z,u01, 50,40,movements,el-ex, rt, d,205370.27471662502, -1.2560302520270705, 0.12307398261051763, 0.4361263786466961, 0.13116978108882904, -0.24033784866333008, -0.796522855758667, -0.9436764717102051, -0.12276351451873779, -0.30725228786468506, -0.10994291305541992, -0.04142102599143982, 0.07397586107254028, 0.17545273758024937, -0.5617741497795685, 0.7963537484539008,0.13945228451307912,-1.053619384765625,-0.1641845703125,-0.2332763671875
20220223-1417,2022-02-23 14:17:22Z,u01, 51,40,movements,el-ex, rt, d,205370.299662625, -1.2620453082901748, 0.14323544257379942, 0.43281531403344947, 0.19610893726348877, -0.2660914659500122, -0.8338295221328735, -0.9429574012756348, -0.14274616539478302, -0.30075713992118835, -0.08176177740097046, -0.021560460329055786, 0.004690766334533691, 0.18278410070489587, -0.562326779506892, 0.7956347651668363,0.1316962038862688,-1.023345947265625,-0.1507568359375,-0.3022308349609375
20220223-1417,2022-02-23 14:17:22Z,u01, 52,40,movements,el-ex, rt, d,205370.324608625, -1.2688656706912986, 0.16518500631620872, 0.43332536081786804, 0.37664109468460083, -0.29690253734588623, -0.7830106616020203, -0.9417678117752075, -0.16443482041358948, -0.2933163344860077, -0.048420727252960205, 0.02017827332019806, -0.00769379734992981, 0.19187535733295508, -0.5626061492084096, 0.7944082934538905,0.12479416439225294,-0.9901885986328125,-0.144256591796875,-0.3010101318359375
20220223-1417,2022-02-23 14:17:22Z,u01, 53,40,movements,el-ex, rt, d,205370.349553625, -1.2771061393398997, 0.18573189791847675, 0.43642323805802247, 0.26653531193733215, -0.31302276253700256, -0.7250832915306091, -0.9407198429107666, -0.18466588854789734, -0.2845075726509094, -0.05944788455963135, 0.022785410284996033, 0.011619359254837036, 0.20117057201124172, -0.5632731225594702, 0.7925053218713475,0.11911770620614792,-1.0004730224609375,-0.1733856201171875,-0.266082763671875
20220223-1417,2022-02-23 14:17:22Z,u01, 54,40,movements,el-ex, rt, d,205370.374499625, -1.2841776132319518, 0.20331690377579223, 0.43213942142829626, -0.17760895192623138, -0.318086177110672, -0.7196831703186035, -0.9394477009773254, -0.20191901922225952, -0.27688726782798767, -0.05019146203994751, -0.017532870173454285, 0.046418458223342896, 0.2071131144901623, -0.5645002424378907, 0.7912162367499533,0.11144680736614268,-0.9896392822265625,-0.219451904296875,-0.23046875
20220223-1417,2022-02-23 14:17:22Z,u01, 55,40,movements,el-ex, rt, d,205370.39944562502, -1.2897491208229044, 0.21789267868520232, 0.4210757694509232, -0.23403936624526978, -0.30153682827949524, -0.645434558391571, -0.9380483627319336, -0.21617260575294495, -0.2708037495613098, -0.04696744680404663, 0.009309247136116028, 0.014944344758987427, 0.20985259918462135, -0.5661801948335727, 0.7905537062246953,0.10211138662032818,-0.9811859130859375,-0.1981658935546875,-0.267913818359375
20220223-1417,2022-02-23 14:17:22Z,u01, 56,40,movements,el-ex, rt, d,205370.424390625, -1.2955422273456187, 0.2313705259467133, 0.4143790763809642, 0.008680490776896477, -0.2917648255825043, -0.5465129613876343, -0.936712384223938, -0.2293117493391037, -0.2645490765571594, -0.009973406791687012, 0.04777795076370239, -0.03321099281311035, 0.21337487045309972, -0.5676236624386353, 0.7894877308792131,0.09478281796215782,-0.946685791015625,-0.1815338134765625,-0.297760009765625
20220223-1417,2022-02-23 14:17:22Z,u01, 57,40,movements,el-ex, rt, d,205370.44933662502, -1.3020807850542484, 0.24439816715320292, 0.4101535254047328, -0.11306475102901459, -0.2950373888015747, -0.5719044208526611, -0.9354624152183533, -0.241972416639328, -0.2576037049293518, -0.02483433485031128, 0.02699136734008789, -0.028391867876052856, 0.21742004221717492, -0.5691455695746933, 0.7880210685296242,0.088457797942846,-0.9651947021484375,-0.2152557373046875,-0.28271484375
20220223-1417,2022-02-23 14:17:22Z,u01, 58,40,movements,el-ex, rt, d,205370.47428262501, -1.3076606191904108, 0.25748475105889457, 0.40144488056038263, -0.21003533899784088, -0.32144999504089355, -0.5989543795585632, -0.9337472915649414, -0.2546490430831909, -0.25153467059135437, -0.03600966930389404, 0.0786542296409607, -0.017508357763290405, 0.22012637397164062, -0.5707688152721457, 0.786955349685321,0.0804268058028221,-0.969757080078125,-0.175994873046875,-0.26904296875
20220223-1417,2022-02-23 14:17:22Z,u01, 59,40,movements,el-ex, rt, d,205370.49922762503, -1.3131668831347922, 0.2703155984420035, 0.39239296190620104, -0.16016505658626556, -0.32162752747535706, -0.5608763098716736, -0.9318817257881165, -0.267035573720932, -0.2455366998910904, -0.032168447971343994, 0.027609974145889282, 0.006568744778633118, 0.22259191897958125, -0.5724373233429556, 0.7858352496726714,0.0723271885695036,-0.9616851806640625,-0.251251220703125,-0.2353668212890625
20220223-1417,2022-02-23 14:17:22Z,u01, 60,40,movements,el-ex, rt, d,205370.52417362502, -1.3202210948221853, 0.2826969740135984, 0.3888535361064571, 0.14754709601402283, -0.3131368160247803, -0.47412171959877014, -0.9303162693977356, -0.27894657850265503, -0.23811887204647064, -0.01691889762878418, -0.0028832852840423584, -0.0510353147983551, 0.226478487982882, -0.5741498595925896, 0.7840020303464862,0.06633512630763916,-0.947235107421875,-0.281829833984375,-0.289154052734375
20220223-1417,2022-02-23 14:17:23Z,u01, 61,40,movements,el-ex, rt, d,205370.549119625, -1.3282015300872145, 0.2949580121519855, 0.3901123728540307, 0.09303375333547592, -0.296440988779068, -0.446399062871933, -0.9287969470024109, -0.29069969058036804, -0.22984811663627625, -0.012502610683441162, 0.030415266752243042, -0.056025415658950806, 0.23168603219019793, -0.5756713682946948, 0.7817066505781365,0.06211994599080384,-0.9407958984375,-0.253326416015625,-0.2764129638671875
20220223-1417,2022-02-23 14:17:23Z,u01, 62,40,movements,el-ex, rt, d,205370.574065625, -1.3342017934830124, 0.3049112553231312, 0.3850441305331138, -0.2733219265937805, -0.3125699758529663, -0.4334804117679596, -0.9273005723953247, -0.30020853877067566, -0.2235817015171051, -0.042181968688964844, 0.045569807291030884, -0.010594993829727173, 0.23411224668037206, -0.5774085244244057, 0.7801384157624018,0.05634779062985221,-0.969482421875,-0.254638671875,-0.2341766357421875
20220223-1417,2022-02-23 14:17:23Z,u01, 63,40,movements,el-ex, rt, d,205370.599010625, -1.3389884567459942, 0.31310762550262483, 0.3746317895837056, -0.2601662576198578, -0.3222161531448364, -0.40943360328674316, -0.9259340763092041, -0.30801665782928467, -0.21856781840324402, -0.0539090633392334, 0.017947107553482056, -0.037535786628723145, 0.23427431429451714, -0.5795098274872045, 0.7790161484520242,0.049171118900604854,-0.9811859130859375,-0.29913330078125,-0.265960693359375
20220223-1417,2022-02-23 14:17:23Z,u01, 64,40,movements,el-ex, rt, d,205370.623956625, -1.3455044909997245, 0.3227101426045278, 0.3695105614708795, 0.031674426048994064, -0.3110126852989197, -0.4496459662914276, -0.9244128465652466, -0.3171379566192627, -0.21185925602912903, -0.07773858308792114, 0.014098495244979858, -0.06760554015636444, 0.23649979371629157, -0.5814965334316619, 0.7772037304872185,0.043404453319285385,-1.0021514892578125,-0.30303955078125,-0.2794647216796875
20220223-1417,2022-02-23 14:17:23Z,u01, 65,40,movements,el-ex, rt, d,205370.64890262502, -1.3520861373143203, 0.33464445694276196, 0.3694209883436564, 0.12939073145389557, -0.22164206206798553, -0.48397141695022583, -0.9220266938209534, -0.3284333646297455, -0.2049347311258316, -0.08407676219940186, 0.002414137125015259, -0.06612245738506317, 0.24101688112038794, -0.5826178000758248, 0.7752157742451301,0.038830606985987504,-0.9987945556640625,-0.3269805908203125,-0.266876220703125
20220223-1417,2022-02-23 14:17:23Z,u01, 66,40,movements,el-ex, rt, d,205370.673847625, -1.3570267152947648, 0.34664507507292097, 0.3683093630929356, -0.02901306003332138, -0.21793846786022186, -0.46819251775741577, -0.9191098809242249, -0.33974435925483704, -0.1995263546705246, -0.043277204036712646, 0.01909613609313965, -0.021466732025146484, 0.2451960840569426, -0.583194398683988, 0.7736965854061645,0.034011289697587516,-0.9623870849609375,-0.320648193359375,-0.2209930419921875
20220223-1417,2022-02-23 14:17:23Z,u01, 67,40,movements,el-ex, rt, d,205370.69879362502, -1.3606126588168534, 0.3569998545777371, 0.3631198487979713, -0.18459773063659668, -0.21231867372989655, -0.43475601077079773, -0.9163296222686768, -0.3494648337364197, -0.1954846978187561, -0.05473965406417847, -0.0028147995471954346, -0.018779262900352478, 0.2475336439025728, -0.5839389938281764, 0.7726203672995037,0.02828569813089271,-0.97564697265625,-0.3679351806640625,-0.21142578125
20220223-1417,2022-02-23 14:17:23Z,u01, 68,40,movements,el-ex, rt, d,205370.723739625, -1.3612935613911612, 0.3661023136585264, 0.3522235639751104, -0.42105787992477417, -0.1645936220884323, -0.4218217134475708, -0.9133132100105286, -0.3579787611961365, -0.1941910982131958, -0.047303855419158936, -0.01207733154296875, 0.013008177280426025, 0.24769216733158017, -0.5844253964626253, 0.7724312193756766,0.021107528050147817,-0.9606170654296875,-0.37005615234375,-0.181182861328125
20220223-1417,2022-02-23 14:17:23Z,u01, 69,40,movements,el-ex, rt, d,205370.74868462502, -1.361369344758719, 0.37392135489166195, 0.3404818082838688, -0.27278369665145874, -0.175003319978714, -0.38525643944740295, -0.9105620980262756, -0.36526861786842346, -0.1935340315103531, -0.01346433162689209, 0.026752442121505737, -0.018044397234916687, 0.24712401286242464, -0.5849467578019645, 0.7723785205312217,0.014084982909573524,-0.9256439208984375,-0.3326873779296875,-0.220550537109375
20220223-1417,2022-02-23 14:17:23Z,u01, 70,40,movements,el-ex, rt, d,205370.77363062502, -1.363067747444728, 0.3814019004165232, 0.3352669227768329, 0.009685267694294453, -0.10919453948736191, -0.28343692421913147, -0.9081903100013733, -0.37222200632095337, -0.1914183497428894, -0.031247437000274658, 0.06567296385765076, -0.021655410528182983, 0.24834742554046946, -0.58533271282267, 0.7717635749588484,0.009489469710205728,-0.9394378662109375,-0.306549072265625,-0.21307373046875
20220223-1417,2022-02-23 14:17:23Z,u01, 71,40,movements,el-ex, rt, d,205370.798576625, -1.3655338929383791, 0.3871878935595074, 0.3361409420533358, 0.10877886414527893, -0.08234821259975433, -0.18477073311805725, -0.9065359234809875, -0.3775859773159027, -0.18873590230941772, -0.0161781907081604, 0.03211173415184021, 0.005020037293434143, 0.2507289408931943, -0.5854631076615375, 0.7709142687845143,0.007682007262189344,-0.92547607421875,-0.3565216064453125,-0.177764892578125
20220223-1417,2022-02-23 14:17:23Z,u01, 72,40,movements,el-ex, rt, d,205370.82352162502, -1.3677510039841014, 0.3917367061348597, 0.33728303471097654, -0.007466287352144718, -0.0789671316742897, -0.16044814884662628, -0.905260443687439, -0.38179412484169006, -0.18637725710868835, 0.003283083438873291, 0.016300439834594727, 0.02782312035560608, 0.25273051213484893, -0.5856096490873148, 0.770160734044414,0.00639683558159751,-0.9019775390625,-0.3654937744140625,-0.1585540771484375
20220223-1417,2022-02-23 14:17:23Z,u01, 73,40,movements,el-ex, rt, d,205370.848467625, -1.3689297861734577, 0.3947712658378403, 0.3334377481685419, -0.21064165234565735, -0.13326819241046906, -0.12729871273040771, -0.9043404459953308, -0.3845970630645752, -0.18507690727710724, 0.01658409833908081, 0.02397090196609497, 0.03305351734161377, 0.2527127455876982, -0.5861721727297907, 0.7697558151131604,0.0038019145638733265,-0.8906402587890625,-0.36181640625,-0.153717041015625
20220223-1417,2022-02-23 14:17:23Z,u01, 74,40,movements,el-ex, rt, d,205370.873414, -1.3694937498325457, 0.3959181208394654, 0.32683415453475034, -0.2094258815050125, -0.10762108117341995, -0.039239101111888885, -0.9040120244026184, -0.3856554627418518, -0.18447856605052948, -0.020457088947296143, 0.02814197540283203, 0.004516348242759705, 0.25119440682088034, -0.5870792849861872, 0.769570484259342,0.0008245510802930289,-0.924468994140625,-0.357513427734375,-0.179962158203125
20220223-1417,2022-02-23 14:17:23Z,u01, 75,40,movements,el-ex, rt, d,205370.898359, -1.3698320504570975, 0.394653254679903, 0.3217603275203351, -0.1892693042755127, -0.0785139948129654, 0.06274272501468658, -0.9045514464378357, -0.38448813557624817, -0.18426991999149323, -0.014103829860687256, 0.028973668813705444, 0.0027513056993484497, 0.24924258189614454, -0.5879992998929525, 0.7695026287832968,-0.0007674133241617198,-0.916015625,-0.35919189453125,-0.17474365234375
20220223-1417,2022-02-23 14:17:23Z,u01, 76,40,movements,el-ex, rt, d,205370.923305, -1.3720255773093446, 0.3899635939083145, 0.3178043130653466, -0.2885667085647583, -0.019146740436553955, 0.05779729783535004, -0.9067112803459167, -0.38015472888946533, -0.18263939023017883, -0.018322288990020752, 0.006787419319152832, 0.04984205961227417, 0.24636499629775002, -0.5899021919841836, 0.7689724320455478,-0.0010670936778539586,-0.9250335693359375,-0.3733673095703125,-0.1327972412109375
20220223-1417,2022-02-23 14:17:23Z,u01, 77,40,movements,el-ex, rt, d,205370.94825100002, -1.3720641220518206, 0.3846309137120566, 0.309005337074511, -0.4355848431587219, -0.060025863349437714, 0.04353354126214981, -0.9086925983428955, -0.3752170503139496, -0.1830020397901535, 0.014420866966247559, 0.015323281288146973, 0.053790584206581116, 0.24181686375055028, -0.5916279095878678, 0.7690860255402441,-0.0027560407715589985,-0.8863677978515625,-0.337646484375,-0.13629150390625
20220223-1417,2022-02-23 14:17:23Z,u01, 78,40,movements,el-ex, rt, d,205370.973197, -1.3711893281408867, 0.380317051266738, 0.3007448685230826, -0.21875983476638794, -0.09432464838027954, 0.0696277916431427, -0.9101101756095886, -0.371214896440506, -0.18411612510681152, 0.034744083881378174, 0.06013402342796326, 0.018741264939308167, 0.23779208189069542, -0.5927873673141879, 0.7694401143793566,-0.004454676312821176,-0.8753662109375,-0.3110809326171875,-0.165374755859375
20220223-1417,2022-02-23 14:17:23Z,u01, 79,40,movements,el-ex, rt, d,205370.99814200003, -1.3716482157315064, 0.3765588664953553, 0.29695248599559054, -0.1651238650083542, -0.057603053748607635, 0.15436777472496033, -0.911555826663971, -0.36772263050079346, -0.18397319316864014, 0.05251652002334595, 0.03634750843048096, 0.03059178590774536, 0.23528679131427988, -0.5938463831169662, 0.7693918876607112,-0.004771540048411765,-0.856475830078125,-0.3399200439453125,-0.1504058837890625
20220223-1417,2022-02-23 14:17:23Z,u01, 80,40,movements,el-ex, rt, d,205371.02308800002, -1.370848677441936, 0.37084906819282126, 0.29150430031602476, -0.330508291721344, -0.052422136068344116, 0.2072906494140625, -0.9134514331817627, -0.3624069094657898, -0.1851159930229187, 0.07798683643341064, 0.036463916301727295, 0.06867609918117523, 0.23157107528608584, -0.5948250518568257, 0.7697620152184195,-0.004957487786997228,-0.8354644775390625,-0.3259429931640625,-0.1164398193359375
20220223-1417,2022-02-23 14:17:23Z,u01, 81,40,movements,el-ex, rt, d,205371.048034, -1.3696958023295407, 0.3638169271428198, 0.28283605260328487, -0.39646658301353455, -0.10640634596347809, 0.19793462753295898, -0.9157118797302246, -0.3558439016342163, -0.18667340278625488, 0.07913357019424438, 0.05895364284515381, 0.05764508247375488, 0.22640214786517765, -0.5961588433877821, 0.7702607770615922,-0.005926708842682787,-0.8494873046875,-0.2841033935546875,-0.135009765625
20220223-1417,2022-02-23 14:17:23Z,u01, 82,40,movements,el-ex, rt, d,205371.07297900002, -1.3679380032828707, 0.3575350306700871, 0.27295376237289537, -0.420406311750412, -0.04952748119831085, 0.16752812266349792, -0.9175537824630737, -0.3499661982059479, -0.18872937560081482, 0.06765449047088623, 0.07515543699264526, 0.07251834869384766, 0.22113788739657175, -0.5972715827067334, 0.7709136360434926,-0.0075424505405261855,-0.8498992919921875,-0.274810791015625,-0.1162109375
20220223-1417,2022-02-23 14:17:23Z,u01, 83,40,movements,el-ex, rt, d,205371.097925, -1.3660154695796025, 0.3514598047633622, 0.2641158422736556, -0.29768669605255127, -0.0034077242016792297, 0.180150106549263, -0.9192540049552917, -0.3442687392234802, -0.19092190265655518, 0.04639023542404175, 0.06369012594223022, 0.0744209885597229, 0.21625225323216019, -0.5981421364230409, 0.7716108465232763,-0.008813602458684594,-0.8846893310546875,-0.2786407470703125,-0.1230926513671875
20220223-1417,2022-02-23 14:17:23Z,u01, 84,40,movements,el-ex, rt, d,205371.122871, -1.363526779827684, 0.34628797673883166, 0.26056368732455376, -0.033114828169345856, 0.10907381772994995, 0.17534096539020538, -0.9205060005187988, -0.3394084870815277, -0.19357284903526306, 0.0011029839515686035, 0.0474010705947876, 0.06893903017044067, 0.21327818590097503, -0.5981019923490911, 0.7724751171945111,-0.008279772112057826,-0.919403076171875,-0.2920074462890625,-0.1246337890625
20220223-1417,2022-02-23 14:17:23Z,u01, 85,40,movements,el-ex, rt, d,205371.147816, -1.3603787810437276, 0.34297701165150085, 0.2635983299388467, 0.17685265839099884, 0.20134328305721283, 0.15873323380947113, -0.920985996723175, -0.33629220724105835, -0.19670327007770538, 0.0264090895652771, 0.06689831614494324, 0.0717642605304718, 0.21296283788746662, -0.596904678342826, 0.7735106795818001,-0.005724651830476407,-0.884613037109375,-0.263153076171875,-0.1328582763671875
20220223-1417,2022-02-23 14:17:23Z,u01, 86,40,movements,el-ex, rt, d,205371.172762, -1.357342895164809, 0.3400994126213532, 0.27159281753947234, 0.3478532135486603, 0.24640057981014252, 0.16677631437778473, -0.9213265180587769, -0.3335808217525482, -0.19970253109931946, 0.040421485900878906, 0.05893793702125549, 0.022212237119674683, 0.214278110836241, -0.5951752868203881, 0.7744993392473891,-0.0013981609506543424,-0.8809051513671875,-0.2746429443359375,-0.177490234375
20220223-1417,2022-02-23 14:17:23Z,u01, 87,40,movements,el-ex, rt, d,205371.19770800002, -1.3546111951760313, 0.33870623543407513, 0.2808602797123736, 0.2910812795162201, 0.23665933310985565, 0.103769451379776, -0.921230673789978, -0.3322671055793762, -0.20231808722019196, -0.015781044960021973, 0.03714686632156372, 0.03094661235809326, 0.21651103863156534, -0.5932654794281571, 0.7753389312061494,0.0029259782454582606,-0.953460693359375,-0.2855987548828125,-0.17327880859375
20220223-1417,2022-02-23 14:17:23Z,u01, 88,40,movements,el-ex, rt, d,205371.222653, -1.3507561807593096, 0.33764699903444784, 0.2881412257237187, 0.24726739525794983, 0.22545281052589417, 0.10093112289905548, -0.9207867383956909, -0.3312678635120392, -0.20594461262226105, -0.008656501770019531, 0.03898581862449646, -0.011416882276535034, 0.21826265757019664, -0.5910914540614456, 0.7764855953873051,0.006503013044951045,-0.929443359375,-0.2922821044921875,-0.2173614501953125
20220223-1417,2022-02-23 14:17:23Z,u01, 89,40,movements,el-ex, rt, d,205371.24759900002, -1.3481941933745962, 0.3364671735869326, 0.29581786811359284, 0.294842392206192, 0.21112509071826935, 0.1143101155757904, -0.9206367135047913, -0.3301544189453125, -0.20838913321495056, -0.025911688804626465, 0.0348052978515625, -0.0406191349029541, 0.2200772128570642, -0.589382263816888, 0.7772334207659294,0.010136291259670638,-0.95001220703125,-0.29864501953125,-0.262939453125
20220223-1417,2022-02-23 14:17:23Z,u01, 90,40,movements,el-ex, rt, d,205371.272545, -1.3452512780964503, 0.3355383863452849, 0.3020908663896787, 0.1385500729084015, 0.16664722561836243, 0.07305654883384705, -0.9203179478645325, -0.32927757501602173, -0.21116608381271362, -0.007904648780822754, 0.04552522301673889, -0.04360996186733246, 0.22155920544226237, -0.587646560044989, 0.7780803457794305,0.01319172747746103,-0.92822265625,-0.28375244140625,-0.2547760009765625
20220223-1417,2022-02-23 14:17:23Z,u01, 91,40,movements,el-ex, rt, d,205371.29749000003, -1.342340644881865, 0.33449255411031054, 0.30364019378871326, -0.03299488499760628, 0.1396191269159317, 0.029405802488327026, -0.9200342893600464, -0.3282898962497711, -0.21392174065113068, -0.020410537719726562, 0.0749482810497284, -0.039801448583602905, 0.22160315457460905, -0.5864564541856903, 0.7789429389725426,0.014444835983578624,-0.939666748046875,-0.25067138671875,-0.2620849609375
20220223-1417,2022-02-23 14:17:23Z,u01, 92,40,movements,el-ex, rt, d,205371.32243600002, -1.3391899342953781, 0.33345891322882654, 0.3039405940566802, 0.10234133899211884, 0.10474417358636856, 0.05376327410340309, -0.9196856021881104, -0.3273133635520935, -0.21689723432064056, 0.01792168617248535, 0.08651447296142578, -0.08371619880199432, 0.22128109678832142, -0.5853085171126691, 0.7798823953599862,0.01523393329373518,-0.901763916015625,-0.2407989501953125,-0.3006134033203125
20220223-1417,2022-02-23 14:17:23Z,u01, 93,40,movements,el-ex, rt, d,205371.347382, -1.338585568205576, 0.33290710298496284, 0.30988002280844573, 0.26386722922325134, 0.08035275340080261, 0.08309419453144073, -0.9197298884391785, -0.326791912317276, -0.21749453246593475, 0.013205349445343018, 0.04229182004928589, -0.08554509282112122, 0.2228065666752309, -0.5844740949518715, 0.7800196835635362,0.017789597253817124,-0.9136810302734375,-0.303131103515625,-0.29437255859375
20220223-1417,2022-02-23 14:17:23Z,u01, 94,40,movements,el-ex, rt, d,205371.37232700002, -1.3373404813023357, 0.32788144202931657, 0.31423052210547725, 0.036613352596759796, 0.07111890614032745, 0.09606605768203735, -0.9210444688796997, -0.32203805446624756, -0.2190166711807251, -0.023138761520385742, 0.03161761164665222, -0.04074898362159729, 0.2221844461275594, -0.5840597009340153, 0.7804223195874546,0.021194189959457932,-0.944183349609375,-0.2904205322265625,-0.259765625
20220223-1417,2022-02-23 14:17:23Z,u01, 95,40,movements,el-ex, rt, d,205371.397273, -1.331110451190091, 0.3179041372450001, 0.3126186923139829, -0.09325376152992249, 0.09631574153900146, 0.09548482298851013, -0.9227376580238342, -0.31257641315460205, -0.2255021333694458, -0.006598830223083496, 0.01351940631866455, -0.07758325338363647, 0.217899903957869, -0.582896703083029, 0.7824051397800881,0.024357322191744663,-0.9185943603515625,-0.2980499267578125,-0.3001251220703125
20220223-1417,2022-02-23 14:17:23Z,u01, 96,40,movements,el-ex, rt, d,205371.422219, -1.321863100606797, 0.3091231675902541, 0.3094977832259777, 0.003047439269721508, 0.015148382633924484, 0.05270320549607277, -0.9232374429702759, -0.3042234778404236, -0.23469240963459015, 0.00554347038269043, 0.03287646174430847, -0.04683229327201843, 0.21356309431024764, -0.5805554230684403, 0.7852547493947892,0.026853065723464492,-0.917694091796875,-0.2713470458984375,-0.281524658203125
20220223-1417,2022-02-23 14:17:23Z,u01, 97,40,movements,el-ex, rt, d,205371.447164, -1.3182373748049592, 0.3081595660345374, 0.30837157030697004, -0.06559084355831146, 0.04916234314441681, 0.10881288349628448, -0.9226638674736023, -0.30330541729927063, -0.23811140656471252, 0.0025590062141418457, 0.03459817171096802, -0.01768699288368225, 0.212822996318529, -0.5793536655716525, 0.7863341976109137,0.027094491857473063,-0.90679931640625,-0.28460693359375,-0.2608184814453125
20220223-1417,2022-02-23 14:17:23Z,u01, 98,40,movements,el-ex, rt, d,205371.47211, -1.3122759629320437, 0.30316888577492995, 0.3060077843422144, -0.10214546322822571, 0.06761232018470764, 0.13469946384429932, -0.9226799607276917, -0.29854607582092285, -0.24399147927761078, 0.006893277168273926, -0.0007244646549224854, -0.013760015368461609, 0.21016317366941079, -0.5777851673441176, 0.7881580492688776,0.028330187240435095,-0.9157867431640625,-0.2992706298828125,-0.25775146484375
20220223-1417,2022-02-23 14:17:23Z,u01, 99,40,movements,el-ex, rt, d,205371.49705600002, -1.3065323610643278, 0.298268188197819, 0.30160297509509704, -0.22427695989608765, 0.0417168065905571, 0.11316302418708801, -0.9226647019386292, -0.29386529326438904, -0.24966612458229065, -0.0038184523582458496, 0.0023004114627838135, 0.03056514263153076, 0.2069443702530367, -0.5764902125946574, 0.7899429417262239,0.028693624953561342,-0.932159423828125,-0.29132080078125,-0.2152557373046875
20220223-1417,2022-02-23 14:17:23Z,u01, 100,40,movements,el-ex, rt, d,205371.522001, -1.30254952458348, 0.29154798063861115, 0.29598685018664544, -0.24434122443199158, 0.09259942919015884, 0.10873204469680786, -0.9235463738441467, -0.28743523359298706, -0.2538566589355469, 0.05092668533325195, 0.06517568230628967, 0.002529054880142212, 0.20270129834796607, -0.5761804065998665, 0.7912592556020407,0.028934802039108948,-0.87261962890625,-0.222259521484375,-0.2513275146484375
20220223-1417,2022-02-23 14:17:24Z,u01, 101,40,movements,el-ex, rt, d,205371.54694700002, -1.3003153268411063, 0.28832037048847814, 0.29270508037944143, -0.02303336374461651, -0.03045518882572651, 0.11079859733581543, -0.9238660335540771, -0.28434231877326965, -0.25616592168807983, 0.11722546815872192, 0.07218417525291443, -0.0038286149501800537, 0.20048766923196215, -0.57595289325733, 0.7919917268298792,0.028845087249222273,-0.8279571533203125,-0.2136993408203125,-0.2564544677734375
20220223-1417,2022-02-23 14:17:24Z,u01, 102,40,movements,el-ex, rt, d,205371.57189300001, -1.301547776333628, 0.28671634412720565, 0.29398701465479155, -0.014336044900119305, -0.011551870964467525, 0.08203133195638657, -0.9246194958686829, -0.28280413150787354, -0.25514811277389526, 0.021253466606140137, 0.025434166193008423, 0.04375278949737549, 0.20026033662974158, -0.5764735425062614, 0.7916381007649199,0.02971799793355981,-0.9033660888671875,-0.2573699951171875,-0.211395263671875
20220223-1417,2022-02-23 14:17:24Z,u01, 103,40,movements,el-ex, rt, d,205371.596839, -1.3015221161537092, 0.2834219829407172, 0.291845719835832, -0.21402667462825775, 0.0196246225386858, 0.09291667491197586, -0.9255059957504272, -0.2796427309513092, -0.2554183006286621, 0.03396552801132202, 0.03898113965988159, 0.03668344020843506, 0.19837980866454313, -0.5770063317519477, 0.791717404087185,0.029877276016449822,-0.883331298828125,-0.2229461669921875,-0.2158966064453125
20220223-1417,2022-02-23 14:17:24Z,u01, 104,40,movements,el-ex, rt, d,205371.62178400002, -1.2989631345764294, 0.2790303522918929, 0.2860307690914203, -0.2546258568763733, -0.012551556341350079, 0.043628618121147156, -0.9260233640670776, -0.27542364597320557, -0.2581130266189575, 0.10183525085449219, 0.07635751366615295, 0.020915120840072632, 0.19497862848477343, -0.5769981066489834, 0.792594409907389,0.029163274540361328,-0.824188232421875,-0.199066162109375,-0.2371978759765625
20220223-1417,2022-02-23 14:17:24Z,u01, 105,40,movements,el-ex, rt, d,205371.64673, -1.2978463354447618, 0.27728324340265964, 0.2811474063007808, -0.13780784606933594, 0.039954863488674164, -0.026843618601560593, -0.9261964559555054, -0.2737436890602112, -0.2592763602733612, 0.018405497074127197, 0.013062596321105957, 0.05740255117416382, 0.19288175744292144, -0.5771987899486016, 0.7930078312554346,0.027867184288534824,-0.9217071533203125,-0.2771453857421875,-0.1885833740234375
20220223-1417,2022-02-23 14:17:24Z,u01, 106,40,movements,el-ex, rt, d,205371.671676, -1.2946687061012123, 0.2766648064422331, 0.27774347060179505, -0.1833721399307251, 0.185861736536026, 0.004225084558129311, -0.9255308508872986, -0.2731488049030304, -0.26226434111595154, 0.01816689968109131, -0.022078216075897217, 0.056102752685546875, 0.1916183145530751, -0.5763247841757001, 0.7939790491103268,0.02700998086376108,-0.9073638916015625,-0.29522705078125,-0.2061614990234375
20220223-1417,2022-02-23 14:17:24Z,u01, 107,40,movements,el-ex, rt, d,205371.696621, -1.2880241702092905, 0.2739040957466741, 0.2729930341583514, -0.16138093173503876, 0.1905558854341507, 0.055974896997213364, -0.9244884252548218, -0.2704920470714569, -0.2686176002025604, 0.12607216835021973, 0.005248516798019409, 0.032945483922958374, 0.1890965792314183, -0.5743985388203898, 0.7959911543732866,0.026589866165702497,-0.796295166015625,-0.267120361328125,-0.2333221435546875
20220223-1417,2022-02-23 14:17:24Z,u01, 108,40,movements,el-ex, rt, d,205371.721567, -1.2824156537190115, 0.27111628287786876, 0.2714711898910205, -0.04597782716155052, 0.28527480363845825, 0.08785413205623627, -0.923686683177948, -0.26780712604522705, -0.2740117609500885, 0.03939402103424072, -0.04981982707977295, 0.04477888345718384, 0.18750466566965146, -0.5725697557248333, 0.7976577212498505,0.027352106132482346,-0.8842926025390625,-0.317626953125,-0.2292327880859375
20220223-1417,2022-02-23 14:17:24Z,u01, 109,40,movements,el-ex, rt, d,205371.74651300002, -1.2749755573026689, 0.26788076088295326, 0.2707085696738519, -0.0690564513206482, 0.29445990920066833, 0.15483729541301727, -0.9224464297294617, -0.2646883726119995, -0.28112754225730896, 0.08600538969039917, -0.05847746133804321, 0.003097057342529297, 0.1859254201303647, -0.5699719032148006, 0.7998370569070695,0.02871343590114253,-0.839324951171875,-0.31744384765625,-0.2981109619140625
20220223-1417,2022-02-23 14:17:24Z,u01, 110,40,movements,el-ex, rt, d,205371.771458, -1.2671023043881526, 0.2664694651576943, 0.26779631408857635, -0.2834603786468506, 0.3485278785228729, -0.005509834736585617, -0.9205599427223206, -0.26332715153694153, -0.2884927988052368, 0.030057132244110107, -0.033852964639663696, -0.012685209512710571, 0.18443423175131107, -0.567219189448547, 0.8021363994220263,0.02869760677241659,-0.8905029296875,-0.29718017578125,-0.301177978515625
20220223-1417,2022-02-23 14:17:24Z,u01, 111,40,movements,el-ex, rt, d,205371.79640400002, -1.2551572399022235, 0.26165851316388106, 0.25239144002614966, -1.0505120754241943, 0.28062692284584045, 0.12259626388549805, -0.9182419776916504, -0.2586829662322998, -0.2998579144477844, 0.12623459100723267, -0.07592695951461792, 0.022849828004837036, 0.17803070983109712, -0.5642482661825633, 0.8057935345599827,0.025014717346630633,-0.779510498046875,-0.34124755859375,-0.270172119140625
20220223-1417,2022-02-23 14:17:24Z,u01, 112,40,movements,el-ex, rt, d,205371.82135, -1.2435209742077045, 0.24959284129678555, 0.22805959117613972, -0.9054324626922607, 0.21232442557811737, 0.25632888078689575, -0.9175794720649719, -0.24700944125652313, -0.31150299310684204, 0.0823286771774292, -0.11515785753726959, 0.04688504338264465, 0.16628046688285358, -0.5626715886440922, 0.809544144943542,0.019739151204822586,-0.8352508544921875,-0.3621673583984375,-0.264617919921875
20220223-1417,2022-02-23 14:17:24Z,u01, 113,40,movements,el-ex, rt, d,205371.84629500002, -1.2365349661812108, 0.2392279363454988, 0.21712344431422512, -0.195891335606575, 0.15906354784965515, 0.2542441189289093, -0.9177504181861877, -0.23695261776447296, -0.3187284469604492, 0.0864972472190857, -0.08380237221717834, 0.007082909345626831, 0.15901951430597222, -0.5615590510066846, 0.811792510791016,0.01890191300319205,-0.8338623046875,-0.3031005859375,-0.314117431640625
20220223-1417,2022-02-23 14:17:24Z,u01, 114,40,movements,el-ex, rt, d,205371.87124112502, -1.2340130456152547, 0.2343689885796702, 0.21914656622982417, 0.08388423174619675, 0.08703482151031494, 0.23842033743858337, -0.9180193543434143, -0.23222927749156952, -0.32141855359077454, 0.11957281827926636, -0.1061495840549469, 0.01786014437675476, 0.1576248236925833, -0.5607540799126796, 0.8125601019062761,0.021337351720903563,-0.7984466552734375,-0.33837890625,-0.303558349609375
20220223-1417,2022-02-23 14:17:24Z,u01, 115,40,movements,el-ex, rt, d,205371.896187125, -1.2344175324212165, 0.22904182490889288, 0.22246062744769918, -0.003379467874765396, -0.028718475252389908, 0.25155019760131836, -0.9193040728569031, -0.227044478058815, -0.32145097851753235, 0.11879754066467285, -0.11430986225605011, 0.05240800976753235, 0.15643391158237416, -0.5610730283382185, 0.8124898057299864,0.02420134220721737,-0.8241424560546875,-0.328643798828125,-0.274932861328125
20220223-1417,2022-02-23 14:17:24Z,u01, 116,40,movements,el-ex, rt, d,205371.92113212502, -1.2336051162355164, 0.22343347522022794, 0.22362085051018285, -0.06237993761897087, 0.11352735012769699, 0.2623783349990845, -0.9202298521995544, -0.22157904505729675, -0.3226139545440674, 0.10202306509017944, -0.08402393758296967, 0.0005313754081726074, 0.15451111423576439, -0.5610876428910687, 0.8127802523183673,0.026366749760919406,-0.818206787109375,-0.30560302734375,-0.32208251953125
20220223-1417,2022-02-23 14:17:24Z,u01, 117,40,movements,el-ex, rt, d,205371.946078125, -1.2324620654168819, 0.21773054959892432, 0.2260661316446171, 0.09538259357213974, 0.012673573568463326, 0.22331123054027557, -0.9210375547409058, -0.2160143107175827, -0.3240797817707062, 0.14863765239715576, -0.0734143853187561, 0.0026685595512390137, 0.15290372650590328, -0.5608748193067827, 0.8131376087674815,0.029105629119408283,-0.7913818359375,-0.2978973388671875,-0.3267364501953125
20220223-1417,2022-02-23 14:17:24Z,u01, 118,40,movements,el-ex, rt, d,205371.971024125, -1.2324772215058744, 0.2140332778979091, 0.22989244635856151, 0.034318678081035614, 0.030602438375353813, 0.18779177963733673, -0.9217894673347473, -0.21240286529064178, -0.3243286609649658, 0.12113040685653687, -0.11555424332618713, -0.0007598698139190674, 0.15250001549592437, -0.5608737997453519, 0.8131157306815369,0.03173392926509083,-0.8006591796875,-0.3279571533203125,-0.3250885009765625
20220223-1417,2022-02-23 14:17:24Z,u01, 119,40,movements,el-ex, rt, d,205371.995969125, -1.232751691417493, 0.21111988843247356, 0.2307947741878205, -0.023925023153424263, -0.029561497271060944, 0.04782649129629135, -0.9224584698677063, -0.20955505967140198, -0.3242795467376709, 0.1735876202583313, -0.05089719593524933, -0.018310904502868652, 0.15159365420013882, -0.5611413350941433, 0.8130533490211107,0.032926109483783134,-0.744171142578125,-0.2478179931640625,-0.3400421142578125
20220223-1417,2022-02-23 14:17:24Z,u01, 120,40,movements,el-ex, rt, d,205372.020915125, -1.2338745413081915, 0.21237635835651983, 0.2298427267234801, -0.02387801930308342, -0.05227559804916382, -0.07313801348209381, -0.9225727915763855, -0.2107834666967392, -0.3231562376022339, 0.140239417552948, -0.039414867758750916, -0.01780146360397339, 0.15184655102517186, -0.561573235612194, 0.8127413854568931,0.032088861458561546,-0.7823333740234375,-0.2501983642578125,-0.3409576416015625
20220223-1417,2022-02-23 14:17:24Z,u01, 121,40,movements,el-ex, rt, d,205372.04586112502, -1.2346300639321606, 0.21676016794053876, 0.2303885251097596, 0.14727911353111267, -0.029220547527074814, -0.21275337040424347, -0.9219353199005127, -0.21506674587726593, -0.32215115427970886, 0.16799873113632202, 0.004541292786598206, -0.030693113803863525, 0.1537617033373872, -0.5614995585215593, 0.8124751194425072,0.03097809837639276,-0.7413330078125,-0.2068328857421875,-0.3426513671875
20220223-1417,2022-02-23 14:17:24Z,u01, 122,40,movements,el-ex, rt, d,205372.070806125, -1.2365757743749966, 0.22480122234556205, 0.2313506883171721, 0.05084262788295746, -0.09483304619789124, -0.2998482584953308, -0.9208971261978149, -0.22291259467601776, -0.3197791576385498, 0.15194565057754517, -0.05127255618572235, 0.01348942518234253, 0.15726711007773903, -0.5615847880881015, 0.8118225599962238,0.02887665946610432,-0.768951416015625,-0.2741851806640625,-0.3062896728515625
20220223-1417,2022-02-23 14:17:24Z,u01, 123,40,movements,el-ex, rt, d,205372.09575212502, -1.2377771223430942, 0.23149598295284074, 0.22893523555768872, 0.021306803449988365, -0.05189283564686775, -0.25012895464897156, -0.9198495149612427, -0.2294338494539261, -0.31817758083343506, 0.12144863605499268, -0.06635774672031403, 0.025605499744415283, 0.1592713232385784, -0.5617328978314636, 0.8114311765845951,0.025849988773741922,-0.802093505859375,-0.3085174560546875,-0.290679931640625
20220223-1417,2022-02-23 14:17:24Z,u01, 124,40,movements,el-ex, rt, d,205372.120698125, -1.2388162464921426, 0.23877607975896845, 0.23012747441820758, 0.2164633721113205, -0.034567639231681824, -0.25550055503845215, -0.9185762405395508, -0.23651361465454102, -0.316668838262558, 0.11010456085205078, -0.1437353789806366, 0.02672123908996582, 0.16251523112233002, -0.5614751865256645, 0.8110193747779588,0.02412608290173665,-0.8084716796875,-0.3802490234375,-0.289947509765625
20220223-1417,2022-02-23 14:17:24Z,u01, 125,40,movements,el-ex, rt, d,205372.14564312503, -1.239758172540838, 0.24663714636932219, 0.23234240611533497, 0.10409629344940186, 0.023202579468488693, -0.22730980813503265, -0.9170872569084167, -0.2441442608833313, -0.3151893615722656, 0.0765417218208313, -0.10990537703037262, 0.024433106184005737, 0.1662710102393274, -0.561034110307439, 0.810605621876201,0.02265118556984061,-0.825531005859375,-0.3494720458984375,-0.2891998291015625
20220223-1417,2022-02-23 14:17:24Z,u01, 126,40,movements,el-ex, rt, d,205372.17058912502, -1.2398763545887097, 0.25253767349050477, 0.2317680280063012, 0.0033707134425640106, -0.03312573954463005, -0.1950952112674713, -0.9157461524009705, -0.249861940741539, -0.3146074414253235, 0.09735637903213501, -0.08281011879444122, 0.0228441059589386, 0.16845314200446046, -0.5606423317408541, 0.810478716188334,0.020684693125599923,-0.818389892578125,-0.332672119140625,-0.2917633056640625
20220223-1417,2022-02-23 14:17:24Z,u01, 127,40,movements,el-ex, rt, d,205372.195535125, -1.2386433263743073, 0.25715170000497617, 0.229666497391029, -0.03394263610243797, 0.04093024879693985, -0.18081121146678925, -0.9142580628395081, -0.2543269395828247, -0.3153570890426636, 0.08132648468017578, -0.023291438817977905, -0.0021632015705108643, 0.16968320292972938, -0.559936661538379, 0.8107607936443032,0.018589631434424214,-0.817291259765625,-0.2679290771484375,-0.3168487548828125
20220223-1417,2022-02-23 14:17:24Z,u01, 128,40,movements,el-ex, rt, d,205372.22048012502, -1.2389946311629767, 0.2627508249492879, 0.230398912183498, 0.19063131511211395, 0.0032805372029542923, -0.17564208805561066, -0.9130080342292786, -0.25973793864250183, -0.31456705927848816, 0.02616727352142334, -0.03921222686767578, 0.0049356818199157715, 0.1721124695381734, -0.559547826466122, 0.8105472854655558,0.01722162388337517,-0.8868408203125,-0.2989501953125,-0.30963134765625
20220223-1417,2022-02-23 14:17:24Z,u01, 129,40,movements,el-ex, rt, d,205372.245426125, -1.2401044401387014, 0.2691609982926891, 0.23465484577520127, 0.18999533355236053, 0.00658811628818512, -0.11008337885141373, -0.9117630124092102, -0.2659227252006531, -0.31300652027130127, 0.04927539825439453, -0.05031558871269226, 0.02283012866973877, 0.17585201765443534, -0.5590821083057914, 0.810070942434306,0.016976470523484832,-0.8535308837890625,-0.3076324462890625,-0.2914276123046875
20220223-1417,2022-02-23 14:17:24Z,u01, 130,40,movements,el-ex, rt, d,205372.270372125, -1.2404266248027203, 0.2736457376113643, 0.23526833910608017, -0.07274109870195389, -0.0040272437036037445, -0.08483368158340454, -0.9107266664505005, -0.2702433168888092, -0.31232279539108276, 0.06783115863800049, -0.005910217761993408, 0.02309238910675049, 0.1778010344267169, -0.5587713287900943, 0.8098821618118843,0.015885264022815843,-0.8428955078125,-0.276153564453125,-0.2892303466796875
20220223-1417,2022-02-23 14:17:24Z,u01, 131,40,movements,el-ex, rt, d,205372.29531812502, -1.2390509655666457, 0.27515832738373314, 0.2304283830553868, -0.21693170070648193, -0.03071185201406479, -0.11912774294614792, -0.9099085927009583, -0.27169930934906006, -0.31344181299209595, 0.08416402339935303, 0.039079099893569946, 0.02125123143196106, 0.17703769931208435, -0.5585129748836842, 0.8102689358788366,0.013604862672795565,-0.8284759521484375,-0.22015380859375,-0.288330078125
20220223-1417,2022-02-23 14:17:24Z,u01, 132,40,movements,el-ex, rt, d,205372.320263125, -1.2385554695763459, 0.2773764618932739, 0.22356994273944922, -0.223216250538826, -0.08877228945493698, -0.18910476565361023, -0.9091812372207642, -0.27383333444595337, -0.3136953115463257, 0.08949440717697144, 0.04424962401390076, 0.043553680181503296, 0.17599774760497755, -0.5587281477159103, 0.8103968744206129,0.010222068061506245,-0.8196868896484375,-0.229583740234375,-0.2701416015625
20220223-1417,2022-02-23 14:17:24Z,u01, 133,40,movements,el-ex, rt, d,205372.34520912502, -1.2390298921928669, 0.28158132238686556, 0.21740830571611633, -0.11637819558382034, -0.032360613346099854, -0.21987593173980713, -0.9082332253456116, -0.27787503600120544, -0.312886118888855, 0.05462616682052612, 0.09776034951210022, 0.04182890057563782, 0.1759439859439716, -0.5591070196372566, 0.8101859311064171,0.006456405491209544,-0.8479766845703125,-0.17596435546875,-0.27978515625
20220223-1417,2022-02-23 14:17:24Z,u01, 134,40,movements,el-ex, rt, d,205372.370155125, -1.2384394989983905, 0.28669002338353844, 0.21397423311818947, -0.004931391216814518, -0.03300370275974274, -0.24977010488510132, -0.906694769859314, -0.28277888894081116, -0.3129550516605377, 0.11949384212493896, 0.023226916790008545, 0.04317963123321533, 0.17700713890164715, -0.5587404945526725, 0.8102249587422703,0.0036262844990192777,-0.787200927734375,-0.259552001953125,-0.269775390625
20220223-1417,2022-02-23 14:17:24Z,u01, 135,40,movements,el-ex, rt, d,205372.39510012502, -1.23884366024234, 0.2915020564302129, 0.21178720497767856, -0.049840472638607025, -0.023749081417918205, -0.20443418622016907, -0.9055241346359253, -0.2873912453651428, -0.3121415078639984, 0.03623098134994507, -0.06562083959579468, 0.08071136474609375, 0.17830305604425828, -0.5586924639912442, 0.8099809163434315,0.0013002744596505578,-0.88653564453125,-0.3650360107421875,-0.2329864501953125
20220223-1417,2022-02-23 14:17:24Z,u01, 136,40,movements,el-ex, rt, d,205372.42004612501, -1.2367525696241881, 0.29389420798467225, 0.20596703476729433, -0.2955738604068756, 0.029363539069890976, -0.19843076169490814, -0.9042174220085144, -0.28968164324760437, -0.31380805373191833, 0.0748564600944519, 0.033425599336624146, 0.04648926854133606, 0.17762613429527996, -0.5581620999895307, 0.8104946644668624,-0.0015690604779843298,-0.8293609619140625,-0.256256103515625,-0.2673187255859375
20220223-1417,2022-02-23 14:17:24Z,u01, 137,40,movements,el-ex, rt, d,205372.444992125, -1.2333049266568887, 0.29609679009705897, 0.19497125834706988, -0.35751524567604065, 0.02660510316491127, -0.24074698984622955, -0.902525782585144, -0.29178908467292786, -0.31671151518821716, 0.041991233825683594, 0.07235249876976013, 0.028778165578842163, 0.17544026212743202, -0.5575526458611093, 0.8113662165432516,-0.006363957542455334,-0.870147705078125,-0.228607177734375,-0.3137664794921875
20220223-1417,2022-02-23 14:17:24Z,u01, 138,40,movements,el-ex, rt, d,205372.46993712502, -1.231047220976274, 0.30065085716515966, 0.18870050151578008, 0.056167349219322205, -0.01778113842010498, -0.2183142453432083, -0.9005463719367981, -0.29614192247390747, -0.3183022737503052, 0.030535876750946045, 0.06597837805747986, -0.03889074921607971, 0.1755130832307824, -0.5568159677698954, 0.8118193161097641,-0.010032137974068989,-0.8700103759765625,-0.23016357421875,-0.3571929931640625
20220223-1417,2022-02-23 14:17:24Z,u01, 139,40,movements,el-ex, rt, d,205372.494883125, -1.233236380855654, 0.30757903795616415, 0.1919797257827845, 0.24218492209911346, -0.0023302100598812103, -0.20975983142852783, -0.8992833495140076, -0.30275216698646545, -0.31564295291900635, -0.04033750295639038, -0.01379135251045227, 0.01884421706199646, 0.1791677815249178, -0.5568459716654539, 0.8109885683095748,-0.01090619008943186,-0.9503936767578125,-0.3236541748046875,-0.2976226806640625
20220223-1417,2022-02-23 14:17:24Z,u01, 140,40,movements,el-ex, rt, d,205372.519829125, -1.2324231980784572, 0.3131742613762127, 0.1919829291413874, -0.0953599289059639, 0.03851023316383362, -0.20640766620635986, -0.8974143862724304, -0.3080800473690033, -0.3158068358898163, 0.033293962478637695, 0.05229702591896057, 0.013713330030441284, 0.1813943772000882, -0.5560509477779614, 0.8110167624660717,-0.012455953149134835,-0.8641204833984375,-0.2557830810546875,-0.302093505859375
20220223-1417,2022-02-23 14:17:25Z,u01, 141,40,movements,el-ex, rt, d,205372.544774125, -1.2290475533360978, 0.3163859422833414, 0.1849481016912217, -0.23158426582813263, -0.006886945106089115, -0.1969010978937149, -0.8954064249992371, -0.3111339211463928, -0.31850117444992065, 0.05971306562423706, 0.09484058618545532, -0.03464829921722412, 0.18073986964268507, -0.5550518163201157, 0.8117860670971463,-0.01593518456021037,-0.832244873046875,-0.2248687744140625,-0.3524627685546875
20220223-1417,2022-02-23 14:17:25Z,u01, 142,40,movements,el-ex, rt, d,205372.569720125, -1.2294965527440924, 0.32023546180209217, 0.18146366657151314, 0.06527628749608994, -0.050416044890880585, -0.18211629986763, -0.8944141268730164, -0.3147900700569153, -0.31769585609436035, -0.07239800691604614, 0.030518829822540283, 0.011345088481903076, 0.18129884238130728, -0.5552322026208989, 0.8114835591650724,-0.01850397068369583,-0.9668121337890625,-0.284271240234375,-0.3063507080078125
20220223-1417,2022-02-23 14:17:25Z,u01, 143,40,movements,el-ex, rt, d,205372.59466612502, -1.2302104356500407, 0.3245358419391624, 0.1819623598931685, 0.030883265659213066, -0.002837676554918289, -0.12091398984193802, -0.8933563232421875, -0.3188689053058624, -0.31660211086273193, -0.03520190715789795, 0.019262641668319702, 0.0069401562213897705, 0.18313881460741152, -0.555120818088078, 0.8111203866485633,-0.019611622203651702,-0.908050537109375,-0.301422119140625,-0.326080322265625
20220223-1417,2022-02-23 14:17:25Z,u01, 144,40,movements,el-ex, rt, d,205372.619611125, -1.2299264377752208, 0.3218875137648055, 0.18151874104868596, 0.03874834626913071, -0.06488140672445297, -0.07651197910308838, -0.8940591812133789, -0.31635770201683044, -0.3171370029449463, 0.011460363864898682, -0.02116665244102478, -0.029786795377731323, 0.18196653989118455, -0.5552654050907643, 0.811299853628113,-0.018998878342085024,-0.882598876953125,-0.3375244140625,-0.346923828125
20220223-1417,2022-02-23 14:17:25Z,u01, 145,40,movements,el-ex, rt, d,205372.64455712502, -1.232172594038757, 0.3200340925919498, 0.18112610826074824, -0.06567000597715378, -0.17381788790225983, -0.008134113624691963, -0.8953208327293396, -0.3145989179611206, -0.31532227993011475, 0.012111663818359375, -0.05577763915061951, 0.014495253562927246, 0.18110007286281926, -0.5563646466926189, 0.8107445890109879,-0.01882498660504711,-0.8899383544921875,-0.366607666015625,-0.2876129150390625
20220223-1417,2022-02-23 14:17:25Z,u01, 146,40,movements,el-ex, rt, d,205372.669503125, -1.2354744508321998, 0.31621941819730065, 0.17616303844230077, -0.336604505777359, -0.15679427981376648, 0.07125192135572433, -0.8974838852882385, -0.31097567081451416, -0.3127570152282715, 0.039039671421051025, 0.01306307315826416, 0.013364195823669434, 0.178170358764742, -0.558459327699787, 0.8099244103280534,-0.02002528417985891,-0.8584442138671875,-0.29791259765625,-0.2993927001953125
20220223-1417,2022-02-23 14:17:25Z,u01, 147,40,movements,el-ex, rt, d,205372.69444812502, -1.2367866892803028, 0.3122724656670264, 0.16780994488871315, -0.38451850414276123, -0.20675678551197052, 0.04124981537461281, -0.8990460634231567, -0.3072219789028168, -0.3119789659976959, 0.06158268451690674, 0.05937349796295166, 0.0015693902969360352, 0.17425337281349135, -0.5600413124280679, 0.8096226677896493,-0.022376055616066454,-0.8508758544921875,-0.2425689697265625,-0.31072998046875
20220223-1417,2022-02-23 14:17:25Z,u01, 148,40,movements,el-ex, rt, d,205372.71939412502, -1.2392390576584122, 0.31127798040802485, 0.15836442301850095, -0.32048624753952026, -0.2918378412723541, -0.0045738667249679565, -0.9000967741012573, -0.30627545714378357, -0.30987250804901123, 0.0283164381980896, 0.10299792885780334, -0.009402364492416382, 0.1711791586922374, -0.561926540822542, 0.8088596176854154,-0.026120525368270114,-0.8717803955078125,-0.203277587890625,-0.31927490234375
20220223-1417,2022-02-23 14:17:25Z,u01, 149,40,movements,el-ex, rt, d,205372.744340125, -1.245929326604479, 0.3110280531213918, 0.15888883986620705, 0.4895547330379486, -0.21109840273857117, 0.04856937751173973, -0.9022224545478821, -0.3060375154018402, -0.30386820435523987, 0.012070417404174805, 0.1399608850479126, -0.04908287525177002, 0.17113980202345067, -0.564603456784083, 0.8069924551147144,-0.02640832800358403,-0.865814208984375,-0.1610107421875,-0.3617706298828125
20220223-1417,2022-02-23 14:17:25Z,u01, 150,40,movements,el-ex, rt, d,205372.76928512502, -1.2595867897812543, 0.3198971667625515, 0.18779051916721196, 1.7352226972579956, -0.1495780497789383, -0.1249384954571724, -0.9036687016487122, -0.31446895003318787, -0.2906755805015564, 0.16711169481277466, 0.15257322788238525, -0.05925428867340088, 0.18266101814249425, -0.566830805968605, 0.8031141367310856,-0.01858901631683227,-0.7365570068359375,-0.161895751953125,-0.3499298095703125
20220223-1417,2022-02-23 14:17:25Z,u01, 151,40,movements,el-ex, rt, d,205372.794231125, -1.2786088710286463, 0.33862583087693043, 0.2303580739432748, 1.5509995222091675, -0.22346006333827972, -0.2847979962825775, -0.9032350182533264, -0.33219125866889954, -0.2716900408267975, 0.1531893014907837, 0.03552994132041931, 0.05103263258934021, 0.20191902700722641, -0.568668350744896, 0.7973485794779133,-0.008960912460711373,-0.8035430908203125,-0.33416748046875,-0.197479248046875
20220223-1417,2022-02-23 14:17:25Z,u01, 152,40,movements,el-ex, rt, d,205372.819177125, -1.290225156362903, 0.3542207919255784, 0.25669688443342453, 0.7762768864631653, -0.03532211482524872, -0.21773481369018555, -0.9012420773506165, -0.3468596339225769, -0.25971347093582153, -0.03483879566192627, -0.04895332455635071, 0.08265045285224915, 0.21537903110962342, -0.5689948492264111, 0.7936229457433169,-0.004393849819527174,-0.9360809326171875,-0.39581298828125,-0.17706298828125
20220223-1417,2022-02-23 14:17:25Z,u01, 153,40,movements,el-ex, rt, d,205372.844122125, -1.2977989065351894, 0.3597811739106417, 0.2770907082814433, 1.0510121583938599, -0.05870340019464493, 0.12682916224002838, -0.9013120532035828, -0.3520694375038147, -0.2523564100265503, -0.035531818866729736, 0.08894693851470947, -0.02777978777885437, 0.22329997102457183, -0.5691738934701469, 0.7913133707709639,0.0011693081357387891,-0.94189453125,-0.273040771484375,-0.30157470703125
20220223-1417,2022-02-23 14:17:25Z,u01, 154,40,movements,el-ex, rt, d,205372.86906762503, -1.310835240396566, 0.3660569648983323, 0.3088948576880214, 1.169209599494934, -0.015347541309893131, 0.03179039806127548, -0.9023720622062683, -0.35793644189834595, -0.24001280963420868, -0.09530854225158691, -0.042972952127456665, 0.01036795973777771, 0.23477174912221135, -0.5699787929410205, 0.787337328491497,0.0103097630402261,-0.9976806640625,-0.400909423828125,-0.229644775390625
20220223-1417,2022-02-23 14:17:25Z,u01, 155,40,movements,el-ex, rt, d,205372.89401362502, -1.3163766202452114, 0.3698893854369659, 0.3267968088446217, 0.1355433613061905, 0.009721526876091957, 0.06730864942073822, -0.9023540616035461, -0.36151230335235596, -0.23466180264949799, 0.04722100496292114, -0.07084548473358154, 0.0850493311882019, 0.24134689159265896, -0.5695794705314071, 0.7855510417694926,0.015509954606908571,-0.8266448974609375,-0.4285736083984375,-0.15875244140625
20220223-1417,2022-02-23 14:17:25Z,u01, 156,40,movements,el-ex, rt, d,205372.918958625, -1.3167694613502106, 0.3654560567136632, 0.3226000857453561, -0.39386337995529175, -0.14109495282173157, 0.15844541788101196, -0.9039884805679321, -0.35737526416778564, -0.2347077578306198, -0.040255844593048096, -0.02894669771194458, 0.04148566722869873, 0.23849230273438904, -0.5707604962027264, 0.7855720235874017,0.015181929284845769,-0.944244384765625,-0.386322021484375,-0.1932220458984375
20220223-1417,2022-02-23 14:17:25Z,u01, 157,40,movements,el-ex, rt, d,205372.94390462502, -1.316092053367729, 0.357416133291204, 0.31482758548284406, -0.260274201631546, 0.004142336547374725, 0.3320158123970032, -0.9065806865692139, -0.34985482692718506, -0.23603641986846924, -0.16188549995422363, 0.028901487588882446, 0.05384641885757446, 0.2332474640441356, -0.572343788554337, 0.786004184060808,0.01468709741573851,-1.0529937744140625,-0.3130645751953125,-0.189361572265625
20220223-1417,2022-02-23 14:17:25Z,u01, 158,40,movements,el-ex, rt, d,205372.968850625, -1.3157599391326553, 0.3487754356220009, 0.3122992101791582, -0.1697893589735031, -0.06844724714756012, 0.3040437698364258, -0.9093934893608093, -0.3417472243309021, -0.2370912730693817, -0.0236356258392334, 0.011287689208984375, -0.011810168623924255, 0.22926905953537474, -0.5734893734639215, 0.7863057979532737,0.01639433457218245,-0.9330291748046875,-0.3304595947265625,-0.2489013671875
20220223-1417,2022-02-23 14:17:25Z,u01, 159,40,movements,el-ex, rt, d,205372.99379562502, -1.3189801450751255, 0.3406303280350681, 0.31179134012005105, 0.00558080431073904, -0.16827064752578735, 0.2904069125652313, -0.9128178954124451, -0.3340812623500824, -0.23484742641448975, -0.05271250009536743, 0.060109734535217285, 0.00884944200515747, 0.22608321291573857, -0.5757279449933768, 0.7855491264030343,0.018339973277702065,-0.9915313720703125,-0.2675933837890625,-0.2127532958984375
20220223-1417,2022-02-23 14:17:25Z,u01, 160,40,movements,el-ex, rt, d,205373.018741625, -1.3226230032928545, 0.3344090137154036, 0.3132220424109154, -0.12109478563070297, -0.059572793543338776, 0.2386581003665924, -0.9156643152236938, -0.3282109797000885, -0.23202663660049438, -0.13108855485916138, -0.030599385499954224, 0.0859847217798233, 0.22418871678953942, -0.5776903153035933, 0.7845996168647501,0.020413864504485985,-1.0467529296875,-0.3588104248046875,-0.1460418701171875
20220223-1417,2022-02-23 14:17:25Z,u01, 161,40,movements,el-ex, rt, d,205373.043687625, -1.3223829215511047, 0.3272891550367086, 0.31008498397790973, -0.1626030057668686, -0.02081301435828209, 0.27655261754989624, -0.9178504943847656, -0.3214772641658783, -0.23281513154506683, -0.06867599487304688, 0.024358153343200684, 0.03155159950256348, 0.22059748153140893, -0.5787306692037236, 0.7848242557505979,0.02141172316865006,-0.974853515625,-0.2841949462890625,-0.220306396484375
20220223-1417,2022-02-23 14:17:25Z,u01, 162,40,movements,el-ex, rt, d,205373.068632625, -1.3237137247374546, 0.3204312873758434, 0.3094243480906114, -0.03159302845597267, -0.08072874695062637, 0.26872003078460693, -0.9202756285667419, -0.31497591733932495, -0.23212721943855286, -0.09277057647705078, 0.03523653745651245, 0.022700250148773193, 0.217835023631004, -0.5800726629161019, 0.784556441939586,0.023127979695483886,-1.0130462646484375,-0.2797393798828125,-0.2094268798828125
20220223-1417,2022-02-23 14:17:25Z,u01, 163,40,movements,el-ex, rt, d,205373.093578625, -1.3255928653222628, 0.3142746754469397, 0.3118176972132035, 0.012610584497451782, -0.014653720892965794, 0.21026061475276947, -0.9225738048553467, -0.30912676453590393, -0.23086382448673248, -0.12071532011032104, 0.03460592031478882, 0.05296160280704498, 0.21623103338580152, -0.5812161638927713, 0.7840713130141804,0.025768680011308776,-1.0408477783203125,-0.2822418212890625,-0.1685638427734375
20220223-1417,2022-02-23 14:17:25Z,u01, 164,40,movements,el-ex, rt, d,205373.11852462502, -1.325324393185069, 0.3098882652246303, 0.31014813120914414, -0.15735864639282227, 0.03823419660329819, 0.11983104050159454, -0.9238182306289673, -0.3049522340297699, -0.2314387857913971, -0.15412360429763794, 0.03589406609535217, 0.023415639996528625, 0.2140872593729698, -0.5817621945866589, 0.7842301880877599,0.026501513759021933,-1.07794189453125,-0.2690582275390625,-0.2080230712890625
20220223-1417,2022-02-23 14:17:25Z,u01, 165,40,movements,el-ex, rt, d,205373.143469625, -1.3226991764536484, 0.3075810404137827, 0.309225449121505, 0.08834093064069748, 0.13042230904102325, 0.07396914064884186, -0.9238869547843933, -0.30275410413742065, -0.23403534293174744, -0.08976948261260986, 0.05305933952331543, -0.009769633412361145, 0.21291230660674243, -0.5810771711660697, 0.7850358279806541,0.027133649027875212,-0.9871368408203125,-0.2519378662109375,-0.2436981201171875
20220223-1417,2022-02-23 14:17:25Z,u01, 166,40,movements,el-ex, rt, d,205373.16841562503, -1.3221324519700997, 0.3060350689516176, 0.31567441724328554, 0.2952905595302582, 0.14068487286567688, 0.08705172687768936, -0.9242068529129028, -0.30128031969070435, -0.23467384278774261, -0.025774776935577393, 0.02009144425392151, 0.023080185055732727, 0.21419234742810123, -0.5803315597334886, 0.7851271560853096,0.030203549211636233,-0.949981689453125,-0.28118896484375,-0.2115936279296875
20220223-1417,2022-02-23 14:17:25Z,u01, 167,40,movements,el-ex, rt, d,205373.19336162502, -1.3213782169206438, 0.30408124727095137, 0.3215223119674852, 0.032443542033433914, 0.1405893862247467, 0.11568163335323334, -0.9245981574058533, -0.2994166910648346, -0.23551566898822784, -0.04413646459579468, 0.01529809832572937, 0.06624987721443176, 0.21513806054115608, -0.5796186520055749, 0.7852747906462206,0.03318413897465458,-0.9857025146484375,-0.296966552734375,-0.1656646728515625
20220223-1417,2022-02-23 14:17:25Z,u01, 168,40,movements,el-ex, rt, d,205373.218306625, -1.3163549847123095, 0.2980731342198835, 0.3177467175137745, -0.3329228460788727, 0.19363823533058167, 0.1401691436767578, -0.9251279234886169, -0.2936788499355316, -0.24060563743114471, -0.06181049346923828, -0.040290266275405884, 0.022450685501098633, 0.21168668904060067, -0.5786932899243614, 0.7868549808432678,0.034089385500759434,-0.9869384765625,-0.3339691162109375,-0.2181549072265625
20220223-1417,2022-02-23 14:17:25Z,u01, 169,40,movements,el-ex, rt, d,205373.24325262502, -1.3109449058443416, 0.29146478338830584, 0.31404388975653524, 0.0517411082983017, 0.13328254222869873, 0.2711562514305115, -0.9256680011749268, -0.28735554218292236, -0.24610038101673126, 0.0031980276107788086, -0.02755531668663025, -0.026009663939476013, 0.20801300261032363, -0.5776507629686245, 0.7885486466580315,0.035229942081730664,-0.90924072265625,-0.3174285888671875,-0.2852020263671875
20220223-1417,2022-02-23 14:17:25Z,u01, 170,40,movements,el-ex, rt, d,205373.268198625, -1.3115393938488968, 0.2866295879426281, 0.3243338370971311, 0.44275328516960144, 0.11274117976427078, 0.27100619673728943, -0.927146315574646, -0.2827209234237671, -0.2459033578634262, -0.03550010919570923, -0.043115198612213135, 0.007316902279853821, 0.20915689771664686, -0.5773228840346796, 0.788222359703926,0.040708031749970175,-0.962646484375,-0.325836181640625,-0.23858642578125
20220223-1417,2022-02-23 14:17:25Z,u01, 171,40,movements,el-ex, rt, d,205373.293144625, -1.3107482448360745, 0.28163985983056194, 0.33213066070575553, -0.053997937589883804, 0.14934787154197693, 0.28545111417770386, -0.9283033609390259, -0.277931272983551, -0.24699649214744568, -0.019191265106201172, -0.031120210886001587, 0.0717797577381134, 0.20949306264089013, -0.5767273301711503, 0.7883131819661151,0.04539494696606927,-0.9482574462890625,-0.2984466552734375,-0.169189453125
20220223-1417,2022-02-23 14:17:25Z,u01, 172,40,movements,el-ex, rt, d,205373.318089625, -1.304221914674269, 0.2717268403126748, 0.3254605322218826, -0.5476119518280029, 0.21735501289367676, 0.3758280277252197, -0.929283857345581, -0.2683953046798706, -0.2537629306316376, 0.010521650314331055, -0.047888875007629395, 0.050775229930877686, 0.20364476234090828, -0.5758883111939449, 0.7903936039921087,0.04647057218983727,-0.91876220703125,-0.3162841796875,-0.2029876708984375
20220223-1417,2022-02-23 14:17:25Z,u01, 173,40,movements,el-ex, rt, d,205373.343035625, -1.2972723061321194, 0.2591407761703205, 0.3184821048852392, -0.15435290336608887, 0.19266390800476074, 0.45055803656578064, -0.9306766390800476, -0.2562501132488251, -0.2611067295074463, 0.012006044387817383, -0.02728864550590515, 0.0017683804035186768, 0.19665284410579123, -0.5751298061408425, 0.7926072905242139,0.048238539795018576,-0.9328765869140625,-0.280242919921875,-0.26568603515625
20220223-1417,2022-02-23 14:17:25Z,u01, 174,40,movements,el-ex, rt, d,205373.36798062501, -1.292861674707659, 0.24865815455968032, 0.3226346888375205, 0.13073070347309113, 0.23857881128787994, 0.4542032480239868, -0.9320480823516846, -0.24610359966754913, -0.26593151688575745, -0.01939857006072998, -0.012777015566825867, -0.001707702875137329, 0.1937039764295157, -0.5740322373543875, 0.7937909332225482,0.05349639814899129,-0.951446533203125,-0.258880615234375,-0.26763916015625
20220223-1417,2022-02-23 14:17:25Z,u01, 175,40,movements,el-ex, rt, d,205373.392926625, -1.2883630263339123, 0.23799686993854108, 0.32670158015183276, -0.17806173861026764, 0.22022409737110138, 0.470991313457489, -0.9333090782165527, -0.23575644195079803, -0.27083760499954224, 0.01512676477432251, 0.0023732781410217285, 0.006448537111282349, 0.19063508411411761, -0.5729218654038598, 0.7949623280810902,0.058768036351994596,-0.913238525390625,-0.236480712890625,-0.26849365234375
20220223-1417,2022-02-23 14:17:25Z,u01, 176,40,movements,el-ex, rt, d,205373.41787262502, -1.2818702852648869, 0.2225823022922257, 0.3189577228029721, -0.6922174096107483, 0.138883575797081, 0.5629588961601257, -0.934903621673584, -0.22074896097183228, -0.2778940796852112, 0.060651302337646484, -0.034103333950042725, -0.0033864974975585938, 0.18225877491083503, -0.5725685103644699, 0.7970157549895345,0.06093355993451552,-0.8742523193359375,-0.254852294921875,-0.281280517578125
20220223-1417,2022-02-23 14:17:25Z,u01, 177,40,movements,el-ex, rt, d,205373.442817625, -1.2760860978264654, 0.2039500222277224, 0.3038648663655342, -0.8902093172073364, 0.13074442744255066, 0.5172989964485168, -0.9370540380477905, -0.20253905653953552, -0.2844424843788147, -0.015246927738189697, -0.02107846736907959, 0.00932648777961731, 0.17050753692450402, -0.573328819739376, 0.7990615799196003,0.061005993129220754,-0.966949462890625,-0.2144927978515625,-0.27398681640625
20220223-1417,2022-02-23 14:17:25Z,u01, 178,40,movements,el-ex, rt, d,205373.467763625, -1.267646129468498, 0.18415011018371508, 0.28394129902169873, -0.9942769408226013, 0.2130872905254364, 0.5739269852638245, -0.9382640719413757, -0.18311108648777008, -0.2934808135032654, 0.017884433269500732, 0.033986955881118774, 0.009514689445495605, 0.1567831775180973, -0.573305007315567, 0.8019884502647155,0.05962403482664455,-0.920379638671875,-0.1491241455078125,-0.283966064453125
20220223-1417,2022-02-23 14:17:25Z,u01, 179,40,movements,el-ex, rt, d,205373.49270962502, -1.2598081291522882, 0.16450188575870087, 0.269804128485592, -0.443428635597229, 0.2137361764907837, 0.615464448928833, -0.9391791820526123, -0.1637609601020813, -0.30186858773231506, 0.04113847017288208, 0.06344971060752869, -0.035320162773132324, 0.14474531000555885, -0.5728127997783916, 0.8045440867903272,0.06035741950494278,-0.8936309814453125,-0.0929412841796875,-0.3660888671875
20220223-1417,2022-02-23 14:17:25Z,u01, 180,40,movements,el-ex, rt, d,205373.517655625, -1.2562566842042369, 0.14988466982110707, 0.2732018938124017, 0.2961779236793518, 0.12408192455768585, 0.5642192959785461, -0.9402772188186646, -0.14932408928871155, -0.30591005086898804, -0.0074460506439208984, 0.05650492012500763, -0.07572755217552185, 0.139813908280299, -0.5722735738788823, 0.8053327849669845,0.06628765977785059,-0.947723388671875,-0.0928192138671875,-0.3816375732421875
20220223-1417,2022-02-23 14:17:26Z,u01, 181,40,movements,el-ex, rt, d,205373.54260062502, -1.2552821515590777, 0.14127998109482892, 0.2878739888422545, 0.45530518889427185, 0.14433592557907104, 0.4592280983924866, -0.9411653876304626, -0.14081045985221863, -0.30721360445022583, -0.06683015823364258, 0.041841983795166016, 0.007942914962768555, 0.14056223986406158, -0.571520295995126, 0.804992377151433,0.07479402399889781,-1.0081939697265625,-0.1004486083984375,-0.2831573486328125
20220223-1417,2022-02-23 14:17:26Z,u01, 182,40,movements,el-ex, rt, d,205373.567546625, -1.2529870349896093, 0.1327276564668098, 0.29750999772816145, 0.04591337963938713, 0.14144153892993927, 0.4677560031414032, -0.9415673613548279, -0.13233830034732819, -0.3097378611564636, -0.03279787302017212, 0.0034168362617492676, 0.023757576942443848, 0.13983147333488444, -0.5705946216999855, 0.8051409676613871,0.08134478904871653,-0.974365234375,-0.1289215087890625,-0.285980224609375
20220223-1417,2022-02-23 14:17:26Z,u01, 183,40,movements,el-ex, rt, d,205373.592492625, -1.2501998268862218, 0.12151536951353005, 0.30150275520141034, 0.0004327138885855675, 0.1264471411705017, 0.46348559856414795, -0.9420495629310608, -0.1212165430188179, -0.3128089904785156, -0.04624706506729126, -0.0208122581243515, -0.04940417408943176, 0.13640044687535427, -0.5700793076349868, 0.805564886008528,0.0864285708629588,-0.9897308349609375,-0.134124755859375,-0.3678131103515625
20220223-1417,2022-02-23 14:17:26Z,u01, 184,40,movements,el-ex, rt, d,205373.617437625, -1.2488139182970925, 0.11074484420620223, 0.3041142446279913, -0.1451708823442459, 0.010704964399337769, 0.42429256439208984, -0.9427987933158875, -0.11051861196756363, -0.31450918316841125, -0.06185507774353027, 0.0013267472386360168, 0.01465865969657898, 0.13280032955241727, -0.5701837311698138, 0.8056204848956294,0.0907205110947232,-1.0046539306640625,-0.10919189453125,-0.2998504638671875
20220223-1417,2022-02-23 14:17:26Z,u01, 185,40,movements,el-ex, rt, d,205373.642383625, -1.2483905695448352, 0.09808442201254892, 0.2992811181887578, -0.5371691584587097, -0.005874810740351677, 0.47929587960243225, -0.9439171552658081, -0.09792722761631012, -0.31532636284828186, -0.0956183671951294, -0.0056189000606536865, 0.12207376956939697, 0.12635982570967108, -0.5712880243698545, 0.8056723845035485,0.09249451510619003,-1.0311279296875,-0.1151123046875,-0.1940765380859375
20220223-1417,2022-02-23 14:17:26Z,u01, 186,40,movements,el-ex, rt, d,205373.66732962502, -1.2476439330789224, 0.08116211669869267, 0.2863294496245574, -0.8514562845230103, -0.007649607956409454, 0.4825773537158966, -0.9451176524162292, -0.08107303828001022, -0.31651201844215393, -0.04800063371658325, -0.05439448356628418, 0.015745997428894043, 0.11586622727718095, -0.5729912809466874, 0.8060680103888229,0.09225190892684418,-0.9931182861328125,-0.135467529296875,-0.3007659912109375
20220223-1417,2022-02-23 14:17:26Z,u01, 187,40,movements,el-ex, rt, d,205373.692274625, -1.2473525837914485, 0.06274803009751201, 0.27214415022740507, -0.5684318542480469, -0.06418285518884659, 0.5580127835273743, -0.9462804794311523, -0.06270686537027359, -0.31720808148384094, -0.040062785148620605, -0.029868178069591522, -0.03646013140678406, 0.10441316677518714, -0.5748859395385799, 0.8063229312034697,0.09190918786916347,-0.9949188232421875,-0.0785675048828125,-0.36212158203125
20220223-1417,2022-02-23 14:17:26Z,u01, 188,40,movements,el-ex, rt, d,205373.71722062503, -1.2487063614297362, 0.048559090383055045, 0.26800286352636526, -0.20743253827095032, -0.046477366238832474, 0.45276227593421936, -0.9474577903747559, -0.04854000732302666, -0.3161765933036804, -0.09541940689086914, 0.04315367341041565, 0.028655171394348145, 0.09759681129683788, -0.5765297558400768, 0.8057269652853903,0.09429934452157884,-1.042877197265625,-0.0053863525390625,-0.2875213623046875
20220223-1417,2022-02-23 14:17:26Z,u01, 189,40,movements,el-ex, rt, d,205373.74216662502, -1.2492255523577205, 0.03664803817328384, 0.26409655524212555, -0.4413234293460846, -0.008923597633838654, 0.3539464771747589, -0.9481030106544495, -0.03663983568549156, -0.31584495306015015, -0.08148366212844849, 0.021777812391519547, 0.07371845841407776, 0.09171651200810864, -0.5776379511991839, 0.805403338359525,0.09616554321482398,-1.0230560302734375,-0.0164337158203125,-0.242218017578125
20220223-1417,2022-02-23 14:17:26Z,u01, 190,40,movements,el-ex, rt, d,205373.767111625, -1.2491535256972512, 0.02544430171750717, 0.25579880700346236, -0.42186346650123596, 0.009057268500328064, 0.2891211211681366, -0.9484102129936218, -0.02544155716896057, -0.31602320075035095, -0.06913727521896362, 0.019277039915323257, 0.006361335515975952, 0.08481569464816228, -0.5786144685775859, 0.805468402914457,0.09608398505895971,-1.017547607421875,-0.00616455078125,-0.309661865234375
20220223-1417,2022-02-23 14:17:26Z,u01, 191,40,movements,el-ex, rt, d,205373.79205762502, -1.248845279550808, 0.017254792351622784, 0.2515149715071224, -0.09659875929355621, 0.004509786143898964, 0.2413121908903122, -0.9484785795211792, -0.01725393533706665, -0.3163708448410034, -0.05590057373046875, 0.015773864462971687, 0.002589017152786255, 0.08026916351988866, -0.5791126328605323, 0.8054965030033883,0.09675071696853424,-1.00286865234375,-0.0027923583984375,-0.3062591552734375
20220223-1417,2022-02-23 14:17:26Z,u01, 192,40,movements,el-ex, rt, d,205373.817003625, -1.2488037834557164, 0.013264089724407482, 0.2553965092582055, 0.23451292514801025, 0.025015994906425476, 0.17279745638370514, -0.9485232830047607, -0.013263700529932976, -0.3164294958114624, -0.05948752164840698, -0.005138366483151913, 0.018272727727890015, 0.07978639597462926, -0.5791540280348142, 0.8051829830409918,0.09947405203730927,-1.0080108642578125,-0.018402099609375,-0.29815673828125
20220223-1417,2022-02-23 14:17:26Z,u01, 193,40,movements,el-ex, rt, d,205373.84194862502, -1.248044425879173, 0.011702514528093427, 0.26250643389226325, 0.21618278324604034, 0.03966577351093292, 0.17121288180351257, -0.9483012557029724, -0.011702246963977814, -0.3171558380126953, -0.03695875406265259, 0.023833006620407104, 0.04132264852523804, 0.08117809521046698, -0.5786468635704738, 0.8049882175661194,0.10281968192246355,-0.9811248779296875,0.0108642578125,-0.2750396728515625
20220223-1417,2022-02-23 14:17:26Z,u01, 194,40,movements,el-ex, rt, d,205373.866895, -1.2472041937676108, 0.008621514434109441, 0.2667275612259515, 0.0020661307498812675, 0.052009329199790955, 0.18417908251285553, -0.9480640292167664, -0.00862140767276287, -0.3179624676704407, -0.030497252941131592, -0.0077359965071082115, 0.038604527711868286, 0.08111646043020866, -0.5783069186263039, 0.8048989605316583,0.10544548042645546,-0.9785614013671875,-0.016357421875,-0.27935791015625
20220223-1417,2022-02-23 14:17:26Z,u01, 195,40,movements,el-ex, rt, d,205373.891841, -1.2456493001147022, 0.0035565291600291316, 0.2658949835647641, -0.14339976012706757, 0.07674124091863632, 0.19128671288490295, -0.9475977420806885, -0.0035565216094255447, -0.3194460868835449, -0.022952735424041748, -0.026854217052459717, 0.04478788375854492, 0.07875573883206206, -0.5779917728666772, 0.8052026431341792,0.10663831412806327,-0.9665069580078125,-0.0258026123046875,-0.27325439453125
20220223-1417,2022-02-23 14:17:26Z,u01, 196,40,movements,el-ex, rt, d,205373.91678600002, -1.243819333961013, -0.0009690684002530258, 0.2660964666328776, 0.04820786044001579, 0.0800863727927208, 0.15518243610858917, -0.9470171332359314, 0.0009690682636573911, -0.3211815059185028, -0.002766132354736328, 0.0095747709274292, 0.015212267637252808, 0.07689353071499873, -0.5774916786809304, 0.8055466655797038,0.10809828730172577,-0.9497833251953125,0.0105438232421875,-0.30596923828125
20220223-1417,2022-02-23 14:17:26Z,u01, 197,40,movements,el-ex, rt, d,205373.941732, -1.243179146838438, -0.0033456933066103615, 0.2706969244793682, 0.22057783603668213, 0.10049483925104141, 0.16774684190750122, -0.9468064308166504, 0.003345687175169587, -0.3217860460281372, -0.0003522634506225586, 0.01911526918411255, -0.0015935003757476807, 0.07722918170572292, -0.5771850919395719, 0.8053862365553731,0.11066149218098095,-0.9473876953125,0.0194244384765625,-0.3224334716796875
20220223-1417,2022-02-23 14:17:26Z,u01, 198,40,movements,el-ex, rt, d,205373.96667800003, -1.245813889721566, 0.0009225977947791744, 0.27806193136886653, 0.3146587610244751, 0.13939422369003296, 0.1822652518749237, -0.9476559162139893, -0.0009225976536981761, -0.31929197907447815, 0.004784882068634033, -0.0035939812660217285, -0.01965150237083435, 0.08122046075942307, -0.5777172672708094, 0.8043861636328199,0.11228903770398421,-0.94287109375,-0.0045166015625,-0.3389434814453125
20220223-1417,2022-02-23 14:17:26Z,u01, 199,40,movements,el-ex, rt, d,205373.991623, -1.2422683687610943, -8.817999285754729e-05, 0.28956222568876644, 0.5241754651069641, 0.13760186731815338, 0.17553085088729858, -0.9465183019638062, 8.817999332677573e-05, -0.32265007495880127, -0.0029292702674865723, 0.010608255863189697, -0.025463998317718506, 0.08392697887168767, -0.5758743183790724, 0.8047069368915911,0.11735323130400013,-0.95050048828125,0.0202178955078125,-0.344696044921875
20220223-1417,2022-02-23 14:17:26Z,u01, 200,40,movements,el-ex, rt, d,205374.016569, -1.2394837478076093, 0.00042748790994886907, 0.304122550643624, 0.5773079991340637, 0.08897360414266586, 0.15800751745700836, -0.9456161260604858, -0.00042748788837343454, -0.325284481048584, -0.02047884464263916, -0.02479526400566101, -0.013460695743560791, 0.08815300357676656, -0.5740965133823481, 0.8046541033839425,0.12318300225958956,-0.966094970703125,-0.0252227783203125,-0.3387451171875
20220223-1417,2022-02-23 14:17:26Z,u01, 201,40,movements,el-ex, rt, d,205374.04151500002, -1.237223568609769, 0.0017137345141234584, 0.3167306063365303, 0.3836766183376312, 0.10366879403591156, 0.11362873762845993, -0.9448772668838501, -0.0017137336544692516, -0.3274204730987549, -0.0380481481552124, -0.02837654948234558, -0.017245054244995117, 0.09214269798258015, -0.5725377573283753, 0.8045677935231332,0.12798838055573547,-0.9819793701171875,-0.023223876953125,-0.3441009521484375
20220223-1417,2022-02-23 14:17:26Z,u01, 202,40,movements,el-ex, rt, d,205374.06646, -1.2345790338319655, 0.0005976209501972249, 0.322002745991125, -0.028248365968465805, 0.1137552484869957, 0.11932283639907837, -0.9440093040466309, -0.0005976209067739546, -0.3299185037612915, -0.040121614933013916, -0.047864288091659546, -0.0009073913097381592, 0.09303035243743708, -0.5713021043760186, 0.804932112003752,0.1305514316143985,-0.984130859375,-0.0484619140625,-0.3308258056640625
20220223-1417,2022-02-23 14:17:26Z,u01, 203,40,movements,el-ex, rt, d,205374.09140600002, -1.2319030208483415, -0.004426858299536456, 0.3198041861293569, -0.2060287445783615, 0.09915446490049362, 0.19869409501552582, -0.9431139230728149, 0.004426843952387571, -0.3324402868747711, -0.04240548610687256, -0.03590571880340576, 0.004940807819366455, 0.09020410257941659, -0.5706514504486649, 0.8056058235684209,0.1312226091937304,-0.9864044189453125,-0.032196044921875,-0.3310546875
20220223-1417,2022-02-23 14:17:26Z,u01, 204,40,movements,el-ex, rt, d,205374.116352, -1.2298518438314572, -0.010431901026930321, 0.31791247963558966, -0.06986767798662186, 0.07209202647209167, 0.2055044025182724, -0.9423879384994507, 0.010431711561977863, -0.33435913920402527, -0.05671173334121704, -0.03917926549911499, -0.01634886860847473, 0.08710788298863009, -0.5702917212082145, 0.8060312631065191,0.13226131479187733,-0.9990997314453125,-0.02874755859375,-0.3507080078125
20220223-1417,2022-02-23 14:17:26Z,u01, 205,40,movements,el-ex, rt, d,205374.14129700002, -1.2282050102728295, -0.014497114006221033, 0.31973855074484253, 0.07664515823125839, 0.05489859730005264, 0.14751186966896057, -0.9417883157730103, 0.014496605843305588, -0.3358936309814453, -0.05456477403640747, -0.042664289474487305, -0.041852980852127075, 0.0858778212942719, -0.5698053935600129, 0.8061827724600834,0.13422393686266965,-0.9940643310546875,-0.0237274169921875,-0.3760986328125
20220223-1417,2022-02-23 14:17:26Z,u01, 206,40,movements,el-ex, rt, d,205374.166243, -1.2271362639506855, -0.01678920437940238, 0.3228193771760599, 0.08014409244060516, 0.023229479789733887, 0.1213882565498352, -0.9413951635360718, 0.016788415610790253, -0.336887925863266, -0.03898203372955322, -0.05192938446998596, -0.012782573699951172, 0.08575740609101178, -0.5693871284807335, 0.8061662142557267,0.136162072086451,-0.980377197265625,-0.0351409912109375,-0.34967041015625
20220223-1417,2022-02-23 14:17:26Z,u01, 207,40,movements,el-ex, rt, d,205374.191189, -1.226919614842903, -0.01871273836208985, 0.32483692540192344, 0.0026252279058098793, -0.00962667167186737, 0.12639346718788147, -0.9412898421287537, 0.018711647018790245, -0.33708029985427856, -0.04117769002914429, -0.034657061100006104, -0.0005204379558563232, 0.08554011702934576, -0.5693353419607754, 0.8059935363320401,0.13752985067766474,-0.9874725341796875,-0.0271453857421875,-0.337677001953125
20220223-1417,2022-02-23 14:17:26Z,u01, 208,40,movements,el-ex, rt, d,205374.21613400002, -1.227291806807869, -0.01975072186442274, 0.3257524452017175, 0.022871844470500946, -0.020587578415870667, 0.09663304686546326, -0.9413964152336121, 0.019749438390135765, -0.3367232084274292, -0.07268726825714111, -0.05301356315612793, -0.03632369637489319, 0.08540725518286885, -0.5695120625389145, 0.8057720388988528,0.1381770505283225,-1.0140838623046875,-0.03326416015625,-0.373046875
20220223-1417,2022-02-23 14:17:26Z,u01, 209,40,movements,el-ex, rt, d,205374.24108, -1.228067482418713, -0.020008933313954945, 0.3276416158946776, 0.09813503921031952, -0.05755358561873436, 0.03538966178894043, -0.9416524767875671, 0.020007599145174026, -0.33599117398262024, -0.06828081607818604, -0.025500748306512833, -0.05001044273376465, 0.08589482588586073, -0.5697600298375102, 0.8054070743686893,0.13897798263009936,-1.014862060546875,-0.0050506591796875,-0.3827056884765625
20220223-1417,2022-02-23 14:17:26Z,u01, 210,40,movements,el-ex, rt, d,205374.26602600003, -1.2303082018132276, -0.016677716353556676, 0.33224029009874895, 0.29984360933303833, -0.10970260202884674, -0.09564778208732605, -0.9424607753753662, 0.016676943749189377, -0.3339008092880249, -0.11210465431213379, -0.029082298278808594, -0.06661194562911987, 0.08870531624109917, -0.5702464009011453, 0.8046181942859448,0.13978585899594745,-1.0545654296875,-0.0124053955078125,-0.4005126953125
20220223-1417,2022-02-23 14:17:26Z,u01, 211,40,movements,el-ex, rt, d,205374.290971, -1.2336192118716764, -0.009973063906631332, 0.33911313709926355, 0.35068053007125854, -0.16332122683525085, -0.18190450966358185, -0.9436454176902771, 0.009972898289561272, -0.33080804347991943, -0.10937893390655518, -0.022240936756134033, -0.06437939405441284, 0.09359776276777469, -0.5708199718092466, 0.803533561736181,0.14049156816487643,-1.055755615234375,-0.024383544921875,-0.3854522705078125
20220223-1417,2022-02-23 14:17:26Z,u01, 212,40,movements,el-ex, rt, d,205374.315917, -1.2376514421757592, -0.0016705836152597045, 0.3450989659544972, 0.314932644367218, -0.17302338778972626, -0.26518529653549194, -0.9450172185897827, 0.0016705828020349145, -0.327016144990921, -0.1262412667274475, -0.04419681429862976, -0.06659957766532898, 0.09892608165869472, -0.5715816317772786, 0.8023806265796989,0.14033282097618907,-1.071258544921875,-0.0425262451171875,-0.39361572265625
20220223-1417,2022-02-23 14:17:26Z,u01, 213,40,movements,el-ex, rt, d,205374.34086300002, -1.2424500661562048, 0.0078022120646258275, 0.3505520769772525, 0.3450004756450653, -0.21056444942951202, -0.31877586245536804, -0.9465481638908386, -0.007802132982760668, -0.32246828079223633, -0.13797026872634888, -0.0008190572261810303, -0.07397037744522095, 0.1046175264660701, -0.5725565784006376, 0.8010969732040237,0.13956300627353563,-1.088623046875,-0.012908935546875,-0.386993408203125
20220223-1417,2022-02-23 14:17:26Z,u01, 214,40,movements,el-ex, rt, d,205374.365808, -1.248954342534732, 0.01886171737055328, 0.3553721136181689, 0.3165658116340637, -0.29513704776763916, -0.4345439374446869, -0.9484856128692627, -0.018860599026083946, -0.3162582218647003, -0.15255802869796753, -0.06056138873100281, -0.020350664854049683, 0.1108682703810766, -0.5740898126194159, 0.799434798557084,0.13796038904749872,-1.101043701171875,-0.0794219970703125,-0.33660888671875
20220223-1417,2022-02-23 14:17:26Z,u01, 215,40,movements,el-ex, rt, d,205374.39075400002, -1.257320213245639, 0.03261897939325087, 0.35957282789996886, 0.37630125880241394, -0.34406769275665283, -0.5047333240509033, -0.9507613778114319, -0.03261319547891617, -0.30820316076278687, -0.16128391027450562, -0.04276520013809204, -0.05845034122467041, 0.11812103727484126, -0.5761474108790792, 0.7973887206013317,0.1351768378679476,-1.108123779296875,-0.063720703125,-0.3686981201171875
20220223-1417,2022-02-23 14:17:26Z,u01, 216,40,movements,el-ex, rt, d,205374.4157, -1.2662870682116374, 0.04793534637660252, 0.36483951953512483, 0.34984123706817627, -0.355988085269928, -0.5280232429504395, -0.9528983235359192, -0.04791698977351189, -0.2994806468486786, -0.12478405237197876, -0.0031236372888088226, -0.009174197912216187, 0.12630566018814998, -0.5781924975500213, 0.7951398336398967,0.13226073759288567,-1.0776824951171875,-0.0510406494140625,-0.30865478515625
20220223-1417,2022-02-23 14:17:26Z,u01, 217,40,movements,el-ex, rt, d,205374.44064500002, -1.27523489282437, 0.0623877047536049, 0.3674442048853639, 0.22567862272262573, -0.3355087637901306, -0.5125038027763367, -0.954777717590332, -0.06234724074602127, -0.29071033000946045, -0.13988780975341797, 0.01632675528526306, 0.018859684467315674, 0.1333383977239356, -0.5804013302636892, 0.793001173861714,0.1284695284092606,-1.1015777587890625,-0.047576904296875,-0.27862548828125
20220223-1417,2022-02-23 14:17:26Z,u01, 218,40,movements,el-ex, rt, d,205374.46559100001, -1.2827673197516818, 0.07607103438164643, 0.3691482155851222, 0.26109254360198975, -0.26249760389328003, -0.5010087490081787, -0.9560327529907227, -0.07599768787622452, -0.2832414507865906, -0.16466420888900757, 0.03125891834497452, 0.03235641121864319, 0.13967796761658413, -0.5821248436264528, 0.7912645376214091,0.12458389202152001,-1.120697021484375,-0.04473876953125,-0.250885009765625
20220223-1417,2022-02-23 14:17:26Z,u01, 219,40,movements,el-ex, rt, d,205374.49053600003, -1.289740550309051, 0.09157517810519639, 0.37305599004870427, 0.35145583748817444, -0.29036158323287964, -0.6763319373130798, -0.9567375183105469, -0.09144724160432816, -0.27620795369148254, -0.10902786254882812, 0.02583444118499756, 0.037377357482910156, 0.1473002563430616, -0.5832655067481262, 0.7895944756308616,0.12101495435294851,-1.0555572509765625,-0.0935516357421875,-0.2324371337890625
20220223-1417,2022-02-23 14:17:26Z,u01, 220,40,movements,el-ex, rt, d,205374.51548200002, -1.2977897244069347, 0.11357155807790051, 0.37394816292787014, 0.2108241617679596, -0.3240947425365448, -0.9368643760681152, -0.956760823726654, -0.11332756280899048, -0.2678908705711365, -0.09669065475463867, -0.003814131021499634, 0.0168226957321167, 0.15658310565229622, -0.5844110693128828, 0.7879792475143194,0.11416699433301503,-1.0534515380859375,-0.1171417236328125,-0.251068115234375
20220223-1417,2022-02-23 14:17:27Z,u01, 221,40,movements,el-ex, rt, d,205374.540428, -1.3058555339638944, 0.13772060093538216, 0.37535018553020183, 0.46959397196769714, -0.3141906261444092, -0.8733013272285461, -0.9559699892997742, -0.13728564977645874, -0.2593728005886078, -0.0804985761642456, 0.10107655823230743, -0.016872376203536987, 0.16677201084629334, -0.5852355849655193, 0.786310680887623,0.10678056268261538,-1.0328521728515625,-0.033843994140625,-0.270782470703125
20220223-1417,2022-02-23 14:17:27Z,u01, 222,40,movements,el-ex, rt, d,205374.56537300002, -1.3146160603783166, 0.16199099502532852, 0.38503411891298556, 0.6843944787979126, -0.2548503279685974, -0.8337003588676453, -0.954700231552124, -0.1612834483385086, -0.2500700056552887, -0.0718347430229187, 0.018003448843955994, 0.05991491675376892, 0.17938306181202152, -0.5854799031610061, 0.7839255808003193,0.10244799781642597,-1.0265350341796875,-0.143280029296875,-0.190155029296875
20220223-1417,2022-02-23 14:17:27Z,u01, 223,40,movements,el-ex, rt, d,205374.590319, -1.3215427732179854, 0.18553318740184024, 0.3943174579686345, 0.4591609537601471, -0.1981813907623291, -0.8112624287605286, -0.9524651169776917, -0.18447059392929077, -0.2424471080303192, -0.013965427875518799, -0.027214571833610535, 0.06837476789951324, 0.1914212919012223, -0.5849225058870189, 0.7820310549254321,0.09823881962383793,-0.946441650390625,-0.225372314453125,-0.1772918701171875
20220223-1417,2022-02-23 14:17:27Z,u01, 224,40,movements,el-ex, rt, d,205374.615265, -1.326818194050124, 0.2068686416591853, 0.39557358040541635, 0.030504029244184494, -0.18232540786266327, -0.8083259463310242, -0.9496950507164001, -0.20539632439613342, -0.23641443252563477, 0.01562821865081787, -0.016680121421813965, 0.0712532103061676, 0.20012346199962833, -0.5845882175201438, 0.7809015665905872,0.09165180651095145,-0.9340667724609375,-0.222076416015625,-0.1651611328125
20220223-1417,2022-02-23 14:17:27Z,u01, 225,40,movements,el-ex, rt, d,205374.64021, -1.3278375239992009, 0.22473264187804892, 0.3854589177739355, -0.41265302896499634, -0.05659305304288864, -0.7603768110275269, -0.946222722530365, -0.22284573316574097, -0.23452600836753845, -0.01064068078994751, 0.023962706327438354, 0.1481153964996338, 0.20395988268682674, -0.5840696561341933, 0.7813610381619502,0.0820851377167531,-0.95819091796875,-0.2123260498046875,-0.0787353515625
20220223-1417,2022-02-23 14:17:27Z,u01, 226,40,movements,el-ex, rt, d,205374.665156, -1.3243406950656478, 0.23947090456121822, 0.37241589012634807, -0.1499975621700287, 0.09106911718845367, -0.6276078224182129, -0.9421091675758362, -0.2371886670589447, -0.237006276845932, 0.009965002536773682, 0.02153623104095459, 0.10048586130142212, 0.20558735293540903, -0.5824351495820295, 0.7830739206536215,0.07279052987536724,-0.9321441650390625,-0.2156524658203125,-0.1365203857421875
20220223-1417,2022-02-23 14:17:27Z,u01, 227,40,movements,el-ex, rt, d,205374.69010200002, -1.321813074342742, 0.25464849265613865, 0.37456930941520367, 0.5707956552505493, 0.1326035112142563, -0.5599638223648071, -0.9379099011421204, -0.25190526247024536, -0.23847217857837677, 0.054898977279663086, -0.01619166135787964, 0.0019913911819458008, 0.21185549359695344, -0.5795525515782733, 0.7838657450967939,0.06921484182996171,-0.8828277587890625,-0.270172119140625,-0.24627685546875
20220223-1417,2022-02-23 14:17:27Z,u01, 228,40,movements,el-ex, rt, d,205374.715047, -1.321907133911501, 0.271587540252252, 0.3885922819550765, 0.6985166072845459, 0.14843127131462097, -0.470564067363739, -0.9336623549461365, -0.2682611346244812, -0.23729871213436127, 0.039100587368011475, 0.0565149188041687, 0.0051056742668151855, 0.22228900502376706, -0.5761408169065404, 0.7834685791032562,0.0694724054126726,-0.894561767578125,-0.2117462158203125,-0.2321929931640625
20220223-1417,2022-02-23 14:17:27Z,u01, 229,40,movements,el-ex, rt, d,205374.73999300002, -1.321601229394378, 0.28513534165862253, 0.3975356687814355, 0.17195239663124084, 0.06623120605945587, -0.4153473973274231, -0.9299820065498352, -0.2812873423099518, -0.23666620254516602, 0.02667701244354248, 0.04611888527870178, 0.009828999638557434, 0.22993005249129522, -0.5734100349548119, 0.7833236631809682,0.0688268134968329,-0.9070892333984375,-0.2527313232421875,-0.232208251953125
20220223-1417,2022-02-23 14:17:27Z,u01, 230,40,movements,el-ex, rt, d,205374.76493900002, -1.3205441100722006, 0.29421221365938, 0.3941675930658048, -0.16376177966594696, -0.05425705760717392, -0.36409613490104675, -0.9272193312644958, -0.2899860143661499, -0.23700708150863647, -0.011440277099609375, 0.01908150315284729, -0.028755292296409607, 0.2323280788185987, -0.5722937353334728, 0.7837736043459216,0.06482617452034611,-0.93865966796875,-0.270904541015625,-0.2657623291015625
20220223-1417,2022-02-23 14:17:27Z,u01, 231,40,movements,el-ex, rt, d,205374.789884, -1.3217416101654573, 0.30158718854507793, 0.3884946811465066, -0.0579964742064476, -0.1627126932144165, -0.3320162296295166, -0.9254046678543091, -0.29703614115715027, -0.23536302149295807, -0.04667168855667114, -0.01634889841079712, -0.0731239914894104, 0.23350119616097897, -0.5725344335469476, 0.7836193571832181,0.06018501029085768,-0.9806976318359375,-0.3204803466796875,-0.3111724853515625
20220223-1417,2022-02-23 14:17:27Z,u01, 232,40,movements,el-ex, rt, d,205374.81483000002, -1.325994028228551, 0.31010605083696485, 0.3875828650057362, 0.10261187702417374, -0.2003052681684494, -0.34781137108802795, -0.9239085912704468, -0.30515962839126587, -0.23080402612686157, -0.06544071435928345, 0.019103199243545532, -0.05462692677974701, 0.23654571060284674, -0.5732748995488398, 0.7824245652260013,0.056690707285651565,-0.989349365234375,-0.2860565185546875,-0.285430908203125
20220223-1417,2022-02-23 14:17:27Z,u01, 233,40,movements,el-ex, rt, d,205374.839776, -1.3317813047665008, 0.3184759168927724, 0.386031655593769, -0.06459005922079086, -0.28403323888778687, -0.33685919642448425, -0.92271488904953, -0.31311947107315063, -0.2248407006263733, -0.0719902515411377, 0.009698450565338135, -0.012113094329833984, 0.239374682066733, -0.5746994095481571, 0.7807899499275165,0.052795608341358546,-1.00640869140625,-0.3013458251953125,-0.2333526611328125
20220223-1417,2022-02-23 14:17:27Z,u01, 234,40,movements,el-ex, rt, d,205374.8647200417, -1.336149236433126, 0.32543215963300653, 0.3793112664916072, -0.2824219763278961, -0.22089363634586334, -0.3192695081233978, -0.921547532081604, -0.31971830129623413, -0.2202964872121811, -0.10614728927612305, -0.003615468740463257, -0.005503147840499878, 0.24013286421480678, -0.5763574952155294, 0.7796754781517805,0.04748191833244972,-1.0276947021484375,-0.323333740234375,-0.225799560546875
20220223-1417,2022-02-23 14:17:27Z,u01, 235,40,movements,el-ex, rt, d,205374.88966604168, -1.3376739715347745, 0.3317024882301283, 0.3693056664339924, -0.3044414222240448, -0.1428154855966568, -0.32888150215148926, -0.9199137091636658, -0.32565319538116455, -0.21842367947101593, -0.100594162940979, 0.0014802515506744385, -0.02087998390197754, 0.239606565398283, -0.5773879601506389, 0.779419367344568,0.04144077688949199,-1.021148681640625,-0.318756103515625,-0.2390899658203125
20220223-1417,2022-02-23 14:17:27Z,u01, 236,40,movements,el-ex, rt, d,205374.91461204167, -1.3383067713681471, 0.337988706781809, 0.3623647481600819, -0.06312701851129532, -0.08170166611671448, -0.2899419665336609, -0.9180413484573364, -0.3315902650356293, -0.21736551821231842, -0.09300589561462402, 0.03138890862464905, -0.021968647837638855, 0.23994607244672828, -0.5777050483167224, 0.7793177170995709,0.03669535873833077,-1.01104736328125,-0.300201416015625,-0.2393341064453125
20220223-1417,2022-02-23 14:17:27Z,u01, 237,40,movements,el-ex, rt, d,205374.93955704168, -1.3397754583897878, 0.3449077114097346, 0.36159225403492284, 0.10339481383562088, -0.05905074626207352, -0.25584104657173157, -0.9161044955253601, -0.3381098210811615, -0.2154865264892578, -0.07460296154022217, 0.018606036901474, -0.007261365652084351, 0.2423128186621618, -0.5775302917880892, 0.7788348629614584,0.034053206482468845,-0.98321533203125,-0.3223419189453125,-0.223724365234375
20220223-1417,2022-02-23 14:17:27Z,u01, 238,40,movements,el-ex, rt, d,205374.96450304167, -1.3414195124084183, 0.35137579303719507, 0.3625628453513013, 0.03655150532722473, -0.05864747613668442, -0.23839302361011505, -0.9143086671829224, -0.34418985247612, -0.21347837150096893, -0.019529223442077637, 0.03728985786437988, -0.011680364608764648, 0.24501284349382152, -0.5772603583891237, 0.7782685937155404,0.0322053444257408,-0.933837890625,-0.3069000244140625,-0.22515869140625
20220223-1417,2022-02-23 14:17:27Z,u01, 239,40,movements,el-ex, rt, d,205374.9894490417, -1.3417933451223867, 0.3562486820571772, 0.3595861014386764, -0.14938265085220337, -0.03863935172557831, -0.195584237575531, -0.9127442240715027, -0.3487609028816223, -0.2127533107995987, -0.026281774044036865, 0.0327208936214447, -0.011749297380447388, 0.2459598227276082, -0.5771716455342863, 0.7781439734926336,0.029474240047459632,-0.93896484375,-0.3144378662109375,-0.2283477783203125
20220223-1417,2022-02-23 14:17:27Z,u01, 240,40,movements,el-ex, rt, d,205375.01439404167, -1.3416317081989622, 0.35965200853596896, 0.356492064661631, 0.07339850068092346, -0.05261135846376419, -0.1433761566877365, -0.9115486741065979, -0.3519485294818878, -0.2126299887895584, -0.01224905252456665, 0.04698634147644043, -0.052888303995132446, 0.24632182071867703, -0.5770706780507273, 0.7781863586818557,0.02722373082452434,-0.923797607421875,-0.304962158203125,-0.2655181884765625
20220223-1417,2022-02-23 14:17:27Z,u01, 241,40,movements,el-ex, rt, d,205375.03934004167, -1.3455339262743955, 0.3643211314185447, 0.36179207339794967, 0.3240711987018585, -0.10272832214832306, -0.13606151938438416, -0.910759687423706, -0.35631507635116577, -0.2087019830942154, -0.021735548973083496, 0.07933753728866577, -0.04755416512489319, 0.2496264839765708, -0.5773522565874339, 0.7769194765749579,0.02733538249813003,-0.9310150146484375,-0.277008056640625,-0.251007080078125
20220223-1417,2022-02-23 14:17:27Z,u01, 242,40,movements,el-ex, rt, d,205375.06428604168, -1.3501472121627716, 0.3689359016824801, 0.3665946700481987, 0.015803448855876923, -0.11278854310512543, -0.15671312808990479, -0.9100984930992126, -0.36062315106391907, -0.20413608849048615, -0.0387234091758728, 0.06860047578811646, -0.020946353673934937, 0.25277239681614977, -0.5779602686235822, 0.7754546102360518,0.027167872209401672,-0.948822021484375,-0.292022705078125,-0.2250823974609375
20220223-1417,2022-02-23 14:17:27Z,u01, 243,40,movements,el-ex, rt, d,205375.08923104167, -1.3490309744175868, 0.369261961757989, 0.3592082548247799, -0.4071457087993622, -0.08412341773509979, -0.1570703238248825, -0.9097553491592407, -0.3609272539615631, -0.20512598752975464, 0.015285193920135498, 0.06763812899589539, -0.04913125932216644, 0.2507423543493011, -0.5784161831344791, 0.7758675544028004,0.024341015192151205,-0.870758056640625,-0.277008056640625,-0.2545166015625
20220223-1417,2022-02-23 14:17:27Z,u01, 244,40,movements,el-ex, rt, d,205375.1141770417, -1.347420885002135, 0.3718258349312087, 0.34665744458879566, -0.44481194019317627, -0.1204565167427063, -0.2540140450000763, -0.9085184931755066, -0.3633171021938324, -0.2063848227262497, -0.0018360614776611328, 0.11099782586097717, 0.03515066206455231, 0.2480364370500005, -0.5790384399528437, 0.776425424396092,0.01886445371903553,-0.9103546142578125,-0.2523193359375,-0.171234130859375
20220223-1417,2022-02-23 14:17:27Z,u01, 245,40,movements,el-ex, rt, d,205375.13912304168, -1.3450361926927692, 0.37605640869735113, 0.3353600537567369, -0.20847885310649872, -0.027841562405228615, -0.2441967874765396, -0.906517744064331, -0.3672553300857544, -0.20820488035678864, -0.023352980613708496, 0.1167517602443695, -0.003983885049819946, 0.24630639205720012, -0.5789911218347562, 0.7771240961511413,0.013442299158279297,-0.9226226806640625,-0.250946044921875,-0.2342681884765625
20220223-1417,2022-02-23 14:17:27Z,u01, 246,40,movements,el-ex, rt, d,205375.1640680417, -1.3450723520913535, 0.3817785646246632, 0.33547895201630323, 0.3037135601043701, 0.03689795359969139, -0.1888694018125534, -0.9044620394706726, -0.37257155776023865, -0.20769831538200378, -0.029024720191955566, 0.10899129509925842, -0.08458384871482849, 0.24845221222884695, -0.5782926096818207, 0.776989326129433,0.011687735358663326,-0.9334869384765625,-0.263580322265625,-0.2922821044921875
20220223-1417,2022-02-23 14:17:27Z,u01, 247,40,movements,el-ex, rt, d,205375.18901404168, -1.3474596592796995, 0.38848157509721787, 0.3438865564012895, 0.36973556876182556, 0.02191021479666233, -0.20519858598709106, -0.902499794960022, -0.37878358364105225, -0.2049807757139206, -0.03860127925872803, 0.07308903336524963, -0.01604282855987549, 0.25336310481839475, -0.5773359064342507, 0.7761011185151176,0.01254660024507842,-0.9453582763671875,-0.3080291748046875,-0.217132568359375
20220223-1417,2022-02-23 14:17:27Z,u01, 248,40,movements,el-ex, rt, d,205375.21396004167, -1.3478235306868704, 0.3950259599968713, 0.34693193697382524, -0.08246342837810516, 0.05097302421927452, -0.19798994064331055, -0.9001374840736389, -0.38483214378356934, -0.2040998488664627, -0.01770913600921631, 0.08331850171089172, -0.0023669004440307617, 0.2566461189209112, -0.5762663000701208, 0.7758317181804835,0.01162331472914191,-0.9178466796875,-0.301513671875,-0.2064666748046875
