SessionID,LoggingTime,UID,RecNo,Hertz,Activity,MoveType,Wrist,Side,TimeStamp,DMRoll,DMPitch,DMYaw,DMRotX,DMRotY,DMRotZ,DMGrvX,DMGrvY,DMGrvZ,DMUAccelX,DMUAccelY,DMUAccelZ,DMQuatX,DMQuatY,DMQuatW,DMQuatZ,AccelroX,AceelroY,AceelroZ
20220223-1420,2022-02-23 14:20:20Z,u01, 1,40,movements,el-ex, rt, d,205547.99764725, -1.4795496696312924, -0.3528462701129549, -0.32259096639749807, 0.03437606617808342, 0.01956470124423504, -0.11763524264097214, -0.9344888925552368, 0.3455701172351837, -0.08550642430782318, -0.029027104377746582, -0.006214737892150879, -0.015552811324596405, -0.2345336163440062, -0.6342245426591183, 0.7367176798781723,0.0,-0.9635162353515625,0.33935546875,-0.1010589599609375
20220223-1420,2022-02-23 14:20:20Z,u01, 2,40,movements,el-ex, rt, d,205548.02259325, -1.477531067831449, -0.3514817272031626, -0.32167203311841613, 0.08532613515853882, 0.08926641941070557, -0.12591727077960968, -0.9347831010818481, 0.3442893326282501, -0.08743645250797272, -0.03147953748703003, 0.015756964683532715, -0.03323035687208176, -0.23376509074981422, -0.6337473125235238, 0.737372308288643,-0.0003585691710248362,-0.9600372314453125,0.36083984375,-0.1253204345703125
20220223-1420,2022-02-23 14:20:20Z,u01, 3,40,movements,el-ex, rt, d,205548.04753875002, -1.47289019394707, -0.34959348417532393, -0.31766610191909667, 0.2677420973777771, 0.10207928717136383, -0.08073820918798447, -0.9350125193595886, 0.3425159156322479, -0.0918370857834816, 0.3657988905906677, -0.0535450279712677, -0.02776157110929489, -0.23183463521653389, -0.6327196531587237, 0.7388628519877234,-5.696857270348632e-05,-0.5692138671875,0.288970947265625,-0.119598388671875
20220223-1420,2022-02-23 14:20:20Z,u01, 4,40,movements,el-ex, rt, d,205548.07248475, -1.4688505329859496, -0.34637481920812824, -0.31216118393146736, 0.21640142798423767, 0.07612551748752594, -0.14708413183689117, -0.9357258677482605, 0.3394901752471924, -0.0957251712679863, 0.08172214031219482, -0.019894897937774658, 0.004675686359405518, -0.22896261872088722, -0.6322290200736651, 0.7401772099216855,0.00043049370691994326,-0.8965301513671875,0.33563232421875,-0.090423583984375
20220223-1420,2022-02-23 14:20:20Z,u01, 5,40,movements,el-ex, rt, d,205548.09743175, -1.4662458097191422, -0.34162584284669895, -0.30864400320268, 0.12783057987689972, 0.06729747354984283, -0.20528799295425415, -0.9370661377906799, 0.33501940965652466, -0.09832928329706192, -0.05919522047042847, -0.005948483943939209, 0.015626326203346252, -0.22617655580302853, -0.6322021232198975, 0.7410562618362571,-0.00015792756677251996,-0.9962615966796875,0.329071044921875,-0.08270263671875
20220223-1420,2022-02-23 14:20:20Z,u01, 6,40,movements,el-ex, rt, d,205548.12237775, -1.4613952424280205, -0.33572547796599034, -0.303409687125809, 0.32673168182373047, 0.18777215480804443, -0.21683739125728607, -0.9385268688201904, 0.329454243183136, -0.10308745503425598, -0.04094994068145752, -0.004564136266708374, 0.010863065719604492, -0.22243427542280544, -0.6316480554099937, 0.7426594452232484,-0.0007374351861026418,-0.96624755859375,0.3209075927734375,-0.08795166015625
20220223-1420,2022-02-23 14:20:20Z,u01, 7,40,movements,el-ex, rt, d,205548.14732375002, -1.4533990344642116, -0.3301880028499732, -0.2955430309857635, 0.26189902424812317, 0.23421134054660797, -0.15070676803588867, -0.9394699931144714, 0.3242208957672119, -0.11080072075128555, 0.026780903339385986, -0.0032522976398468018, 0.019903838634490967, -0.21798150712613168, -0.6301457773781396, 0.7452516173393463,-0.0005405575758462566,-0.912689208984375,0.3209686279296875,-0.0908966064453125
20220223-1420,2022-02-23 14:20:20Z,u01, 8,40,movements,el-ex, rt, d,205548.17226975, -1.447093980302647, -0.3261526238096636, -0.292294418565999, 0.05451352149248123, 0.18223372101783752, -0.14022716879844666, -0.9400433301925659, 0.3204008638858795, -0.11688236147165298, -0.012730538845062256, 0.01045536994934082, -0.005279771983623505, -0.21551452709251395, -0.6285795956833826, 0.7472878525559474,-0.001353780813655614,-0.9603729248046875,0.3170013427734375,-0.116485595703125
20220223-1420,2022-02-23 14:20:20Z,u01, 9,40,movements,el-ex, rt, d,205548.19721575, -1.4408233920370586, -0.3223252552686839, -0.28924180325729937, 0.2623295783996582, 0.2578091621398926, -0.15013465285301208, -0.9405010342597961, 0.3167729377746582, -0.12293269485235214, -0.04829883575439453, 0.0004114508628845215, 0.006874024868011475, -0.21317798336223756, -0.6269679419019163, 0.7493073952187049,-0.002152228047418381,-0.988800048828125,0.3171844482421875,-0.116058349609375
20220223-1420,2022-02-23 14:20:20Z,u01, 10,40,movements,el-ex, rt, d,205548.22216175002, -1.4308773902790657, -0.31774225032913345, -0.282846987331734, 0.18762807548046112, 0.3492496609687805, -0.14587938785552979, -0.9406595826148987, 0.31242263317108154, -0.13248176872730255, -0.021116971969604492, -0.0034016966819763184, 0.021412745118141174, -0.2095140888281548, -0.6243900744472795, 0.7524861318417271,-0.002314472884967611,-0.950531005859375,0.306854248046875,-0.1134796142578125
20220223-1420,2022-02-23 14:20:20Z,u01, 11,40,movements,el-ex, rt, d,205548.24710775, -1.4222478718907297, -0.3138718465819363, -0.28320739514170296, -0.1770453304052353, 0.3286951780319214, -0.17657065391540527, -0.9406701922416687, 0.3087436258792877, -0.14077208936214447, 0.029568076133728027, 0.014956265687942505, -0.0008602738380432129, -0.2082086716621469, -0.6215006870337743, 0.7552248732371227,-0.004621962076363895,-0.911102294921875,0.323699951171875,-0.141632080078125
20220223-1420,2022-02-23 14:20:20Z,u01, 12,40,movements,el-ex, rt, d,205548.27205375, -1.4174280900282887, -0.31039790744601486, -0.29106705505723024, -0.2985263466835022, 0.26370400190353394, -0.20456227660179138, -0.9410349726676941, 0.3054375648498535, -0.14546722173690796, -0.0008593201637268066, 0.03486385941505432, -0.004999980330467224, -0.2093671407819854, -0.6192186953168533, 0.7567351848552171,-0.009232126830976906,-0.9530181884765625,0.3454132080078125,-0.1556549072265625
20220223-1420,2022-02-23 14:20:20Z,u01, 13,40,movements,el-ex, rt, d,205548.29699975002, -1.4125729776069438, -0.30557761107832865, -0.29680439888162696, -0.04371606931090355, 0.26559683680534363, -0.2477322518825531, -0.9417606592178345, 0.30084407329559326, -0.15026456117630005, -0.0359765887260437, 0.023206740617752075, -0.026630863547325134, -0.20935780636275764, -0.6172819692025737, 0.758254728035586,-0.013485745761841694,-0.9777374267578125,0.3240509033203125,-0.1768951416015625
20220223-1420,2022-02-23 14:20:20Z,u01, 14,40,movements,el-ex, rt, d,205548.32194575, -1.405335003925216, -0.2986306267583851, -0.2954518352656814, 0.17885971069335938, 0.27569228410720825, -0.27710166573524475, -0.9426870346069336, 0.2942117154598236, -0.157417431473732, -0.011688947677612305, 0.02469688653945923, -0.007087871432304382, -0.20634973971965215, -0.6153950504006026, 0.7605610021135045,-0.01598275113947234,-0.945953369140625,0.3159332275390625,-0.167205810546875
20220223-1420,2022-02-23 14:20:20Z,u01, 15,40,movements,el-ex, rt, d,205548.34689175, -1.3978636283130854, -0.2913969597383201, -0.29253865094997733, 0.08409229665994644, 0.24245090782642365, -0.27621331810951233, -0.943556547164917, 0.2872905731201172, -0.16481806337833405, 0.011046350002288818, 0.01480284333229065, -0.0011826157569885254, -0.20273649328373733, -0.6135868977559849, 0.7629454069752659,-0.017978854396334787,-0.9325103759765625,0.302093505859375,-0.1660003662109375
20220223-1420,2022-02-23 14:20:20Z,u01, 16,40,movements,el-ex, rt, d,205548.37183775002, -1.3926810260689542, -0.28446558028035, -0.2936398846057619, -0.043076347559690475, 0.21255739033222198, -0.2934810221195221, -0.9446269273757935, 0.2806445360183716, -0.17005465924739838, -0.013640165328979492, -0.007252871990203857, 0.005289971828460693, -0.20046956210752911, -0.6121965599009913, 0.7645781017196905,-0.021157196181620208,-0.96710205078125,0.2796478271484375,-0.1692657470703125
20220223-1420,2022-02-23 14:20:20Z,u01, 17,40,movements,el-ex, rt, d,205548.39678375, -1.387881647205201, -0.2774121229763311, -0.2960924254257129, -0.038690321147441864, 0.21296046674251556, -0.299201637506485, -0.9457228779792786, 0.2738676369190216, -0.1749420166015625, -0.00888216495513916, -0.004885733127593994, -0.02014191448688507, -0.19855807660249206, -0.6108221360193801, 0.7660638405496831,-0.024842495889750738,-0.9546051025390625,0.26898193359375,-0.1950836181640625
20220223-1420,2022-02-23 14:20:20Z,u01, 18,40,movements,el-ex, rt, d,205548.42172975, -1.3834204586495362, -0.2702414246180824, -0.29862359277500106, -0.05011218786239624, 0.1774619221687317, -0.3079471290111542, -0.9468380212783813, 0.2669641077518463, -0.17952050268650055, -0.00013744831085205078, 0.009433537721633911, -0.020583555102348328, -0.19661433826261032, -0.6095757142068448, 0.7674273813072823,-0.02855293094489586,-0.9458160400390625,0.279083251953125,-0.19921875
20220223-1420,2022-02-23 14:20:20Z,u01, 19,40,movements,el-ex, rt, d,205548.44667575002, -1.3804362813610458, -0.26250067235804786, -0.3015371862720367, -0.031506940722465515, 0.12142102420330048, -0.33801180124282837, -0.9482988119125366, 0.2594963610172272, -0.1827307641506195, -0.000995934009552002, 0.025308877229690552, -0.008248493075370789, -0.19458233979425288, -0.608910776504342, 0.7683181375985106,-0.03243981967025489,-0.9492950439453125,0.2848052978515625,-0.19097900390625
20220223-1420,2022-02-23 14:20:20Z,u01, 20,40,movements,el-ex, rt, d,205548.47162175, -1.377043431101519, -0.2540194451176827, -0.3011188458666428, 0.2118672877550125, 0.14963549375534058, -0.32823336124420166, -0.9497990608215332, 0.25129643082618713, -0.18636423349380493, -0.03431636095046997, 0.02841237187385559, -0.010367631912231445, -0.19124141323229718, -0.6084772866916156, 0.7693730647100168,-0.035314008249772544,-0.98193359375,0.2744598388671875,-0.192779541015625
20220223-1420,2022-02-23 14:20:20Z,u01, 21,40,movements,el-ex, rt, d,205548.49656775, -1.3714882555567331, -0.24504362554532594, -0.2955433496558185, 0.2916211485862732, 0.1919611692428589, -0.2989494502544403, -0.9509217739105225, 0.24259865283966064, -0.19207647442817688, -0.030447006225585938, -0.008849278092384338, 0.0044694095849990845, -0.18609475773238954, -0.6077256787466498, 0.7711694475471748,-0.0365481805770107,-0.9813690185546875,0.2337493896484375,-0.1876068115234375
20220223-1420,2022-02-23 14:20:20Z,u01, 22,40,movements,el-ex, rt, d,205548.52151375002, -1.3660554950999042, -0.23734365073473848, -0.29250430978564607, 0.04537362605333328, 0.16616353392601013, -0.2599100172519684, -0.9516650438308716, 0.23512157797813416, -0.1976136863231659, -0.020197510719299316, 0.010743245482444763, 0.0011412650346755981, -0.18218395846916266, -0.6066318187395517, 0.7728766852455295,-0.03831804441209746,-0.9769744873046875,0.2402801513671875,-0.19952392578125
20220223-1420,2022-02-23 14:20:21Z,u01, 23,40,movements,el-ex, rt, d,205548.54646075002, -1.3637128511665042, -0.23218275725025592, -0.29596336395730155, -0.20765118300914764, 0.09779193252325058, -0.19723519682884216, -0.9523743391036987, 0.23010225594043732, -0.20008938014507294, -0.06517302989959717, 0.015365809202194214, -0.02647337317466736, -0.181246444313115, -0.6058919355694572, 0.7735128414612935,-0.0415013348082417,-1.017547607421875,0.2454681396484375,-0.2265625
20220223-1420,2022-02-23 14:20:21Z,u01, 24,40,movements,el-ex, rt, d,205548.57140675, -1.362501903913328, -0.2289929199761852, -0.29911807254902456, 0.05900491774082184, 0.045808158814907074, -0.13108780980110168, -0.9528446793556213, 0.22699685394763947, -0.20139329135417938, -0.052083730697631836, 0.03237199783325195, -0.0120011568069458, -0.18097628184081208, -0.6054345074566473, 0.7738053024327312,-0.04383956004824119,-1.008636474609375,0.26190185546875,-0.205841064453125
20220223-1420,2022-02-23 14:20:21Z,u01, 25,40,movements,el-ex, rt, d,205548.59635275, -1.3614585901326353, -0.2252619444796885, -0.2954340660890044, 0.26811474561691284, -0.03246267884969711, -0.11114311963319778, -0.953455924987793, 0.22336170077323914, -0.2025619000196457, -0.046833932399749756, 0.043865472078323364, 0.02299615740776062, -0.1784335146948599, -0.6057066399377136, 0.7741914917329342,-0.04368593468710913,-1.0002899169921875,0.2672271728515625,-0.1795654296875
20220223-1420,2022-02-23 14:20:21Z,u01, 26,40,movements,el-ex, rt, d,205548.62129875002, -1.362001847009523, -0.2209446169600488, -0.28942373087464557, 0.20645663142204285, -0.09885329008102417, -0.15754510462284088, -0.9545001983642578, 0.21915137767791748, -0.20224186778068542, -0.023099660873413086, 0.01316368579864502, 0.022996604442596436, -0.1749962072574052, -0.6068404982055422, 0.774144478017208,-0.04267457456720086,-0.9785919189453125,0.2147216796875,-0.1870269775390625
20220223-1420,2022-02-23 14:20:21Z,u01, 27,40,movements,el-ex, rt, d,205548.64624475, -1.3629545064315114, -0.21524154866327436, -0.2862324188172914, 0.1816854625940323, -0.012759746983647346, -0.2306119203567505, -0.9558998942375183, 0.21358340978622437, -0.20158711075782776, -0.023378491401672363, -0.002264469861984253, -0.03352057933807373, -0.17189630745735926, -0.6079951523323663, 0.7739062375411566,-0.04315810700559397,-0.979278564453125,0.2113189697265625,-0.235107421875
20220223-1420,2022-02-23 14:20:21Z,u01, 28,40,movements,el-ex, rt, d,205548.67119075, -1.36119053193691, -0.2082659035731384, -0.28079205378255534, 0.328587144613266, 0.04303480684757233, -0.21803274750709534, -0.9569767713546753, 0.20676358044147491, -0.20357802510261536, -0.0054405927658081055, -0.0025095194578170776, -0.005528673529624939, -0.16756897772204515, -0.6083844389485809, 0.7745353288933623,-0.043403969440025336,-0.966766357421875,0.2104644775390625,-0.1961517333984375
20220223-1420,2022-02-23 14:20:21Z,u01, 29,40,movements,el-ex, rt, d,205548.69613675002, -1.359156670755107, -0.20160895347506694, -0.2738495912348493, 0.2979505956172943, 0.0037258192896842957, -0.18740339577198029, -0.9578852653503418, 0.2002459615468979, -0.20580853521823883, 0.002731025218963623, 0.00016295909881591797, -0.003679633140563965, -0.16289252227095463, -0.6087378421476374, 0.7752784906535836,-0.04298088561007274,-0.9551544189453125,0.200408935546875,-0.2094879150390625
20220223-1420,2022-02-23 14:20:21Z,u01, 30,40,movements,el-ex, rt, d,205548.72108275, -1.3580770012447811, -0.19580914355475898, -0.2689926506275524, 0.1958906203508377, 0.009689101949334145, -0.19256600737571716, -0.9587815999984741, 0.19456027448177338, -0.20708432793617249, 0.010936319828033447, 0.0017592459917068481, -0.02759610116481781, -0.15919052492434363, -0.609193085651409, 0.7756881083560258,-0.043011087686367855,-0.9437103271484375,0.203826904296875,-0.237152099609375
20220223-1420,2022-02-23 14:20:21Z,u01, 31,40,movements,el-ex, rt, d,205548.74602875, -1.3567761343623066, -0.18972011109593773, -0.2652418097143954, 0.21378177404403687, 0.033445898443460464, -0.22974073886871338, -0.9596513509750366, 0.18858402967453003, -0.2085791677236557, 0.014079630374908447, -0.023087233304977417, -0.030511081218719482, -0.1557062950703395, -0.6094800789743151, 0.7761384052940885,-0.043574217959783335,-0.9455718994140625,0.165496826171875,-0.2390899658203125
20220223-1420,2022-02-23 14:20:21Z,u01, 32,40,movements,el-ex, rt, d,205548.77097475002, -1.3546022807911984, -0.1821700194281773, -0.26091678746578023, 0.27171024680137634, 0.056165989488363266, -0.29134804010391235, -0.9605588912963867, 0.18116411566734314, -0.21096421778202057, 0.01567387580871582, -0.007122412323951721, -0.02910253405570984, -0.1514667104435745, -0.6095701188873759, 0.7768574413512774,-0.044434569885690334,-0.939971923828125,0.1741485595703125,-0.2438201904296875
20220223-1420,2022-02-23 14:20:21Z,u01, 33,40,movements,el-ex, rt, d,205548.79592075, -1.35220672764539, -0.1728951663358558, -0.2548082639751293, 0.3423846960067749, 0.047320831567049026, -0.3317601978778839, -0.9616497755050659, 0.1720350682735443, -0.2136198729276657, 0.010676443576812744, 0.002525433897972107, -0.01973305642604828, -0.14601259129459382, -0.6098117632222202, 0.7776704837393843,-0.04514860195540854,-0.9509735107421875,0.174560546875,-0.2333526611328125
20220223-1420,2022-02-23 14:20:21Z,u01, 34,40,movements,el-ex, rt, d,205548.82086675, -1.3497901085902104, -0.16284649919289207, -0.2483019915869005, 0.3201010227203369, 0.056548021733760834, -0.33062687516212463, -0.9627687931060791, 0.16212770342826843, -0.2163112312555313, 0.009064197540283203, 0.019039854407310486, -0.026776820421218872, -0.14013005650776733, -0.6100884810673719, 0.7784890178480293,-0.04593737041447671,-0.955352783203125,0.18121337890625,-0.2425689697265625
20220223-1420,2022-02-23 14:20:21Z,u01, 35,40,movements,el-ex, rt, d,205548.84581275002, -1.3475477227717119, -0.15349260045209828, -0.2443476791202099, 0.14363065361976624, 0.07244336605072021, -0.341800719499588, -0.963718056678772, 0.15289059281349182, -0.2187957763671875, -0.003963589668273926, -0.006543606519699097, -0.0232851505279541, -0.13528544927647018, -0.6101638793985028, 0.7791942473048612,-0.04747633649884109,-0.967681884765625,0.1463470458984375,-0.2420806884765625
20220223-1420,2022-02-23 14:20:21Z,u01, 36,40,movements,el-ex, rt, d,205548.87075875, -1.345453711156743, -0.14449923086821223, -0.2443681506316331, 0.04099135845899582, 0.08998347818851471, -0.36134856939315796, -0.9645590782165527, 0.14399689435958862, -0.22111162543296814, -0.005121469497680664, 0.0291750431060791, -0.04652780294418335, -0.1317862558984553, -0.6099807941170974, 0.7797514298490753,-0.0504312151589249,-0.972320556640625,0.1775360107421875,-0.269012451171875
20220223-1420,2022-02-23 14:20:21Z,u01, 37,40,movements,el-ex, rt, d,205548.89570475, -1.3427713776709749, -0.13525392812513354, -0.244720295522832, 0.09868151694536209, 0.114920973777771, -0.3775545060634613, -0.9652180671691895, 0.1348419189453125, -0.22398945689201355, -0.02159804105758667, 0.036804139614105225, -0.04166628420352936, -0.12826674358898868, -0.6095514021354189, 0.7804607346358885,-0.053623360761620664,-0.98681640625,0.1716461181640625,-0.265655517578125
20220223-1420,2022-02-23 14:20:21Z,u01, 38,40,movements,el-ex, rt, d,205548.92065075002, -1.3398862776638625, -0.12577690385906035, -0.24449620839058409, 0.07542207092046738, 0.10334888100624084, -0.36289578676223755, -0.9657685160636902, 0.12544554471969604, -0.22705556452274323, -0.026937544345855713, 0.048901334404945374, -0.042277559638023376, -0.12446573233560462, -0.6090816859916387, 0.7812276642915827,-0.056664492154813895,-0.9925994873046875,0.1665496826171875,-0.268798828125
20220223-1420,2022-02-23 14:20:21Z,u01, 39,40,movements,el-ex, rt, d,205548.94559675, -1.337351385214241, -0.11685572701830693, -0.2443037794118185, 0.12253272533416748, 0.0948033332824707, -0.34342488646507263, -0.9662402272224426, 0.11658995598554611, -0.22975271940231323, -0.04405927658081055, 0.0373406708240509, 0.004563271999359131, -0.12088822299695903, -0.6086950619625855, 0.7818788058002555,-0.059512491634068854,-1.0102996826171875,0.1539306640625,-0.225189208984375
20220223-1420,2022-02-23 14:20:21Z,u01, 40,40,movements,el-ex, rt, d,205548.97054275, -1.3344868090351325, -0.10764523701478931, -0.24128498467637316, 0.29226815700531006, 0.11222586780786514, -0.3286154568195343, -0.9665812253952026, 0.10743746906518936, -0.2327611893415451, -0.03972047567367554, 0.04029810428619385, 0.0002474784851074219, -0.1163192759655858, -0.6083495944428288, 0.7826980973274592,-0.06135311425111839,-1.005767822265625,0.1475982666015625,-0.2354583740234375
20220223-1420,2022-02-23 14:20:21Z,u01, 41,40,movements,el-ex, rt, d,205548.99548975, -1.330458333884442, -0.09781056998662441, -0.23490989409726218, 0.3537619411945343, 0.1630515605211258, -0.32290610671043396, -0.9666152596473694, 0.09765468537807465, -0.2368932068347931, -0.05564713478088379, 0.04054412245750427, 0.0276949405670166, -0.11044191099234246, -0.6077466439055281, 0.7839562586722034,-0.06212174786808766,-1.0222625732421875,0.1381988525390625,-0.209197998046875
20220223-1420,2022-02-23 14:20:21Z,u01, 42,40,movements,el-ex, rt, d,205549.02043575002, -1.3255952518515774, -0.08858287515249225, -0.22936482608753883, 0.22392596304416656, 0.1742100715637207, -0.28922179341316223, -0.9662846922874451, 0.0884670689702034, -0.24179953336715698, -0.047325849533081055, 0.037448398768901825, 0.022805124521255493, -0.10501639222442263, -0.6066892025924753, 0.7854453112315656,-0.06304891810072816,-1.0159759521484375,0.1205291748046875,-0.2199554443359375
20220223-1420,2022-02-23 14:20:21Z,u01, 43,40,movements,el-ex, rt, d,205549.04538175, -1.3212473714449193, -0.08184931842904901, -0.22766947169160928, 0.08058024942874908, 0.1531790792942047, -0.20431619882583618, -0.9657796025276184, 0.08175796270370483, -0.24614006280899048, -0.045038580894470215, 0.04501201957464218, 0.00946071743965149, -0.10173737756100534, -0.6054580719388, 0.7866937296811607,-0.06467363934990533,-1.0108184814453125,0.12677001953125,-0.2366790771484375
20220223-1420,2022-02-23 14:20:21Z,u01, 44,40,movements,el-ex, rt, d,205549.07032775, -1.3174919945680534, -0.0768664403911707, -0.22618456013908972, 0.14458732306957245, 0.12579940259456635, -0.15200293064117432, -0.9652308821678162, 0.07679077237844467, -0.24986419081687927, -0.04323744773864746, 0.03775691241025925, 0.002717345952987671, -0.09921812043463557, -0.6043373808454658, 0.7877828868018268,-0.06580256991505606,-1.00262451171875,0.1164703369140625,-0.2516326904296875
20220223-1420,2022-02-23 14:20:21Z,u01, 45,40,movements,el-ex, rt, d,205549.09527375002, -1.3148005242575374, -0.07294519303089525, -0.22391660335790392, 0.06839115917682648, 0.06793729215860367, -0.1133350357413292, -0.9648389220237732, 0.07288052141666412, -0.25253552198410034, -0.05110633373260498, 0.015696734189987183, -0.0011116266250610352, -0.09690911073361733, -0.6036065523337545, 0.7885938242718531,-0.0662379592921914,-1.0159454345703125,0.0885772705078125,-0.2536468505859375
20220223-1420,2022-02-23 14:20:21Z,u01, 46,40,movements,el-ex, rt, d,205549.12021975, -1.3139688177184106, -0.07072399469065133, -0.22482529482905983, -0.04122911021113396, 2.5289133191108704e-05, -0.07388915866613388, -0.96478271484375, 0.07066505402326584, -0.25337839126586914, -0.056945621967315674, 0.0027296841144561768, -0.013177692890167236, -0.09628507708986486, -0.6033572698947498, 0.7887699101313025,-0.06731375976386395,-1.0216522216796875,0.0818023681640625,-0.272796630859375
20220223-1420,2022-02-23 14:20:21Z,u01, 47,40,movements,el-ex, rt, d,205549.14516575, -1.314588278028515, -0.0694465553087907, -0.22456683123571902, 0.07885318994522095, -0.05659065395593643, -0.02981444261968136, -0.9650259613990784, 0.06939074397087097, -0.25280332565307617, -0.06442326307296753, 0.02626657485961914, -0.02179408073425293, -0.09572730581592362, -0.6036842002395348, 0.7885655319548353,-0.06757155503296997,-1.029449462890625,0.0956573486328125,-0.27459716796875
20220223-1420,2022-02-23 14:20:21Z,u01, 48,40,movements,el-ex, rt, d,205549.17011175002, -1.316661128855809, -0.06983958636154586, -0.22271754038139885, 0.039651691913604736, -0.10788719356060028, 0.02604449726641178, -0.9655213356018066, 0.06978282332420349, -0.25079554319381714, -0.07360184192657471, 0.044734351336956024, -0.01809510588645935, -0.09539223541234979, -0.6045680725496275, 0.7880093435878963,-0.06662369683928476,-1.0412750244140625,0.113525390625,-0.270599365234375
20220223-1420,2022-02-23 14:20:21Z,u01, 49,40,movements,el-ex, rt, d,205549.19505775, -1.3198903000000568, -0.07134575756527417, -0.22344588538135468, -0.12985262274742126, -0.14557725191116333, 0.06539995968341827, -0.966223418712616, 0.07128524780273438, -0.24765005707740784, -0.08182632923126221, 0.04654309153556824, -0.013962209224700928, -0.0963093531427694, -0.6057222801198259, 0.787038636365792,-0.0662953313484076,-1.0480499267578125,0.117828369140625,-0.2616119384765625
20220223-1420,2022-02-23 14:20:21Z,u01, 50,40,movements,el-ex, rt, d,205549.22000375, -1.3239778480651603, -0.07472592286945492, -0.22738832124229064, -0.19406388700008392, -0.16995781660079956, 0.09285728633403778, -0.9669883847236633, 0.0746563971042633, -0.24363823235034943, -0.08215993642807007, 0.06839471310377121, -0.01867590844631195, -0.09896093724255028, -0.60694943327948, 0.7857365848451142,-0.0666102112289515,-1.0452728271484375,0.1567230224609375,-0.262908935546875
20220223-1420,2022-02-23 14:20:21Z,u01, 51,40,movements,el-ex, rt, d,205549.24494975002, -1.328525578162355, -0.07916643358146042, -0.23013376859649246, -0.1011265367269516, -0.19234441220760345, 0.14396539330482483, -0.9677550196647644, 0.07908376306295395, -0.23915624618530273, -0.0713682770729065, 0.10107671469449997, -0.004694744944572449, -0.10167694990027626, -0.6083450320307078, 0.7843528050856252,-0.06609525156458185,-1.03912353515625,0.1801605224609375,-0.2438507080078125
20220223-1420,2022-02-23 14:20:21Z,u01, 52,40,movements,el-ex, rt, d,205549.26989575, -1.3336204741754127, -0.08380010599841956, -0.23241103457929396, -0.18558955192565918, -0.2035370171070099, 0.15201041102409363, -0.9685943126678467, 0.08370205760002136, -0.23413392901420593, -0.08429241180419922, 0.08010100573301315, 0.003100350499153137, -0.10433990424926318, -0.6099559167079536, 0.7828173999617922,-0.06529662468327047,-1.054962158203125,0.1592864990234375,-0.2294464111328125
20220223-1420,2022-02-23 14:20:21Z,u01, 53,40,movements,el-ex, rt, d,205549.29484175, -1.3387678465132657, -0.08972913038482852, -0.23711367576987913, -0.2694910764694214, -0.19064059853553772, 0.19001591205596924, -0.9692866206169128, 0.08960877358913422, -0.22902698814868927, -0.08112818002700806, 0.06950985640287399, -0.01944737136363983, -0.1082431103716357, -0.6113672668642546, 0.7812071710918609,-0.06502786444918868,-1.0504150390625,0.15911865234375,-0.24847412109375
20220223-1420,2022-02-23 14:20:21Z,u01, 54,40,movements,el-ex, rt, d,205549.31978775002, -1.3445139607714494, -0.09766146385818196, -0.24342747170690532, -0.355255126953125, -0.23092757165431976, 0.2636195719242096, -0.9698634743690491, 0.09750629216432571, -0.22328712046146393, -0.09484881162643433, 0.025647372007369995, -0.012888729572296143, -0.11342885855213353, -0.6127726592673404, 0.779394656766274,-0.06471029571401304,-1.06634521484375,0.1211090087890625,-0.23577880859375
20220223-1420,2022-02-23 14:20:21Z,u01, 55,40,movements,el-ex, rt, d,205549.34473375, -1.3517537958009709, -0.10693445838388198, -0.25038838574405525, -0.3188540041446686, -0.2911081612110138, 0.3277244567871094, -0.9705303311347961, 0.10673077404499054, -0.21605391800403595, -0.09822559356689453, 0.028080612421035767, -0.018260300159454346, -0.11936988024590067, -0.6145924444847968, 0.7771211036208621,-0.06410665381170078,-1.068756103515625,0.1348114013671875,-0.23431396484375
20220223-1420,2022-02-23 14:20:21Z,u01, 56,40,movements,el-ex, rt, d,205549.36967975, -1.3599978576250564, -0.117196193686138, -0.2540986466583078, -0.1771688312292099, -0.3260044753551483, 0.4024411737918854, -0.9711561799049377, 0.1169281005859375, -0.20780541002750397, -0.12115919589996338, 0.05595390498638153, -0.00893065333366394, -0.12470736618645012, -0.61688359391836, 0.7746482026479015,-0.06182736713410786,-1.101165771484375,0.1764373779296875,-0.2192840576171875
20220223-1420,2022-02-23 14:20:21Z,u01, 57,40,movements,el-ex, rt, d,205549.39462575002, -1.36838780108915, -0.1291153521481679, -0.2571194606120891, -0.29120439291000366, -0.3158142864704132, 0.4673188328742981, -0.9714312553405762, 0.12875691056251526, -0.19935593008995056, -0.1105692982673645, 0.017788439989089966, -0.020569264888763428, -0.13044385280236917, -0.61911746852694, 0.7721603629520559,-0.05870472102290547,-1.082000732421875,0.14654541015625,-0.2199249267578125
20220223-1420,2022-02-23 14:20:21Z,u01, 58,40,movements,el-ex, rt, d,205549.41957175, -1.3768037152991681, -0.1428243515429466, -0.2631207934629162, -0.3815617859363556, -0.309807151556015, 0.5181438326835632, -0.9712511897087097, 0.14233927428722382, -0.19081524014472961, -0.07512009143829346, 0.009195715188980103, -0.024135589599609375, -0.137753419430883, -0.6209801707700655, 0.7695837892204067,-0.05610994348084475,-1.047393798828125,0.1678924560546875,-0.2089691162109375
20220223-1420,2022-02-23 14:20:21Z,u01, 59,40,movements,el-ex, rt, d,205549.44451775, -1.385192836228205, -0.15841452707462528, -0.27115210619727526, -0.529151439666748, -0.28963136672973633, 0.5960577130317688, -0.9705186486244202, 0.15775278210639954, -0.18222898244857788, -0.08718991279602051, 0.08335128426551819, -0.012153029441833496, -0.14636953096016497, -0.6224640302226916, 0.7669667075728122,-0.053632279422694384,-1.057708740234375,0.2411041259765625,-0.1943817138671875
20220223-1420,2022-02-23 14:20:21Z,u01, 60,40,movements,el-ex, rt, d,205549.46946375002, -1.3943968984824227, -0.17677336277947833, -0.2855780151311921, -0.9303863048553467, -0.27870428562164307, 0.60309898853302, -0.969139814376831, 0.1758541464805603, -0.1727512627840042, -0.06807613372802734, 0.0783725380897522, -0.01915884017944336, -0.15799722464948876, -0.6234270173527061, 0.7639448677808226,-0.05257086688837426,-1.029541015625,0.2460479736328125,-0.1843109130859375
20220223-1420,2022-02-23 14:20:21Z,u01, 61,40,movements,el-ex, rt, d,205549.49440975, -1.405909407065722, -0.19756289601020496, -0.3131519123878676, -1.428056001663208, -0.2714511454105377, 0.6136903166770935, -0.9672485589981079, 0.19628022611141205, -0.16094788908958435, -0.061941444873809814, 0.035455018281936646, 0.018613621592521667, -0.17463881571455542, -0.623720564602562, 0.7598704937132992,-0.055413875349999975,-1.0291900634765625,0.2317352294921875,-0.142333984375
20220223-1420,2022-02-23 14:20:21Z,u01, 62,40,movements,el-ex, rt, d,205549.51935675, -1.4183486634110969, -0.2174416095329579, -0.3459566350625331, -1.2482028007507324, -0.20444968342781067, 0.5346164107322693, -0.9651279449462891, 0.21573218703269958, -0.148281991481781, -0.10823619365692139, 0.08218041062355042, 0.06139814853668213, -0.19253895165978707, -0.6235284751122203, 0.7553222768438284,-0.06024242421826981,-1.0664215087890625,0.3106689453125,-0.0795745849609375
20220223-1420,2022-02-23 14:20:22Z,u01, 63,40,movements,el-ex, rt, d,205549.54430275, -1.4282255897382223, -0.23341845805612657, -0.3652611835564637, -0.4142434000968933, -0.26634374260902405, 0.4600382149219513, -0.9630104303359985, 0.2313046157360077, -0.13823498785495758, -0.05516260862350464, 0.05224943161010742, 0.018071770668029785, -0.20467112729373393, -0.6236924230179957, 0.7519029643450545,-0.06131310009848134,-1.0181732177734375,0.2835540771484375,-0.1201629638671875
20220223-1420,2022-02-23 14:20:22Z,u01, 64,40,movements,el-ex, rt, d,205549.56924875002, -1.434805287149404, -0.2437968042121644, -0.36484926543187607, 0.2693330645561218, -0.2721560299396515, 0.3506025969982147, -0.9614687561988831, 0.24138888716697693, -0.13156317174434662, -0.028429687023162842, 0.030141249299049377, -0.021543845534324646, -0.20848701310789036, -0.6251012583064228, 0.7500163105176467,-0.05706950307709546,-0.9886016845703125,0.2674560546875,-0.155029296875
20220223-1420,2022-02-23 14:20:22Z,u01, 65,40,movements,el-ex, rt, d,205549.59419475, -1.4396411475542776, -0.2499930325746141, -0.356280386493068, 0.2681775689125061, -0.28068527579307556, 0.24668027460575104, -0.96059250831604, 0.24739721417427063, -0.1267140805721283, -0.03363955020904541, -0.03421670198440552, -0.010432183742523193, -0.2081671793564177, -0.6271438321642775, 0.7488150347389073,-0.05131216760669627,-0.994232177734375,0.2131805419921875,-0.13714599609375
20220223-1420,2022-02-23 14:20:22Z,u01, 66,40,movements,el-ex, rt, d,205549.61914075, -1.4452888160049668, -0.25529525788562685, -0.35168299925010515, 0.015478942543268204, -0.2829813063144684, 0.23107080161571503, -0.9599778056144714, 0.25253111124038696, -0.12112106382846832, -0.011060774326324463, -0.04519474506378174, 0.005886383354663849, -0.20876782345982456, -0.6291704571201694, 0.7472133052141303,-0.04725037726486181,-0.96722412109375,0.20037841796875,-0.110260009765625
20220223-1420,2022-02-23 14:20:22Z,u01, 67,40,movements,el-ex, rt, d,205549.64408675002, -1.4526254717239062, -0.26192587887935287, -0.3516100759658493, 0.006018195301294327, -0.3052240312099457, 0.2895098924636841, -0.9591567516326904, 0.2589412331581116, -0.11387492716312408, -0.007288992404937744, -0.03344684839248657, -0.0017259716987609863, -0.2112870855295936, -0.6312054358398212, 0.7449692072852454,-0.04425145763046906,-0.9664459228515625,0.225494384765625,-0.1156005859375
20220223-1420,2022-02-23 14:20:22Z,u01, 68,40,movements,el-ex, rt, d,205549.66903275, -1.458931786347767, -0.26871626719057506, -0.34775719338738725, 0.21906214952468872, -0.28577497601509094, 0.2794434130191803, -0.9580865502357483, 0.2654939889907837, -0.10762521624565125, -0.002713620662689209, -0.06764855980873108, 0.005207881331443787, -0.21262401773305972, -0.6332285684381195, 0.7431162084520353,-0.039886636010677046,-0.9591522216796875,0.1910858154296875,-0.0963592529296875
20220223-1420,2022-02-23 14:20:22Z,u01, 69,40,movements,el-ex, rt, d,205549.69397875, -1.462710099115331, -0.27432527807144047, -0.33855659944165545, 0.43751034140586853, -0.2231787145137787, 0.24830545485019684, -0.956990659236908, 0.2708975076675415, -0.10384220629930496, 0.00011217594146728516, -0.04641026258468628, -0.014459483325481415, -0.21177311092086093, -0.6350047599531689, 0.7421264821328222,-0.034194516770337136,-0.956878662109375,0.2244873046875,-0.1183013916015625
20220223-1420,2022-02-23 14:20:22Z,u01, 70,40,movements,el-ex, rt, d,205549.71892475002, -1.4643556088440761, -0.27878958722291886, -0.3264816503070337, 0.41409531235694885, -0.17790064215660095, 0.21808157861232758, -0.9559482932090759, 0.27519217133522034, -0.10213784128427505, -0.006362497806549072, -0.05583181977272034, 0.006876930594444275, -0.2095487787142686, -0.6364121219185034, 0.7418101437718196,-0.028046799769381292,-0.9676361083984375,0.2258148193359375,-0.0903167724609375
20220223-1420,2022-02-23 14:20:22Z,u01, 71,40,movements,el-ex, rt, d,205549.74387075, -1.466417444020825, -0.2833346125541995, -0.318364317048242, 0.17685991525650024, -0.18279039859771729, 0.22897343337535858, -0.9549028873443604, 0.27955886721611023, -0.10003525018692017, 0.0014881491661071777, -0.05932885408401489, -0.001725904643535614, -0.20860679053825232, -0.6375465328953942, 0.7412655685032948,-0.023298070935074355,-0.9534149169921875,0.2202301025390625,-0.1017608642578125
20220223-1420,2022-02-23 14:20:22Z,u01, 72,40,movements,el-ex, rt, d,205549.76881675, -1.4697607435350017, -0.2888280244294201, -0.31368469002298377, 0.22736072540283203, -0.18794581294059753, 0.2398020476102829, -0.9536896347999573, 0.2848289906978607, -0.09668581187725067, 0.001999199390411377, -0.04505243897438049, -0.023172251880168915, -0.20910147434002294, -0.6386968524634695, 0.740248227150164,-0.019371475439607877,-0.95361328125,0.2472686767578125,-0.1231689453125
20220223-1420,2022-02-23 14:20:22Z,u01, 73,40,movements,el-ex, rt, d,205549.79376275002, -1.4717406684424015, -0.29426535374942475, -0.3038551808022334, 0.46115198731422424, -0.20357389748096466, 0.2717380225658417, -0.9523241519927979, 0.2900368571281433, -0.09464284777641296, -0.0379558801651001, 0.0005514323711395264, -0.0447312593460083, -0.20790612080489107, -0.6398856325348887, 0.7396848598270672,-0.013700228708425466,-0.9902801513671875,0.29058837890625,-0.139373779296875
20220223-1420,2022-02-23 14:20:22Z,u01, 74,40,movements,el-ex, rt, d,205549.81870875, -1.473707739074046, -0.29976709733450757, -0.29272962118580875, 0.24009880423545837, -0.21362394094467163, 0.24700942635536194, -0.9509057402610779, 0.2952977120876312, -0.09261327236890793, -0.04440963268280029, -0.0428411066532135, -0.010872125625610352, -0.2063061267890307, -0.6411950914461062, 0.7390870794806945,-0.007531785060635454,-0.9875946044921875,0.2448272705078125,-0.098602294921875
20220223-1420,2022-02-23 14:20:22Z,u01, 75,40,movements,el-ex, rt, d,205549.84365475, -1.4786862488169614, -0.3067331974166173, -0.2914418073067976, -0.15916579961776733, -0.20860688388347626, 0.3353666663169861, -0.9492834806442261, 0.30194592475891113, -0.0876867026090622, -0.021526098251342773, -0.051473021507263184, -0.027181729674339294, -0.20837584879466511, -0.6424454482142671, 0.7374452456024412,-0.004191507294191099,-0.9708099365234375,0.2504730224609375,-0.1148681640625
20220223-1420,2022-02-23 14:20:22Z,u01, 76,40,movements,el-ex, rt, d,205549.86860075002, -1.4844960860952021, -0.31646703097215934, -0.29562043362594925, -0.15161868929862976, -0.14995722472667694, 0.3937321603298187, -0.9468039274215698, 0.3112109899520874, -0.08191286772489548, -0.044360995292663574, -0.040977925062179565, -0.02042817324399948, -0.21316283248041318, -0.643121430483887, 0.7354950323674438,-0.0018265785939016732,-0.9938812255859375,0.274078369140625,-0.0932769775390625
20220223-1420,2022-02-23 14:20:22Z,u01, 77,40,movements,el-ex, rt, d,205549.89354675, -1.4874100761990425, -0.3261249023284673, -0.2948259231109683, 0.16748398542404175, -0.10732760280370712, 0.383812814950943, -0.9439992308616638, 0.32037460803985596, -0.07889951020479202, -0.03636246919631958, -0.01284906268119812, -0.012272052466869354, -0.2163026550236932, -0.6432444366137056, 0.7344694190472328,0.0020514964575922834,-0.9803619384765625,0.307525634765625,-0.0911712646484375
20220223-1420,2022-02-23 14:20:22Z,u01, 78,40,movements,el-ex, rt, d,205549.91849275, -1.4873328678100017, -0.33403346068411527, -0.28728722918141403, 0.2819882929325104, -0.09848277270793915, 0.2984786927700043, -0.9414389729499817, 0.3278562128543854, -0.07875872403383255, -0.015012383460998535, -0.026418864727020264, -0.010917551815509796, -0.2166549178821148, -0.6431806014567374, 0.7343862773723576,0.007493548076627665,-0.9513702392578125,0.2978973388671875,-0.0838775634765625
20220223-1420,2022-02-23 14:20:22Z,u01, 79,40,movements,el-ex, rt, d,205549.94343875002, -1.487696033298277, -0.340685569671624, -0.28113911189199825, 0.1238042563199997, -0.09766384959220886, 0.28028157353401184, -0.9392731189727783, 0.3341333270072937, -0.07823403924703598, -0.025814533233642578, -0.004696160554885864, -0.02065848559141159, -0.21701099860763592, -0.6432644924955131, 0.7341469154257606,0.012045921564538264,-0.965087890625,0.329437255859375,-0.0988922119140625
20220223-1420,2022-02-23 14:20:22Z,u01, 80,40,movements,el-ex, rt, d,205549.96838475, -1.4895065352898953, -0.34742918122986266, -0.27905776324794923, 0.018504858016967773, -0.10445651412010193, 0.28260624408721924, -0.9371461272239685, 0.3404817283153534, -0.07634865492582321, -0.016573846340179443, -0.03202533721923828, -0.01807302236557007, -0.21869415631949274, -0.6434271812991462, 0.7334441093484708,0.015294534609698707,-0.945159912109375,0.30621337890625,-0.097686767578125
20220223-1420,2022-02-23 14:20:22Z,u01, 81,40,movements,el-ex, rt, d,205549.99333075, -1.491482810494268, -0.35421148343329933, -0.2763705352919661, 0.12831442058086395, -0.13841108977794647, 0.26417550444602966, -0.9349716305732727, 0.3468509018421173, -0.07431177794933319, -0.0019788742065429688, -0.025821328163146973, -0.0756061002612114, -0.22018741904626837, -0.64370926152049, 0.7326679467064044,0.018799153984564942,-0.93695068359375,0.3210296630859375,-0.1499176025390625
20220223-1420,2022-02-23 14:20:22Z,u01, 82,40,movements,el-ex, rt, d,205550.01827675002, -1.494840953212612, -0.35981923415630485, -0.27454750669718603, -0.06397713720798492, -0.19586850702762604, 0.1977647840976715, -0.9332618117332458, 0.352105051279068, -0.0710228830575943, -0.0036582350730895996, -0.044503211975097656, -0.10268347710371017, -0.22152603719098937, -0.6445267826481955, 0.7314632856710654,0.021743645140372414,-0.929107666015625,0.30926513671875,-0.176361083984375
20220223-1420,2022-02-23 14:20:22Z,u01, 83,40,movements,el-ex, rt, d,205550.04322325002, -1.5013629505737163, -0.3646280588275331, -0.277965882604214, -0.1648193895816803, -0.22306911647319794, 0.1687050312757492, -0.9320052862167358, 0.3566018342971802, -0.06481646746397018, 0.02021646499633789, -0.020984798669815063, -0.12378251552581787, -0.2242311137320344, -0.6459970381263728, 0.7293048609813124,0.022860900676382412,-0.9117889404296875,0.3356170654296875,-0.1885986328125
20220223-1420,2022-02-23 14:20:22Z,u01, 84,40,movements,el-ex, rt, d,205550.06817025002, -1.5077432021312547, -0.36873524777109923, -0.2804379784531108, -0.03319821506738663, -0.22386319935321808, 0.1675325185060501, -0.9309302568435669, 0.36043599247932434, -0.058775972574949265, 0.010001420974731445, -0.046303361654281616, -0.08799862861633301, -0.22638003860693473, -0.6475832699239973, 0.7271917672135569,0.024083836586766827,-0.9247589111328125,0.3153533935546875,-0.1280517578125
20220223-1420,2022-02-23 14:20:22Z,u01, 85,40,movements,el-ex, rt, d,205550.09311625, -1.5129936020071482, -0.3730542613962692, -0.27970895732239276, 0.06769590824842453, -0.21224862337112427, 0.18241772055625916, -0.9296631813049316, 0.3644613027572632, -0.05379699170589447, -0.02649819850921631, 0.005610048770904541, -0.03452122211456299, -0.2275696684492957, -0.6490867042712909, 0.7253964961540984,0.026425461974823983,-0.9561614990234375,0.3700714111328125,-0.08831787109375
20220223-1420,2022-02-23 14:20:22Z,u01, 86,40,movements,el-ex, rt, d,205550.11806225003, -1.517602808219156, -0.3771957402920442, -0.27772463666007935, 0.05061725527048111, -0.22150936722755432, 0.15574656426906586, -0.9283859133720398, 0.36831480264663696, -0.04943074285984039, -0.018070757389068604, 0.036500781774520874, 0.0016551092267036438, -0.2282877243221407, -0.6505146752612867, 0.7237877765022651,0.029093170555128556,-0.9544525146484375,0.4043426513671875,-0.036346435546875
20220223-1420,2022-02-23 14:20:22Z,u01, 87,40,movements,el-ex, rt, d,205550.14300825002, -1.5221607930847063, -0.380256404862616, -0.2767334605079818, 0.0006648413836956024, -0.15804550051689148, 0.10302896052598953, -0.9274712800979614, 0.37115857005119324, -0.04514366015791893, -0.06801193952560425, 0.0132407546043396, 0.00693536177277565, -0.22894808664832397, -0.6519286340742817, 0.7222249892377631,0.031026795265817975,-0.9954833984375,0.3843994140625,-0.0382080078125
20220223-1420,2022-02-23 14:20:22Z,u01, 88,40,movements,el-ex, rt, d,205550.16795425, -1.5251584056899479, -0.38216002052084114, -0.27806081584757186, -0.12976476550102234, -0.06425289809703827, 0.056582964956760406, -0.9268949031829834, 0.3729255497455597, -0.04233095049858093, -0.0639190673828125, -0.0035103261470794678, 0.009112242609262466, -0.22998663104406905, -0.6526413063621054, 0.7212280531468886,0.0315486596593752,-0.986724853515625,0.3659210205078125,-0.0312957763671875
20220223-1420,2022-02-23 14:20:22Z,u01, 89,40,movements,el-ex, rt, d,205550.19290025003, -1.5281840486493743, -0.38357241686876586, -0.2834373758277179, -0.26059889793395996, -0.05836405232548714, 0.03353177011013031, -0.9264916777610779, 0.3742356598377228, -0.03950383514165878, -0.03478133678436279, -0.0039049386978149414, 0.011656228452920914, -0.2321776297460532, -0.6529484137546571, 0.7202948311425865,0.03044879092376296,-0.961273193359375,0.370330810546875,-0.0278472900390625
20220223-1420,2022-02-23 14:20:22Z,u01, 90,40,movements,el-ex, rt, d,205550.21784625002, -1.531529054609798, -0.3849515843883639, -0.2891264535556069, -0.1133282408118248, 0.0014143269509077072, 0.04142405092716217, -0.9261019229888916, 0.37551426887512207, -0.03638419881463051, -0.0444483757019043, 0.03706800937652588, -0.009194131940603256, -0.2344559162590631, -0.6533286497079184, 0.7192601449499122,0.029269091586409335,-0.97113037109375,0.402099609375,-0.0639495849609375
20220223-1420,2022-02-23 14:20:22Z,u01, 91,40,movements,el-ex, rt, d,205550.24279225, -1.5301379534395718, -0.3848677339305484, -0.29010811610992027, -0.05389896780252457, 0.1212712898850441, 0.007891192100942135, -0.9260818362236023, 0.37543654441833496, -0.037673741579055786, 0.0073503851890563965, -0.0698031485080719, 0.01126045361161232, -0.23476805249451918, -0.6527228283851199, 0.7197301722212504,0.028723714062395767,-0.918731689453125,0.305633544921875,-0.0264129638671875
20220223-1420,2022-02-23 14:20:22Z,u01, 92,40,movements,el-ex, rt, d,205550.26773825003, -1.5289655949486727, -0.38485158495886607, -0.294685815270917, -0.24938809871673584, 0.0971013680100441, 0.04814127832651138, -0.9260432124137878, 0.37542158365249634, -0.03875967487692833, 0.026659846305847168, -0.051996320486068726, 0.05662739276885986, -0.2362717346966581, -0.65176363020447, 0.7201766083280816,0.026932178386508188,-0.9064788818359375,0.3362884521484375,0.0160369873046875
20220223-1420,2022-02-23 14:20:22Z,u01, 93,40,movements,el-ex, rt, d,205550.29268425002, -1.529161098311425, -0.3857763256627301, -0.3003720851605972, -0.08982717990875244, 0.10254015028476715, 0.01597435213625431, -0.9257034063339233, 0.37627851963043213, -0.03856416046619415, 0.013304352760314941, -0.03214719891548157, 0.02379334345459938, -0.23843605685090816, -0.6510500496127174, 0.7201703876346799,0.025227972837229606,-0.9123992919921875,0.3441314697265625,-0.0147705078125
20220223-1420,2022-02-23 14:20:22Z,u01, 94,40,movements,el-ex, rt, d,205550.31763025, -1.5245631035955352, -0.3849409263720981, -0.29897843833248156, 0.1061929315328598, 0.1698472797870636, 0.028767379000782967, -0.925830066204071, 0.37550437450408936, -0.042834632098674774, 0.03802812099456787, -0.06568998098373413, 0.007250845432281494, -0.23775586357875084, -0.649657473316125, 0.7216629760173837,0.024894024869548448,-0.882568359375,0.3079071044921875,-0.0236053466796875
20220223-1420,2022-02-23 14:20:22Z,u01, 95,40,movements,el-ex, rt, d,205550.34257625003, -1.522511345135402, -0.38251805511197184, -0.300287790132355, -0.21412834525108337, 0.12088985741138458, 0.05423305928707123, -0.9266464114189148, 0.37325772643089294, -0.04477790743112564, 0.06159520149230957, -0.07465857267379761, 0.047295331954956055, -0.23737861657135514, -0.6490473312692189, 0.7223877812310961,0.0233410523491977,-0.86505126953125,0.2985992431640625,0.0025177001953125
20220223-1420,2022-02-23 14:20:22Z,u01, 96,40,movements,el-ex, rt, d,205550.36752225002, -1.5242113887068602, -0.3835146425829073, -0.30992660598424177, -0.3987436294555664, 0.11033061891794205, 0.02505512908101082, -0.9263490438461304, 0.3741821050643921, -0.04318515583872795, 0.030368328094482422, -0.046286046504974365, 0.037554383277893066, -0.24082643714112087, -0.6483903526314343, 0.7219251561216615,0.02040805315967964,-0.885833740234375,0.3339996337890625,-0.0153961181640625
20220223-1420,2022-02-23 14:20:22Z,u01, 97,40,movements,el-ex, rt, d,205550.39246825, -1.5249499450765973, -0.3837732247466096, -0.3182265014921666, -0.22586460411548615, 0.10255885124206543, 0.030675867572426796, -0.9262840151786804, 0.3744218945503235, -0.04249655082821846, 0.053145766258239746, -0.03236567974090576, 0.012451648712158203, -0.24359661095022633, -0.647620580377297, 0.7217608520795057,0.017591230707264205,-0.873138427734375,0.3420562744140625,-0.0300445556640625
20220223-1420,2022-02-23 14:20:22Z,u01, 98,40,movements,el-ex, rt, d,205550.41741425003, -1.5242709411348754, -0.38456111936702553, -0.3234731057997076, -0.1727691888809204, 0.13335397839546204, 0.04543237388134003, -0.9259598255157471, 0.3751523494720459, -0.04311174899339676, 0.03741025924682617, -0.03010544180870056, 0.026250485330820084, -0.24556772483337597, -0.646637934443269, 0.7220133035985,0.015886802401921085,-0.88580322265625,0.348876953125,-0.017303466796875
20220223-1420,2022-02-23 14:20:22Z,u01, 99,40,movements,el-ex, rt, d,205550.44236025002, -1.5233952325046272, -0.38517458588381054, -0.3277210391458731, -0.09915728867053986, 0.07177078723907471, 0.05705254524946213, -0.9256917238235474, 0.37572094798088074, -0.04391169548034668, 0.06996375322341919, -0.0257301926612854, 0.019878748804330826, -0.24715521089173514, -0.6457232029644424, 0.722320325120865,0.0144570245328145,-0.8557281494140625,0.3499908447265625,-0.0240325927734375
20220223-1420,2022-02-23 14:20:22Z,u01, 100,40,movements,el-ex, rt, d,205550.46730625, -1.5217607069688321, -0.3861869201249442, -0.3266178230531961, 0.20450907945632935, 0.02713507041335106, 0.027746787294745445, -0.9252383708953857, 0.37665891647338867, -0.0454060360789299, 0.04840749502182007, -0.007106363773345947, -0.0031629763543605804, -0.24715516910239957, -0.6451444064415062, 0.7228262115928319,0.015003182505914314,-0.8793182373046875,0.3688201904296875,-0.0517120361328125
20220223-1420,2022-02-23 14:20:22Z,u01, 101,40,movements,el-ex, rt, d,205550.49225225, -1.5184088347133324, -0.38594262169361554, -0.3193210774973464, 0.26234865188598633, 0.037607885897159576, -0.0008756010793149471, -0.9251729249954224, 0.3764325976371765, -0.04851187765598297, 0.031511545181274414, -0.009992837905883789, -0.013118743896484375, -0.24474572157028662, -0.6448593595311337, 0.7238521037486734,0.017145737955439,-0.8936614990234375,0.3664398193359375,-0.0616302490234375
20220223-1420,2022-02-23 14:20:22Z,u01, 102,40,movements,el-ex, rt, d,205550.51719825002, -1.5159464172348447, -0.3853457328224875, -0.31504128078787585, 0.052510760724544525, 0.0431412011384964, -0.019108867272734642, -0.9252747297286987, 0.37587952613830566, -0.050802189856767654, 0.03368866443634033, -0.013803869485855103, -0.025797240436077118, -0.2431841530533566, -0.644562155299843, 0.7246171549322378,0.018189650540716695,-0.8875579833984375,0.3623809814453125,-0.0759124755859375
20220223-1420,2022-02-23 14:20:23Z,u01, 103,40,movements,el-ex, rt, d,205550.54214425, -1.5166473320797684, -0.38546948755736105, -0.31676459627321507, -0.15388062596321106, -0.03608304634690285, 0.009621581062674522, -0.9252637028694153, 0.3759942054748535, -0.050151124596595764, 0.04243612289428711, -0.010363250970840454, -0.00485711544752121, -0.243775534152524, -0.644591286844709, 0.724404809528417,0.01769328671389281,-0.8828277587890625,0.365631103515625,-0.0550079345703125
20220223-1420,2022-02-23 14:20:23Z,u01, 104,40,movements,el-ex, rt, d,205550.56709025, -1.519193318116261, -0.3863525410436058, -0.3197202655399387, -0.005722050555050373, -0.09135083109140396, 0.04241734370589256, -0.925056517124176, 0.3768123388290405, -0.047778114676475525, 0.0526505708694458, 0.016620218753814697, -0.043912291526794434, -0.24500742780470028, -0.6450444193054444, 0.7235964218028131,0.017238603228025007,-0.86865234375,0.40576171875,-0.090057373046875
20220223-1420,2022-02-23 14:20:23Z,u01, 105,40,movements,el-ex, rt, d,205550.59203625002, -1.5199369636447826, -0.38710306421623103, -0.3146702115682701, 0.38161608576774597, -0.13265512883663177, 0.021292883902788162, -0.9248090982437134, 0.37750741839408875, -0.047075800597667694, 0.0009962916374206543, 0.04183459281921387, -0.012006528675556183, -0.24362664274539195, -0.6458391122809639, 0.7232986306916234,0.019414887339403497,-0.9238128662109375,0.419342041015625,-0.05908203125
20220223-1420,2022-02-23 14:20:23Z,u01, 106,40,movements,el-ex, rt, d,205550.61698225, -1.5169760605661964, -0.3853338596861331, -0.3011961924582568, 0.5433187484741211, -0.086061991751194, -0.10847356915473938, -0.9253310561180115, 0.3758685290813446, -0.049849703907966614, -0.0288161039352417, 0.005799442529678345, 0.02900588884949684, -0.23870030082678223, -0.6466044491670562, 0.7241413484469374,0.02332416754425176,-0.9415283203125,0.3785552978515625,-0.01141357421875
20220223-1420,2022-02-23 14:20:23Z,u01, 107,40,movements,el-ex, rt, d,205550.64192825, -1.5143676266673711, -0.38311717048682864, -0.28901792291746986, 0.3433821499347687, -0.07697242498397827, -0.10624030977487564, -0.9260274767875671, 0.3738134801387787, -0.05231006070971489, -0.02921837568283081, 0.012523740530014038, 0.04147601127624512, -0.2340330845887152, -0.6473588532779189, 0.7248750674354579,0.026665251064358853,-0.9552459716796875,0.3863372802734375,-0.010833740234375
20220223-1420,2022-02-23 14:20:23Z,u01, 108,40,movements,el-ex, rt, d,205550.66687425002, -1.5117244194006523, -0.38132798166264964, -0.28148576471037373, 0.16995321214199066, 0.02528836578130722, 0.003772146999835968, -0.9265521168708801, 0.3721534013748169, -0.05479695275425911, 0.002617359161376953, -0.05144423246383667, -0.009046133607625961, -0.23101561908855497, -0.6474822831449196, 0.7256634740300996,0.02847506344617201,-0.9251861572265625,0.3082733154296875,-0.050262451171875
20220223-1420,2022-02-23 14:20:23Z,u01, 109,40,movements,el-ex, rt, d,205550.69182025, -1.5090513225022744, -0.3829824452573407, -0.2791630224388406, 0.04709489271044731, 0.07189468294382095, 0.07545052468776703, -0.9257864356040955, 0.3736885190010071, -0.057235442101955414, 0.0026451945304870605, -0.022538065910339355, 0.056380633264780045, -0.23087350470754875, -0.6465908316726533, 0.7264590081780126,0.029576844210240538,-0.9231414794921875,0.3511505126953125,-0.0008544921875
20220223-1420,2022-02-23 14:20:23Z,u01, 110,40,movements,el-ex, rt, d,205550.71676725, -1.5051171394324858, -0.3850952504335188, -0.27506561613575464, 0.2805980443954468, 0.15854144096374512, 0.04614643752574921, -0.9247643947601318, 0.3756474256515503, -0.06082526221871376, -0.005090832710266113, 0.04972177743911743, 0.015368998050689697, -0.2303398940360163, -0.6453920533818092, 0.7276198483628477,0.031335724730001735,-0.9360198974609375,0.4285125732421875,-0.07635498046875
20220223-1420,2022-02-23 14:20:23Z,u01, 111,40,movements,el-ex, rt, d,205550.74171325003, -1.4948458590569433, -0.3832196083872185, -0.2660903104058875, 0.1976570338010788, 0.354953408241272, -0.16412517428398132, -0.9247916340827942, 0.37390848994255066, -0.07037372887134552, 0.02817016839981079, -0.03853565454483032, -0.032348744571208954, -0.226962923992884, -0.642884879615134, 0.7308290836753193,0.03279457025476529,-0.8966217041015625,0.3353729248046875,-0.10272216796875
20220223-1420,2022-02-23 14:20:23Z,u01, 112,40,movements,el-ex, rt, d,205550.76665925002, -1.486436671679621, -0.3810664262942872, -0.2700340209029078, -0.4443579614162445, 0.39115676283836365, -0.0849653109908104, -0.9249672293663025, 0.37191060185432434, -0.07821554690599442, 0.014261901378631592, 0.007895827293395996, 0.07357657700777054, -0.2276074109327536, -0.6395991653625053, 0.7336399456661544,0.029664542708129682,-0.9185028076171875,0.4243621826171875,0.00390625
20220223-1420,2022-02-23 14:20:23Z,u01, 113,40,movements,el-ex, rt, d,205550.79160525, -1.4797688367827078, -0.37805830067707324, -0.2789054222331761, -0.044480565935373306, 0.38239264488220215, -0.23155760765075684, -0.925535261631012, 0.36911657452583313, -0.08448261767625809, -0.0028551220893859863, 0.06133377552032471, 0.015543103218078613, -0.22947529050111873, -0.636474493391243, 0.7359584081860266,0.024626316628313882,-0.9283905029296875,0.430450439453125,-0.068939208984375
20220223-1420,2022-02-23 14:20:23Z,u01, 114,40,movements,el-ex, rt, d,205550.81655125, -1.4672426965733651, -0.370487493408967, -0.2751693608367698, 0.3182191848754883, 0.4816315472126007, -0.34014061093330383, -0.9271572828292847, 0.36206990480422974, -0.09635517001152039, -0.00010383129119873047, 0.015096783638000488, 0.014674611389636993, -0.22577256342660734, -0.6331265005869936, 0.7400621148586178,0.022032288061756167,-0.9056549072265625,0.36578369140625,-0.0921478271484375
20220223-1420,2022-02-23 14:20:23Z,u01, 115,40,movements,el-ex, rt, d,205550.84149725002, -1.4533689285161413, -0.3619370261188079, -0.2696738935449063, 0.08290278911590576, 0.46951550245285034, -0.30007654428482056, -0.9287720322608948, 0.35408642888069153, -0.10956735908985138, 0.0689699649810791, -0.1444154977798462, -0.021689049899578094, -0.22114982563122343, -0.6295308362609219, 0.7445782587615252,0.01966521911303243,-0.85980224609375,0.2096710205078125,-0.131256103515625
20220223-1420,2022-02-23 14:20:23Z,u01, 116,40,movements,el-ex, rt, d,205550.86644325, -1.4438253984548066, -0.3560561874444687, -0.273044299118136, -0.22692137956619263, 0.37115350365638733, -0.2236347794532776, -0.9297335743904114, 0.3485805094242096, -0.11868763715028763, 0.05806022882461548, -0.08208587765693665, 0.006748870015144348, -0.22019168685032672, -0.6262362206762963, 0.747734168369096,0.015402179953738604,-0.86724853515625,0.29144287109375,-0.123077392578125
20220223-1420,2022-02-23 14:20:23Z,u01, 117,40,movements,el-ex, rt, d,205550.89138925, -1.437567481161042, -0.3523956659878863, -0.2795057845798592, -0.16111303865909576, 0.31057384610176086, -0.16859197616577148, -0.9302311539649963, 0.3451472520828247, -0.12467213720083237, 0.05324763059616089, -0.036202579736709595, -0.026847898960113525, -0.2209401622249145, -0.6235778835759056, 0.7498087064661683,0.011082440906484858,-0.876983642578125,0.3089447021484375,-0.151519775390625
20220223-1420,2022-02-23 14:20:23Z,u01, 118,40,movements,el-ex, rt, d,205550.91633525002, -1.4305537151154117, -0.3492577711565653, -0.28103741901885654, 0.07135658711194992, 0.2818314731121063, -0.09887006878852844, -0.9304016828536987, 0.34220048785209656, -0.13134418427944183, 0.06719690561294556, -0.023581773042678833, -0.04556649923324585, -0.22032353771495042, -0.6211162911360081, 0.7520613373313629,0.008699542147497075,-0.8499298095703125,0.31292724609375,-0.1753692626953125
20220223-1420,2022-02-23 14:20:23Z,u01, 119,40,movements,el-ex, rt, d,205550.94128125, -1.424071953629059, -0.3477236401241222, -0.28010087908001585, -0.039703987538814545, 0.22467158734798431, -0.04828432947397232, -0.9300491213798523, 0.3407585620880127, -0.13744862377643585, 0.07561802864074707, -0.07166987657546997, -0.03535749018192291, -0.2195066593306379, -0.6189446766063293, 0.7540973851905848,0.00783573656458797,-0.85443115234375,0.2690887451171875,-0.1728057861328125
20220223-1420,2022-02-23 14:20:23Z,u01, 120,40,movements,el-ex, rt, d,205550.96622725, -1.420447053183117, -0.347633366391329, -0.2829399526810353, -0.12096402049064636, 0.1251978576183319, 0.009890693239867687, -0.9295750260353088, 0.34067368507385254, -0.140823632478714, 0.08611518144607544, -0.02106320858001709, -0.03941349685192108, -0.220364316076869, -0.6172744518718837, 0.7552294134340086,0.006336299721789895,-0.8388519287109375,0.3193817138671875,-0.178863525390625
20220223-1420,2022-02-23 14:20:23Z,u01, 121,40,movements,el-ex, rt, d,205550.99117325002, -1.419283872745569, -0.3484781832333381, -0.2840546788255064, 0.07505305856466293, -0.0034644510596990585, 0.04022842273116112, -0.9291258454322815, 0.34146785736083984, -0.14186131954193115, 0.07228398323059082, 0.010933786630630493, -0.01390068233013153, -0.22101739855363578, -0.6166203432611173, 0.7555751117173035,0.006063185130200155,-0.856842041015625,0.3524017333984375,-0.15576171875
20220223-1420,2022-02-23 14:20:23Z,u01, 122,40,movements,el-ex, rt, d,205551.01611925, -1.4182540045892005, -0.34862054152319977, -0.27905842789592394, 0.2582308053970337, -0.028367802500724792, -0.028244774788618088, -0.9289312362670898, 0.3416016697883606, -0.14281074702739716, 0.024726033210754395, 0.09660020470619202, 0.0027652978897094727, -0.21953193998379283, -0.6167660447345049, 0.7558724301054232,0.007884167849529167,-0.90557861328125,0.4381103515625,-0.1566925048828125
20220223-1420,2022-02-23 14:20:23Z,u01, 123,40,movements,el-ex, rt, d,205551.04106466667, -1.4163103480792103, -0.34592681029288824, -0.27231747520493127, 0.19913817942142487, -0.039395153522491455, -0.07482878863811493, -0.929557740688324, 0.339068740606308, -0.14475706219673157, 0.08918005228042603, 0.02225932478904724, -0.007770061492919922, -0.21648416730907563, -0.6170543551075693, 0.7564992523192406,0.009341566731677853,-0.8403778076171875,0.361328125,-0.15252685546875
20220223-1420,2022-02-23 14:20:23Z,u01, 124,40,movements,el-ex, rt, d,205551.0660106667, -1.4170921479867156, -0.3442861079593701, -0.26849351976498587, 0.1731964647769928, -0.1473834067583084, -0.007244152016937733, -0.9302191138267517, 0.33752477169036865, -0.14411526918411255, 0.12141191959381104, 0.05044513940811157, 0.014110088348388672, -0.21470388266153284, -0.6179357662874378, 0.7562741928049742,0.010336635652993698,-0.811004638671875,0.3992462158203125,-0.12689208984375
20220223-1420,2022-02-23 14:20:23Z,u01, 125,40,movements,el-ex, rt, d,205551.09095666668, -1.4177010094099896, -0.3452291075196826, -0.25932442975287645, 0.486930787563324, -0.12609229981899261, 0.11800025403499603, -0.9299916625022888, 0.3384122848510742, -0.14350025355815887, 0.11975014209747314, 0.049344003200531006, 0.014212250709533691, -0.2122073232643801, -0.6190459799672624, 0.7560085904795752,0.014175972140634818,-0.81024169921875,0.38775634765625,-0.1292877197265625
20220223-1420,2022-02-23 14:20:23Z,u01, 126,40,movements,el-ex, rt, d,205551.11590266667, -1.4154157983630442, -0.3488170044306618, -0.24858353538444192, 0.12815141677856445, 0.016004320234060287, 0.1887662261724472, -0.9284558892250061, 0.34178629517555237, -0.14543628692626953, 0.09285414218902588, 0.010554343461990356, 0.02293841540813446, -0.21020776106693215, -0.6189463254749115, 0.7565386849941436,0.019166191619186257,-0.832611083984375,0.344818115234375,-0.12353515625
20220223-1420,2022-02-23 14:20:23Z,u01, 127,40,movements,el-ex, rt, d,205551.1408486667, -1.4160957237126368, -0.3546300731759539, -0.25286929207412634, -0.4209916591644287, 0.042496249079704285, 0.16337259113788605, -0.9265757203102112, 0.3472434878349304, -0.1444963812828064, 0.08825802803039551, 0.05885383486747742, 0.06110680103302002, -0.2136424266498885, -0.6181494368007221, 0.7562191186415823,0.019511872263809682,-0.83831787109375,0.406097412109375,-0.0833892822265625
20220223-1420,2022-02-23 14:20:23Z,u01, 128,40,movements,el-ex, rt, d,205551.16579466668, -1.4173419490409815, -0.35857101385796136, -0.26436330656309703, -0.3805820345878601, 0.15508811175823212, 0.03260985016822815, -0.9253955483436584, 0.35093650221824646, -0.14313127100467682, 0.05010581016540527, 0.15429723262786865, 0.03869980573654175, -0.21861138475747313, -0.61696306953755, 0.7558375992934538,0.01658695877484645,-0.85345458984375,0.4986114501953125,-0.123199462890625
20220223-1420,2022-02-23 14:20:23Z,u01, 129,40,movements,el-ex, rt, d,205551.19074066667, -1.4168052903404122, -0.3612081659073182, -0.271235191849807, -0.21858029067516327, 0.08136548846960068, 0.09635854512453079, -0.9244007468223572, 0.353404700756073, -0.1434853971004486, 0.11299961805343628, 0.09679052233695984, -0.001183435320854187, -0.2216890576594813, -0.6157201179351729, 0.7559918959408412,0.014791162400573599,-0.8114013671875,0.4501953125,-0.1446685791015625
20220223-1420,2022-02-23 14:20:23Z,u01, 130,40,movements,el-ex, rt, d,205551.2156866667, -1.4169062545275388, -0.36322816048075485, -0.2747487677452346, -0.05195978656411171, -0.011448672972619534, 0.02306348644196987, -0.9237079620361328, 0.3552936315536499, -0.14328235387802124, 0.11436665058135986, 0.10109668970108032, -0.023801684379577637, -0.2235008174874696, -0.6151473048995962, 0.7559373757084495,0.014133504790075024,-0.801177978515625,0.4499664306640625,-0.1721649169921875
20220223-1420,2022-02-23 14:20:23Z,u01, 131,40,movements,el-ex, rt, d,205551.24063266668, -1.4176471857772808, -0.3638460065652406, -0.2734441077582341, 0.11858662217855453, -0.08697199076414108, 0.035616762936115265, -0.9235967993736267, 0.3558710813522339, -0.14256440103054047, 0.10941839218139648, 0.07357221841812134, -0.03164549171924591, -0.22331759385847533, -0.6155055241914233, 0.7556849900887861,0.014910976611172189,-0.814178466796875,0.429443359375,-0.1742095947265625
20220223-1420,2022-02-23 14:20:23Z,u01, 132,40,movements,el-ex, rt, d,205551.26557866667, -1.4192077325392902, -0.3646339055585299, -0.27126101171899714, -0.03176447004079819, -0.11002151668071747, 0.039556775242090225, -0.9235406517982483, 0.3566072881221771, -0.14108052849769592, 0.08951067924499512, 0.0833340585231781, -0.018191039562225342, -0.22291819649372566, -0.6162525586717479, 0.7551680494335651,0.0161669866588231,-0.83544921875,0.4417572021484375,-0.159271240234375
20220223-1420,2022-02-23 14:20:23Z,u01, 133,40,movements,el-ex, rt, d,205551.2905246667, -1.4225951651385178, -0.3691130438967971, -0.27426584834452405, -0.19936035573482513, -0.11826206743717194, 0.028515908867120743, -0.9224242568016052, 0.36078834533691406, -0.13771405816078186, 0.1007232666015625, 0.08695027232170105, -0.008160308003425598, -0.22543395371216077, -0.6167029297108051, 0.7540372152581363,0.01687779807569889,-0.8217010498046875,0.4477386474609375,-0.1458740234375
20220223-1420,2022-02-23 14:20:23Z,u01, 134,40,movements,el-ex, rt, d,205551.31547066668, -1.4268201451597569, -0.3724944103718899, -0.2787789412910366, -0.1118490919470787, -0.13446833193302155, 0.026387911289930344, -0.921785295009613, 0.36393991112709045, -0.13363981246948242, 0.09404176473617554, 0.08550772070884705, 0.002062961459159851, -0.22800838119386893, -0.6174077019466925, 0.7526877258376873,0.016765009298828848,-0.826263427734375,0.4449462890625,-0.13336181640625
20220223-1420,2022-02-23 14:20:23Z,u01, 135,40,movements,el-ex, rt, d,205551.34041666667, -1.429530196484731, -0.3761141333110418, -0.2791008012362595, 0.029590435326099396, -0.126850426197052, 0.08944297581911087, -0.9208336472511292, 0.36730900406837463, -0.13095489144325256, 0.10174202919006348, 0.06739860773086548, -0.003948330879211426, -0.2293842577206254, -0.6179849674584835, 0.7517633392416592,0.018142561030846327,-0.819091796875,0.4347076416015625,-0.1349029541015625
20220223-1420,2022-02-23 14:20:23Z,u01, 136,40,movements,el-ex, rt, d,205551.3653626667, -1.4321606907773645, -0.37952580105422806, -0.278812357269263, -0.072452113032341, -0.10175986588001251, 0.04757315665483475, -0.9199284315109253, 0.3704800605773926, -0.12835825979709625, 0.0841132402420044, 0.04924333095550537, -0.0011281222105026245, -0.2304934107390893, -0.6186223875677946, 0.7508606962595841,0.01967530652178906,-0.8306121826171875,0.4192962646484375,-0.125091552734375
20220223-1420,2022-02-23 14:20:23Z,u01, 137,40,movements,el-ex, rt, d,205551.39030866668, -1.4361945799600242, -0.38377312166706146, -0.28355127361095045, -0.3519694209098816, -0.06678463518619537, 0.01986103504896164, -0.9188710451126099, 0.37442177534103394, -0.12443404644727707, 0.07484668493270874, 0.031126201152801514, 0.04595781862735748, -0.23343900896258066, -0.6191035512988564, 0.7495506061261602,0.019764936003916767,-0.844024658203125,0.405548095703125,-0.0784759521484375
20220223-1420,2022-02-23 14:20:23Z,u01, 138,40,movements,el-ex, rt, d,205551.41525466667, -1.4416995787185072, -0.3873341632455439, -0.2983138563554443, -0.8048550486564636, 0.01185891218483448, 0.06562919169664383, -0.9182141423225403, 0.3777213990688324, -0.11920139938592911, 0.11236715316772461, 0.04242923855781555, 0.03729195147752762, -0.2392271067166303, -0.6190070208426264, 0.7478919704801867,0.016065525429835248,-0.7989654541015625,0.4188232421875,-0.0872344970703125
20220223-1420,2022-02-23 14:20:23Z,u01, 139,40,movements,el-ex, rt, d,205551.4402006667, -1.449974379757773, -0.39375063955753176, -0.32315882409768204, -0.9452768564224243, 0.0693415105342865, 0.14263835549354553, -0.9167441725730896, 0.38365474343299866, -0.11130495369434357, 0.1032983660697937, 0.06379392743110657, 0.04097688943147659, -0.24912657393909576, -0.6182907673744901, 0.7453547364101127,0.009930109209191906,-0.813446044921875,0.44744873046875,-0.0703277587890625
20220223-1420,2022-02-23 14:20:23Z,u01, 140,40,movements,el-ex, rt, d,205551.46514666668, -1.4554706543279714, -0.3990679364850198, -0.3423380755408062, -0.4639532268047333, 0.07520739734172821, 0.10380653291940689, -0.9153026342391968, 0.3885596990585327, -0.10602837055921555, 0.08812391757965088, 0.09607461094856262, 0.05855799466371536, -0.25689414836941626, -0.6172448562977408, 0.7436304737591664,0.00525808465735178,-0.8282470703125,0.490234375,-0.0485687255859375
20220223-1420,2022-02-23 14:20:23Z,u01, 141,40,movements,el-ex, rt, d,205551.49009266667, -1.4568828588106502, -0.40106323830631935, -0.3498772713378173, -0.20568682253360748, 0.05704502761363983, 0.0271260067820549, -0.9146795272827148, 0.39039742946624756, -0.10464735329151154, 0.044348835945129395, 0.08955246210098267, 0.019152045249938965, -0.2599127722795809, -0.6165400827892527, 0.7431774248736022,0.0033045862436239526,-0.870330810546875,0.479949951171875,-0.0854949951171875
20220223-1420,2022-02-23 14:20:23Z,u01, 142,40,movements,el-ex, rt, d,205551.51503866666, -1.4565305200167935, -0.40091267706181594, -0.3547197811978246, -0.17462104558944702, 0.10236244648694992, -0.07579398155212402, -0.9147010445594788, 0.3902588188648224, -0.10497632622718811, 0.01251000165939331, 0.07814019918441772, 0.0001481771469116211, -0.2613526329208668, -0.615797561780763, 0.7432941098633563,0.0014087957292707176,-0.8943634033203125,0.457183837890625,-0.0994720458984375
20220223-1420,2022-02-23 14:20:24Z,u01, 143,40,movements,el-ex, rt, d,205551.5399856667, -1.4561301695942583, -0.39927806874237, -0.35898094925993984, -0.04393022134900093, 0.05852854624390602, -0.07331018894910812, -0.9152913689613342, 0.3887532949447632, -0.10541535913944244, 0.041863203048706055, 0.010843813419342041, -0.021675407886505127, -0.2620949971636817, -0.6153036105630182, 0.7434426356437627,-0.0007735147163704936,-0.8734283447265625,0.39959716796875,-0.1270904541015625
20220223-1420,2022-02-23 14:20:24Z,u01, 144,40,movements,el-ex, rt, d,205551.56493166668, -1.4554698232579817, -0.3976871606655782, -0.3591938681575828, 0.027179207652807236, -0.002833946608006954, -0.014711389318108559, -0.9158347249031067, 0.38728705048561096, -0.10609077662229538, 0.040102481842041016, -0.03775402903556824, -0.0397377610206604, -0.2616060764252462, -0.6152372486372475, 0.7436686663005878,-0.001470528107585356,-0.8776702880859375,0.33917236328125,-0.1453857421875
20220223-1420,2022-02-23 14:20:24Z,u01, 145,40,movements,el-ex, rt, d,205551.58987766667, -1.4557749740719346, -0.397763906349207, -0.35940646367239165, -0.05299266055226326, 0.008402861654758453, 0.006989512592554092, -0.9158375263214111, 0.38735780119895935, -0.10580789297819138, -0.009180605411529541, -0.025266796350479126, -0.03887622803449631, -0.26169843851846014, -0.6153129133971525, 0.7435735269773522,-0.0014840173276025048,-0.925018310546875,0.362091064453125,-0.144683837890625
20220223-1420,2022-02-23 14:20:24Z,u01, 146,40,movements,el-ex, rt, d,205551.6148236667, -1.4563551362170573, -0.3989119415796686, -0.36159489713934917, -0.1339360475540161, 0.003456173464655876, -0.033038731664419174, -0.9154563546180725, 0.3884159326553345, -0.10522568970918655, 0.030782461166381836, -0.021030157804489136, -0.03504865616559982, -0.2627717582316466, -0.6150919921777934, 0.743376960233154,-0.0018379347656898304,-0.8717803955078125,0.3620147705078125,-0.1360321044921875
20220223-1420,2022-02-23 14:20:24Z,u01, 147,40,movements,el-ex, rt, d,205551.63976966668, -1.4570943592619765, -0.3995129439133002, -0.36422377772452214, -0.04747665300965309, -0.04629327356815338, 0.05055470019578934, -0.9153017997741699, 0.38896968960762024, -0.10452242940664291, 0.029407203197479248, -0.039528220891952515, -0.017792336642742157, -0.2637899997904357, -0.6149419653943552, 0.7431384336322362,-0.0025167307689100693,-0.885894775390625,0.3494415283203125,-0.122314453125
20220223-1420,2022-02-23 14:20:24Z,u01, 148,40,movements,el-ex, rt, d,205551.66471566667, -1.4570273198596906, -0.39966737866707025, -0.36343867463172713, 0.0176304429769516, -0.051245152950286865, 0.1087903082370758, -0.9152350425720215, 0.3891119658946991, -0.1045769676566124, -0.005007028579711914, -0.05053478479385376, -0.020514898002147675, -0.2636022121946966, -0.6150003180023321, 0.7431578027307231,-0.002182214629676771,-0.920989990234375,0.3482666015625,-0.11993408203125
20220223-1420,2022-02-23 14:20:24Z,u01, 149,40,movements,el-ex, rt, d,205551.6896616667, -1.4555020328156578, -0.3994333304272493, -0.3617609979415179, 0.05394993722438812, 0.003245716914534569, 0.002711743116378784, -0.9151649475097656, 0.3888963460922241, -0.10598332434892654, 0.002597987651824951, 0.01862010359764099, 0.023310840129852295, -0.26300349426480074, -0.6146848799494051, 0.743631731506214,-0.0018376449182428423,-0.912567138671875,0.4075164794921875,-0.082672119140625
20220223-1420,2022-02-23 14:20:24Z,u01, 150,40,movements,el-ex, rt, d,205551.71460766668, -1.4535164458194567, -0.3981196511477623, -0.359011644168034, 0.10015834122896194, -0.033618226647377014, 0.0032343221828341484, -0.9154592752456665, 0.38768574595451355, -0.10785993188619614, 0.04247361421585083, 0.002328813076019287, 0.009715087711811066, -0.261699333958931, -0.6144782283911653, 0.744263052824935,-0.0015139279408705186,-0.884765625,0.375,-0.0983123779296875
20220223-1420,2022-02-23 14:20:24Z,u01, 151,40,movements,el-ex, rt, d,205551.73955366667, -1.4520852549081409, -0.3943333824810819, -0.3553898098249295, 0.1257917732000351, -0.051360271871089935, 0.04776816815137863, -0.916754961013794, 0.3841928243637085, -0.10934308171272278, 0.0004801154136657715, -0.052298933267593384, 0.008070230484008789, -0.2592635240835266, -0.6149072167662444, 0.7447608723390493,-0.0016147469051839836,-0.9162750244140625,0.3318939208984375,-0.1012725830078125
20220223-1420,2022-02-23 14:20:24Z,u01, 152,40,movements,el-ex, rt, d,205551.7644996667, -1.4519821941589985, -0.39479305269949977, -0.3516018458829645, 0.15947015583515167, -0.007049664855003357, 0.038852568715810776, -0.9165682792663574, 0.3846171796321869, -0.10941661894321442, -0.008724510669708252, -0.018513113260269165, 0.007975883781909943, -0.2582591391957434, -0.6152998516322441, 0.7447873268096425,-6.427670117881146e-05,-0.9222412109375,0.375,-0.098724365234375
20220223-1420,2022-02-23 14:20:24Z,u01, 153,40,movements,el-ex, rt, d,205551.78944566668, -1.4514744501642944, -0.39848208699436827, -0.34827834393897694, 0.0832165777683258, 0.01060875691473484, 0.051897067576646805, -0.9150975346565247, 0.3880198001861572, -0.10971233248710632, 0.019849300384521484, -0.04414784908294678, 0.02659744769334793, -0.25852703000401467, -0.6150671566251092, 0.7448828930302916,0.0023372079450518224,-0.8952484130859375,0.3438720703125,-0.0831146240234375
20220223-1420,2022-02-23 14:20:24Z,u01, 154,40,movements,el-ex, rt, d,205551.81439166667, -1.451378987176889, -0.39741820498226865, -0.34759215846183394, -0.03539692237973213, -0.021368950605392456, 0.0816413164138794, -0.9154965877532959, 0.38703906536102295, -0.10984882712364197, 0.008148014545440674, -0.05094894766807556, 0.028671786189079285, -0.2579439705715959, -0.6152564452650237, 0.7449291563161902,0.0022259723333420967,-0.9110870361328125,0.340179443359375,-0.0797271728515625
20220223-1420,2022-02-23 14:20:24Z,u01, 155,40,movements,el-ex, rt, d,205551.8393376667, -1.4528132485021623, -0.3959336564767817, -0.34798331652424097, -0.0042716930620372295, -0.028551626950502396, 0.08112558722496033, -0.9162227511405945, 0.3856697678565979, -0.10860316455364227, -0.006262481212615967, -0.029331326484680176, 0.01485288143157959, -0.2575437544181075, -0.6159298924140417, 0.7445121859840335,0.0017703764114527787,-0.9224853515625,0.3563385009765625,-0.09375
20220223-1420,2022-02-23 14:20:24Z,u01, 156,40,movements,el-ex, rt, d,205551.86428366668, -1.4540664513098411, -0.39679288427338705, -0.347680152826375, 0.052807439118623734, -0.054006919264793396, 0.07095205038785934, -0.9160286784172058, 0.38646239042282104, -0.10741623491048813, 0.02053624391555786, -0.00763249397277832, 0.011544942855834961, -0.2577493908647277, -0.6163255100291567, 0.7441119828793834,0.0023312152303084366,-0.895599365234375,0.3845977783203125,-0.09246826171875
20220223-1420,2022-02-23 14:20:24Z,u01, 157,40,movements,el-ex, rt, d,205551.88922966667, -1.4554225007731487, -0.394082867750093, -0.34438016735760063, 0.22826604545116425, -0.062055859714746475, 0.033421918749809265, -0.9172102212905884, 0.3839615285396576, -0.10629410296678543, 0.019047677516937256, 0.008585929870605469, 0.02693285048007965, -0.2557826043309382, -0.6175987436154644, 0.7437329855511974,0.002828371388330142,-0.898162841796875,0.392547607421875,-0.0793609619140625
20220223-1420,2022-02-23 14:20:24Z,u01, 158,40,movements,el-ex, rt, d,205551.91417566666, -1.4556393065612983, -0.3921773663015506, -0.33830401029692936, 0.2129952758550644, -0.0721869170665741, 0.04538949951529503, -0.9179585576057434, 0.3822013735771179, -0.1061791405081749, 0.03700774908065796, -0.017638444900512695, 0.02524620294570923, -0.25323768048494677, -0.6186930641219569, 0.7436863572341694,0.004479250069093332,-0.8831024169921875,0.3591156005859375,-0.080047607421875
20220223-1420,2022-02-23 14:20:24Z,u01, 159,40,movements,el-ex, rt, d,205551.93912166668, -1.4568680612791245, -0.39317295282767784, -0.33385605279039987, 0.09374665468931198, -0.13737843930721283, 0.14707031846046448, -0.9177098274230957, 0.38312119245529175, -0.10500780493021011, 0.04046696424484253, -0.05897882580757141, 0.031322844326496124, -0.2522057974810416, -0.6195872278804723, 0.7432765172659693,0.006620452519131181,-0.8772430419921875,0.3241424560546875,-0.0736846923828125
20220223-1420,2022-02-23 14:20:24Z,u01, 160,40,movements,el-ex, rt, d,205551.96406766667, -1.4609893470525248, -0.3975718532817794, -0.33352188556230417, -0.102153480052948, -0.17224854230880737, 0.14821334183216095, -0.9164507985115051, 0.38718071579933167, -0.10103911906480789, 0.04355663061141968, -0.05394411087036133, 0.014460444450378418, -0.25362404815848605, -0.6206088009930834, 0.7419185716678521,0.008736535941656631,-0.86529541015625,0.3372955322265625,-0.088348388671875
20220223-1420,2022-02-23 14:20:24Z,u01, 161,40,movements,el-ex, rt, d,205551.98901366667, -1.467168171661243, -0.40171837173914365, -0.33803247015245824, -0.20545899868011475, -0.15889498591423035, 0.13990607857704163, -0.9154528975486755, 0.3910004794597626, -0.09520774334669113, 0.04184156656265259, -0.008599996566772461, 0.013466119766235352, -0.2564414920522573, -0.6217989134280834, 0.7399448481876773,0.00924363947489737,-0.8736114501953125,0.3824005126953125,-0.0817413330078125
20220223-1420,2022-02-23 14:20:24Z,u01, 162,40,movements,el-ex, rt, d,205552.01395966668, -1.471182460321438, -0.4044663675390854, -0.34094221512638634, -0.012151720933616161, -0.07728134840726852, 0.13728871941566467, -0.9147549271583557, 0.3935282528400421, -0.09142487496137619, 0.0058348774909973145, 0.01353040337562561, 0.010324127972126007, -0.25828129871156014, -0.6225578943106913, 0.7386608789307556,0.009608471190343415,-0.903564453125,0.4198150634765625,-0.0791168212890625
20220223-1420,2022-02-23 14:20:24Z,u01, 163,40,movements,el-ex, rt, d,205552.03890566668, -1.4731370137640023, -0.4059980391078624, -0.33994028754914263, 0.02372252568602562, -0.11685699224472046, 0.10640831291675568, -0.9143310785293579, 0.39493587613105774, -0.08957790583372116, 0.02750563621520996, -0.0027087926864624023, 0.021019816398620605, -0.2584896853981653, -0.6232127492867071, 0.7380198996989988,0.010746571496873192,-0.8868255615234375,0.3922271728515625,-0.0685577392578125
20220223-1420,2022-02-23 14:20:24Z,u01, 164,40,movements,el-ex, rt, d,205552.06385179167, -1.4761556545969108, -0.40798462167250094, -0.3400553548259602, -0.0299307182431221, -0.12153057008981705, 0.07363465428352356, -0.9138143658638, 0.39676016569137573, -0.08674313873052597, 0.015789031982421875, 0.018461883068084717, -0.0033908411860466003, -0.2591955060077944, -0.6240561821652424, 0.7370434189789872,0.011764558092649646,-0.9026336669921875,0.4178466796875,-0.090240478515625
20220223-1420,2022-02-23 14:20:24Z,u01, 165,40,movements,el-ex, rt, d,205552.0887977917, -1.478504971945123, -0.40953294805947216, -0.33985764591140416, 0.03743430972099304, -0.08271852880716324, 0.04023534804582596, -0.9134027361869812, 0.39818093180656433, -0.08453933894634247, 0.015331685543060303, 0.027356058359146118, 0.0026298314332962036, -0.25965395426636095, -0.6247480738671425, 0.7362805027594059,0.012664827747940088,-0.8980712890625,0.425537109375,-0.0819091796875
20220223-1420,2022-02-23 14:20:24Z,u01, 166,40,movements,el-ex, rt, d,205552.11374379168, -1.480498589977627, -0.4117650280609167, -0.3380907993604143, 0.10341352969408035, -0.0897027999162674, 0.01783163845539093, -0.9126821756362915, 0.40022745728492737, -0.08263786137104034, 0.007729291915893555, 0.026392966508865356, 0.008785009384155273, -0.2598578579643866, -0.6254238276856414, 0.7356041885525892,0.01432819789223172,-0.91119384765625,0.4274749755859375,-0.0746917724609375
20220223-1420,2022-02-23 14:20:24Z,u01, 167,40,movements,el-ex, rt, d,205552.13868979167, -1.4813144213962763, -0.4131362111616457, -0.33397483784419413, 0.18385261297225952, -0.13473838567733765, -0.014982964843511581, -0.9122017025947571, 0.4014836549758911, -0.08184410631656647, 0.003129124641418457, 0.022725820541381836, -0.0001416727900505066, -0.2590363620102375, -0.6260815527317034, 0.735290730734937,0.016411261119752107,-0.9090728759765625,0.4242095947265625,-0.0819854736328125
20220223-1420,2022-02-23 14:20:24Z,u01, 168,40,movements,el-ex, rt, d,205552.1636357917, -1.480550531237244, -0.41306280611563057, -0.32724274857589025, 0.2890145182609558, -0.049962110817432404, -0.05176614597439766, -0.9121683239936829, 0.4014164209365845, -0.08254356682300568, -0.03366279602050781, 0.004146873950958252, -0.0076514482498168945, -0.2569093245697728, -0.6266783991007496, 0.7354723254665735,0.018763228881508442,-0.9342193603515625,0.3991546630859375,-0.092559814453125
20220223-1420,2022-02-23 14:20:24Z,u01, 169,40,movements,el-ex, rt, d,205552.18858179168, -1.479270335799487, -0.4153115718638116, -0.32090242223965, 0.14324143528938293, -0.027792159467935562, -0.054673321545124054, -0.9111608266830444, 0.4034750461578369, -0.08362854272127151, 0.019391536712646484, -0.02582007646560669, -0.013616025447845459, -0.25571231553978213, -0.6267351426144485, 0.7357606252678273,0.021690924219174235,-0.8917694091796875,0.377655029296875,-0.0972442626953125
20220223-1420,2022-02-23 14:20:24Z,u01, 170,40,movements,el-ex, rt, d,205552.21352779167, -1.4808500512254543, -0.41627905280755323, -0.3202557615503672, -0.03469810634851456, -0.0820903554558754, -0.08886650949716568, -0.9109025001525879, 0.4043600857257843, -0.08215396106243134, 0.024687469005584717, -0.0035727620124816895, -0.03350794315338135, -0.25582645832400286, -0.6272765293391027, 0.7352363428644683,0.022457609834705183,-0.8751678466796875,0.40203857421875,-0.124237060546875
20220223-1420,2022-02-23 14:20:24Z,u01, 171,40,movements,el-ex, rt, d,205552.2384737917, -1.4847479129353214, -0.4140399790363968, -0.3208266152521088, 0.057777661830186844, -0.21307812631130219, -0.10575221478939056, -0.9121155142784119, 0.40231120586395264, -0.0786803811788559, 0.09474819898605347, -0.0337199866771698, -0.050409309566020966, -0.25518968771841066, -0.6289181443639031, 0.7340684636344619,0.021988401925575274,-0.8173675537109375,0.36859130859375,-0.12908935546875
20220223-1420,2022-02-23 14:20:24Z,u01, 172,40,movements,el-ex, rt, d,205552.26341979168, -1.4872579371786836, -0.41070189494817405, -0.3151126832406155, 0.3319166600704193, -0.18860846757888794, -0.10309384763240814, -0.9136433005332947, 0.3992529511451721, -0.07650233805179596, 0.04888218641281128, -0.03646007180213928, -0.06297855824232101, -0.2522101888875402, -0.6309824503450232, 0.7332867106344987,0.023271798291276624,-0.8547515869140625,0.3520355224609375,-0.136138916015625
20220223-1420,2022-02-23 14:20:24Z,u01, 173,40,movements,el-ex, rt, d,205552.28836579167, -1.4888682416978791, -0.40819822819578955, -0.306749567355451, 0.20915110409259796, -0.279929518699646, -0.006316107232123613, -0.9147586822509766, 0.3969562351703644, -0.07511255890130997, 0.08074402809143066, -0.07752880454063416, -0.0322638675570488, -0.24868368239979047, -0.6329298115939445, 0.732731951019028,0.025689483447922434,-0.834014892578125,0.319427490234375,-0.1073760986328125
20220223-1420,2022-02-23 14:20:24Z,u01, 174,40,movements,el-ex, rt, d,205552.3133117917, -1.49368117444977, -0.40827868733621, -0.30223198572010573, 0.163212850689888, -0.24059957265853882, -0.02303796261548996, -0.915077805519104, 0.3970300853252411, -0.0707065761089325, -0.02875441312789917, -0.013668298721313477, 0.0068939924240112305, -0.2472146108799787, -0.6352414080928085, 0.7311436267569185,0.027966779030403344,-0.9488067626953125,0.393463134765625,-0.059783935546875
20220223-1420,2022-02-23 14:20:24Z,u01, 175,40,movements,el-ex, rt, d,205552.33825779168, -1.4972396614408945, -0.40671594219436114, -0.297585397307114, 0.18502746522426605, -0.20493771135807037, -0.07713554799556732, -0.9159412384033203, 0.3955953121185303, -0.06749536097049713, -0.0009897351264953613, -0.0068472325801849365, 0.0072533488273620605, -0.2451464583743439, -0.6373033305138869, 0.729981564582171,0.02957031119958997,-0.91693115234375,0.3887481689453125,-0.06024169921875
20220223-1420,2022-02-23 14:20:24Z,u01, 176,40,movements,el-ex, rt, d,205552.36320379167, -1.5004762903332451, -0.40373292361915253, -0.2934682474576283, 0.1375216692686081, -0.180625319480896, -0.10477663576602936, -0.9173280000686646, 0.39285388588905334, -0.06461307406425476, -0.009887397289276123, -0.01532098650932312, 0.008963949978351593, -0.24275604041546373, -0.6393457335484033, 0.728957587313189,0.03045000095509426,-0.9300689697265625,0.3753814697265625,-0.05792236328125
20220223-1420,2022-02-23 14:20:24Z,u01, 177,40,movements,el-ex, rt, d,205552.3881497917, -1.5025236094953487, -0.4012951887592386, -0.28921935070830035, 0.20854251086711884, -0.11742917448282242, -0.053511980921030045, -0.9184110164642334, 0.3906109631061554, -0.06280001997947693, -0.03082275390625, -0.02259957790374756, 0.008554704487323761, -0.24052463118012787, -0.6408961624214229, 0.7282945866859973,0.03141334887653957,-0.9492340087890625,0.368011474609375,-0.0542449951171875
20220223-1420,2022-02-23 14:20:24Z,u01, 178,40,movements,el-ex, rt, d,205552.41309579168, -1.502385749602226, -0.3999803046227256, -0.28421657953743185, 0.10594192892313004, -0.06359662860631943, -0.02397679165005684, -0.9189139604568481, 0.3894002139568329, -0.06296168267726898, -0.011948227882385254, -0.04597073793411255, -0.00477241724729538, -0.2384695401432119, -0.6416006830012233, 0.7282902803861852,0.03276968540909725,-0.9198455810546875,0.332794189453125,-0.0710601806640625
20220223-1420,2022-02-23 14:20:24Z,u01, 179,40,movements,el-ex, rt, d,205552.43804179167, -1.5052961930297772, -0.39895728490150356, -0.28604119826052715, -0.22362038493156433, -0.10384418070316315, -0.05056499317288399, -0.9194904565811157, 0.388457715511322, -0.06031302362680435, -0.02304476499557495, -0.029006510972976685, 0.006662849336862564, -0.23865549796718807, -0.6425628691840108, 0.7274103070865644,0.03210330881950724,-0.942535400390625,0.3594512939453125,-0.05364990234375
20220223-1420,2022-02-23 14:20:24Z,u01, 180,40,movements,el-ex, rt, d,205552.4629877917, -1.5096794994000942, -0.39607523087549645, -0.2922298738113666, -0.1557052582502365, -0.04038425162434578, -0.09593993425369263, -0.9208595156669617, 0.38580039143562317, -0.056350190192461014, -0.06877952814102173, 0.01747402548789978, -0.011124484241008759, -0.2395870644283009, -0.6437568979732946, 0.7261617972932191,0.029391882301172012,-0.9803314208984375,0.4045257568359375,-0.0699920654296875
20220223-1420,2022-02-23 14:20:24Z,u01, 181,40,movements,el-ex, rt, d,205552.48793379168, -1.5106940265842843, -0.38980665139848264, -0.2934081163816938, 0.049886949360370636, -0.024959687143564224, -0.1342449188232422, -0.9233121275901794, 0.38000959157943726, -0.055560097098350525, 0.0002014636993408203, 0.010523706674575806, -0.024930346757173538, -0.23779893742043884, -0.6447260009496074, 0.7259850039692088,0.02693597981106788,-0.9231109619140625,0.390533447265625,-0.0804901123046875
20220223-1420,2022-02-23 14:20:24Z,u01, 182,40,movements,el-ex, rt, d,205552.51287979167, -1.510518860500915, -0.38474899645700955, -0.29078601620140127, 0.13978718221187592, -0.07477431744337082, -0.05967393517494202, -0.925209105014801, 0.3753264844417572, -0.05583690106868744, -0.02581000328063965, 0.03646239638328552, -0.009181082248687744, -0.23521647799323542, -0.6455654553356154, 0.7261097348356824,0.026132552494020078,-0.979156494140625,0.414947509765625,-0.05621337890625
20220223-1420,2022-02-23 14:20:25Z,u01, 183,40,movements,el-ex, rt, d,205552.5378257917, -1.5094986611475694, -0.38153100122148265, -0.28651230541186723, 0.13355600833892822, 0.016180289909243584, -0.14096221327781677, -0.9263525009155273, 0.3723418116569519, -0.05685447156429291, -0.054085612297058105, 0.00426030158996582, -0.0010224580764770508, -0.23274167034957643, -0.6460681686369719, 0.7264481541116372,0.026461841703418365,-0.980438232421875,0.3766021728515625,-0.0578765869140625
20220223-1420,2022-02-23 14:20:25Z,u01, 184,40,movements,el-ex, rt, d,205552.56277179168, -1.5088065262858195, -0.3784078791497206, -0.28620868534924643, -0.1098240539431572, -0.015616054646670818, -0.14218440651893616, -0.9274688959121704, 0.3694414496421814, -0.05756736919283867, 0.004754900932312012, 0.006977498531341553, -0.0010724589228630066, -0.23157560660317955, -0.6462113074832541, 0.7267304733356501,0.025421524519107674,-0.923980712890625,0.3814697265625,-0.055816650390625
20220223-1420,2022-02-23 14:20:25Z,u01, 185,40,movements,el-ex, rt, d,205552.58771779167, -1.5104172139056047, -0.3760893890226696, -0.2901885779380189, -0.09359754621982574, -0.00033883005380630493, -0.14757490158081055, -0.9284131526947021, 0.36728599667549133, -0.0561249814927578, -0.06516289710998535, 0.04982826113700867, 0.002413742244243622, -0.23204281201274374, -0.6466016105820909, 0.7263032529927798,0.023367632745261713,-0.9935760498046875,0.4171142578125,-0.0537109375
20220223-1420,2022-02-23 14:20:25Z,u01, 186,40,movements,el-ex, rt, d,205552.6126637917, -1.5086839161239156, -0.3721717376610514, -0.2881993875350589, 0.24044780433177948, 0.09727134555578232, -0.17059952020645142, -0.929743230342865, 0.36363935470581055, -0.057822972536087036, -0.06113177537918091, 0.0423816442489624, 0.02298683300614357, -0.23006822715400488, -0.6466506976294865, 0.7269132572223052,0.022546994344972482,-0.9854888916015625,0.4008941650390625,-0.03277587890625
20220223-1420,2022-02-23 14:20:25Z,u01, 187,40,movements,el-ex, rt, d,205552.63760979168, -1.5033172365621725, -0.36750310984011847, -0.28235206405495833, 0.1383150815963745, 0.13069595396518707, -0.1699451208114624, -0.9311032295227051, 0.3592863976955414, -0.0629255399107933, -0.00828862190246582, 0.008969128131866455, 0.031324274837970734, -0.22662367787148757, -0.6458939071626983, 0.7286685863658343,0.022464430973682448,-0.93939208984375,0.368255615234375,-0.0316009521484375
20220223-1420,2022-02-23 14:20:25Z,u01, 188,40,movements,el-ex, rt, d,205552.66255579167, -1.500200135819503, -0.3642198945744002, -0.282592270746623, -0.06613819301128387, 0.16166745126247406, -0.15477707982063293, -0.9320743680000305, 0.3562204837799072, -0.06591042876243591, -0.05190378427505493, -0.00392565131187439, 0.024802982807159424, -0.22559528157977493, -0.6450980955854064, 0.7297384347383216,0.02090331360380676,-0.987823486328125,0.35833740234375,-0.045318603515625
20220223-1420,2022-02-23 14:20:25Z,u01, 189,40,movements,el-ex, rt, d,205552.6875017917, -1.4961454218424453, -0.3609877612834819, -0.28335847442502177, 0.047411806881427765, 0.20442849397659302, -0.16569764912128448, -0.9329426884651184, 0.35319849848747253, -0.06977467238903046, -0.00020837783813476562, -0.0021243393421173096, 0.00681663304567337, -0.22475825804067015, -0.6438915962177323, 0.7311112805020114,0.01906524979174612,-0.9331512451171875,0.35107421875,-0.062957763671875
20220223-1420,2022-02-23 14:20:25Z,u01, 190,40,movements,el-ex, rt, d,205552.71244779168, -1.4911560205039407, -0.3578813830231192, -0.28267827672889306, 0.023617129772901535, 0.22992613911628723, -0.1293361634016037, -0.9336720705032349, 0.3502906262874603, -0.07451553642749786, -0.010739922523498535, -0.01162189245223999, 0.01010788232088089, -0.2235017341871315, -0.6424867371114903, 0.7327648377028211,0.017698585816500467,-0.9542236328125,0.3365631103515625,-0.067657470703125
20220223-1420,2022-02-23 14:20:25Z,u01, 191,40,movements,el-ex, rt, d,205552.73739379167, -1.4861921777838891, -0.3549884654248653, -0.2839063909161123, -0.055595770478248596, 0.2546483278274536, -0.10496339201927185, -0.9342964887619019, 0.3475795388221741, -0.07923450320959091, -0.011290431022644043, -0.012588173151016235, 0.007029600441455841, -0.2229251548333022, -0.6408487536697018, 0.7344182351181018,0.01571271863388818,-0.945587158203125,0.334991455078125,-0.07220458984375
20220223-1420,2022-02-23 14:20:25Z,u01, 192,40,movements,el-ex, rt, d,205552.7623397917, -1.480669912765604, -0.3522505040228684, -0.2858110471348929, -0.06303390860557556, 0.26386964321136475, -0.12636202573776245, -0.9347890615463257, 0.34501099586486816, -0.08447804301977158, -0.00634235143661499, -0.01189643144607544, -0.0004526302218437195, -0.22261433798679764, -0.6389083159568811, 0.7362454661231719,0.013470951064527947,-0.936279296875,0.3372344970703125,-0.086029052734375
20220223-1420,2022-02-23 14:20:25Z,u01, 193,40,movements,el-ex, rt, d,205552.78728579168, -1.4751622330990355, -0.3496696536851802, -0.28782120984060716, -0.051222458481788635, 0.2390429973602295, -0.10642360150814056, -0.9351927638053894, 0.3425874710083008, -0.08970996737480164, -0.014926016330718994, -0.010464727878570557, -0.004742197692394257, -0.2223816775772976, -0.6369390900743468, 0.7380570724386719,0.01124654682608367,-0.9501190185546875,0.332122802734375,-0.094451904296875
20220223-1420,2022-02-23 14:20:25Z,u01, 194,40,movements,el-ex, rt, d,205552.81223179167, -1.468768205311021, -0.34718062046311016, -0.28752040223841685, 0.11023544520139694, 0.27424365282058716, -0.0897633284330368, -0.9354454874992371, 0.3402479887008667, -0.09577430784702301, -0.013177990913391113, -0.01987457275390625, 0.007685072720050812, -0.22144138558796259, -0.634883107651758, 0.7401288500828165,0.009811005859596544,-0.9427032470703125,0.322235107421875,-0.0890960693359375
20220223-1420,2022-02-23 14:20:25Z,u01, 195,40,movements,el-ex, rt, d,205552.8371777917, -1.4602439512150414, -0.3450890259602924, -0.2841726892661123, 0.09495668858289719, 0.3090750277042389, -0.05963165685534477, -0.935300350189209, 0.33828046917915344, -0.1038229838013649, -0.013094186782836914, -0.007836192846298218, 0.0017261654138565063, -0.21968064041281715, -0.6323202690257097, 0.7428476892634426,0.009411325575990837,-0.948394775390625,0.3304443359375,-0.1020965576171875
20220223-1420,2022-02-23 14:20:25Z,u01, 196,40,movements,el-ex, rt, d,205552.86212379168, -1.452861281641042, -0.343139876316056, -0.2855763440995626, -0.18882068991661072, 0.2939687669277191, -0.08510692417621613, -0.9351614713668823, 0.33644556999206543, -0.11080249398946762, 0.01005178689956665, -0.019444316625595093, -0.009727001190185547, -0.21946095994537207, -0.6296313532849431, 0.7452153689683783,0.007428327624378506,-0.9168853759765625,0.3234710693359375,-0.1246490478515625
20220223-1420,2022-02-23 14:20:25Z,u01, 197,40,movements,el-ex, rt, d,205552.88706979167, -1.4484068461361097, -0.3417097312309077, -0.2920471875752677, -0.22867542505264282, 0.24051859974861145, -0.09642455726861954, -0.9351351857185364, 0.3350984752178192, -0.11502561718225479, -0.005538463592529297, 0.0071713924407958984, -0.016810595989227295, -0.220997143110395, -0.627413303963369, 0.7466567277422875,0.004048729574538001,-0.940673828125,0.3422698974609375,-0.1318359375
20220223-1420,2022-02-23 14:20:25Z,u01, 198,40,movements,el-ex, rt, d,205552.91201679167, -1.444188201573665, -0.33949156493767824, -0.2956166559816655, 0.014447499066591263, 0.20116591453552246, -0.12610302865505219, -0.9353765845298767, 0.33300772309303284, -0.11906313896179199, -0.013185739517211914, 0.009750396013259888, -0.001710459589958191, -0.22132880210927589, -0.6256852186274485, 0.748016728797994,0.0015122831646363077,-0.949005126953125,0.3459625244140625,-0.1170806884765625
20220223-1420,2022-02-23 14:20:25Z,u01, 199,40,movements,el-ex, rt, d,205552.9369627917, -1.4385222147668881, -0.33502385386430167, -0.2929966865144006, 0.18395540118217468, 0.18769052624702454, -0.209575355052948, -0.936152458190918, 0.32879170775413513, -0.12455601245164871, 0.0012161731719970703, 0.026066631078720093, 0.005674488842487335, -0.21891227189426962, -0.6243391793388539, 0.7498517368773575,0.00039097579049918174,-0.9349365234375,0.3548583984375,-0.1188812255859375
20220223-1420,2022-02-23 14:20:25Z,u01, 200,40,movements,el-ex, rt, d,205552.96190879168, -1.433072904037814, -0.32822833886095126, -0.2905671214561974, 0.024220600724220276, 0.16608722507953644, -0.30016541481018066, -0.9376514554023743, 0.3223664462566376, -0.12995928525924683, 0.03831380605697632, 0.02332136034965515, 0.01638782024383545, -0.21570929091249919, -0.6232895460738328, 0.7516496428536519,-0.0015315263152907987,-0.898773193359375,0.342041015625,-0.1070098876953125
20220223-1420,2022-02-23 14:20:25Z,u01, 201,40,movements,el-ex, rt, d,205552.9868537917, -1.4306208717850664, -0.32081768475984607, -0.29447574373324154, -0.23686036467552185, 0.1400434374809265, -0.3469083607196808, -0.9396697878837585, 0.31534263491630554, -0.132588192820549, -0.008785843849182129, 0.03428193926811218, 0.05330324172973633, -0.21425022413328926, -0.6227381021980073, 0.7525034880903239,-0.005705007643022508,-0.948455810546875,0.3496246337890625,-0.07928466796875
20220223-1420,2022-02-23 14:20:25Z,u01, 202,40,movements,el-ex, rt, d,205553.0118007917, -1.429790503268712, -0.31317788892152887, -0.30360536342401523, -0.3141806721687317, 0.14015136659145355, -0.3575252592563629, -0.9419170618057251, 0.30808350443840027, -0.1337030977010727, 0.003547489643096924, 0.012549370527267456, 0.03975445032119751, -0.21433090324205928, -0.6222625784995556, 0.7528037615903176,-0.011743209068327376,-0.933197021484375,0.3182220458984375,-0.0966644287109375
20220223-1420,2022-02-23 14:20:25Z,u01, 203,40,movements,el-ex, rt, d,205553.03674679168, -1.4296249259170515, -0.30502147972741794, -0.31290331735080695, -0.2753099799156189, 0.1036604717373848, -0.4025830030441284, -0.944351315498352, 0.30031365156173706, -0.13420814275741577, 0.018783986568450928, 0.014230966567993164, 0.02600778639316559, -0.21427828190372702, -0.6220777629853169, 0.7528491569414586,-0.017943724707751685,-0.925567626953125,0.314544677734375,-0.1082000732421875
20220223-1420,2022-02-23 14:20:25Z,u01, 204,40,movements,el-ex, rt, d,205553.06169300003, -1.4290246085497753, -0.2958529411965958, -0.3196702414231711, -0.11107863485813141, 0.12903253734111786, -0.3901938796043396, -0.9469566941261292, 0.29155585169792175, -0.13515841960906982, -0.016437172889709473, 0.01516103744506836, 0.011119440197944641, -0.21306684736950052, -0.6221119760448034, 0.7530095435030566,-0.023570434138036833,-0.973419189453125,0.3068695068359375,-0.128143310546875
20220223-1420,2022-02-23 14:20:25Z,u01, 205,40,movements,el-ex, rt, d,205553.08663900002, -1.425534546743474, -0.28652638160915905, -0.321364119133606, 0.08601638674736023, 0.1874009072780609, -0.3688783347606659, -0.9491288065910339, 0.28262192010879517, -0.138850137591362, -0.013548076152801514, 0.018128782510757446, -0.011708617210388184, -0.21017611450766616, -0.6216115605102387, 0.7540961563095999,-0.027641110044902606,-0.962677001953125,0.300750732421875,-0.1505584716796875
20220223-1420,2022-02-23 14:20:25Z,u01, 206,40,movements,el-ex, rt, d,205553.111585, -1.420091576995121, -0.27707636487496734, -0.32022589194634915, 0.091616690158844, 0.20073549449443817, -0.36749333143234253, -0.9509570598602295, 0.27354469895362854, -0.1444086730480194, 0.008421778678894043, -0.006378591060638428, -0.03297501802444458, -0.20631421188166527, -0.6206690844678346, 0.7558115259192626,-0.030873635826790313,-0.9435577392578125,0.254974365234375,-0.17572021484375
20220223-1420,2022-02-23 14:20:25Z,u01, 207,40,movements,el-ex, rt, d,205553.13653100003, -1.4147923048844218, -0.2681718700947415, -0.31890217212410865, 0.14733681082725525, 0.1991834044456482, -0.33531439304351807, -0.9525468349456787, 0.2649690806865692, -0.1498185098171234, -0.005109846591949463, -0.004059106111526489, 0.01567816734313965, -0.2025745687420261, -0.6197211401081715, 0.7574728669745523,-0.03382197447565044,-0.9576568603515625,0.2609100341796875,-0.1341400146484375
20220223-1420,2022-02-23 14:20:25Z,u01, 208,40,movements,el-ex, rt, d,205553.16147700002, -1.4064051951817824, -0.26151821086986127, -0.31389276183602044, 0.3271653950214386, 0.3810338079929352, -0.08131518214941025, -0.9529749155044556, 0.25854742527008057, -0.15808726847171783, -0.004666388034820557, -0.017153501510620117, 0.03317853808403015, -0.19844599366684817, -0.6177180214625568, 0.7601470376340211,-0.03492599221329162,-0.9504852294921875,0.238525390625,-0.1312408447265625
20220223-1420,2022-02-23 14:20:25Z,u01, 209,40,movements,el-ex, rt, d,205553.186423, -1.3996170506485583, -0.25449924244004724, -0.3080089792918847, 0.1966177374124527, 0.22482337057590485, -0.3917876183986664, -0.9536445736885071, 0.2517608106136322, -0.16485758125782013, -0.10099685192108154, 0.029031336307525635, -0.03686390817165375, -0.19392958171834096, -0.6164110030883521, 0.7623381165805818,-0.03562477925869678,-1.0546417236328125,0.280792236328125,-0.20172119140625
20220223-1420,2022-02-23 14:20:25Z,u01, 210,40,movements,el-ex, rt, d,205553.21136900003, -1.3953034138892122, -0.2458361052926739, -0.30812814954541085, -0.05001704394817352, 0.11209583282470703, -0.2906409800052643, -0.955036461353302, 0.24336737394332886, -0.16934418678283691, 0.023396015167236328, -0.026463747024536133, -0.03431516885757446, -0.19068761977502363, -0.6156022564444035, 0.7636493305867624,-0.038880274576412244,-0.9545745849609375,0.2212066650390625,-0.192535400390625
20220223-1420,2022-02-23 14:20:25Z,u01, 211,40,movements,el-ex, rt, d,205553.23631500002, -1.3925566243994032, -0.23815325553498978, -0.30926616129484163, 0.11342185735702515, 0.11322188377380371, -0.3173598647117615, -0.9563795924186707, 0.2359084039926529, -0.17229324579238892, -0.032786428928375244, 0.008186385035514832, -0.020547613501548767, -0.1881386908505509, -0.6151887607613102, 0.7644464419572599,-0.04204847345266438,-0.989166259765625,0.2440948486328125,-0.192840576171875
20220223-1420,2022-02-23 14:20:25Z,u01, 212,40,movements,el-ex, rt, d,205553.261261, -1.3891100585975464, -0.22961001741911438, -0.306069630629373, 0.21373353898525238, 0.12320633977651596, -0.306556761264801, -0.9577274918556213, 0.22759778797626495, -0.1759462058544159, -0.034978628158569336, 0.006548285484313965, -0.02479875087738037, -0.18391166413906052, -0.6149824382542669, 0.7655367791460879,-0.04389108484385784,-0.9948272705078125,0.2342071533203125,-0.20672607421875
20220223-1420,2022-02-23 14:20:25Z,u01, 213,40,movements,el-ex, rt, d,205553.28620700003, -1.3851755272717803, -0.2219314122350284, -0.30277586726032696, 0.1608617901802063, 0.13050499558448792, -0.23433129489421844, -0.9587171673774719, 0.2201140820980072, -0.18003027141094208, -0.02101898193359375, 0.0039459168910980225, -0.036644816398620605, -0.17995372027195067, -0.6144929015881, 0.7667785952416801,-0.04544824389900742,-0.979736328125,0.22406005859375,-0.2166748046875
20220223-1420,2022-02-23 14:20:25Z,u01, 214,40,movements,el-ex, rt, d,205553.31115300002, -1.3809900412482894, -0.2156079737237522, -0.299420005102274, 0.19256600737571716, 0.1442377269268036, -0.2267022728919983, -0.9593029618263245, 0.21394136548042297, -0.1843002885580063, -0.0049607157707214355, -0.009198978543281555, -0.013453885912895203, -0.1764665769766498, -0.6137665700771813, 0.7681032242458323,-0.04655493755306839,-0.9563446044921875,0.204376220703125,-0.1969757080078125
20220223-1420,2022-02-23 14:20:25Z,u01, 215,40,movements,el-ex, rt, d,205553.336099, -1.3769841031704444, -0.2091656705047327, -0.2966314117925297, 0.10546542704105377, 0.13510754704475403, -0.2559387981891632, -0.9598897099494934, 0.20764382183551788, -0.18840329349040985, 0.014913022518157959, -0.012544959783554077, -0.024457097053527832, -0.17310498966003107, -0.6130522131823348, 0.7693558594356934,-0.04788731495963411,-0.944976806640625,0.195098876953125,-0.212860107421875
20220223-1420,2022-02-23 14:20:25Z,u01, 216,40,movements,el-ex, rt, d,205553.36104500003, -1.3737099459025683, -0.20248288047179797, -0.2957911538293936, 0.11011993139982224, 0.12829697132110596, -0.24960240721702576, -0.9606068730354309, 0.2011021077632904, -0.19181251525878906, 0.0036826729774475098, 0.0069971829652786255, -0.0026152580976486206, -0.17025942753694073, -0.6124585473999796, 0.7703304173236476,-0.049970669771092435,-0.966033935546875,0.211090087890625,-0.1908721923828125
20220223-1420,2022-02-23 14:20:25Z,u01, 217,40,movements,el-ex, rt, d,205553.38599100002, -1.369418545848183, -0.1956021389142596, -0.2922716798731125, 0.26864537596702576, 0.1545807123184204, -0.23426319658756256, -0.9611080288887024, 0.194357231259346, -0.1962052285671234, 0.0033749938011169434, -0.008962959051132202, -0.002006709575653076, -0.16648469365118188, -0.6117027304556615, 0.7716769479247241,-0.05115848814424562,-0.957733154296875,0.185394287109375,-0.198211669921875
20220223-1420,2022-02-23 14:20:25Z,u01, 218,40,movements,el-ex, rt, d,205553.410937, -1.3641894676914061, -0.1885927467767458, -0.2874153888788515, 0.17768192291259766, 0.1750546395778656, -0.23737767338752747, -0.9613785743713379, 0.18747678399085999, -0.2015027403831482, 0.017714262008666992, -0.011222541332244873, -0.034627318382263184, -0.16221975778005557, -0.6106827159082674, 0.7733398055671452,-0.051929758634272793,-0.937774658203125,0.1765594482421875,-0.2404022216796875
20220223-1420,2022-02-23 14:20:25Z,u01, 219,40,movements,el-ex, rt, d,205553.435883, -1.3601768696450425, -0.18252581470421197, -0.2867010920014241, 0.0011512348428368568, 0.13439509272575378, -0.21557918190956116, -0.961656928062439, 0.18151400983333588, -0.20559275150299072, 0.02209717035293579, -0.002436921000480652, -0.027454957365989685, -0.15959858842543892, -0.6096982141166294, 0.7745270327174117,-0.05388964093048593,-0.9395599365234375,0.1790771484375,-0.2330474853515625
20220223-1420,2022-02-23 14:20:25Z,u01, 220,40,movements,el-ex, rt, d,205553.46082900002, -1.3569673409568728, -0.1775342950132001, -0.2858375363465241, 0.1937522143125534, 0.13114036619663239, -0.17576339840888977, -0.9618654847145081, 0.17660316824913025, -0.20886781811714172, -0.018297851085662842, 0.016649320721626282, 0.004552319645881653, -0.15735381334940582, -0.6089383132970492, 0.7754784308363052,-0.05537984036340682,-0.988372802734375,0.18890380859375,-0.1982421875
20220223-1420,2022-02-23 14:20:25Z,u01, 221,40,movements,el-ex, rt, d,205553.485775, -1.3516523197142087, -0.1718382721706075, -0.2795400571760599, 0.3294867277145386, 0.2014440894126892, -0.17178915441036224, -0.961708128452301, 0.170993834733963, -0.21419240534305573, -0.01583075523376465, 0.0123557448387146, -0.020091354846954346, -0.15312412451311738, -0.6078295816173771, 0.7772105368465236,-0.055135133942024905,-0.9775390625,0.183349609375,-0.234283447265625
20220223-1420,2022-02-23 14:20:25Z,u01, 222,40,movements,el-ex, rt, d,205553.510721, -1.3451645764235407, -0.1662184863765675, -0.27495425283985936, 0.0889861136674881, 0.25000521540641785, -0.20157155394554138, -0.9612196087837219, 0.16545414924621582, -0.22063864767551422, 0.0130540132522583, -0.022982880473136902, -0.04310980439186096, -0.14940699815476105, -0.6061008401260164, 0.7792482857451917,-0.05559813139316322,-0.9399871826171875,0.1312255859375,-0.266265869140625
20220223-1420,2022-02-23 14:20:26Z,u01, 223,40,movements,el-ex, rt, d,205553.53566700002, -1.339420733606532, -0.16198551607531922, -0.27687021582167204, -0.09919480979442596, 0.22978098690509796, -0.15424445271492004, -0.9606096744537354, 0.16127805411815643, -0.22631467878818512, 0.025459706783294678, 0.009238898754119873, -0.01878756284713745, -0.1482020438283644, -0.6040519972202919, 0.7808858499351101,-0.058090786312653075,-0.935150146484375,0.1705169677734375,-0.2451019287109375
20220223-1420,2022-02-23 14:20:26Z,u01, 224,40,movements,el-ex, rt, d,205553.560613, -1.3338584870403891, -0.1583616805186477, -0.2776221618333651, 0.1631925106048584, 0.24410247802734375, -0.16832691431045532, -0.9598977565765381, 0.15770059823989868, -0.2317899465560913, 0.002088487148284912, 0.017455026507377625, 0.012322500348091125, -0.14687315230840275, -0.602107385939882, 0.7824988781312248,-0.05991917361262239,-0.9612884521484375,0.1708984375,-0.2152252197265625
20220223-1420,2022-02-23 14:20:26Z,u01, 225,40,movements,el-ex, rt, d,205553.585559, -1.326000947691933, -0.15189383893070407, -0.27027453173201393, 0.5026768445968628, 0.2848140001296997, -0.19122950732707977, -0.9590163826942444, 0.15131044387817383, -0.2395673543214798, 0.01640486717224121, 0.012477338314056396, -0.03744101524353027, -0.14193770124512722, -0.600058342673356, 0.7850036976213917,-0.05960487423106159,-0.9426116943359375,0.163787841796875,-0.277008056640625
20220223-1420,2022-02-23 14:20:26Z,u01, 226,40,movements,el-ex, rt, d,205553.61050500002, -1.3178996869084032, -0.14414100532888982, -0.25829611842043493, 0.4666956961154938, 0.2047324925661087, -0.2052377313375473, -0.9581511616706848, 0.143642395734787, -0.24761474132537842, 0.03412485122680664, -0.013774871826171875, -0.07869476079940796, -0.13510938990455776, -0.5982792703834711, 0.7876940889832904,-0.05783865730223603,-0.9396209716796875,0.1389923095703125,-0.321258544921875
20220223-1420,2022-02-23 14:20:26Z,u01, 227,40,movements,el-ex, rt, d,205553.635451, -1.3127902196368861, -0.13700068395466883, -0.25356897079872937, 0.06818137317895889, 0.11010751128196716, -0.21752336621284485, -0.9578407406806946, 0.13657252490520477, -0.2527623772621155, 0.014069557189941406, -0.044867247343063354, -0.0302731990814209, -0.1307722090130052, -0.5970908204864597, 0.7892774227141528,-0.05849912699529258,-0.9437713623046875,0.091705322265625,-0.2830352783203125
20220223-1420,2022-02-23 14:20:26Z,u01, 228,40,movements,el-ex, rt, d,205553.660397, -1.3109138733083625, -0.131322873548004, -0.2528695118394462, 0.20055019855499268, 0.04488351196050644, -0.22162729501724243, -0.9580987095832825, 0.13094574213027954, -0.25475430488586426, -0.03324931859970093, 0.034688398241996765, -0.006598442792892456, -0.12829571603275722, -0.5967939786658826, 0.7897896454919395,-0.06007727869471058,-0.994354248046875,0.1730804443359375,-0.26812744140625
20220223-1420,2022-02-23 14:20:26Z,u01, 229,40,movements,el-ex, rt, d,205553.68534300002, -1.3089357461484592, -0.12361605136870502, -0.24514099980977472, 0.538789689540863, 0.035377420485019684, -0.20435741543769836, -0.9585392475128174, 0.12330146133899689, -0.25690269470214844, -0.03267151117324829, 0.009251564741134644, -0.024576425552368164, -0.1229223080442367, -0.5970249237580579, 0.7905133469947361,-0.059496667269034964,-0.9912109375,0.1325531005859375,-0.2814788818359375
20220223-1420,2022-02-23 14:20:26Z,u01, 230,40,movements,el-ex, rt, d,205553.710289, -1.3065226799744898, -0.1149540515672335, -0.2315452796358783, 0.6083205938339233, 0.029635777696967125, -0.19893962144851685, -0.9589114785194397, 0.1147010400891304, -0.259484201669693, -0.039592862129211426, 0.01852335035800934, -0.011969953775405884, -0.11540358412081655, -0.5974444899703304, 0.7915202903525079,-0.05689860281943654,-0.998046875,0.1255340576171875,-0.267059326171875
20220223-1420,2022-02-23 14:20:26Z,u01, 231,40,movements,el-ex, rt, d,205553.735235, -1.3045583626781057, -0.10718009361046414, -0.22052470626364032, 0.4024832844734192, 0.013371320441365242, -0.17403320968151093, -0.9592313170433044, 0.1069750040769577, -0.2615940272808075, -0.02531135082244873, 0.0061536431312561035, 0.02787482738494873, -0.1090070084701974, -0.5977628818809346, 0.7923200797838913,-0.055006659296248595,-0.9845428466796875,0.113128662109375,-0.2337188720703125
20220223-1420,2022-02-23 14:20:26Z,u01, 232,40,movements,el-ex, rt, d,205553.76018100002, -1.3030016625760512, -0.10054061369722586, -0.21258232929056423, 0.41251006722450256, 0.05164194107055664, -0.17870153486728668, -0.959486722946167, 0.10037131607532501, -0.2632690668106079, -0.03886514902114868, 0.020310401916503906, 0.023965179920196533, -0.10398167954357862, -0.5979575861033126, 0.7929205967939513,-0.053956264947492116,-0.9929656982421875,0.1260986328125,-0.2400665283203125
20220223-1420,2022-02-23 14:20:26Z,u01, 233,40,movements,el-ex, rt, d,205553.785127, -1.3002382002950275, -0.09332777486479986, -0.20100699664081395, 0.5994989275932312, 0.07758739590644836, -0.15095524489879608, -0.9594282507896423, 0.09319235384464264, -0.26610615849494934, -0.02364957332611084, 0.06421726942062378, 0.03595757484436035, -0.09760856478699789, -0.5978457053984465, 0.7939655586615884,-0.05168835779287162,-0.9830780029296875,0.15740966796875,-0.2301483154296875
20220223-1420,2022-02-23 14:20:26Z,u01, 234,40,movements,el-ex, rt, d,205553.810073, -1.296886381633405, -0.08574913198496802, -0.1888219215208925, 0.414859801530838, 0.0897931233048439, -0.17351548373699188, -0.9591832160949707, 0.08564408868551254, -0.26950377225875854, -0.02261275053024292, 0.06898843497037888, 0.020708948373794556, -0.09089167456682323, -0.5974837379992383, 0.7951864784339475,-0.04929638348630766,-0.9783782958984375,0.15399169921875,-0.2559661865234375
20220223-1420,2022-02-23 14:20:26Z,u01, 235,40,movements,el-ex, rt, d,205553.83501900002, -1.2946428903495524, -0.08003388050079278, -0.18496762464414965, 0.044886264950037, 0.06781671941280365, -0.18816474080085754, -0.9590315222740173, 0.07994846254587173, -0.2717840373516083, -0.02276456356048584, 0.07086935639381409, 0.004953324794769287, -0.08742517811724737, -0.59704674324572, 0.7958850085777607,-0.049587667864428586,-0.9817962646484375,0.15081787109375,-0.2668304443359375
20220223-1420,2022-02-23 14:20:26Z,u01, 236,40,movements,el-ex, rt, d,205553.859965, -1.2932712719514206, -0.07499569077174488, -0.18507423114191332, 0.1443774402141571, 0.04466293007135391, -0.200179323554039, -0.9590330123901367, 0.07492540776729584, -0.27320608496665955, -0.03252863883972168, 0.08533760160207748, 0.028988927602767944, -0.0854279611129766, -0.5967403247413652, 0.7962290192975514,-0.051207393487126496,-0.99114990234375,0.165557861328125,-0.24383544921875
20220223-1420,2022-02-23 14:20:26Z,u01, 237,40,movements,el-ex, rt, d,205553.884911, -1.292234525949087, -0.06771016119634189, -0.17867007822122163, 0.4766778349876404, -0.001587720587849617, -0.22643736004829407, -0.9592486023902893, 0.067658431828022, -0.2743430435657501, -0.030375182628631592, 0.0945882499217987, 0.019109010696411133, -0.08060342394415818, -0.5969351451293321, 0.7966060389475976,-0.050893228574622695,-0.9896240234375,0.1622467041015625,-0.2552337646484375
20220223-1420,2022-02-23 14:20:26Z,u01, 238,40,movements,el-ex, rt, d,205553.90985700002, -1.2921102318644968, -0.05854471600904222, -0.16681595595390236, 0.6091973185539246, -0.04020275920629501, -0.21749313175678253, -0.9597704410552979, 0.05851127952337265, -0.2746213376522064, -0.011237621307373047, 0.026007115840911865, 0.02906137704849243, -0.07342373309841471, -0.5977443295277208, 0.7968162077728331,-0.048933264622501804,-0.9701080322265625,0.072967529296875,-0.24188232421875
20220223-1420,2022-02-23 14:20:26Z,u01, 239,40,movements,el-ex, rt, d,205553.934803, -1.2918199775250987, -0.04877570335905034, -0.15257670669364298, 0.6760460138320923, 0.008613184094429016, -0.2210935354232788, -0.9601944088935852, 0.04875636473298073, -0.27504420280456543, 0.0008135437965393066, 0.003428637981414795, 0.008350789546966553, -0.06527813744557709, -0.5985120428998426, 0.797111570754656,-0.04620755127342013,-0.959381103515625,0.05218505859375,-0.266693115234375
20220223-1420,2022-02-23 14:20:26Z,u01, 240,40,movements,el-ex, rt, d,205553.959749, -1.290406370822769, -0.038908538113718125, -0.13927889808047206, 0.4960618019104004, 0.04663413390517235, -0.2327842116355896, -0.9602201581001282, 0.03889872133731842, -0.27652090787887573, 0.012115538120269775, -0.0364421047270298, -0.007857412099838257, -0.05734155731873608, -0.598708183603937, 0.7977040326749422,-0.043914934450158316,-0.9451904296875,-0.014068603515625,-0.284027099609375
20220223-1420,2022-02-23 14:20:26Z,u01, 241,40,movements,el-ex, rt, d,205553.98469500002, -1.2889108076122828, -0.03205826466045396, -0.13308519529986587, 0.19192248582839966, 0.03833106532692909, -0.16373762488365173, -0.960038959980011, 0.03205277398228645, -0.278024286031723, 0.012483656406402588, -0.07634907960891724, 0.006692230701446533, -0.05272693857149313, -0.5985045793273408, 0.7981954943772513,-0.043541885623739174,-0.9475555419921875,-0.0442962646484375,-0.271331787109375
20220223-1420,2022-02-23 14:20:26Z,u01, 242,40,movements,el-ex, rt, d,205554.009641, -1.287760589720992, -0.02730552736435014, -0.12994760677262052, 0.19206009805202484, 0.038194313645362854, -0.1488189995288849, -0.959854006767273, 0.027302134782075882, -0.2791677415370941, -7.617473602294922e-05, -0.057621389627456665, 0.010078728199005127, -0.049868651410527376, -0.5982718811876359, 0.7985425066384244,-0.04374461100778687,-0.9607086181640625,-0.023193359375,-0.27435302734375
20220223-1420,2022-02-23 14:20:26Z,u01, 243,40,movements,el-ex, rt, d,205554.034587, -1.287210164114496, -0.022482421281438653, -0.1272382760449113, 0.09890136122703552, 0.013408739119768143, -0.15661892294883728, -0.9598154425621033, 0.022480526939034462, -0.27972960472106934, -0.012794792652130127, -0.045460283756256104, -0.025110691785812378, -0.04712251146472418, -0.5982596933400455, 0.7986976118137785,-0.04412193232206918,-0.9726104736328125,-0.022979736328125,-0.304840087890625
20220223-1420,2022-02-23 14:20:26Z,u01, 244,40,movements,el-ex, rt, d,205554.05953275002, -1.28709346796623, -0.01891944985832535, -0.1272144031981986, 0.00422285869717598, -0.016322124749422073, -0.10981053858995438, -0.9598535299301147, 0.018918320536613464, -0.27986225485801697, -0.018204033374786377, -0.002194734290242195, -0.051650434732437134, -0.045691322896650066, -0.5983152855722065, 0.7986797488637265,-0.04518282309249416,-0.9803009033203125,0.0241851806640625,-0.32977294921875
20220223-1420,2022-02-23 14:20:26Z,u01, 245,40,movements,el-ex, rt, d,205554.08447875, -1.288171629804488, -0.017275878010699533, -0.12899601742267502, -0.11088022589683533, -0.07012716680765152, -0.07202520966529846, -0.9601833820343018, 0.017275018617510796, -0.2788355350494385, -0.051901400089263916, -0.012605877593159676, -0.021549195051193237, -0.045593556416349545, -0.598751587311454, 0.7982907808431643,-0.046362142503828974,-1.0120849609375,0.004669189453125,-0.300384521484375
20220223-1420,2022-02-23 14:20:26Z,u01, 246,40,movements,el-ex, rt, d,205554.10942475, -1.2906837137741276, -0.014019495538615444, -0.13201773655973725, -0.06249704957008362, -0.14118097722530365, -0.0408618338406086, -0.9609297513961792, 0.014019036665558815, -0.2764366567134857, -0.0598829984664917, 0.028613954782485962, -0.039222151041030884, -0.04526047209361789, -0.5997775884531255, 0.7974127549229575,-0.04848757298185202,-1.021942138671875,0.05078125,-0.3153076171875
20220223-1420,2022-02-23 14:20:26Z,u01, 247,40,movements,el-ex, rt, d,205554.13437075002, -1.2929735973787173, -0.011088489503535455, -0.13158333661778412, 0.11309148371219635, -0.1526811718940735, -0.05318254977464676, -0.9615955948829651, 0.011088262312114239, -0.27424561977386475, -0.07644432783126831, 0.0666857361793518, -0.014557749032974243, -0.04401863501367753, -0.6007824515581761, 0.7966852845605668,-0.0491440246762595,-1.0380401611328125,0.0777740478515625,-0.2888031005859375
