SessionID,LoggingTime,UID,RecNo,Hertz,Activity,MoveType,Wrist,Side,TimeStamp,DMRoll,DMPitch,DMYaw,DMRotX,DMRotY,DMRotZ,DMGrvX,DMGrvY,DMGrvZ,DMUAccelX,DMUAccelY,DMUAccelZ,DMQuatX,DMQuatY,DMQuatW,DMQuatZ,AccelroX,AceelroY,AceelroZ
20220223-1342,2022-02-23 13:43:01Z,u01, 1,40,movements,el-ex, rt, d,203708.853398875, -1.5507294178038546, 0.44327160603331356, 0.4347420516806882, -0.11910117417573929, -0.06670160591602325, 0.3840402662754059, -0.9031714200973511, -0.4288971722126007, -0.018126292154192924, -0.01519399881362915, 0.0017731785774230957, -0.03390610218048096, 0.3005642805603289, -0.6329280902081817, 0.7134865967550275,0.0,-0.9140625,-0.4362335205078125,-0.0484466552734375
20220223-1342,2022-02-23 13:43:01Z,u01, 2,40,movements,el-ex, rt, d,203708.87834287502, -1.550918320572598, 0.4346893343674259, 0.43071163601435974, -0.2539346218109131, -0.06793838739395142, 0.3014148771762848, -0.9068219065666199, -0.42112866044044495, -0.01802818663418293, -0.05519908666610718, 0.015153259038925171, -0.0193252582103014, 0.2965061001587651, -0.634877972121716, 0.7134506905129372,0.0015407024696362237,-0.9529571533203125,-0.41314697265625,-0.046173095703125
20220223-1342,2022-02-23 13:43:01Z,u01, 3,40,movements,el-ex, rt, d,203708.903287875, -1.5477450935924217, 0.42755628584245814, 0.4197147480973763, -0.5090808868408203, 0.24659618735313416, -0.05879968777298927, -0.9097400307655334, -0.41464829444885254, -0.02097434364259243, 0.10467106103897095, -0.02823805809020996, -0.005881130695343018, 0.29068819136239865, -0.6364064764399491, 0.7144836282861665,0.0005779324289618692,-0.9471282958984375,-0.404998779296875,-0.004547119140625
20220223-1342,2022-02-23 13:43:01Z,u01, 4,40,movements,el-ex, rt, d,203708.928232875, -1.5437327354445236, 0.42015689431763875, 0.4048045762630861, -0.45791491866111755, -0.043492693454027176, 0.19432224333286285, -0.9126905798912048, -0.4079037010669708, -0.02470671758055687, 0.0013136863708496094, -0.002572983503341675, -0.024594426155090332, 0.2835147492782423, -0.638173979644026, 0.7157868414150865,-0.0015916135806278153,-1.0769500732421875,-0.3828125,-0.00128173828125
20220223-1342,2022-02-23 13:43:01Z,u01, 5,40,movements,el-ex, rt, d,203708.95317687502, -1.5415677076108198, 0.4145454618806562, 0.39850842235664363, -0.030986260622739792, -0.02424662560224533, 0.2722603976726532, -0.9149086475372314, -0.4027739465236664, -0.026749134063720703, 0.009833574295043945, -0.0018586516380310059, -0.01605170965194702, 0.2796583610939187, -0.6390748263222611, 0.7164999503263717,-0.0015831712895768568,-0.9144134521484375,-0.395660400390625,-0.0572052001953125
20220223-1342,2022-02-23 13:43:01Z,u01, 6,40,movements,el-ex, rt, d,203708.978121875, -1.54282415013866, 0.4075686609474753, 0.4000085943954268, 0.058407533913850784, -0.008971800096333027, 0.2760647237300873, -0.9177281260490417, -0.3963783085346222, -0.025677550584077835, -0.023861169815063477, -0.05596849322319031, -0.011721670627593994, 0.2778360640594049, -0.6402877056250502, 0.71612661510545,0.0012129546346962283,-0.9307098388671875,-0.4384613037109375,-0.0356903076171875
20220223-1342,2022-02-23 13:43:01Z,u01, 7,40,movements,el-ex, rt, d,203709.003066875, -1.5433358617330402, 0.4010198794513087, 0.3993227286240099, -0.14953868091106415, -0.06223941594362259, 0.23816193640232086, -0.9203163385391235, -0.39035752415657043, -0.025278668850660324, -0.049089789390563965, -0.07260942459106445, 0.002772033214569092, 0.2754541739560451, -0.6414714828500441, 0.7159813593786517,0.0031822124138264907,-0.9588470458984375,-0.4673614501953125,-0.039886474609375
20220223-1342,2022-02-23 13:43:01Z,u01, 8,40,movements,el-ex, rt, d,203709.02801087502, -1.5433761190899873, 0.39541165072736206, 0.3936694511914594, -0.23228615522384644, -0.0939914882183075, 0.20418107509613037, -0.9224911332130432, -0.38518810272216797, -0.025301240384578705, -0.09363734722137451, -0.09178635478019714, 0.0031759757548570633, 0.2717834932570363, -0.6430265257169689, 0.7159894634555107,0.00311039005846786,-1.0014801025390625,-0.473480224609375,-0.01971435546875
20220223-1342,2022-02-23 13:43:01Z,u01, 9,40,movements,el-ex, rt, d,203709.052955875, -1.5435924582431801, 0.3902333209865478, 0.38895206133865806, -0.08874483406543732, -0.08750855922698975, 0.18232691287994385, -0.9244780540466309, -0.38040420413017273, -0.025155585259199142, -0.1529144048690796, -0.11480450630187988, -0.02265012077987194, 0.2685487261931254, -0.6444406789628917, 0.7159381904381992,0.003199963020629415,-1.065185546875,-0.491119384765625,-0.0371551513671875
20220223-1342,2022-02-23 13:43:01Z,u01, 10,40,movements,el-ex, rt, d,203709.077900875, -1.5456953636054058, 0.38699626031647744, 0.3892004519240499, 0.06996925175189972, -0.06792513281106949, 0.0786038413643837, -0.9257550835609436, -0.377408504486084, -0.023242225870490074, -0.17620408535003662, -0.11572495102882385, -0.01057123951613903, 0.26755878277904976, -0.6455936685447159, 0.7152649330042895,0.004137518534586548,-1.0979156494140625,-0.4913787841796875,-0.0417633056640625
20220223-1342,2022-02-23 13:43:01Z,u01, 11,40,movements,el-ex, rt, d,203709.10284587502, -1.547567109674285, 0.3866881852924138, 0.3911979165561755, 0.029827788472175598, -0.020151017233729362, -0.047085173428058624, -0.9259132742881775, -0.3771232068538666, -0.02151210978627205, -0.1901145577430725, -0.16105425357818604, 0.03329193592071533, 0.26810579405621887, -0.6460365534565731, 0.7146564975634044,0.004708624581173659,-1.11444091796875,-0.5280303955078125,0.009979248046875
20220223-1342,2022-02-23 13:43:01Z,u01, 12,40,movements,el-ex, rt, d,203709.12778987503, -1.5477698118604513, 0.3882483250996821, 0.3900312301553424, -0.06054665148258209, -0.030855994671583176, -0.08673471212387085, -0.9253281354904175, -0.3785676956176758, -0.021310849115252495, -0.17226696014404297, -0.15216347575187683, 0.03183948993682861, 0.2682460899612973, -0.6460561979410382, 0.7145918360233843,0.003718901846450684,-1.101165771484375,-0.5335235595703125,0.0117340087890625
20220223-1342,2022-02-23 13:43:01Z,u01, 13,40,movements,el-ex, rt, d,203709.15273425, -1.5479352404834097, 0.39091812488180117, 0.3895600547394091, 0.06198342889547348, -0.01148995291441679, -0.12061245739459991, -0.9243178367614746, -0.3810374438762665, -0.021134592592716217, -0.15363913774490356, -0.10371899604797363, 0.007951024919748306, 0.26897810260023103, -0.6458200091390385, 0.7145351000698874,0.0025944954353522842,-1.08740234375,-0.4965667724609375,-0.0052947998046875
20220223-1342,2022-02-23 13:43:01Z,u01, 14,40,movements,el-ex, rt, d,203709.17767925002, -1.5496027143142859, 0.39462962135932067, 0.39250642938647345, 0.14929260313510895, -0.03935866802930832, -0.17046183347702026, -0.9229316115379333, -0.384466290473938, -0.019563183188438416, -0.1418570876121521, -0.07877525687217712, -5.9602782130241394e-05, 0.27115835487601136, -0.6455165021320046, 0.7139866905523715,0.0021228029096884704,-1.0681610107421875,-0.4684600830078125,-0.017547607421875
20220223-1342,2022-02-23 13:43:01Z,u01, 15,40,movements,el-ex, rt, d,203709.20262325002, -1.5529424447493734, 0.3994961452623457, 0.3973021284600081, 0.20957519114017487, -0.07665770500898361, -0.21928730607032776, -0.9211102724075317, -0.388954222202301, -0.016447141766548157, -0.12413203716278076, -0.051628053188323975, -0.01710689067840576, 0.2743133682304586, -0.6453902735469892, 0.7128960486194857,0.0016731121667444282,-1.051544189453125,-0.447601318359375,-0.0301055908203125
20220223-1342,2022-02-23 13:43:01Z,u01, 16,40,movements,el-ex, rt, d,203709.22756825, -1.558002753423657, 0.40599411808065056, 0.4025027468471205, 0.15421538054943085, -0.18466247618198395, -0.3052072823047638, -0.9186350107192993, -0.39493227005004883, -0.011753265745937824, -0.10909020900726318, -0.030223369598388672, -0.013667821884155273, 0.27812702696758596, -0.6455762729347627, 0.7112497961829296,0.0005447231288720489,-1.0309600830078125,-0.4317474365234375,-0.0326690673828125
20220223-1342,2022-02-23 13:43:01Z,u01, 17,40,movements,el-ex, rt, d,203709.25251325002, -1.564240194451058, 0.414215943563243, 0.4052712002992362, 0.04268942400813103, -0.19081111252307892, -0.35270947217941284, -0.9154123663902283, -0.4024723172187805, -0.00600165082141757, -0.13665050268173218, -0.05831250548362732, 0.025075137615203857, 0.28170192103713654, -0.6462532029266703, 0.7092219138169976,-0.002239023766083259,-1.043487548828125,-0.4472808837890625,0.00152587890625
20220223-1342,2022-02-23 13:43:01Z,u01, 18,40,movements,el-ex, rt, d,203709.27745725002, -1.5680901990684364, 0.4234701493628891, 0.4050460590210884, -0.04337805137038231, -0.14977332949638367, -0.3913950026035309, -0.911665141582489, -0.41092655062675476, -0.0024670884013175964, -0.10426503419876099, -0.08434319496154785, 0.022547662258148193, 0.2846267374773254, -0.6463389792985409, 0.7079519711641332,-0.006128693427190135,-1.02935791015625,-0.49041748046875,0.029876708984375
20220223-1342,2022-02-23 13:43:01Z,u01, 19,40,movements,el-ex, rt, d,203709.30240225, -1.5735910084936469, 0.4336284352497625, 0.40435045804982667, 0.0745759829878807, -0.315599650144577, -0.4221937358379364, -0.907443642616272, -0.42016616463661194, 0.0025360228028148413, -0.07113301753997803, -0.0059355199337005615, -0.02868962287902832, 0.28766282512938957, -0.6469297569253754, 0.706127721216739,-0.010752932504210944,-0.9670257568359375,-0.4468994140625,-0.02215576171875
20220223-1342,2022-02-23 13:43:01Z,u01, 20,40,movements,el-ex, rt, d,203709.32734725002, -1.5843705222021287, 0.44498350672890247, 0.4108599778984985, 0.37321579456329346, -0.285753071308136, -0.4950019121170044, -0.9025346636772156, -0.4304429888725281, 0.01225193403661251, -0.14681226015090942, 0.005501002073287964, -0.020415306091308594, 0.293347121356205, -0.6481307226082751, 0.7026211874938972,-0.01405517983796195,-1.03179931640625,-0.4140167236328125,-0.0181884765625
20220223-1342,2022-02-23 13:43:01Z,u01, 21,40,movements,el-ex, rt, d,203709.35229125002, -1.5948129685489822, 0.4574384728967096, 0.4213032321594158, 0.29731160402297974, -0.24412646889686584, -0.49702319502830505, -0.8969278931617737, -0.4416514039039612, 0.02154533751308918, -0.13735848665237427, -0.06506240367889404, 0.0009003840386867523, 0.3006070502690419, -0.6483888265717762, 0.6992558342227508,-0.01638594155518991,-1.061309814453125,-0.4919891357421875,0.0274810791015625
20220223-1342,2022-02-23 13:43:01Z,u01, 22,40,movements,el-ex, rt, d,203709.37723625, -1.6055855265230743, 0.4699793093559883, 0.4275085482323558, 0.15660616755485535, -0.3976063132286072, -0.5417081117630005, -0.891038179397583, -0.4528678357601166, 0.03101101703941822, -0.10426205396652222, -0.022733330726623535, -0.037892699241638184, 0.3064595120616026, -0.6492981411394863, 0.6957589042064343,-0.020348101969346832,-0.99688720703125,-0.486114501953125,-0.0036773681640625
20220223-1342,2022-02-23 13:43:01Z,u01, 23,40,movements,el-ex, rt, d,203709.40218125, -1.618570473187134, 0.4841973932845945, 0.4335613422604226, 0.22983795404434204, -0.38437777757644653, -0.5969353318214417, -0.8840389251708984, -0.465498149394989, 0.0422663651406765, -0.1727694869041443, 0.01603531837463379, -0.036910537630319595, 0.31269159233745614, -0.6506590123886565, 0.6915365068262449,-0.025376471948139412,-1.0376739501953125,-0.4434661865234375,0.00018310546875
20220223-1342,2022-02-23 13:43:01Z,u01, 24,40,movements,el-ex, rt, d,203709.42712525002, -1.6306230262187755, 0.4986805160239679, 0.44097081410024597, 0.20287536084651947, -0.3364487290382385, -0.5924118161201477, -0.8766431212425232, -0.4782671630382538, 0.05250932648777962, -0.16058826446533203, 0.009028911590576172, -0.034427642822265625, 0.3193756831298585, -0.651347708140871, 0.6876389382444392,-0.029966217488954894,-1.04791259765625,-0.46478271484375,0.0145721435546875
20220223-1342,2022-02-23 13:43:01Z,u01, 25,40,movements,el-ex, rt, d,203709.45207025, -1.6431498147708214, 0.5132511121213988, 0.44785450917227976, 0.21374301612377167, -0.3858850598335266, -0.6131001114845276, -0.8688734769821167, -0.4910120666027069, 0.06297595798969269, -0.12525182962417603, -0.0017400085926055908, -0.06576836854219437, 0.3258238701658009, -0.6521708251304034, 0.6835877865412847,-0.034924604114723756,-0.9972686767578125,-0.4898681640625,0.0068206787109375
20220223-1342,2022-02-23 13:43:01Z,u01, 26,40,movements,el-ex, rt, d,203709.47701525, -1.6566500026232567, 0.5281556608420089, 0.45533030308895595, 0.20856374502182007, -0.3990601897239685, -0.614953875541687, -0.8605567812919617, -0.5039411783218384, 0.07406402379274368, -0.13073056936264038, 0.012516558170318604, -0.05932401865720749, 0.3324574420043209, -0.6530727848444762, 0.6792381128823949,-0.04004579857398127,-0.993804931640625,-0.490692138671875,0.011993408203125
20220223-1342,2022-02-23 13:43:01Z,u01, 27,40,movements,el-ex, rt, d,203709.50195925002, -1.6696096822658122, 0.5428711409891804, 0.46110906813562846, 0.040018074214458466, -0.39555320143699646, -0.5964532494544983, -0.8520523905754089, -0.5165964961051941, 0.0844692587852478, -0.13384854793548584, 0.038035035133361816, -0.01907002180814743, 0.33839689253192573, -0.6540047188437068, 0.6750407463175279,-0.0456671704362796,-0.9888916015625,-0.4808349609375,0.048614501953125
20220223-1342,2022-02-23 13:43:01Z,u01, 28,40,movements,el-ex, rt, d,203709.52690425, -1.6780834609141646, 0.5575406820059506, 0.4599673624165369, -0.21535903215408325, -0.3177594542503357, -0.5352606773376465, -0.8436797261238098, -0.5291008949279785, 0.0908648818731308, -0.12645870447158813, 0.03322094678878784, -5.9857964515686035e-05, 0.34207988650210386, -0.6545332630788425, 0.6721375326985108,-0.052901407779909926,-0.9766387939453125,-0.486114501953125,0.093536376953125
20220223-1342,2022-02-23 13:43:01Z,u01, 29,40,movements,el-ex, rt, d,203709.55184925, -1.6835414826026502, 0.5700104128036783, 0.45567900767832015, -0.12308615446090698, -0.307315468788147, -0.4307199716567993, -0.836550235748291, -0.5396408438682556, 0.09471866488456726, -0.08892583847045898, -0.01266634464263916, -0.02567267417907715, 0.34412018232419406, -0.6549355936919011, 0.6701153793213683,-0.05988402752053945,-0.932373046875,-0.5363616943359375,0.071136474609375
20220223-1342,2022-02-23 13:43:01Z,u01, 30,40,movements,el-ex, rt, d,203709.57679325002, -1.690270149554376, 0.5794810273585482, 0.4550537290496328, -0.025446252897381783, -0.2594189941883087, -0.3298244774341583, -0.8307820558547974, -0.5475897789001465, 0.0997316837310791, -0.09814238548278809, 0.01193004846572876, -0.013977304100990295, 0.3464207872625009, -0.6556359361308157, 0.6677874856221186,-0.06476065764082717,-0.9280853271484375,-0.54229736328125,0.0814361572265625
20220223-1342,2022-02-23 13:43:01Z,u01, 31,40,movements,el-ex, rt, d,203709.60173825, -1.6960713718032618, 0.5879064290891076, 0.45452872334664524, -0.1489604264497757, -0.19865092635154724, -0.32241496443748474, -0.8255828022956848, -0.5546201467514038, 0.10396938025951385, -0.12085884809494019, 0.02411782741546631, 0.030430078506469727, 0.3484540886693024, -0.6561740926669548, 0.6657663824805633,-0.06906866374232662,-0.937286376953125,-0.5263214111328125,0.111968994140625
20220223-1342,2022-02-23 13:43:01Z,u01, 32,40,movements,el-ex, rt, d,203709.62668325, -1.6958406092212934, 0.5958225095028088, 0.44811118562506547, -0.352323979139328, -0.08423972129821777, -0.2614789605140686, -0.8212247490882874, -0.5611897110939026, 0.10322804749011993, -0.10454124212265015, 0.03238117694854736, 0.037824273109436035, 0.34860467162393105, -0.6558115639566522, 0.6655034301353312,-0.07410247144279991,-0.9349517822265625,-0.5340576171875,0.1390838623046875
20220223-1342,2022-02-23 13:43:01Z,u01, 33,40,movements,el-ex, rt, d,203709.65162825002, -1.6915592053932322, 0.6027127824185106, 0.4382586534544286, -0.31505781412124634, -0.014400187879800797, -0.21352794766426086, -0.8178012371063232, -0.5668793320655823, 0.09924294054508209, -0.05271279811859131, 0.06912237405776978, 0.012344613671302795, 0.34749978596841, -0.6548781329783004, 0.6664137266115001,-0.07919190532515247,-0.88421630859375,-0.5066070556640625,0.115875244140625
20220223-1342,2022-02-23 13:43:01Z,u01, 34,40,movements,el-ex, rt, d,203709.67657225, -1.6881892679649175, 0.608446813675066, 0.43253431896923444, -0.12904784083366394, 0.0157718937844038, -0.1815270632505417, -0.8148891925811768, -0.571593701839447, 0.09610412269830704, -0.03533041477203369, 0.0872492790222168, 0.02427254617214203, 0.3473989331889292, -0.6537323925595737, 0.6671724853447817,-0.08263601852745922,-0.852935791015625,-0.487945556640625,0.116363525390625
20220223-1342,2022-02-23 13:43:01Z,u01, 35,40,movements,el-ex, rt, d,203709.70151725, -1.686499243456424, 0.6123553571281869, 0.4320699629841276, 0.010535781271755695, 0.08215124905109406, -0.1589127779006958, -0.812825083732605, -0.5747964382171631, 0.09446816146373749, -0.012064993381500244, 0.09664708375930786, 0.015288345515727997, 0.3484337621261004, -0.6525549741833063, 0.6676224605535185,-0.08394083730889279,-0.835357666015625,-0.4962005615234375,0.093963623046875
20220223-1342,2022-02-23 13:43:01Z,u01, 36,40,movements,el-ex, rt, d,203709.72646225002, -1.6846951773845227, 0.615652467335946, 0.4328626461798182, 0.02437606453895569, 0.12961910665035248, -0.13397899270057678, -0.8111070990562439, -0.5774913430213928, 0.09278574585914612, -0.01593458652496338, 0.09502369165420532, 0.0077544450759887695, 0.34970959550930864, -0.651226590137449, 0.6681719193332296,-0.08457812980912971,-0.8225555419921875,-0.4680023193359375,0.0994873046875
20220223-1342,2022-02-23 13:43:01Z,u01, 37,40,movements,el-ex, rt, d,203709.75140625003, -1.6795920353758407, 0.6191793192633782, 0.4326457980889836, -0.04210309684276581, 0.25241878628730774, -0.1143144816160202, -0.8095404505729675, -0.5803670287132263, 0.08842367678880692, -0.008910655975341797, 0.05134475231170654, 0.011872418224811554, 0.3508636970699289, -0.6489271951231312, 0.6697415199380632,-0.0850565825170237,-0.8418426513671875,-0.5150146484375,0.113861083984375
20220223-1342,2022-02-23 13:43:01Z,u01, 38,40,movements,el-ex, rt, d,203709.77635125, -1.6744457056713324, 0.6211631165650849, 0.43283135518126425, 0.07924437522888184, 0.13965602219104767, -0.06725961714982986, -0.8088377714157104, -0.5819814205169678, 0.08413704484701157, 0.03912341594696045, 0.03817343711853027, 0.007598757743835449, 0.35171087801573825, -0.6468137149959401, 0.6713694969167507,-0.0848200106181361,-0.774200439453125,-0.5402984619140625,0.0955810546875
20220223-1342,2022-02-23 13:43:01Z,u01, 39,40,movements,el-ex, rt, d,203709.80129625002, -1.6742095210535197, 0.6109548093651562, 0.43713619771169177, 0.14179283380508423, 0.24018129706382751, 0.07223409414291382, -0.8147247433662415, -0.5736498236656189, 0.08455492556095123, -0.03619694709777832, 0.009974837303161621, 0.04242873936891556, 0.3501818548022519, -0.6478040836529408, 0.6718551278237039,-0.07958182065933261,-0.821746826171875,-0.5528106689453125,0.1241912841796875
20220223-1342,2022-02-23 13:43:01Z,u01, 40,40,movements,el-ex, rt, d,203709.82624025003, -1.6701528125693166, 0.6016289873650542, 0.4414596953488181, 0.049560315907001495, 0.3263951539993286, 0.16687631607055664, -0.820348858833313, -0.565986156463623, 0.08177624642848969, 0.012289226055145264, 0.022132456302642822, 0.003276340663433075, 0.3490509000875135, -0.6473419449911151, 0.6735258097827245,-0.07399227362694116,-0.82666015625,-0.5577850341796875,0.0911712646484375
20220223-1342,2022-02-23 13:43:02Z,u01, 41,40,movements,el-ex, rt, d,203709.85118525, -1.6637610621558312, 0.5962663986260811, 0.44122864045682025, -0.07138052582740784, 0.22231927514076233, 0.15671122074127197, -0.8238649964332581, -0.5615570545196533, 0.07681180536746979, 0.08469879627227783, 0.0711548924446106, 0.01049899309873581, 0.3476553816512178, -0.646174617781877, 0.6756881786024593,-0.07098995003372416,-0.7376708984375,-0.4990997314453125,0.0713958740234375
20220223-1342,2022-02-23 13:43:02Z,u01, 42,40,movements,el-ex, rt, d,203709.87613025002, -1.654565344744461, 0.593019781419923, 0.43552568181170526, -0.2718958556652069, 0.31227752566337585, 0.15796704590320587, -0.8263489007949829, -0.5588677525520325, 0.06938480585813522, 0.0072113871574401855, 0.008727431297302246, 0.10062860697507858, 0.34519289080642235, -0.6446194790990504, 0.6785188720681399,-0.0701405733729123,-0.7971038818359375,-0.529083251953125,0.149566650390625
20220223-1342,2022-02-23 13:43:02Z,u01, 43,40,movements,el-ex, rt, d,203709.90107425002, -1.6377034069330703, 0.5882557945982801, 0.4245330390164913, -0.4975208044052124, 0.5445353388786316, 0.2934897840023041, -0.8300483822822571, -0.5549108386039734, 0.05561913177371025, 0.039688944816589355, 0.02175360918045044, 0.06469643115997314, 0.3408402993394563, -0.6415897886820939, 0.6836618711193699,-0.06925906093009926,-0.8417205810546875,-0.5938720703125,0.13134765625
20220223-1342,2022-02-23 13:43:02Z,u01, 44,40,movements,el-ex, rt, d,203709.92601925, -1.6159041160722507, 0.581361955037594, 0.40778134420721834, -0.587568998336792, 0.3948264718055725, 0.2826607823371887, -0.834865391254425, -0.5491626262664795, 0.037684496492147446, 0.20075589418411255, 0.13368111848831177, 0.004078861325979233, 0.33416389993092466, -0.6381040162626445, 0.6902303191968421,-0.06884656719190596,-0.66192626953125,-0.441009521484375,0.0482025146484375
20220223-1342,2022-02-23 13:43:02Z,u01, 45,40,movements,el-ex, rt, d,203709.95096425002, -1.5952621476584277, 0.5757852094354607, 0.38478448652667746, -0.9924794435501099, 0.286454975605011, 0.22261127829551697, -0.8385138511657715, -0.544493556022644, 0.02051902376115322, 0.12901079654693604, 0.03196614980697632, 0.10683083534240723, 0.3258566004972504, -0.6356705027367044, 0.6961608122795396,-0.0714177965704853,-0.6486968994140625,-0.4313507080078125,0.0753173828125
20220223-1342,2022-02-23 13:43:02Z,u01, 46,40,movements,el-ex, rt, d,203709.97590825002, -1.5727218151559792, 0.5701408783690901, 0.3577966736353309, -0.6653961539268494, 0.37156960368156433, 0.31641101837158203, -0.841823399066925, -0.5397506356239319, 0.0016209231689572334, 0.03483176231384277, -0.12289279699325562, 0.10200154781341553, 0.3163585822890774, -0.6330305750890591, 0.7025159796991143,-0.0752386488247127,-0.7969970703125,-0.6426239013671875,0.12994384765625
20220223-1342,2022-02-23 13:43:02Z,u01, 47,40,movements,el-ex, rt, d,203710.00085325, -1.5585651172827582, 0.5622479793958465, 0.34912042885895966, 0.09487775713205338, 0.36923107504844666, 0.36066582798957825, -0.8459954261779785, -0.5330894589424133, -0.010348062962293625, 0.12944287061691284, 0.13247007131576538, -0.015576599165797234, 0.3116354413263175, -0.6306419904338385, 0.7069655283737226,-0.07330501197726719,-0.746612548828125,-0.49237060546875,-0.007965087890625
20220223-1342,2022-02-23 13:43:02Z,u01, 48,40,movements,el-ex, rt, d,203710.02579825002, -1.555175603546385, 0.5527431637826998, 0.3625632620917286, 0.5178529024124146, 0.5153736472129822, 0.376679927110672, -0.8509837985038757, -0.525023877620697, -0.01329406350851059, 0.09898483753204346, 0.07081550359725952, -0.055751919746398926, 0.3129457377042728, -0.628822656638977, 0.7088453026816641,-0.06469522098466585,-0.731292724609375,-0.43365478515625,-0.07904052734375
20220223-1342,2022-02-23 13:43:02Z,u01, 49,40,movements,el-ex, rt, d,203710.05074225002, -1.544724016836719, 0.5411836327101065, 0.3658674923269794, -0.3857954442501068, 0.3809392750263214, 0.5995174050331116, -0.8568081259727478, -0.5151508450508118, -0.022344030439853668, 0.14306312799453735, -0.010422825813293457, -0.007776735350489616, 0.3105905885387259, -0.6263876363483964, 0.7126177865853323,-0.05786040754532401,-0.7541046142578125,-0.5326995849609375,-0.0228729248046875
20220223-1342,2022-02-23 13:43:02Z,u01, 50,40,movements,el-ex, rt, d,203710.07568725, -1.5295226805174085, 0.5253464210953505, 0.3469963924152787, -0.7938185930252075, 0.09936758875846863, 0.6225018501281738, -0.8644133806228638, -0.5015127658843994, -0.03569776564836502, 0.15304869413375854, 0.006319284439086914, 0.0217207670211792, 0.2999689787109291, -0.6262345636982307, 0.7173724105631885,-0.05679485489962338,-0.69537353515625,-0.4959259033203125,-0.0293121337890625
20220223-1342,2022-02-23 13:43:02Z,u01, 51,40,movements,el-ex, rt, d,203710.10063225002, -1.5193005205692842, 0.5102608076479591, 0.3317275023120523, -0.25351253151893616, 0.16732759773731232, 0.576697826385498, -0.871460497379303, -0.4884048402309418, -0.044916268438100815, -0.014937818050384521, -0.010542303323745728, 0.03426563739776611, 0.2904990242324986, -0.6270184862040434, 0.7206728945781011,-0.05557675325492406,-0.838836669921875,-0.5197601318359375,0.00299072265625
20220223-1342,2022-02-23 13:43:02Z,u01, 52,40,movements,el-ex, rt, d,203710.12557625002, -1.513191511559847, 0.49695060203316666, 0.33508155171696336, 0.3895496129989624, 0.4254362881183624, 0.5406928062438965, -0.8775822520256042, -0.47674721479415894, -0.050608955323696136, -0.012584865093231201, 0.08389443159103394, 0.0036729611456394196, 0.2872834825069411, -0.6262297682300627, 0.7231264194219476,-0.048913886088587544,-0.90325927734375,-0.4137420654296875,-0.03839111328125
20220223-1342,2022-02-23 13:43:02Z,u01, 53,40,movements,el-ex, rt, d,203710.15052125, -1.5077590155393785, 0.48554377129749055, 0.34822021868740555, 0.3604086637496948, 0.45160990953445435, 0.4696168899536133, -0.8826647400856018, -0.4666893482208252, -0.05571462959051132, 0.1053820252418518, 0.1396629810333252, -0.02825450897216797, 0.28770223846347975, -0.6239952780418526, 0.7254652342085937,-0.03946617022491311,-0.81829833984375,-0.341766357421875,-0.07958984375
20220223-1342,2022-02-23 13:43:02Z,u01, 54,40,movements,el-ex, rt, d,203710.17546687502, -1.5022068320096, 0.4743114419142683, 0.35519551877364475, 0.17901793122291565, 0.26139622926712036, 0.4598342180252075, -0.8875155448913574, -0.4567260146141052, -0.06096988543868065, 0.1238895058631897, 0.0633392333984375, 0.01829111948609352, 0.28621442079604087, -0.6225723761349538, 0.7276275966324549,-0.03229422667072279,-0.7531280517578125,-0.3618621826171875,-0.053619384765625
20220223-1342,2022-02-23 13:43:02Z,u01, 55,40,movements,el-ex, rt, d,203710.200411875, -1.4982633824086178, 0.46364011839870595, 0.363059001548266, 0.41267868876457214, 0.345805287361145, 0.5104940533638, -0.892078697681427, -0.44720688462257385, -0.06481880694627762, 0.03809010982513428, 0.03773733973503113, 0.016448505222797394, 0.2851320486937492, -0.6215225748675965, 0.729227756799222,-0.02522393267443035,-0.8438568115234375,-0.425994873046875,-0.0340728759765625
20220223-1342,2022-02-23 13:43:02Z,u01, 56,40,movements,el-ex, rt, d,203710.225355875, -1.4954095527773361, 0.4528411261371273, 0.38122484716929067, 0.6934696435928345, 0.5305746793746948, 0.45550039410591125, -0.8966537117958069, -0.4375220537185669, -0.06772417575120926, 0.023057520389556885, 0.029624104499816895, -0.018091201782226562, 0.2871637890571763, -0.6194149419795782, 0.7305147101407529,-0.014503455985735492,-0.87200927734375,-0.412567138671875,-0.0919036865234375
20220223-1342,2022-02-23 13:43:02Z,u01, 57,40,movements,el-ex, rt, d,203710.25030087502, -1.487249118287522, 0.44348210662272936, 0.39415488423446005, 0.08123768121004105, 0.5115799307823181, 0.4067980945110321, -0.900112509727478, -0.4290873110294342, -0.07537735253572464, 0.14643502235412598, 0.10297641158103943, 0.04711811989545822, 0.2880444902392094, -0.6159072137151558, 0.7332526770217032,-0.005413584141658656,-0.801513671875,-0.3504638671875,-0.0490875244140625
20220223-1342,2022-02-23 13:43:02Z,u01, 58,40,movements,el-ex, rt, d,203710.275245875, -1.472832102649116, 0.43362108369400965, 0.38490397969044393, -0.776724636554718, 0.3573414087295532, 0.36831149458885193, -0.9030993580818176, -0.4201594889163971, -0.0887555405497551, 0.1522907018661499, 0.007455050945281982, 0.10929393768310547, 0.2818867958704475, -0.6133205227718194, 0.7378116797147641,-0.0034246062051552784,-0.736572265625,-0.371124267578125,0.0062255859375
20220223-1342,2022-02-23 13:43:02Z,u01, 59,40,movements,el-ex, rt, d,203710.300189875, -1.4568610049981192, 0.4234736593033292, 0.3649198874321344, -0.4292093813419342, 0.2659679651260376, 0.424755722284317, -0.9057561159133911, -0.41092973947525024, -0.10364648699760437, 0.04958546161651611, -0.15564432740211487, 0.014001131057739258, 0.27231413889603184, -0.6115731888843685, 0.7428298313726,-0.00520266000585734,-0.8153228759765625,-0.532470703125,0.0035858154296875
20220223-1342,2022-02-23 13:43:02Z,u01, 60,40,movements,el-ex, rt, d,203710.32513487502, -1.450106844584015, 0.41456823297616785, 0.37124336207052905, 0.7720515131950378, 0.4657047688961029, 0.4555163085460663, -0.9086322784423828, -0.4027947783470154, -0.11019792407751083, 0.003221571445465088, -0.042914390563964844, -0.055741362273693085, 0.2711640194849321, -0.6094022570487749, 0.7450488616945379,0.0010388149363006471,-0.9047698974609375,-0.4918670654296875,-0.1617584228515625
20220223-1342,2022-02-23 13:43:02Z,u01, 61,40,movements,el-ex, rt, d,203710.350079875, -1.4478095962964146, 0.40634722463053624, 0.39855661509266005, 0.8459527492523193, 0.5223180651664734, 0.47029879689216614, -0.9116325378417969, -0.3952566385269165, -0.11268743872642517, 0.09948348999023438, 0.05049958825111389, 0.02125680446624756, 0.2766022069659159, -0.6059269762771076, 0.7457480298989978,0.014271077777775143,-0.8401947021484375,-0.330780029296875,-0.1176605224609375
20220223-1342,2022-02-23 13:43:02Z,u01, 62,40,movements,el-ex, rt, d,203710.375023875, -1.4413527403414612, 0.39557667949724096, 0.40739576220696677, -0.36139726638793945, 0.19475029408931732, 0.5166191458702087, -0.9150543212890625, -0.3853403925895691, -0.11911393702030182, 0.14534002542495728, -0.06905102729797363, 0.0744820311665535, 0.27547920943256915, -0.6037832709116374, 0.7477104960055019,0.0220418450979889,-0.776123046875,-0.4376373291015625,-0.05230712890625
20220223-1342,2022-02-23 13:43:02Z,u01, 63,40,movements,el-ex, rt, d,203710.39996887502, -1.4336744465840623, 0.3798615028161463, 0.39150854790962414, -0.7600402235984802, 0.007346585392951965, 0.600519597530365, -0.9199987053871155, -0.37079185247421265, -0.12694859504699707, 0.04617351293563843, -0.17107826471328735, 0.03853921592235565, 0.2651022087735649, -0.6051830473105472, 0.7503170467833835,0.0223317262986501,-0.829620361328125,-0.5354461669921875,-0.0761566162109375
20220223-1342,2022-02-23 13:43:02Z,u01, 64,40,movements,el-ex, rt, d,203710.424913875, -1.4274762514708905, 0.3638401334609688, 0.3782386431168923, -0.37103402614593506, 0.09695316851139069, 0.5777496099472046, -0.9249554872512817, -0.35586559772491455, -0.13347986340522766, 0.009367167949676514, -0.050323307514190674, -0.024524852633476257, 0.25536332794867167, -0.6066709465051223, 0.7524564369701523,0.023434420422015545,-0.917266845703125,-0.451202392578125,-0.14337158203125
20220223-1342,2022-02-23 13:43:02Z,u01, 65,40,movements,el-ex, rt, d,203710.449857875, -1.423905049644022, 0.3491567788381456, 0.37239898285665596, -0.31545376777648926, 0.013934379443526268, 0.5217139720916748, -0.9295421838760376, -0.34210559725761414, -0.13753224909305573, 0.0767132043838501, 0.15249988436698914, -0.006434381008148193, 0.248334302299841, -0.6079177170942572, 0.7536997456338947,0.026511329863964428,-0.8607177734375,-0.2360382080078125,-0.168060302734375
20220223-1342,2022-02-23 13:43:02Z,u01, 66,40,movements,el-ex, rt, d,203710.47480287502, -1.421671934043917, 0.33701289131881323, 0.3649656227848565, -0.4029502272605896, 0.040524646639823914, 0.37754392623901367, -0.9332725405693054, -0.33066949248313904, -0.14021460711956024, 0.011321187019348145, 0.021083921194076538, 0.03981177508831024, 0.2417106552551079, -0.6094822821531991, 0.7545364593746955,0.027965953363197404,-0.8941802978515625,-0.2645111083984375,-0.1021881103515625
20220223-1342,2022-02-23 13:43:02Z,u01, 67,40,movements,el-ex, rt, d,203710.499747875, -1.4178942367888163, 0.3263804751912199, 0.3545601581630942, -0.41119396686553955, -0.05882950499653816, 0.326481431722641, -0.9361581206321716, -0.3206166923046112, -0.14426656067371368, 0.031708717346191406, -0.0673837661743164, -0.06104038655757904, 0.23467386474455315, -0.6105693221804613, 0.7558776511219067,0.027967970696281985,-0.916534423828125,-0.3690338134765625,-0.13836669921875
20220223-1342,2022-02-23 13:43:02Z,u01, 68,40,movements,el-ex, rt, d,203710.524691875, -1.4169897795526798, 0.31734865835385495, 0.34703019323001255, -0.23048412799835205, -0.0809933990240097, 0.28634971380233765, -0.9388505816459656, -0.31204870343208313, -0.1455509215593338, 0.05832695960998535, 0.004324734210968018, -0.07246661186218262, 0.22910934954753906, -0.6121547551303448, 0.7562945013930827,0.02817879935020462,-0.8945770263671875,-0.323760986328125,-0.208587646484375
20220223-1342,2022-02-23 13:43:02Z,u01, 69,40,movements,el-ex, rt, d,203710.54963687502, -1.4174842071213323, 0.31036314304137436, 0.3425171904103315, -0.20047490298748016, -0.06635919213294983, 0.2335505485534668, -0.9410538673400879, -0.3054044544696808, -0.14541606605052948, 0.10478067398071289, 0.031860142946243286, 0.009765446186065674, 0.22521377909545148, -0.6136535839094239, 0.7562304074512092,0.02869906340579892,-0.8443756103515625,-0.23724365234375,-0.1473388671875
20220223-1342,2022-02-23 13:43:02Z,u01, 70,40,movements,el-ex, rt, d,203710.574581875, -1.41732508092275, 0.30397380843587335, 0.3373151139501411, -0.2769056558609009, -0.04276631772518158, 0.20123541355133057, -0.9429398775100708, -0.2993142008781433, -0.14586113393306732, 0.0811692476272583, -0.09172278642654419, -0.015195369720458984, 0.22130521001190528, -0.6148930279198063, 0.7563722639692827,0.028837583343266804,-0.8538818359375,-0.3681640625,-0.1483612060546875
20220223-1342,2022-02-23 13:43:02Z,u01, 71,40,movements,el-ex, rt, d,203710.599525875, -1.4159619535139192, 0.2985179392942736, 0.32991944768026255, -0.3085014224052429, -0.048254892230033875, 0.11492203921079636, -0.9443394541740417, -0.2941040098667145, -0.14739596843719482, 0.1325262188911438, 0.005377233028411865, -0.04121790826320648, 0.21703479323924216, -0.6157904773773522, 0.7569118163907774,0.027970863836139337,-0.8462371826171875,-0.3375396728515625,-0.1791839599609375
20220223-1342,2022-02-23 13:43:02Z,u01, 72,40,movements,el-ex, rt, d,203710.62447087502, -1.4158182512904873, 0.29622403969271677, 0.32116724291668475, -0.3775443434715271, -0.10103461146354675, -0.009760106913745403, -0.9449824094772339, -0.2919107973575592, -0.14763543009757996, 0.12798112630844116, -0.022603362798690796, 0.009451881051063538, 0.21350318504438948, -0.6169267981941275, 0.7570808078740718,0.025422409837254467,-0.8040008544921875,-0.2860107421875,-0.1463623046875
20220223-1342,2022-02-23 13:43:02Z,u01, 73,40,movements,el-ex, rt, d,203710.649415875, -1.4142560221847933, 0.2970509549631595, 0.31235519593355376, -0.20382148027420044, 0.0011190492659807205, -0.14583684504032135, -0.944511890411377, -0.2927016019821167, -0.14907385408878326, 0.08828026056289673, -0.023658812046051025, -0.023640379309654236, 0.2110665194102679, -0.6171823050003946, 0.7576633345712118,0.021981455269672823,-0.86004638671875,-0.3230438232421875,-0.15472412109375
20220223-1342,2022-02-23 13:43:02Z,u01, 74,40,movements,el-ex, rt, d,203710.674359875, -1.411882612102033, 0.30124771239026027, 0.3110346383041556, 0.1406611204147339, 0.09269383549690247, -0.19377708435058594, -0.9429342746734619, -0.2967119514942169, -0.1511194407939911, 0.08432221412658691, 0.010273963212966919, -0.05321097373962402, 0.2121618715949914, -0.615976965206332, 0.7583832018183855,0.020364428289966485,-0.8703765869140625,-0.29296875,-0.1960906982421875
20220223-1342,2022-02-23 13:43:02Z,u01, 75,40,movements,el-ex, rt, d,203710.69930487502, -1.4122705899608061, 0.3075315229022222, 0.315277620823299, 0.23255781829357147, 0.021254144608974457, -0.2323419153690338, -0.9411330819129944, -0.30270689725875854, -0.1504562795162201, 0.07377773523330688, -0.08256226778030396, -0.035761937499046326, 0.2157575894788549, -0.6149963625765626, 0.7581772510548062,0.019884748799550822,-0.8277435302734375,-0.331146240234375,-0.1861419677734375
20220223-1342,2022-02-23 13:43:02Z,u01, 76,40,movements,el-ex, rt, d,203710.724249875, -1.411752075498795, 0.31372633987274234, 0.31900900191698983, 0.14766673743724823, 0.06220710277557373, -0.21671907603740692, -0.939185380935669, -0.30860522389411926, -0.15064436197280884, 0.07353901863098145, -0.05012887716293335, -0.04613292217254639, 0.2191490329024123, -0.6137194136384811, 0.758253428912119,0.019337650015794017,-0.8857269287109375,-0.382171630859375,-0.195281982421875
20220223-1342,2022-02-23 13:43:02Z,u01, 77,40,movements,el-ex, rt, d,203710.749194875, -1.4120456456106116, 0.3204099136007569, 0.32084138629527253, 0.08101511001586914, -0.0354556068778038, -0.24245592951774597, -0.9371718764305115, -0.3149556517601013, -0.1500392109155655, 0.07122039794921875, -0.05554300546646118, -0.07388347387313843, 0.222138288294249, -0.6128906689819018, 0.7580909943458911,0.017822455236279733,-0.836944580078125,-0.3120880126953125,-0.2127838134765625
20220223-1342,2022-02-23 13:43:02Z,u01, 78,40,movements,el-ex, rt, d,203710.77413887501, -1.4129800829918573, 0.3254982444383649, 0.32287605922353874, 0.1750451773405075, 0.011858047917485237, -0.15014711022377014, -0.9357167482376099, -0.3197809159755707, -0.14890961349010468, 0.05375891923904419, -0.10430654883384705, -0.08218470215797424, 0.22461288001374288, -0.6124493850583793, 0.7577409871968377,0.016830666723507248,-0.892608642578125,-0.418304443359375,-0.2231292724609375
20220223-1342,2022-02-23 13:43:02Z,u01, 79,40,movements,el-ex, rt, d,203710.79908387503, -1.4150660072218857, 0.3302864030857778, 0.326912900302574, 0.09811116755008698, -0.13075010478496552, -0.21292248368263245, -0.9345020651817322, -0.3243139684200287, -0.14671829342842102, 0.15615129470825195, -0.016338467597961426, -0.0661417692899704, 0.2275973867442889, -0.6122420115187756, 0.7570236712600339,0.016561468860053996,-0.7950286865234375,-0.3566741943359375,-0.232147216796875
20220223-1342,2022-02-23 13:43:02Z,u01, 80,40,movements,el-ex, rt, d,203710.824028875, -1.41813665809874, 0.3355083713671525, 0.32183058465465075, -0.35631313920021057, -0.19288425147533417, -0.2217089831829071, -0.9332615733146667, -0.32924923300743103, -0.143588587641716, 0.06579947471618652, -0.05334964394569397, -0.05248677730560303, 0.2279469492522865, -0.6133888622725376, 0.7560660785525821,0.012583105512802617,-0.845123291015625,-0.3706207275390625,-0.19580078125
20220223-1342,2022-02-23 13:43:03Z,u01, 81,40,movements,el-ex, rt, d,203710.848972875, -1.420116985896949, 0.3405038866380793, 0.3117880649525501, -0.2645702362060547, -0.2683088481426239, -0.31156548857688904, -0.9319062829017639, -0.333962082862854, -0.14149147272109985, 0.11348599195480347, 0.01723545789718628, -0.06399860978126526, 0.22667466145441492, -0.6147136447717594, 0.7554453020627259,0.006928856219527713,-0.8385009765625,-0.341339111328125,-0.20831298828125
20220223-1342,2022-02-23 13:43:03Z,u01, 82,40,movements,el-ex, rt, d,203710.87391787503, -1.4246816481750217, 0.3485344482215652, 0.3069921284262386, -0.05946367606520653, -0.20860521495342255, -0.342741996049881, -0.9298591613769531, -0.3415207266807556, -0.136841282248497, 0.07687759399414062, -0.0027022361755371094, -0.06018011271953583, 0.22810097107793909, -0.6160757277934661, 0.7539341845381089,0.001968507101738015,-0.846160888671875,-0.3476409912109375,-0.206390380859375
20220223-1342,2022-02-23 13:43:03Z,u01, 83,40,movements,el-ex, rt, d,203710.898862875, -1.4288562404052327, 0.3577936178683591, 0.3023798489875784, -0.22678782045841217, -0.26994580030441284, -0.47800368070602417, -0.9272521734237671, -0.35020843148231506, -0.13250531256198883, 0.14824509620666504, 0.09968963265419006, -0.05282790958881378, 0.23000316292732273, -0.6171271249951655, 0.7524905108931241,-0.003287844711594212,-0.7982025146484375,-0.2928314208984375,-0.1946563720703125
20220223-1342,2022-02-23 13:43:03Z,u01, 84,40,movements,el-ex, rt, d,203710.923806875, -1.433715574711462, 0.3710822352710876, 0.29155028824719753, -0.29082098603248596, -0.39400357007980347, -0.6438773274421692, -0.9231932163238525, -0.36262422800064087, -0.12735070288181305, 0.12203037738800049, 0.09326079487800598, -0.03246982395648956, 0.23139851906724157, -0.618691661296846, 0.7506826015479832,-0.012292498762841442,-0.7882080078125,-0.2377471923828125,-0.162322998046875
20220223-1342,2022-02-23 13:43:03Z,u01, 85,40,movements,el-ex, rt, d,203710.94875187502, -1.4400817860688617, 0.3880199525388096, 0.28545557970323676, 0.08993832767009735, -0.3312741219997406, -0.7043867707252502, -0.9177631139755249, -0.37835630774497986, -0.120652936398983, 0.07311296463012695, 0.022963911294937134, -0.01367013156414032, 0.23550349528961853, -0.6198480744354316, 0.7482573731140587,-0.020909844511209807,-0.855560302734375,-0.34478759765625,-0.12005615234375
20220223-1342,2022-02-23 13:43:03Z,u01, 86,40,movements,el-ex, rt, d,203710.973696875, -1.4498860374315048, 0.4073343131688755, 0.2927942862755221, 0.5698079466819763, -0.22771699726581573, -0.7381453514099121, -0.9114765524864197, -0.3961631655693054, -0.11074710637331009, 0.044533371925354004, 0.04893419146537781, -0.03894154727458954, 0.24451042929489655, -0.6203556216834982, 0.7447888527392261,-0.025748032574504864,-0.8621063232421875,-0.349517822265625,-0.155670166015625
20220223-1342,2022-02-23 13:43:03Z,u01, 87,40,movements,el-ex, rt, d,203710.998640875, -1.4622268403055871, 0.42554567915911806, 0.30724107799980654, 0.6239722371101379, -0.3162084221839905, -0.6389145851135254, -0.9054508805274963, -0.4128178656101227, -0.09869241714477539, 0.05036360025405884, -0.08704477548599243, -0.029603473842144012, 0.2552163516286555, -0.6209012853271729, 0.7406500209022655,-0.027996288351962495,-0.851837158203125,-0.431793212890625,-0.147918701171875
20220223-1342,2022-02-23 13:43:03Z,u01, 88,40,movements,el-ex, rt, d,203711.02358587502, -1.4769393232244208, 0.44133667171944246, 0.31905235058288817, 0.2856757640838623, -0.4581707715988159, -0.5025190711021423, -0.9002020359039307, -0.4271484315395355, -0.08473923802375793, 0.04334467649459839, -0.11868903040885925, 0.024924807250499725, 0.264146089379328, -0.6227818423042125, 0.7358111668985616,-0.03084961139694853,-0.85577392578125,-0.5470123291015625,-0.0737457275390625
20220223-1342,2022-02-23 13:43:03Z,u01, 89,40,movements,el-ex, rt, d,203711.048530875, -1.4878781419180904, 0.4526630543249946, 0.31821531893929567, -0.273941308259964, -0.4560069441795349, -0.42085084319114685, -0.8961960077285767, -0.4373619258403778, -0.07448172569274902, 0.03605794906616211, -0.026444286108016968, 0.029300503432750702, 0.26758843077429106, -0.6254243124206178, 0.7320609216333526,-0.036439151040274065,-0.8699188232421875,-0.492462158203125,-0.0491180419921875
20220223-1342,2022-02-23 13:43:03Z,u01, 90,40,movements,el-ex, rt, d,203711.073474875, -1.4941623306601757, 0.4621308010121328, 0.3069161463676783, -0.3394816815853119, -0.45467931032180786, -0.43365126848220825, -0.8924774527549744, -0.44585639238357544, -0.06852831691503525, 0.06505435705184937, -0.01840752363204956, -0.008955776691436768, 0.2671534828100768, -0.627984760474915, 0.7295705548112166,-0.04462033272009441,-0.8363800048828125,-0.465118408203125,-0.07318115234375
20220223-1342,2022-02-23 13:43:03Z,u01, 91,40,movements,el-ex, rt, d,203711.09841987502, -1.5052060890615881, 0.47312709264385583, 0.3028187629104296, 0.14539462327957153, -0.5328310132026672, -0.440937340259552, -0.8882337212562561, -0.45567208528518677, -0.058343153446912766, 0.060764849185943604, 0.011351436376571655, 0.017739534378051758, 0.2693356350068593, -0.6310996272934667, 0.7256281505807132,-0.051336621761231604,-0.802490234375,-0.4403839111328125,-0.0794830322265625
20220223-1342,2022-02-23 13:43:03Z,u01, 92,40,movements,el-ex, rt, d,203711.123364875, -1.5197539839090402, 0.4834131520908398, 0.31222855616999323, 0.5562436580657959, -0.26538050174713135, -0.35167011618614197, -0.8842604160308838, -0.46480393409729004, -0.04517396166920662, -0.008577048778533936, -0.018335074186325073, 0.0587695874273777, 0.2753938078707012, -0.6336965125176365, 0.720923853787119,-0.05343882802877936,-0.8851470947265625,-0.46807861328125,0.0079803466796875
20220223-1342,2022-02-23 13:43:03Z,u01, 93,40,movements,el-ex, rt, d,203711.148308875, -1.5333298793366605, 0.4935996434586555, 0.32964927718688464, 0.6251644492149353, -0.2615426778793335, -0.42166921496391296, -0.8800150156021118, -0.473798930644989, -0.03298647329211235, 0.08951824903488159, 0.054624736309051514, 0.06484687328338623, 0.2839474129687044, -0.6347287850595584, 0.7167478136766582,-0.05259060456146092,-0.8298187255859375,-0.460113525390625,0.0307159423828125
20220223-1342,2022-02-23 13:43:03Z,u01, 94,40,movements,el-ex, rt, d,203711.17325404167, -1.5481473521234361, 0.5051857870749732, 0.3475091198529935, 0.6983574032783508, -0.17531417310237885, -0.452594518661499, -0.8748601078987122, -0.4839700162410736, -0.019818073138594627, 0.037793517112731934, 0.034293532371520996, 0.04365229606628418, 0.2930344815624809, -0.6357843628822945, 0.712155832913502,-0.05237435944322533,-0.8159942626953125,-0.42999267578125,0.026611328125
20220223-1342,2022-02-23 13:43:03Z,u01, 95,40,movements,el-ex, rt, d,203711.19819904168, -1.5596583761576703, 0.5154665457115412, 0.3656800439844853, 0.5977303981781006, -0.0580674409866333, -0.3366657793521881, -0.8700089454650879, -0.4929408133029938, -0.00969051755964756, 0.03512430191040039, 0.0013179183006286621, 0.08577084541320801, 0.30184135909703935, -0.6356465489237716, 0.7086755543990538,-0.05122787331098405,-0.85174560546875,-0.4589691162109375,0.0687713623046875
20220223-1342,2022-02-23 13:43:03Z,u01, 96,40,movements,el-ex, rt, d,203711.2231430417, -1.5676936939413524, 0.5243438864462687, 0.38182848890262133, 0.4904335141181946, 0.031989745795726776, -0.3578254282474518, -0.8656485676765442, -0.5006451606750488, -0.002685798332095146, 0.033556222915649414, -0.011531412601470947, 0.03591948747634888, 0.3096083340203966, -0.6346650930364399, 0.7062978259120879,-0.049863904880268095,-0.834869384765625,-0.5177001953125,0.0405120849609375
20220223-1342,2022-02-23 13:43:03Z,u01, 97,40,movements,el-ex, rt, d,203711.24808804167, -1.5744108152004321, 0.5326210344300202, 0.3953727229115515, 0.4690757691860199, -0.021280333399772644, -0.2967934012413025, -0.861473560333252, -0.5077930688858032, 0.0031137997284531593, 0.07114458084106445, 0.03138309717178345, -0.017670631408691406, 0.316360485917482, -0.6336189255900063, 0.7042985760355944,-0.04905832764056123,-0.8043365478515625,-0.492767333984375,-0.0123291015625
20220223-1342,2022-02-23 13:43:03Z,u01, 98,40,movements,el-ex, rt, d,203711.27303304168, -1.5841822741235538, 0.5393630607092709, 0.40966859777451314, 0.4525325298309326, -0.15072080492973328, -0.26526471972465515, -0.857958972454071, -0.5135895609855652, 0.01148527953773737, 0.06744706630706787, 0.004632771015167236, 0.02365577034652233, 0.32276872240924726, -0.6336899805732326, 0.7013949248396054,-0.04798315683950338,-0.7805633544921875,-0.498199462890625,0.0269775390625
20220223-1342,2022-02-23 13:43:03Z,u01, 99,40,movements,el-ex, rt, d,203711.2979770417, -1.5906965799607726, 0.5458429059506295, 0.4160163887943105, -0.0612366758286953, -0.06212203949689865, -0.2414979338645935, -0.8545206189155579, -0.5191386938095093, 0.01700742170214653, -0.05491828918457031, -0.009959757328033447, 0.03241586685180664, 0.32663755584962817, -0.6338861240165737, 0.699344917595583,-0.049120864629765004,-0.8777008056640625,-0.53802490234375,0.06396484375
20220223-1342,2022-02-23 13:43:03Z,u01, 100,40,movements,el-ex, rt, d,203711.32292204167, -1.588501581595326, 0.5512313409057762, 0.41112947872769984, -0.21378540992736816, -0.03776063770055771, -0.19406449794769287, -0.8517468571662903, -0.5237365961074829, 0.015081970952451229, 0.014817476272583008, 0.06807857751846313, -0.04569101333618164, 0.32681633614947553, -0.6330340181392504, 0.6997961109827118,-0.0523881629949734,-0.8691864013671875,-0.47998046875,-0.016693115234375
20220223-1342,2022-02-23 13:43:03Z,u01, 101,40,movements,el-ex, rt, d,203711.34786704168, -1.592779764669899, 0.5563353293022589, 0.41077946678921246, 0.19465725123882294, -0.3495922386646271, -0.250071257352829, -0.8489909768104553, -0.5280777215957642, 0.018666747957468033, 0.07643836736679077, 0.047929346561431885, -0.024312494322657585, 0.3281713003948299, -0.6337483500643654, 0.6983113744968419,-0.05502674943864222,-0.7464599609375,-0.4444580078125,-0.047637939453125
20220223-1342,2022-02-23 13:43:03Z,u01, 102,40,movements,el-ex, rt, d,203711.37281104169, -1.6027060246537215, 0.5629169047437645, 0.41418336224734553, -0.021947458386421204, -0.17375296354293823, -0.19911745190620422, -0.8452714681625366, -0.5336552858352661, 0.02698151394724846, -0.12526369094848633, -0.02757817506790161, 0.10947787761688232, 0.33099742459665726, -0.6355560260553434, 0.6951010087068007,-0.05782496481000077,-0.9188079833984375,-0.5300750732421875,0.1203460693359375
20220223-1342,2022-02-23 13:43:03Z,u01, 103,40,movements,el-ex, rt, d,203711.39775604167, -1.6004465292040773, 0.5656624033897447, 0.41144467628870135, -0.1650168001651764, 0.12586425244808197, -0.06126171350479126, -0.8438628315925598, -0.5359751582145691, 0.025028038769960403, -0.037088215351104736, -0.006139159202575684, 0.026729825884103775, 0.3310359713336891, -0.6347670479645673, 0.6956720772817977,-0.05938414213061449,-0.9927215576171875,-0.6099700927734375,0.0931549072265625
20220223-1342,2022-02-23 13:43:03Z,u01, 104,40,movements,el-ex, rt, d,203711.42270104168, -1.598484496887932, 0.5674696309764532, 0.40824962543172105, -0.04878060519695282, -0.18879489600658417, -0.08878868073225021, -0.8429406881332397, -0.5375000238418579, 0.023345449939370155, 0.1502830982208252, 0.08895260095596313, -0.0485072135925293, 0.3306363586247104, -0.6343124810462584, 0.6961528244756734,-0.060816345046040665,-0.725128173828125,-0.4659271240234375,-0.014923095703125
20220223-1342,2022-02-23 13:43:03Z,u01, 105,40,movements,el-ex, rt, d,203711.44764504168, -1.6080588277232348, 0.5706014286286801, 0.4072657015071527, -0.11028378456830978, -0.43345603346824646, -0.14888344705104828, -0.8409920334815979, -0.540138304233551, 0.031351979821920395, -0.016750216484069824, 0.057807981967926025, 0.08890259265899658, 0.33098491962767657, -0.6372793520187139, 0.6929976507416389,-0.0638611236437589,-0.7302703857421875,-0.443115234375,0.0467376708984375
20220223-1342,2022-02-23 13:43:03Z,u01, 106,40,movements,el-ex, rt, d,203711.47259004167, -1.6084959944457098, 0.5731325710300147, 0.4002634121244522, -0.3108782172203064, 0.08354748785495758, -0.007611202076077461, -0.8396093845367432, -0.5422667264938354, 0.03166799992322922, -0.16873711347579956, -0.061798155307769775, 0.10698866844177246, 0.32951149107807676, -0.6381662608590425, 0.6925614499424155,-0.06726522892306164,-1.004241943359375,-0.5773162841796875,0.151824951171875
20220223-1342,2022-02-23 13:43:03Z,u01, 107,40,movements,el-ex, rt, d,203711.49753504168, -1.6001529264539713, 0.5723627365958446, 0.3916832228078516, -0.1336742639541626, 0.07705342769622803, 0.06827164441347122, -0.8402613401412964, -0.5416197180747986, 0.0246743056923151, 0.13924211263656616, 0.02646780014038086, -0.057862162590026855, 0.3268236863845625, -0.6368072160877561, 0.6949512150044859,-0.0685974442311088,-0.8170013427734375,-0.5564117431640625,0.0325164794921875
20220223-1342,2022-02-23 13:43:03Z,u01, 108,40,movements,el-ex, rt, d,203711.5224800417, -1.606471361178505, 0.571150461395624, 0.39579489475427365, 0.34151071310043335, -0.4115142822265625, 0.007473408244550228, -0.8407443761825562, -0.5406002402305603, 0.03000631555914879, 0.2001650333404541, 0.0677151083946228, -0.0479811392724514, 0.32754656986285924, -0.6385267434977345, 0.6931117970433363,-0.06777122771160926,-0.6284332275390625,-0.478118896484375,-0.04217529296875
20220223-1342,2022-02-23 13:43:03Z,u01, 109,40,movements,el-ex, rt, d,203711.54742404167, -1.6202107835407797, 0.5707275610305613, 0.4022050366925626, -0.049315065145492554, -0.23488083481788635, 0.031301576644182205, -0.8404811024665833, -0.540244460105896, 0.041565753519535065, -0.14093375205993652, -0.01172703504562378, 0.1026604175567627, 0.3290048778075465, -0.6422917304843836, 0.6889407648814714,-0.0676598278766552,-0.8619384765625,-0.512786865234375,0.1175689697265625
20220223-1342,2022-02-23 13:43:03Z,u01, 110,40,movements,el-ex, rt, d,203711.57236904168, -1.6144944822935683, 0.5687649953804548, 0.39023096919831385, -0.6790037751197815, 0.05198003351688385, 0.15147438645362854, -0.8417623043060303, -0.5385918617248535, 0.03680689260363579, -0.10104763507843018, -0.008206725120544434, 0.07160687446594238, 0.32475723372533627, -0.6426011085092123, 0.6904169017263517,-0.0701493651613862,-0.9880218505859375,-0.5706329345703125,0.1271209716796875
20220223-1342,2022-02-23 13:43:03Z,u01, 111,40,movements,el-ex, rt, d,203711.5973140417, -1.604893897699459, 0.5667518570201162, 0.37020128160870946, -0.5742660760879517, -0.1945725530385971, 0.04293319955468178, -0.8431589603424072, -0.5368946194648743, 0.028760820627212524, 0.12927651405334473, 0.13262826204299927, -0.021970629692077637, 0.3180489914307477, -0.6428259865913344, 0.692836730538801,-0.07481227220518677,-0.7528076171875,-0.44049072265625,0.002838134765625
20220223-1342,2022-02-23 13:43:03Z,u01, 112,40,movements,el-ex, rt, d,203711.62225804167, -1.6077782693075295, 0.5675528912191029, 0.36018931112103253, -0.14736483991146088, -0.33172622323036194, -0.05302482098340988, -0.8426424264907837, -0.5375702381134033, 0.031176770105957985, 0.021429717540740967, 0.12610173225402832, 0.03139948844909668, 0.3149618766482063, -0.6452808697533574, 0.6914965502936143,-0.07901993860291312,-0.7706146240234375,-0.4007110595703125,0.042510986328125
20220223-1342,2022-02-23 13:43:03Z,u01, 113,40,movements,el-ex, rt, d,203711.64720304168, -1.609013898591781, 0.5677703278530178, 0.3570062712050317, -0.13215109705924988, 0.02279997430741787, 0.04572578892111778, -0.8424863815307617, -0.5377535223960876, 0.032213468104600906, -0.068142831325531, 0.0770907998085022, 0.027097459882497787, 0.3139522799830647, -0.6461738934321165, 0.6909633398341664,-0.08039207012706795,-0.957489013671875,-0.4656219482421875,0.084808349609375
20220223-1342,2022-02-23 13:43:03Z,u01, 114,40,movements,el-ex, rt, d,203711.6721480417, -1.6075997826418034, 0.5679845937157746, 0.3513071931714181, -0.27037012577056885, -0.18353675305843353, -0.07424142956733704, -0.8424160480499268, -0.5379341840744019, 0.031017828732728958, 0.05280423164367676, 0.13864219188690186, -0.016979694366455078, 0.3122343499187084, -0.6465435985277224, 0.6911812994615882,-0.08221649261300135,-0.8052825927734375,-0.4162750244140625,0.0168609619140625
20220223-1342,2022-02-23 13:43:03Z,u01, 115,40,movements,el-ex, rt, d,203711.6970920417, -1.6093808155651086, 0.570801765137971, 0.3452743907457446, -0.07234062254428864, -0.18203599750995636, -0.12176600098609924, -0.8408418297767639, -0.5403068661689758, 0.0324595607817173, -0.045907437801361084, 0.10242539644241333, -0.017093896865844727, 0.31108190634321464, -0.6476556400720268, 0.6902504097016476,-0.08558410411385953,-0.842315673828125,-0.40777587890625,0.0130767822265625
20220223-1342,2022-02-23 13:43:03Z,u01, 116,40,movements,el-ex, rt, d,203711.72203704168, -1.613092088522615, 0.5737704949108194, 0.3464382026087206, 0.06960063427686691, -0.09348088502883911, -0.15036708116531372, -0.8391093015670776, -0.5428025722503662, 0.03551194444298744, -0.07107746601104736, 0.06407332420349121, 0.009654045104980469, 0.31221865542106103, -0.6482865753103958, 0.6889890380475829,-0.08682281174197681,-0.912322998046875,-0.472930908203125,0.018798828125
20220223-1342,2022-02-23 13:43:03Z,u01, 117,40,movements,el-ex, rt, d,203711.7469820417, -1.6148368039685903, 0.5770960812542036, 0.3469853246315534, -0.020575731992721558, 0.0021385736763477325, -0.08399099111557007, -0.8372379541397095, -0.5455926060676575, 0.03689621761441231, -0.07125502824783325, -0.031311631202697754, 0.060866829007864, 0.3133472477194237, -0.6482758753826721, 0.6883245424169329,-0.0880978395885445,-0.913482666015625,-0.533935546875,0.08935546875
20220223-1342,2022-02-23 13:43:03Z,u01, 118,40,movements,el-ex, rt, d,203711.7719260417, -1.6126509884991571, 0.5750326412566722, 0.34487513170407536, -0.0751979649066925, 0.018115675076842308, 0.010225252248346806, -0.8384395837783813, -0.5438621640205383, 0.03511311113834381, -0.025482475757598877, -0.035483479499816895, 0.0030643902719020844, 0.3121217332009539, -0.6481794342884999, 0.6890169630910473,-0.08774410234139313,-0.8805999755859375,-0.58416748046875,0.0603485107421875
20220223-1342,2022-02-23 13:43:03Z,u01, 119,40,movements,el-ex, rt, d,203711.79687104168, -1.6148933021952034, 0.5702776408533139, 0.3456324497620959, 0.12467334419488907, -0.18292155861854553, 0.0593925304710865, -0.8409330248832703, -0.5398657917976379, 0.03710665926337242, 0.03389555215835571, 0.030542612075805664, -0.007626648992300034, 0.3107990063449235, -0.6495824092497429, 0.6884972109486686,-0.0861301617592623,-0.801483154296875,-0.5414886474609375,-0.00970458984375
20220223-1342,2022-02-23 13:43:03Z,u01, 120,40,movements,el-ex, rt, d,203711.8218160417, -1.6201272459811218, 0.5681768884462506, 0.34604316927467066, -0.2113335281610489, -0.04914798215031624, 0.015838995575904846, -0.8418580293655396, -0.5380962491035461, 0.04156335070729256, -0.08830249309539795, 0.027354121208190918, 0.09797835350036621, 0.31005842388611793, -0.6516482556943185, 0.6868872563387994,-0.08604788874724584,-0.892303466796875,-0.49462890625,0.1178741455078125
20220223-1342,2022-02-23 13:43:04Z,u01, 121,40,movements,el-ex, rt, d,203711.8467600417, -1.6089759299913708, 0.5678580751680921, 0.3304852812411479, -0.8282285928726196, 0.2425878793001175, 0.11055871844291687, -0.8424406051635742, -0.5378275513648987, 0.032179683446884155, -0.06782245635986328, -0.043211936950683594, 0.09141659736633301, 0.30538538466767473, -0.6502534959846311, 0.6898455829809335,-0.0895727642487083,-0.972808837890625,-0.5874176025390625,0.1726531982421875
20220223-1342,2022-02-23 13:43:04Z,u01, 122,40,movements,el-ex, rt, d,203711.87170504167, -1.5925096699745682, 0.5653440130596219, 0.30827564058681145, -0.43095681071281433, 0.07087909430265427, 0.14283102750778198, -0.8442052602767944, -0.5357063412666321, 0.018333399668335915, 0.05447143316268921, 0.00642472505569458, -0.0562208890914917, 0.2981405947519483, -0.6482891993470702, 0.6942765263405677,-0.0938796304054767,-0.806182861328125,-0.5410308837890625,-0.0015869140625
20220223-1342,2022-02-23 13:43:04Z,u01, 123,40,movements,el-ex, rt, d,203711.8966500417, -1.5914481330184926, 0.5623125848196399, 0.30651621482479025, 0.22521884739398956, -0.04403291642665863, 0.12262821942567825, -0.8458439707756042, -0.5331441164016724, 0.017470689490437508, -0.029751062393188477, 0.05223292112350464, -0.00024342723190784454, 0.2966594310656134, -0.6486358969856072, 0.6946706271879008,-0.09325951551671985,-0.8208465576171875,-0.4759521484375,-0.0293731689453125
20220223-1342,2022-02-23 13:43:04Z,u01, 124,40,movements,el-ex, rt, d,203711.9215940417, -1.5945782750804802, 0.558745116215999, 0.3140828389740943, 0.1975880265235901, 0.15499337017536163, 0.1951064169406891, -0.8476812839508057, -0.5301225781440735, 0.020163314417004585, -0.14244627952575684, -0.026151835918426514, 0.05043911933898926, 0.2978414429254599, -0.6491318293857226, 0.6941529550605556,-0.08983347641411266,-0.973052978515625,-0.5359039306640625,0.07098388671875
20220223-1342,2022-02-23 13:43:04Z,u01, 125,40,movements,el-ex, rt, d,203711.94653904167, -1.5925879007275452, 0.5528562919125211, 0.31827348522702004, 0.1519094556570053, 0.1120104119181633, 0.24185414612293243, -0.8508259057998657, -0.5251201391220093, 0.018543770536780357, -0.011188745498657227, -0.03504520654678345, -0.08343935012817383, 0.29742506369529564, -0.6486988647147833, 0.6952216671568272,-0.08599325601419205,-0.9205169677734375,-0.595916748046875,-0.02532958984375
20220223-1342,2022-02-23 13:43:04Z,u01, 126,40,movements,el-ex, rt, d,203711.9714840417, -1.5970376516595481, 0.54698266051516, 0.3259801080916188, 0.3754562735557556, -0.15340493619441986, 0.20096030831336975, -0.8538037538528442, -0.5201125144958496, 0.022410085424780846, 0.04707157611846924, 0.030320584774017334, -0.09064733982086182, 0.297882949559629, -0.6499775313908202, 0.6943259977266022,-0.08189263483291204,-0.806610107421875,-0.5057220458984375,-0.078582763671875
20220223-1342,2022-02-23 13:43:04Z,u01, 127,40,movements,el-ex, rt, d,203711.9964280417, -1.6059539080693703, 0.5428762712567613, 0.3346755439882047, 0.10219529271125793, -0.12154747545719147, 0.15473416447639465, -0.8556972742080688, -0.5166008472442627, 0.030096646398305893, -0.07574498653411865, 0.026610612869262695, 0.01780068874359131, 0.29906334881462804, -0.652387489866111, 0.6919181503474868,-0.07874625714905908,-0.8889617919921875,-0.465362548828125,0.0106658935546875
20220223-1342,2022-02-23 13:43:04Z,u01, 128,40,movements,el-ex, rt, d,203712.02137304167, -1.6042122340914071, 0.5382299176858344, 0.32780601228909856, -0.5415695309638977, -0.07213585823774338, 0.2379210740327835, -0.8581381440162659, -0.5126169919967651, 0.028686141595244408, -0.05415433645248413, -0.03465473651885986, 0.018906116485595703, 0.2954285040514091, -0.6535021577183442, 0.692375212886534,-0.07920572567507828,-0.9268035888671875,-0.5409698486328125,0.054901123046875
20220223-1342,2022-02-23 13:43:04Z,u01, 129,40,movements,el-ex, rt, d,203712.04631804168, -1.5981382490828953, 0.5323525888669305, 0.30917272763944237, -0.6094050407409668, -0.175453782081604, 0.26934683322906494, -0.8612933158874512, -0.5075617432594299, 0.02355528436601162, 0.019862651824951172, 0.03283035755157471, -0.05370664596557617, 0.2877190720251288, -0.6549773873430167, 0.6938197180016622,-0.08268334290691942,-0.8512115478515625,-0.5077972412109375,-0.0186614990234375
20220223-1342,2022-02-23 13:43:04Z,u01, 130,40,movements,el-ex, rt, d,203712.0712620417, -1.5952098978847775, 0.5259377934919691, 0.29479164690409276, -0.39822253584861755, -0.17151057720184326, 0.26067039370536804, -0.8645958304405212, -0.5020242929458618, 0.021112065762281418, 0.02287524938583374, 0.06630957126617432, -0.01378786563873291, 0.2810795172560804, -0.656924910656301, 0.694422589270077,-0.08497801284409562,-0.8399810791015625,-0.439117431640625,-0.0075225830078125
20220223-1342,2022-02-23 13:43:04Z,u01, 131,40,movements,el-ex, rt, d,203712.09620704167, -1.5928289455968299, 0.5201575896789649, 0.28249047324657506, -0.5224740505218506, -0.13712677359580994, 0.24097231030464172, -0.8675302863121033, -0.49701687693595886, 0.01911705732345581, -0.009483873844146729, 0.02597808837890625, 0.031389594078063965, 0.27528218975259644, -0.6586184363645606, 0.6949067621055248,-0.0868681883232924,-0.8660125732421875,-0.461700439453125,0.04058837890625
20220223-1342,2022-02-23 13:43:04Z,u01, 132,40,movements,el-ex, rt, d,203712.12115204168, -1.5869682589998473, 0.5143412922126117, 0.2646574670990403, -0.6329160928726196, -0.06240905821323395, 0.2644239068031311, -0.870503306388855, -0.4919614791870117, 0.014078947715461254, -0.03147435188293457, 0.019900232553482056, 0.015843631699681282, 0.26778563021937685, -0.659795672932872, 0.6962914651249263,-0.09021563864670468,-0.8979644775390625,-0.472930908203125,0.0410614013671875
20220223-1342,2022-02-23 13:43:04Z,u01, 133,40,movements,el-ex, rt, d,203712.1460960417, -1.5791343561799747, 0.5080833383470006, 0.24919750725709544, -0.4793705642223358, 0.04198272526264191, 0.2636200487613678, -0.8736482858657837, -0.48650360107421875, 0.007284673862159252, 0.02635824680328369, 0.04604336619377136, 0.03075551986694336, 0.26100454670369666, -0.659938605955597, 0.6984459441464038,-0.09236348661572397,-0.8783416748046875,-0.45245361328125,0.02294921875
20220223-1342,2022-02-23 13:43:04Z,u01, 134,40,movements,el-ex, rt, d,203712.17104075002, -1.573564236930565, 0.5020064379371265, 0.23635651252113807, -0.43999963998794556, -0.0879811942577362, 0.22326534986495972, -0.8766154646873474, -0.4811853766441345, 0.002426398918032646, 0.023084640502929688, 0.006728678941726685, 0.0344998836517334, 0.2550311812131622, -0.6604334153316361, 0.6999650116544519,-0.09399855987874023,-0.8368988037109375,-0.4623565673828125,0.03802490234375
20220223-1342,2022-02-23 13:43:04Z,u01, 135,40,movements,el-ex, rt, d,203712.19598575, -1.5685010983307281, 0.49601293046720485, 0.22472787284835696, -0.3117493987083435, 0.07442155480384827, 0.2902963161468506, -0.8794847130775452, -0.47592276334762573, -0.002018621889874339, -0.09932076930999756, -0.03886300325393677, -0.007365524768829346, 0.2494501789299448, -0.6608822113341427, 0.7013706365214786,-0.09533370003229974,-0.9566497802734375,-0.5146484375,0.0243988037109375
20220223-1342,2022-02-23 13:43:04Z,u01, 136,40,movements,el-ex, rt, d,203712.22092975, -1.5631573671320749, 0.4883071477046132, 0.22131523024097532, 0.08403655886650085, 0.1993722915649414, 0.3111816346645355, -0.8831025958061218, -0.46913155913352966, -0.0067461165599524975, -0.06025683879852295, -0.0018615126609802246, -0.03259098529815674, 0.24601598943231126, -0.6603810072344241, 0.7033428894947492,-0.09317678752515696,-0.9577484130859375,-0.4795684814453125,-0.0345611572265625
20220223-1342,2022-02-23 13:43:04Z,u01, 137,40,movements,el-ex, rt, d,203712.24587475002, -1.5606347812616401, 0.4809525949944319, 0.2273772297110828, 0.2975221574306488, 0.20207498967647552, 0.3026934862136841, -0.8865087628364563, -0.4626239240169525, -0.009008609689772129, 0.01079171895980835, 0.0038684308528900146, -0.02248549461364746, 0.24568086461636307, -0.6596488520527644, 0.7047915395890265,-0.08816533434144863,-0.891448974609375,-0.4513702392578125,-0.0363922119140625
20220223-1342,2022-02-23 13:43:04Z,u01, 138,40,movements,el-ex, rt, d,203712.27081975, -1.5609166324045471, 0.47320373322658615, 0.23641834072281856, 0.32099485397338867, 0.12792865931987762, 0.33212119340896606, -0.8900694847106934, -0.4557403028011322, -0.008793900720775127, -0.010153412818908691, -0.022226065397262573, -0.022181391716003418, 0.24606778543461622, -0.659586002507661, 0.7054238018122719,-0.08230629321257915,-0.8865966796875,-0.473480224609375,-0.028472900390625
20220223-1342,2022-02-23 13:43:04Z,u01, 139,40,movements,el-ex, rt, d,203712.29576375, -1.5612134017483248, 0.4643876124271852, 0.24652873281318843, 0.43224695324897766, 0.241270050406456, 0.39004915952682495, -0.8940551280975342, -0.44787535071372986, -0.008567925542593002, -0.07818925380706787, -0.03959721326828003, -0.0793226957321167, 0.24645274793254085, -0.6595279223820169, 0.7060840886370727,-0.07569249227888897,-0.9632720947265625,-0.491729736328125,-0.071319580078125
20220223-1342,2022-02-23 13:43:04Z,u01, 140,40,movements,el-ex, rt, d,203712.32070875002, -1.5609585711173954, 0.4543430040523736, 0.26126515562945046, 0.5564087629318237, 0.2837279140949249, 0.4289790987968445, -0.8985061645507812, -0.4388720691204071, -0.008839569054543972, -0.03307342529296875, -0.012025177478790283, -0.07770824432373047, 0.24797393706592694, -0.6588544162329654, 0.7070637408922463,-0.06693838866590396,-0.9447784423828125,-0.4657135009765625,-0.0880889892578125
20220223-1342,2022-02-23 13:43:04Z,u01, 141,40,movements,el-ex, rt, d,203712.34565375, -1.5596693985739092, 0.4436669434221661, 0.2733000333798717, 0.31854644417762756, 0.21720221638679504, 0.44320443272590637, -0.9031278491020203, -0.4292542636394501, -0.010049453005194664, 0.02145969867706299, 0.028573721647262573, -0.03990781307220459, 0.2484224753251005, -0.6582260608089074, 0.7082158620929475,-0.058779799720968806,-0.8929443359375,-0.3938140869140625,-0.0450439453125
20220223-1342,2022-02-23 13:43:04Z,u01, 142,40,movements,el-ex, rt, d,203712.37059775, -1.5583049024259061, 0.43262258415975696, 0.27874912040157246, 0.03338220715522766, 0.07238643616437912, 0.46579310297966003, -0.9077985882759094, -0.4192532002925873, -0.011340287514030933, -0.010566949844360352, -0.01766696572303772, -0.05791938304901123, 0.24657281343757323, -0.6584312447509897, 0.7091412610671544,-0.052809837085391,-0.9024658203125,-0.4289703369140625,-0.0638275146484375
20220223-1342,2022-02-23 13:43:04Z,u01, 143,40,movements,el-ex, rt, d,203712.39554275002, -1.5553942841292752, 0.419417564966847, 0.27628043662353935, -0.15097232162952423, 0.07535133510828018, 0.5981410145759583, -0.9132179021835327, -0.4072285592556, -0.014066534116864204, -0.08145672082901001, -0.037763506174087524, -0.08802998065948486, 0.2414182728102988, -0.6593056579630809, 0.7103949617004902,-0.048705724598732014,-0.9827117919921875,-0.45220947265625,-0.0659942626953125
20220223-1342,2022-02-23 13:43:04Z,u01, 144,40,movements,el-ex, rt, d,203712.42048775, -1.552301402571023, 0.40488524673456977, 0.2726686061246754, -0.18315373361110687, 0.05031143128871918, 0.5433043241500854, -0.9189903736114502, -0.39391329884529114, -0.016998594626784325, -0.07139652967453003, -0.0035170912742614746, -0.07917749881744385, 0.2354173881974856, -0.6603630484840395, 0.7116991906419199,-0.04453653079472902,-0.9924468994140625,-0.4114990234375,-0.1113433837890625
20220223-1342,2022-02-23 13:43:04Z,u01, 145,40,movements,el-ex, rt, d,203712.44543275, -1.5494315604477258, 0.39232647644227375, 0.2656846087795054, -0.3327615559101105, -0.04279421269893646, 0.4397822916507721, -0.9238111972808838, -0.38233914971351624, -0.019740013405680656, -0.06178450584411621, -0.007370322942733765, -0.030659794807434082, 0.22893259913880595, -0.6616040040163169, 0.7127977195034854,-0.04230165924477697,-0.982269287109375,-0.379852294921875,-0.0624237060546875
20220223-1342,2022-02-23 13:43:04Z,u01, 146,40,movements,el-ex, rt, d,203712.47037675002, -1.5465983892432937, 0.3822526223362565, 0.2541914355236146, -0.5370346903800964, -0.06220526248216629, 0.3645729422569275, -0.9275551438331604, -0.3730114698410034, -0.022449303418397903, -0.08675765991210938, -0.03571048378944397, 0.013004181906580925, 0.22176961842153659, -0.6630185401880248, 0.7137316484178665,-0.04256552659668733,-1.0070648193359375,-0.40478515625,-0.0197906494140625
20220223-1342,2022-02-23 13:43:04Z,u01, 147,40,movements,el-ex, rt, d,203712.49532175, -1.5421694940754234, 0.37376349704755985, 0.23941738360461312, -0.5564952492713928, -0.005116209387779236, 0.2806153893470764, -0.9305784106254578, -0.36512166261672974, -0.026646791025996208, -0.12786275148391724, -0.052374035120010376, -0.007731199264526367, 0.21406924631594695, -0.6639660848606836, 0.7150886439239768,-0.04440339739477167,-1.0483245849609375,-0.424285888671875,-0.028350830078125
20220223-1342,2022-02-23 13:43:04Z,u01, 148,40,movements,el-ex, rt, d,203712.52026675, -1.5365139064258122, 0.36752660564456846, 0.22582566242411733, -0.43331044912338257, 0.0478559285402298, 0.20004092156887054, -0.9326704740524292, -0.35930830240249634, -0.03198673203587532, -0.11827856302261353, -0.03767955303192139, 0.000965658575296402, 0.20754547201315252, -0.664026739287986, 0.7168196610575412,-0.046506384110588384,-1.056121826171875,-0.3984222412109375,-0.0296630859375
20220223-1342,2022-02-23 13:43:04Z,u01, 149,40,movements,el-ex, rt, d,203712.54521075002, -1.5314775761113253, 0.3632425199133091, 0.2177855569867166, -0.17426559329032898, 0.10030955076217651, 0.15727828443050385, -0.9340271949768066, -0.35530704259872437, -0.03674371913075447, -0.09497976303100586, -0.040139734745025635, 0.035004258155822754, 0.20351795643077253, -0.6634821639522901, 0.7184191358945975,-0.047389858215376,-1.0414581298828125,-0.3911285400390625,-0.0087890625
20220223-1342,2022-02-23 13:43:04Z,u01, 150,40,movements,el-ex, rt, d,203712.57015575, -1.5288575859426015, 0.3592422030566514, 0.21711702973526006, 0.05471053719520569, 0.10813777893781662, 0.14112260937690735, -0.9353404641151428, -0.3515649139881134, -0.03925001621246338, -0.08388572931289673, -0.08782720565795898, 0.025028880685567856, 0.20197349713286242, -0.6630095765409424, 0.7193822438773518,-0.045981701816877385,-1.0157928466796875,-0.4266510009765625,-0.0124664306640625
20220223-1342,2022-02-23 13:43:04Z,u01, 151,40,movements,el-ex, rt, d,203712.59510075, -1.526379645247206, 0.35586373647864616, 0.21705607166515345, -0.08852498978376389, 0.07995900511741638, 0.16074810922145844, -0.9364213943481445, -0.3484001159667969, -0.041620105504989624, -0.0817517638206482, -0.13783642649650574, 0.02916896715760231, 0.20083845898939967, -0.6624604598930648, 0.7202929662337243,-0.04458760923198746,-1.02490234375,-0.476470947265625,-0.01397705078125
20220223-1342,2022-02-23 13:43:04Z,u01, 152,40,movements,el-ex, rt, d,203712.62004475002, -1.5238712736372142, 0.3519778339556474, 0.2142378486276299, -0.10789552330970764, 0.03703916817903519, 0.14964959025382996, -0.9376592636108398, -0.34475505352020264, -0.044032033532857895, -0.0758599042892456, -0.11418348550796509, 0.015879634767770767, 0.19861122270541656, -0.6622216885195946, 0.7211648887793354,-0.04401258608677733,-1.0136566162109375,-0.47235107421875,-0.02130126953125
20220223-1342,2022-02-23 13:43:04Z,u01, 153,40,movements,el-ex, rt, d,203712.64498975, -1.5225705325049521, 0.3481761688947608, 0.2129558280870807, -0.020772339776158333, 0.02976500801742077, 0.14077860116958618, -0.9389035701751709, -0.34118399024009705, -0.04531450569629669, -0.08021557331085205, -0.08520758152008057, 0.012538675218820572, 0.1968924342579628, -0.6622507955006574, 0.7216682310568905,-0.043036529242380106,-1.015380859375,-0.4340057373046875,-0.033294677734375
20220223-1342,2022-02-23 13:43:04Z,u01, 154,40,movements,el-ex, rt, d,203712.66993475, -1.5219894350586973, 0.3454424281427628, 0.2121942466870892, -0.03810805082321167, -0.019581768661737442, 0.08338561654090881, -0.939805269241333, -0.33861300349235535, -0.04590542986989021, -0.07780337333679199, -0.07209256291389465, 0.006278395652770996, 0.19570054064125728, -0.6623809954849071, 0.7219157503004219,-0.0423128060125334,-1.01776123046875,-0.4134521484375,-0.035980224609375
20220223-1342,2022-02-23 13:43:04Z,u01, 155,40,movements,el-ex, rt, d,203712.69487875002, -1.5228098293833114, 0.34546548681607975, 0.21190712360054909, 0.008253452368080616, -0.03255695477128029, -0.017941005527973175, -0.9398347735404968, -0.3386346995830536, -0.045134030282497406, -0.1081693172454834, -0.03233698010444641, 0.02279520034790039, 0.19559606325472903, -0.6627029242316163, 0.7216372754587194,-0.042504624917977296,-1.0358123779296875,-0.3865203857421875,-0.0299835205078125
20220223-1342,2022-02-23 13:43:04Z,u01, 156,40,movements,el-ex, rt, d,203712.71982375, -1.523788291519896, 0.3472315540578125, 0.2134872259047513, 0.12517501413822174, -0.007034284994006157, -0.09985397756099701, -0.9392796754837036, -0.3402958810329437, -0.044186245650053024, -0.10548961162567139, -0.031103014945983887, 0.01928389072418213, 0.19671360248629635, -0.6627296859398458, 0.7213009360929943,-0.04263916656850614,-1.04803466796875,-0.3683319091796875,-0.0189971923828125
20220223-1342,2022-02-23 13:43:04Z,u01, 157,40,movements,el-ex, rt, d,203712.74476875, -1.5259159220643073, 0.3512624805226473, 0.21749467163980396, 0.19291548430919647, -0.05905534327030182, -0.1660688817501068, -0.937993586063385, -0.3440834879875183, -0.042125821113586426, -0.09301221370697021, -0.04768592119216919, -0.014743685722351074, 0.19939707311661206, -0.6627049848489199, 0.720577182874359,-0.04279544630427773,-1.0289459228515625,-0.3818359375,-0.039459228515625
20220223-1342,2022-02-23 13:43:04Z,u01, 158,40,movements,el-ex, rt, d,203712.76971275, -1.5300630755146107, 0.3571127042847224, 0.22406249807461218, 0.3496113121509552, -0.07079222798347473, -0.28125545382499695, -0.9361328482627869, -0.3495705723762512, -0.03815283998847008, -0.12709951400756836, -0.04221409559249878, -0.037332355976104736, 0.20351213498867254, -0.6629527823051186, 0.7191929939399111,-0.04286998709761147,-1.053497314453125,-0.39508056640625,-0.074859619140625
20220223-1342,2022-02-23 13:43:04Z,u01, 159,40,movements,el-ex, rt, d,203712.79465775003, -1.5356993286755876, 0.36626886216757604, 0.2358334101683326, 0.5416032671928406, -0.04163860157132149, -0.41924235224723816, -0.9330951571464539, -0.35813426971435547, -0.03276229277253151, -0.15522271394729614, -0.008061379194259644, -0.04742264747619629, 0.21045065670586496, -0.6628192626950842, 0.7173449003550585,-0.042396829382958134,-1.08819580078125,-0.376495361328125,-0.089691162109375
20220223-1342,2022-02-23 13:43:04Z,u01, 160,40,movements,el-ex, rt, d,203712.81960275, -1.542647314355512, 0.3789532553702982, 0.2507358575348224, 0.5686503052711487, -0.09079523384571075, -0.5426684021949768, -0.9286842942237854, -0.3699481785297394, -0.02614845335483551, -0.15668857097625732, -0.03315848112106323, -0.02715045027434826, 0.2195846954004219, -0.6623506133346801, 0.715046959275318,-0.04221438996329585,-1.0846710205078125,-0.3862762451171875,-0.059356689453125
20220223-1342,2022-02-23 13:43:04Z,u01, 161,40,movements,el-ex, rt, d,203712.84454675, -1.5494144733775723, 0.39469888367902134, 0.2623432188838499, 0.32436779141426086, -0.12644337117671967, -0.6144087910652161, -0.9229013919830322, -0.384530246257782, -0.01973635144531727, -0.19207358360290527, -0.0799473226070404, 0.0023261308670043945, 0.22863029009735242, -0.6617099176767978, 0.7126738618934387,-0.04431895071495845,-1.107208251953125,-0.4492034912109375,-0.0284423828125
20220223-1342,2022-02-23 13:43:05Z,u01, 162,40,movements,el-ex, rt, d,203712.86949175003, -1.5551818385305005, 0.4109434439339251, 0.2696133426285239, 0.2669733464717865, -0.12676188349723816, -0.6670706868171692, -0.9166326522827148, -0.3994744122028351, -0.014313912950456142, -0.18737125396728516, -0.07026740908622742, -0.04241824150085449, 0.23637914551695408, -0.661035508217363, 0.7105245254049264,-0.04808216909404228,-1.1099853515625,-0.4762420654296875,-0.0457000732421875
20220223-1342,2022-02-23 13:43:05Z,u01, 163,40,movements,el-ex, rt, d,203712.89443675, -1.5626827332793993, 0.4280640137695306, 0.27839247043256654, 0.43099847435951233, -0.20020581781864166, -0.6891291737556458, -0.9097411632537842, -0.4151102900505066, -0.007381431758403778, -0.14624333381652832, -0.002476990222930908, -0.06935495138168335, 0.24482087370452568, -0.6605846076090287, 0.7078133460924632,-0.051874743007184476,-1.0673065185546875,-0.427886962890625,-0.06964111328125
20220223-1342,2022-02-23 13:43:05Z,u01, 164,40,movements,el-ex, rt, d,203712.91938075, -1.5734823612210846, 0.4458933266427232, 0.29205396431517594, 0.5154629349708557, -0.20357118546962738, -0.7122722268104553, -0.9022224545478821, -0.4312640428543091, 0.0024234065786004066, -0.14681923389434814, -0.006846338510513306, -0.023068547248840332, 0.25495075763238073, -0.6604633331393983, 0.7041295686345006,-0.05467926603632717,-1.0540924072265625,-0.4247589111328125,-0.0314788818359375
20220223-1342,2022-02-23 13:43:05Z,u01, 165,40,movements,el-ex, rt, d,203712.94432575002, -1.584261520796069, 0.4636444215814827, 0.3051685455358694, 0.40233680605888367, -0.21103940904140472, -0.7170403003692627, -0.894347608089447, -0.44721075892448425, 0.012043291702866554, -0.11540275812149048, -0.08960872888565063, -0.018131494522094727, 0.26478856442685406, -0.6602337934141137, 0.7004589595224731,-0.05775507152174264,-1.02679443359375,-0.5121612548828125,-0.0010528564453125
20220223-1342,2022-02-23 13:43:05Z,u01, 166,40,movements,el-ex, rt, d,203712.96927075, -1.5949460231399455, 0.48074324653628336, 0.31552793939809903, 0.35230469703674316, -0.2656818926334381, -0.6740635633468628, -0.8863930106163025, -0.46243831515312195, 0.02141028456389904, -0.09598308801651001, -0.051813364028930664, -0.06868195533752441, 0.2734211122574465, -0.6602620974283854, 0.6967739599141402,-0.06165194241156041,-0.9881134033203125,-0.5294189453125,-0.0402679443359375
20220223-1342,2022-02-23 13:43:05Z,u01, 167,40,movements,el-ex, rt, d,203712.99421475, -1.6082587854566441, 0.4967974159248465, 0.32893498772736607, 0.5494357943534851, -0.28304535150527954, -0.640761137008667, -0.8784967660903931, -0.47661253809928894, 0.0329260528087616, -0.10114812850952148, -0.0035968422889709473, -0.060941096395254135, 0.28255685502906297, -0.6607757945672952, 0.6923627788461577,-0.06458230983217783,-0.97503662109375,-0.480804443359375,-0.04595947265625
20220223-1342,2022-02-23 13:43:05Z,u01, 168,40,movements,el-ex, rt, d,203713.01915975002, -1.6226344546376903, 0.5118139725530283, 0.34456942211902714, 0.42629191279411316, -0.2607923746109009, -0.6123626828193665, -0.8706863522529602, -0.48975956439971924, 0.0451752208173275, -0.10000145435333252, -0.014345020055770874, -0.03974306955933571, 0.29198017891028133, -0.6613132286806694, 0.6877282176906593,-0.06665038405082052,-0.97637939453125,-0.4982757568359375,0.00048828125
20220223-1342,2022-02-23 13:43:05Z,u01, 169,40,movements,el-ex, rt, d,203713.04410475, -1.632916431403234, 0.5268834490249624, 0.3520019768707316, 0.01379026472568512, -0.292287677526474, -0.6152047514915466, -0.8627111911773682, -0.5028418898582458, 0.05366075038909912, -0.06816649436950684, -0.019329071044921875, -0.014277700334787369, 0.29876532576194637, -0.6614904797653007, 0.6841926567855078,-0.07106362611938277,-0.9445037841796875,-0.5218353271484375,0.0390625
20220223-1342,2022-02-23 13:43:05Z,u01, 170,40,movements,el-ex, rt, d,203713.06904875, -1.6402137430144477, 0.5423716510588614, 0.35083439128833505, -0.07632914185523987, -0.33722805976867676, -0.6360158324241638, -0.8544241189956665, -0.5161687135696411, 0.059407368302345276, -0.078513503074646, -0.0024316906929016113, -0.07173645496368408, 0.3028721094007304, -0.6617946579729921, 0.6813114967302847,-0.07817245720977256,-0.929168701171875,-0.51995849609375,0.005462646484375
20220223-1342,2022-02-23 13:43:05Z,u01, 171,40,movements,el-ex, rt, d,203713.09399375002, -1.6498783900465825, 0.5594402452299093, 0.3537382917331986, 0.20521512627601624, -0.31597909331321716, -0.7097210884094238, -0.8449034094810486, -0.5307118892669678, 0.06695634126663208, -0.13027054071426392, 0.06299948692321777, -0.0809638500213623, 0.30864228734380555, -0.6619804454863875, 0.6777312460306427,-0.08486566064472517,-0.966705322265625,-0.48077392578125,-0.0195770263671875
20220223-1342,2022-02-23 13:43:05Z,u01, 172,40,movements,el-ex, rt, d,203713.11893875, -1.6635101761724074, 0.5767867227574298, 0.3663103375638936, 0.43280693888664246, -0.25341570377349854, -0.7758250832557678, -0.8346192240715027, -0.5453333258628845, 0.07760324329137802, -0.14613944292068481, 0.0580134391784668, -0.05556952953338623, 0.3174277118400586, -0.6618468633996512, 0.6732478209533939,-0.0890827634875685,-0.9835968017578125,-0.4786529541015625,0.007232666015625
20220223-1342,2022-02-23 13:43:05Z,u01, 173,40,movements,el-ex, rt, d,203713.14388275, -1.6750921217951147, 0.5970752177281318, 0.3761974860449676, -0.02342524752020836, -0.22222596406936646, -0.8902295827865601, -0.8224897980690002, -0.5622261166572571, 0.08609462529420853, -0.16701215505599976, -0.0077964067459106445, 0.06594395637512207, 0.32617053779783106, -0.6608026114159643, 0.6692648986909717,-0.09506405449031824,-0.982635498046875,-0.53961181640625,0.1070404052734375
20220223-1342,2022-02-23 13:43:05Z,u01, 174,40,movements,el-ex, rt, d,203713.16882762502, -1.6756822553264843, 0.6185382220904927, 0.3697238668701216, -0.5163824558258057, -0.11732150614261627, -0.7373413443565369, -0.8102495074272156, -0.5798448324203491, 0.08529678732156754, -0.16713684797286987, -0.033680498600006104, 0.08608996123075485, 0.33029687203915603, -0.6584469386169675, 0.6680451522560735,-0.10520087053978122,-0.9840240478515625,-0.6096954345703125,0.1782989501953125
20220223-1342,2022-02-23 13:43:05Z,u01, 175,40,movements,el-ex, rt, d,203713.193772625, -1.6696064499308516, 0.6353389453131194, 0.35642733735532295, -0.3314201533794403, -0.021351303905248642, -0.537237823009491, -0.8009447455406189, -0.5934503674507141, 0.07940001785755157, -0.0683789849281311, 0.07559752464294434, 0.0014868974685668945, 0.3311828653624651, -0.6557575162905555, 0.6686734280013695,-0.11478632578446712,-0.907958984375,-0.56939697265625,0.1072998046875
20220223-1342,2022-02-23 13:43:05Z,u01, 176,40,movements,el-ex, rt, d,203713.218716625, -1.670733749416067, 0.6465364360490016, 0.3588919825848011, 0.3940790295600891, 0.04953891038894653, -0.3967014253139496, -0.7941926121711731, -0.6024255156517029, 0.07963486015796661, -0.01055598258972168, 0.1561974287033081, -0.011367075145244598, 0.33520074800878885, -0.6538026364962748, 0.6679839038064203,-0.11823758199845241,-0.8156585693359375,-0.4573822021484375,0.0638275146484375
20220223-1342,2022-02-23 13:43:05Z,u01, 177,40,movements,el-ex, rt, d,203713.24366162502, -1.6780345927720846, 0.6549371834454144, 0.37621420450242354, 0.4454434812068939, 0.1905612200498581, -0.3699963688850403, -0.7885304093360901, -0.6091094017028809, 0.08488628268241882, -0.0010510087013244629, 0.10662215948104858, 0.039366014301776886, 0.34286369912363124, -0.6518340470657824, 0.6662748809775766,-0.11676782274884429,-0.797119140625,-0.462982177734375,0.1136627197265625
20220223-1342,2022-02-23 13:43:05Z,u01, 178,40,movements,el-ex, rt, d,203713.268606625, -1.6757503601260577, 0.6634799778042499, 0.3812599413337238, -0.23712605237960815, 0.21060755848884583, -0.3552926182746887, -0.7835187315940857, -0.6158623099327087, 0.0825367271900177, 0.018107235431671143, 0.055895209312438965, 0.052946098148822784, 0.3470985549155653, -0.6486840201506748, 0.6669713500775993,-0.11781753600324135,-0.771575927734375,-0.552642822265625,0.135406494140625
20220223-1342,2022-02-23 13:43:05Z,u01, 179,40,movements,el-ex, rt, d,203713.293550625, -1.6611055880268388, 0.6722913435229201, 0.36573595928424346, -0.6957970857620239, 0.197760209441185, -0.2539912760257721, -0.7792084217071533, -0.6227803826332092, 0.07056166976690292, 0.05914616584777832, 0.09484153985977173, 0.008753538131713867, 0.3455111342685807, -0.6449053355293665, 0.6703894328082696,-0.12368197667494923,-0.737579345703125,-0.5451507568359375,0.103302001953125
20220223-1342,2022-02-23 13:43:05Z,u01, 180,40,movements,el-ex, rt, d,203713.31849562502, -1.6433992156182753, 0.6796601227137544, 0.3446394249633851, -0.6572542190551758, 0.18784978985786438, -0.2183334231376648, -0.7757374048233032, -0.6285287141799927, 0.05641994625329971, 0.06013071537017822, 0.11975491046905518, 0.028373241424560547, 0.34201221447766583, -0.6412781132287482, 0.6743794788748944,-0.13039324671587105,-0.7137908935546875,-0.5097808837890625,0.0775146484375
20220223-1342,2022-02-23 13:43:05Z,u01, 181,40,movements,el-ex, rt, d,203713.343440625, -1.6259686830881057, 0.685280497367202, 0.3250459645964005, -0.5977742671966553, 0.1866028904914856, -0.1609628051519394, -0.7730635404586792, -0.6328902244567871, 0.0426950678229332, 0.0435255765914917, 0.07089376449584961, 0.026701927185058594, 0.3385802966549136, -0.6377389097634549, 0.6783353008313124,-0.13606530172263576,-0.7202606201171875,-0.546905517578125,0.10260009765625
20220223-1342,2022-02-23 13:43:05Z,u01, 182,40,movements,el-ex, rt, d,203713.368384625, -1.6127434702598942, 0.6890030369580512, 0.3100853192062135, -0.30994516611099243, 0.12637463212013245, -0.10164549201726913, -0.7712014317512512, -0.635767936706543, 0.03236868605017662, 0.01210707426071167, 0.05909246206283569, 0.008997920900583267, 0.335854846888451, -0.6351266518815617, 0.6812840658071648,-0.14024198991776987,-0.7481231689453125,-0.5809783935546875,0.04248046875
20220223-1342,2022-02-23 13:43:05Z,u01, 183,40,movements,el-ex, rt, d,203713.39332962502, -1.606942613133642, 0.690592119219243, 0.3083181036086426, 0.21146759390830994, 0.22042638063430786, -0.05456606298685074, -0.7703655958175659, -0.6369937658309937, 0.027857990935444832, -0.003666996955871582, 0.08595305681228638, 0.00829017162322998, 0.3361838613357228, -0.633174072797925, 0.6828983790811206,-0.1404312967619551,-0.7884368896484375,-0.547515869140625,0.0439605712890625
20220223-1342,2022-02-23 13:43:05Z,u01, 184,40,movements,el-ex, rt, d,203713.418274625, -1.6073664683696338, 0.6923099447944597, 0.31650887947461787, 0.18820540606975555, 0.1751379817724228, -0.08262459188699722, -0.7692590355873108, -0.6383169889450073, 0.028144458308815956, 0.014483034610748291, 0.07755649089813232, 0.04532670974731445, 0.33926579135542223, -0.6316414743607669, 0.6832259984358245,-0.13831153205471097,-0.7553558349609375,-0.550994873046875,0.069427490234375
20220223-1342,2022-02-23 13:43:05Z,u01, 185,40,movements,el-ex, rt, d,203713.443218625, -1.605562396194594, 0.6939921834658899, 0.3189013812512621, -0.00700805801898241, 0.12489499151706696, -0.051882993429899216, -0.7682340741157532, -0.6396110653877258, 0.026719244197010994, -0.02206432819366455, 0.0043877363204956055, 0.026549216359853745, 0.3406550467034958, -0.6303282963240324, 0.6838543207068906,-0.13778074625552222,-0.7708740234375,-0.6131744384765625,0.07525634765625
20220223-1342,2022-02-23 13:43:05Z,u01, 186,40,movements,el-ex, rt, d,203713.46816362502, -1.600244693629089, 0.6944193022671944, 0.3158752057242125, -0.1457492709159851, 0.11438249051570892, 0.020966246724128723, -0.7680922746658325, -0.6399393081665039, 0.022625602781772614, -0.01929175853729248, 0.03379923105239868, 0.03343522548675537, 0.3401987497587194, -0.628949610288392, 0.6852927217264396,-0.13806183150425205,-0.79327392578125,-0.6156158447265625,0.0575408935546875
20220223-1342,2022-02-23 13:43:05Z,u01, 187,40,movements,el-ex, rt, d,203713.493108625, -1.5950707247754485, 0.6939091760835706, 0.3126418323670414, 0.01899571157991886, 0.15281903743743896, 0.03996783494949341, -0.7685251832008362, -0.6395472288131714, 0.01865915022790432, -0.05688363313674927, -0.024377882480621338, 0.019457338377833366, 0.33938457441807346, -0.6278118237988118, 0.6867278990760778,-0.13811267106024588,-0.807342529296875,-0.62835693359375,0.054229736328125
20220223-1342,2022-02-23 13:43:05Z,u01, 188,40,movements,el-ex, rt, d,203713.518052625, -1.592291321225667, 0.6911452938518632, 0.31493424122116714, 0.0016677556559443474, 0.21233275532722473, 0.12567828595638275, -0.7703385353088379, -0.6374200582504272, 0.016560973599553108, -0.02479696273803711, 0.018752455711364746, 0.034601807594299316, 0.33944900983916787, -0.6269408715342126, 0.6879354480684059,-0.13588367121349443,-0.8111419677734375,-0.649871826171875,0.0417633056640625
20220223-1342,2022-02-23 13:43:05Z,u01, 189,40,movements,el-ex, rt, d,203713.54299762502, -1.5907563183400366, 0.6858278393767908, 0.3165278108538157, 0.01689894124865532, 0.10400901734828949, 0.1473570168018341, -0.7737408876419067, -0.6333138942718506, 0.015445912256836891, 0.05991947650909424, 0.07389616966247559, 0.0048482418060302734, 0.338423141096021, -0.6270508224025892, 0.6888628131539407,-0.13321061805619172,-0.7180328369140625,-0.552703857421875,0.00677490234375
20220223-1342,2022-02-23 13:43:05Z,u01, 190,40,movements,el-ex, rt, d,203713.567942625, -1.58838787364821, 0.68006171149215, 0.31625898773570854, -0.06278050690889359, 0.17598320543766022, 0.22760270535945892, -0.7774136662483215, -0.628840982913971, 0.013677320443093777, 0.025521516799926758, -0.0005840659141540527, 0.034342050552368164, 0.33672471386818714, -0.6272600155309194, 0.6899501545921604,-0.13088230331257378,-0.7446441650390625,-0.60809326171875,0.05609130859375
20220223-1342,2022-02-23 13:43:05Z,u01, 191,40,movements,el-ex, rt, d,203713.592886625, -1.5841196368727646, 0.6730725049500821, 0.3152610726177702, -0.04576320946216583, 0.19113118946552277, 0.31099873781204224, -0.7818405628204346, -0.623391330242157, 0.010417320765554905, 0.06542521715164185, 0.017693758010864258, 0.01947462558746338, 0.33453385377188993, -0.6271329692061012, 0.6916582830064365,-0.1280630537123475,-0.7374725341796875,-0.6307373046875,0.0282135009765625
20220223-1342,2022-02-23 13:43:05Z,u01, 192,40,movements,el-ex, rt, d,203713.61783162502, -1.5794359111870737, 0.6642043322239507, 0.3146586076998594, -0.02033042162656784, 0.22100147604942322, 0.3530479073524475, -0.7873779535293579, -0.616432785987854, 0.006802787538617849, 0.06884169578552246, 0.031914472579956055, 0.03322100639343262, 0.33189377166487377, -0.6270948238554753, 0.6936322188563419,-0.12438978977015336,-0.71142578125,-0.57550048828125,0.04278564453125
20220223-1342,2022-02-23 13:43:05Z,u01, 193,40,movements,el-ex, rt, d,203713.642776625, -1.571912891646355, 0.6541509604318915, 0.3125780335939894, -0.07093577831983566, 0.23067042231559753, 0.4322410821914673, -0.7935642004013062, -0.6084856986999512, 0.0008860662928782403, 0.1073613166809082, 0.016322731971740723, 0.014998435974121094, 0.3285684152098969, -0.6264868950484279, 0.6964696453832537,-0.12036152768669905,-0.714813232421875,-0.5851898193359375,0.017364501953125
20220223-1342,2022-02-23 13:43:05Z,u01, 194,40,movements,el-ex, rt, d,203713.667720625, -1.5653355573533172, 0.643445578428528, 0.3102514897237275, -0.08655967563390732, 0.2013438194990158, 0.4356604218482971, -0.8000213503837585, -0.5999555587768555, -0.004368775524199009, 0.10284733772277832, 0.011332511901855469, 0.02649402618408203, 0.32486791832196776, -0.6263197648127095, 0.6990294205343109,-0.11637115542500548,-0.6875457763671875,-0.5837860107421875,0.0101776123046875
20220223-1342,2022-02-23 13:43:05Z,u01, 195,40,movements,el-ex, rt, d,203713.692665625, -1.5573778416117363, 0.6324396643627702, 0.30731087839823606, -0.12378038465976715, 0.2974192798137665, 0.4505545198917389, -0.8065151572227478, -0.591114342212677, -0.010822861455380917, 0.04420137405395508, -0.029109597206115723, 0.04196608066558838, 0.3209209536257155, -0.6257781641699688, 0.7019981873653649,-0.1122941572600974,-0.75030517578125,-0.6256256103515625,0.044952392578125
20220223-1342,2022-02-23 13:43:05Z,u01, 196,40,movements,el-ex, rt, d,203713.71761062503, -1.547288437052541, 0.6211584408608734, 0.3027368044819455, -0.08042781054973602, 0.28505590558052063, 0.4616762101650238, -0.8129802346229553, -0.5819776058197021, -0.019114971160888672, 0.05698353052139282, 0.03453803062438965, 0.022166788578033447, 0.31644799987124594, -0.6247424894383156, 0.7055556066936518,-0.10839208292493258,-0.7578582763671875,-0.558685302734375,0.0225982666015625
20220223-1342,2022-02-23 13:43:05Z,u01, 197,40,movements,el-ex, rt, d,203713.742554625, -1.5418133477486804, 0.6098182671688532, 0.30660210895905465, 0.34384796023368835, 0.33182740211486816, 0.502410888671875, -0.8194079399108887, -0.5727185010910034, -0.02375553548336029, 0.02103745937347412, -0.017934024333953857, -0.0005363859236240387, 0.31429886368877114, -0.6239699166384812, 0.7081122534965129,-0.1022491125035363,-0.7808074951171875,-0.5395660400390625,-0.02410888671875
20220223-1342,2022-02-23 13:43:05Z,u01, 198,40,movements,el-ex, rt, d,203713.767499625, -1.538929882436025, 0.5968353548410813, 0.3198477550449679, 0.4131729304790497, 0.4736425280570984, 0.6108506917953491, -0.8266984224319458, -0.5620277523994446, -0.026352860033512115, 0.010353267192840576, -0.03637605905532837, 0.032349586486816406, 0.31438307023114276, -0.6228859089541623, 0.7103505602614502,-0.09261999199863802,-0.8214263916015625,-0.60272216796875,-0.0089111328125
20220223-1342,2022-02-23 13:43:05Z,u01, 199,40,movements,el-ex, rt, d,203713.79244462503, -1.533074544680097, 0.5815487136502427, 0.32924732570690973, 0.10091941058635712, 0.34542858600616455, 0.606905460357666, -0.8350183367729187, -0.5493187308311462, -0.03151332959532738, 0.12435561418533325, 0.056795597076416016, 0.02472323551774025, 0.3126221351027496, -0.6216998761710997, 0.7133397122291367,-0.08308442413676642,-0.7376251220703125,-0.542816162109375,-0.0205230712890625
20220223-1342,2022-02-23 13:43:05Z,u01, 200,40,movements,el-ex, rt, d,203713.817388625, -1.5236273823181175, 0.5663622171507333, 0.3247454141593477, -0.3673703372478485, 0.265435129404068, 0.6299272775650024, -0.8429200053215027, -0.5365658402442932, -0.03978916257619858, 0.10196834802627563, 0.04079246520996094, 0.06728553771972656, 0.3066579529062765, -0.6213423527153935, 0.7168051669211335,-0.0780067713869349,-0.72564697265625,-0.47589111328125,0.0229034423828125
20220223-1342,2022-02-23 13:43:05Z,u01, 201,40,movements,el-ex, rt, d,203713.842333625, -1.5095633875325385, 0.5501128682178382, 0.3134260813706832, -0.400474488735199, 0.2826988101005554, 0.650493860244751, -0.8508678674697876, -0.5227834582328796, -0.05216635763645172, 0.1126323938369751, 0.02034205198287964, 0.0359310507774353, 0.29832598915692576, -0.6204179443664168, 0.7214911631586867,-0.07438882089740023,-0.758819580078125,-0.5294342041015625,-0.0107269287109375
20220223-1342,2022-02-23 13:43:06Z,u01, 202,40,movements,el-ex, rt, d,203713.86727862502, -1.4995703672596277, 0.5336118721658006, 0.3075878273794478, -0.1005992591381073, 0.35046258568763733, 0.6573551893234253, -0.8587924838066101, -0.5086463689804077, -0.06127196550369263, 0.05877417325973511, -0.02286297082901001, 0.040062252432107925, 0.2913735971113043, -0.6200527752594354, 0.7251331044765844,-0.06941111074727102,-0.7733306884765625,-0.523956298828125,-0.0177154541015625
20220223-1342,2022-02-23 13:43:06Z,u01, 203,40,movements,el-ex, rt, d,203713.892222625, -1.4857070750027652, 0.517127798095515, 0.3006724693244533, -0.5139403939247131, 0.38317784667015076, 0.6868131160736084, -0.8660979270935059, -0.4943855404853821, -0.07387399673461914, 0.05219411849975586, 0.03973466157913208, 0.046240389347076416, 0.2841400616830374, -0.618326311532837, 0.7299286014420736,-0.06435244845165805,-0.833465576171875,-0.4720001220703125,0.0043487548828125
20220223-1342,2022-02-23 13:43:06Z,u01, 204,40,movements,el-ex, rt, d,203713.917167625, -1.466623661313933, 0.4982776006578694, 0.2799504408707873, -1.003819227218628, 0.3198220729827881, 0.7215529680252075, -0.8736451268196106, -0.4779132902622223, -0.09134058654308319, 0.0648987889289856, 0.028984427452087402, 0.049684107303619385, 0.27190122285295093, -0.6167652959149094, 0.7360064717657979,-0.0629665463436096,-0.805511474609375,-0.4446868896484375,-0.044921875
20220223-1342,2022-02-23 13:43:06Z,u01, 205,40,movements,el-ex, rt, d,203713.94211262502, -1.4481058420053543, 0.4773674087964968, 0.25766274187731425, -0.5613147020339966, 0.3106507360935211, 0.76274174451828, -0.8815307021141052, -0.45944249629974365, -0.10870140790939331, 0.022735655307769775, -0.029250741004943848, 0.029752500355243683, 0.25833642669135226, -0.6155579488529931, 0.7419780199477222,-0.061799691197081175,-0.829742431640625,-0.4902801513671875,-0.0279083251953125
20220223-1342,2022-02-23 13:43:06Z,u01, 206,40,movements,el-ex, rt, d,203713.967056625, -1.438877185732667, 0.45838453502281173, 0.25860914494023945, 0.3525985777378082, 0.4273914694786072, 0.7494565844535828, -0.8889766931533813, -0.4424999952316284, -0.11795809864997864, 0.010009467601776123, 0.016611933708190918, -0.030860774219036102, 0.25220865020846217, -0.6143384628293961, 0.7456957597960456,-0.05400780579633341,-0.8794403076171875,-0.4566650390625,-0.1508026123046875
20220223-1342,2022-02-23 13:43:06Z,u01, 207,40,movements,el-ex, rt, d,203713.992001625, -1.4349007372169842, 0.440873048717109, 0.2737644578826551, 0.42053714394569397, 0.39248567819595337, 0.7513260841369629, -0.8960413336753845, -0.4267292022705078, -0.122523233294487, 0.03382831811904907, 0.0235615074634552, -0.03311639279127121, 0.25075623922886875, -0.6130739682621158, 0.7479909043679709,-0.04208498914810299,-0.8538818359375,-0.3778076171875,-0.1529541015625
20220223-1342,2022-02-23 13:43:06Z,u01, 208,40,movements,el-ex, rt, d,203714.01694662502, -1.4265650793532214, 0.422933815906953, 0.2766551839293714, -0.4059986174106598, 0.28742551803588867, 0.7068006992340088, -0.9024203419685364, -0.41043752431869507, -0.13106732070446014, 0.0880739688873291, 0.07450002431869507, 0.03952991962432861, 0.24542206732118113, -0.6117469648497833, 0.7512472823047891,-0.034076349726599786,-0.839996337890625,-0.34637451171875,-0.0976715087890625
20220223-1342,2022-02-23 13:43:06Z,u01, 209,40,movements,el-ex, rt, d,203714.041890625, -1.4179279345326457, 0.4054498367875356, 0.2658512710074857, -0.3956531584262848, 0.0787072479724884, 0.561608076095581, -0.9082089066505432, -0.3944321572780609, -0.13992811739444733, 0.11067783832550049, -0.031440675258636475, -0.011912047863006592, 0.23599499761474727, -0.6118351909578261, 0.75430694781857,-0.03138658451350412,-0.768310546875,-0.394622802734375,-0.10516357421875
20220223-1342,2022-02-23 13:43:06Z,u01, 210,40,movements,el-ex, rt, d,203714.066835625, -1.4150488816051165, 0.391329215749816, 0.26520646100472967, 0.23430564999580383, 0.18380871415138245, 0.5587948560714722, -0.913213849067688, -0.38141748309135437, -0.14339204132556915, 0.04057896137237549, 0.002511262893676758, -0.046747684478759766, 0.23074970509608667, -0.6124202446549255, 0.7556345991041415,-0.026691280266670114,-0.8607635498046875,-0.395782470703125,-0.1888275146484375
20220223-1342,2022-02-23 13:43:06Z,u01, 211,40,movements,el-ex, rt, d,203714.09178062502, -1.4144610730267222, 0.38004370129855775, 0.2784299955498353, 0.505374014377594, 0.19900615513324738, 0.4836735725402832, -0.9173230528831482, -0.3709610402584076, -0.14458981156349182, 0.11240673065185547, 0.07370460033416748, -0.0545983761548996, 0.2307285168693746, -0.611939084470159, 0.756288784983379,-0.01794808837875017,-0.841461181640625,-0.282684326171875,-0.194580078125
20220223-1342,2022-02-23 13:43:06Z,u01, 212,40,movements,el-ex, rt, d,203714.11672462503, -1.4147395407969885, 0.37038639130608375, 0.28613528161253804, -0.1597452014684677, 0.00735943578183651, 0.3929007053375244, -0.9208594560623169, -0.36197564005851746, -0.14488443732261658, 0.11579054594039917, -0.010949134826660156, 0.0037712007761001587, 0.22959683362249722, -0.6122442946924915, 0.7565052267807502,-0.011917823402798289,-0.794189453125,-0.3484649658203125,-0.1586761474609375
20220223-1342,2022-02-23 13:43:06Z,u01, 213,40,movements,el-ex, rt, d,203714.141669625, -1.411730944577062, 0.3589449627385187, 0.2776958185623703, -0.46555688977241516, 0.03453999012708664, 0.42416924238204956, -0.9244483113288879, -0.3512866199016571, -0.14830058813095093, 0.04874640703201294, -0.11816531419754028, 0.0424046516418457, 0.22288651937589693, -0.6133280547852848, 0.7576465642886299,-0.011044839714276777,-0.86590576171875,-0.46063232421875,-0.0953826904296875
20220223-1342,2022-02-23 13:43:06Z,u01, 214,40,movements,el-ex, rt, d,203714.16661462502, -1.4077962402026456, 0.3470480546660775, 0.27097662008901796, -0.14205922186374664, 0.058395855128765106, 0.44599950313568115, -0.9279160499572754, -0.34012335538864136, -0.15260431170463562, 0.08378446102142334, -0.09290584921836853, -0.012114301323890686, 0.2165190415913254, -0.6138544993343671, 0.7590888760138526,-0.009292877027728241,-0.85235595703125,-0.4455718994140625,-0.1486663818359375
20220223-1342,2022-02-23 13:43:06Z,u01, 215,40,movements,el-ex, rt, d,203714.19155862503, -1.406227005275235, 0.3356971903751343, 0.27187450694589305, 0.019739732146263123, 0.08081261813640594, 0.4673400819301605, -0.9314240217208862, -0.3294275104999542, -0.15468277037143707, 0.09763801097869873, 0.048101216554641724, -0.009272873401641846, 0.21265892377729703, -0.6143572204693581, 0.759812718795218,-0.005099324451744769,-0.8378448486328125,-0.32476806640625,-0.1674041748046875
20220223-1342,2022-02-23 13:43:06Z,u01, 216,40,movements,el-ex, rt, d,203714.216503625, -1.4037905599026432, 0.32589736054456503, 0.2731463741768445, -0.1366007924079895, 0.13209190964698792, 0.3601876497268677, -0.9341831207275391, -0.32015904784202576, -0.15748079121112823, 0.08587074279785156, 0.02767854928970337, 0.014521181583404541, 0.20946970738958445, -0.6143142890445561, 0.760749013004062,-0.0011812318842923664,-0.846221923828125,-0.2696533203125,-0.15460205078125
20220223-1342,2022-02-23 13:43:06Z,u01, 217,40,movements,el-ex, rt, d,203714.24144862502, -1.4002155588215526, 0.31678882555700655, 0.2701343808917295, -0.14901432394981384, 0.0956159234046936, 0.3315746486186981, -0.9364491701126099, -0.31151679158210754, -0.16130784153938293, 0.05089014768600464, -0.14293572306632996, 0.009955957531929016, 0.2052045559337812, -0.6141963636212807, 0.7620058716033304,0.00099102630876452,-0.8620758056640625,-0.443145751953125,-0.1493988037109375
20220223-1342,2022-02-23 13:43:06Z,u01, 218,40,movements,el-ex, rt, d,203714.26639262502, -1.396806061493708, 0.308478624191124, 0.273696432549027, 0.3204194903373718, 0.24335743486881256, 0.3326098322868347, -0.9384111762046814, -0.3036094307899475, -0.1649421900510788, 0.05207383632659912, -0.0481819212436676, -0.06197124719619751, 0.2032364882381961, -0.6133708809732465, 0.7631790004746384,0.005381909548328734,-0.8991851806640625,-0.3972625732421875,-0.21197509765625
20220223-1342,2022-02-23 13:43:06Z,u01, 219,40,movements,el-ex, rt, d,203714.291337625, -1.3961505675430756, 0.30255776524100686, 0.28290204448960876, 0.212062269449234, 0.08654287457466125, 0.2721305787563324, -0.9400566816329956, -0.2979627549648285, -0.16586673259735107, 0.09789347648620605, 0.039784014225006104, -0.029827192425727844, 0.203876309664003, -0.6127814331206978, 0.763423385927029,0.010872654388312697,-0.8035430908203125,-0.2261505126953125,-0.1999969482421875
20220223-1342,2022-02-23 13:43:06Z,u01, 220,40,movements,el-ex, rt, d,203714.31628262502, -1.393458608224889, 0.29658054075485385, 0.28404303245643464, -0.18783044815063477, 0.14245586097240448, 0.2284969985485077, -0.9413429498672485, -0.2922517657279968, -0.16870787739753723, 0.045285820960998535, -0.09414654970169067, -0.015404582023620605, 0.20200736645584857, -0.6122410376986265, 0.7643110681365622,0.013508716266716791,-0.9029541015625,-0.3577423095703125,-0.1789703369140625
20220223-1342,2022-02-23 13:43:06Z,u01, 221,40,movements,el-ex, rt, d,203714.34122662502, -1.3907463535608842, 0.29077691030034614, 0.27740680068090307, -0.2433285415172577, -0.04647749662399292, 0.15772408246994019, -0.9425346255302429, -0.2866966128349304, -0.17156124114990234, 0.09042298793792725, -0.06103590130805969, -0.06420227885246277, 0.1978144166712733, -0.612444963969613, 0.7652506713367849,0.013110257241162715,-0.8175201416015625,-0.34381103515625,-0.193572998046875
20220223-1342,2022-02-23 13:43:06Z,u01, 222,40,movements,el-ex, rt, d,203714.366171625, -1.3888711461405745, 0.2865544913597301, 0.27731170709682296, 0.1712852418422699, 0.14585725963115692, 0.18005596101284027, -0.9433934688568115, -0.28264889121055603, -0.17354586720466614, 0.024387240409851074, -0.014500737190246582, -0.07898704707622528, 0.19620979411293796, -0.6121509456772207, 0.7658715493246456,0.014615758911183885,-0.9297943115234375,-0.3139190673828125,-0.2485198974609375
20220223-1342,2022-02-23 13:43:06Z,u01, 223,40,movements,el-ex, rt, d,203714.39111662502, -1.3887802538188383, 0.28541493498934334, 0.28237847338091787, 0.09820814430713654, 0.016188545152544975, 0.021207796409726143, -0.9436938762664795, -0.2815556228160858, -0.1736898124217987, 0.05721932649612427, -0.009215831756591797, -0.05345247685909271, 0.19733747116059464, -0.6117295285605212, 0.7658708638136028,0.016931024052375176,-0.8465576171875,-0.2586822509765625,-0.24188232421875
20220223-1342,2022-02-23 13:43:06Z,u01, 224,40,movements,el-ex, rt, d,203714.41606062502, -1.3882159601986075, 0.284830307651994, 0.28380899203698323, 0.021022845059633255, -0.002711839973926544, 0.02471684291958809, -0.9437575936317444, -0.28099459409713745, -0.1742521971464157, 0.04734945297241211, -0.06013089418411255, -0.05577397346496582, 0.19755359880010964, -0.6114298647414477, 0.7660366410279391,0.01772238464004977,-0.9142913818359375,-0.350128173828125,-0.2348785400390625
20220223-1342,2022-02-23 13:43:06Z,u01, 225,40,movements,el-ex, rt, d,203714.441005625, -1.3890613862773689, 0.28540121772874716, 0.28364477038475316, -0.016094796359539032, -0.0662662461400032, -0.017801787704229355, -0.9437466263771057, -0.28154245018959045, -0.17342522740364075, 0.05594444274902344, 0.016146302223205566, -0.06886900961399078, 0.1977220985106161, -0.6117134602534975, 0.765774264646517,0.01739256093040148,-0.8615570068359375,-0.2823333740234375,-0.23321533203125
20220223-1342,2022-02-23 13:43:06Z,u01, 226,40,movements,el-ex, rt, d,203714.46595062502, -1.3886312139633987, 0.28667683031854757, 0.28151675644408203, -0.10140586644411087, -0.07355006039142609, -0.09875395894050598, -0.9433178305625916, -0.2827662527561188, -0.17376595735549927, 0.06482362747192383, 0.03404802083969116, -0.06034962832927704, 0.1975397513567751, -0.6116331146081307, 0.7659113270670947,0.016210388813457877,-0.889617919921875,-0.251739501953125,-0.2369537353515625
20220223-1342,2022-02-23 13:43:06Z,u01, 227,40,movements,el-ex, rt, d,203714.49089462502, -1.3892116173679412, 0.29238170771721433, 0.27802282057238203, -0.058915331959724426, -0.08928973972797394, -0.26454678177833557, -0.9418166875839233, -0.2882336676120758, -0.17292430996894836, 0.04792630672454834, 0.027399927377700806, -0.05621689558029175, 0.1985864464068689, -0.6116381829974222, 0.7656981816230096,0.012982261011993013,-0.874420166015625,-0.2659912109375,-0.2394866943359375
20220223-1342,2022-02-23 13:43:06Z,u01, 228,40,movements,el-ex, rt, d,203714.515839625, -1.389848191754366, 0.3004458439503813, 0.2769639183258483, 0.051637180149555206, -0.06080077588558197, -0.3189077079296112, -0.9396095275878906, -0.2959461212158203, -0.17190083861351013, 0.062427520751953125, 0.03807258605957031, -0.08075416088104248, 0.20124772012339817, -0.6111864981668571, 0.7654097100672397,0.009921529671272022,-0.88885498046875,-0.263580322265625,-0.251983642578125
20220223-1342,2022-02-23 13:43:06Z,u01, 229,40,movements,el-ex, rt, d,203714.54078462502, -1.3927528265036133, 0.30795224879978306, 0.2756598317129112, -0.061462413519620895, -0.27118024230003357, -0.38049235939979553, -0.9378920197486877, -0.3031078577041626, -0.16877269744873047, 0.13968950510025024, -0.011558890342712402, -0.03931140899658203, 0.20363162887660868, -0.6116762303571474, 0.764422213201913,0.006713702807934374,-0.788360595703125,-0.2889556884765625,-0.2347869873046875
20220223-1342,2022-02-23 13:43:06Z,u01, 230,40,movements,el-ex, rt, d,203714.56572862502, -1.396577395783235, 0.31706874240765454, 0.2691629048148323, -0.23436780273914337, -0.19606325030326843, -0.43493738770484924, -0.9357700943946838, -0.31178274750709534, -0.16469857096672058, 0.05622309446334839, -0.026153594255447388, -0.027684196829795837, 0.20500773398628255, -0.6128805293589648, 0.7631175166147626,0.0009032967967638195,-0.8656005859375,-0.3405914306640625,-0.191741943359375
20220223-1342,2022-02-23 13:43:06Z,u01, 231,40,movements,el-ex, rt, d,203714.590673625, -1.3983100706257099, 0.3270593525908347, 0.26180764162343906, -0.13647328317165375, -0.23370344936847687, -0.4891115427017212, -0.9329389333724976, -0.32125964760780334, -0.1625342220067978, 0.17324954271316528, 0.050599247217178345, -0.048464298248291016, 0.20642495524417234, -0.6132875551679593, 0.7623903576757218,-0.005304904195808424,-0.8138885498046875,-0.265289306640625,-0.1985321044921875
20220223-1342,2022-02-23 13:43:06Z,u01, 232,40,movements,el-ex, rt, d,203714.61561862502, -1.4048072680212258, 0.3394580065941262, 0.25726983280479443, 0.021923191845417023, -0.3537136912345886, -0.4977571368217468, -0.9299750328063965, -0.3329760730266571, -0.15579919517040253, 0.11340093612670898, -0.05331540107727051, -0.00902622938156128, 0.20955158309549868, -0.6149703526704959, 0.7601067808518602,-0.01171838431791955,-0.7851104736328125,-0.3389434814453125,-0.178009033203125
20220223-1342,2022-02-23 13:43:06Z,u01, 233,40,movements,el-ex, rt, d,203714.64056262502, -1.411235440576973, 0.3509222711272267, 0.2593013464551365, 0.2137620747089386, -0.11439895629882812, -0.36140716075897217, -0.9271274209022522, -0.3437640070915222, -0.1492016464471817, 0.011020183563232422, -0.06186041235923767, 0.017533525824546814, 0.21431977608695071, -0.6160082903884905, 0.7578689019174625,-0.015349981000542468,-0.941192626953125,-0.4724273681640625,-0.1279754638671875
20220223-1342,2022-02-23 13:43:06Z,u01, 234,40,movements,el-ex, rt, d,203714.665507625, -1.4158610888190921, 0.3609174062283839, 0.2641506252263892, 0.19167864322662354, -0.15578201413154602, -0.4319603443145752, -0.9243665337562561, -0.3531326949596405, -0.1443740278482437, 0.1399427056312561, 0.037718236446380615, -0.013020336627960205, 0.219409348713027, -0.6161757236454823, 0.7562332725794203,-0.01727054640951159,-0.8091888427734375,-0.329010009765625,-0.1556854248046875
20220223-1342,2022-02-23 13:43:06Z,u01, 235,40,movements,el-ex, rt, d,203714.69045262501, -1.4197972202850229, 0.3737496206219485, 0.25944715222481407, -0.3951698839664459, -0.3060605823993683, -0.6008496284484863, -0.9203717708587646, -0.36510875821113586, -0.1400412768125534, 0.1504894495010376, 0.06586861610412598, -0.0010566860437393188, 0.22256704766766752, -0.6168008334219242, 0.7546260442902566,-0.023669694007990738,-0.766265869140625,-0.2892303466796875,-0.1470794677734375
20220223-1342,2022-02-23 13:43:06Z,u01, 236,40,movements,el-ex, rt, d,203714.71539662502, -1.4238166702335389, 0.38797613080570575, 0.24377269849539945, -0.5008113980293274, -0.46363726258277893, -0.6804001331329346, -0.9156959652900696, -0.3783157467842102, -0.13556630909442902, 0.1315925121307373, 0.04155421257019043, 0.043738946318626404, 0.22280837703550033, -0.6185250798137452, 0.752715748050441,-0.034673609711501074,-0.7732391357421875,-0.3323974609375,-0.1249847412109375
20220223-1342,2022-02-23 13:43:06Z,u01, 237,40,movements,el-ex, rt, d,203714.740341625, -1.4295738447821216, 0.4039862334391452, 0.23616899442911962, 0.1774972677230835, -0.14539974927902222, -0.6755506992340088, -0.9103472828865051, -0.3930867910385132, -0.12942303717136383, -0.019645273685455322, 0.004216611385345459, -0.007616087794303894, 0.22611098054393006, -0.619808278625646, 0.7502174523535022,-0.04341826101197943,-0.9097747802734375,-0.4136962890625,-0.1093902587890625
20220223-1342,2022-02-23 13:43:06Z,u01, 238,40,movements,el-ex, rt, d,203714.765286625, -1.4367358989547288, 0.4220254611763496, 0.24632664909841404, 0.7365565299987793, -0.2519030272960663, -0.6677026152610779, -0.9040758013725281, -0.4096090495586395, -0.12193212658166885, 0.1365739107131958, 0.09726154804229736, -0.08610619604587555, 0.23555914433382633, -0.6193107661250381, 0.7475402045236603,-0.04636539751371277,-0.8149566650390625,-0.3200531005859375,-0.1909027099609375
20220223-1342,2022-02-23 13:43:06Z,u01, 239,40,movements,el-ex, rt, d,203714.79023062502, -1.4551399999010781, 0.4417307067176381, 0.2639465962365443, 0.48123183846473694, -0.5870216488838196, -0.7139588594436646, -0.8979737162590027, -0.42750468850135803, -0.1043219044804573, 0.17113655805587769, 0.04783552885055542, 0.07751220464706421, 0.24756951639121597, -0.6217301523957686, 0.7414878766201018,-0.048546058016974425,-0.6910552978515625,-0.3356475830078125,-0.1357269287109375
20220223-1342,2022-02-23 13:43:06Z,u01, 240,40,movements,el-ex, rt, d,203714.815175625, -1.4690509926180546, 0.4585638333519515, 0.2637909020907466, -0.22154521942138672, -0.43649744987487793, -0.6154205799102783, -0.8920519351959229, -0.44266077876091003, -0.09107661992311478, -0.0062329769134521484, -0.12435585260391235, 0.14378046989440918, 0.25304738375949226, -0.6248429498514848, 0.73648289220989,-0.05595856587645509,-0.8555450439453125,-0.517791748046875,0.061492919921875
20220223-1342,2022-02-23 13:43:06Z,u01, 241,40,movements,el-ex, rt, d,203714.840120625, -1.4709182883529601, 0.47068720269022146, 0.2502587779963515, -0.4544687867164612, -0.28709813952445984, -0.43760085105895996, -0.8868149518966675, -0.45349887013435364, -0.08886904269456863, 0.0732012391090393, -0.0329817533493042, 0.036561980843544006, 0.25297998464377214, -0.6257528303307287, 0.7349691245817733,-0.06522855899506141,-0.89715576171875,-0.543243408203125,-0.0133209228515625
20220223-1342,2022-02-23 13:43:07Z,u01, 242,40,movements,el-ex, rt, d,203714.86506462502, -1.478218570401156, 0.48094173797359785, 0.2462672408122392, 0.2397119700908661, -0.47327548265457153, -0.39825770258903503, -0.882763147354126, -0.4626142978668213, -0.08195850998163223, 0.15858107805252075, 0.04458451271057129, -0.03014778345823288, 0.2550402974961024, -0.6276744312884478, 0.7320727231172381,-0.07105450916787392,-0.735137939453125,-0.4280242919921875,-0.11749267578125
20220223-1342,2022-02-23 13:43:07Z,u01, 243,40,movements,el-ex, rt, d,203714.890009625, -1.4953179482937804, 0.4905632978539315, 0.2557174503296108, 0.3574381470680237, -0.44239839911460876, -0.33707118034362793, -0.8795561194419861, -0.4711228311061859, -0.06651382893323898, 0.017816126346588135, -0.0024794042110443115, 0.07823265343904495, 0.26071180569806246, -0.6314843158541051, 0.7265808439696613,-0.0730551968864308,-0.79052734375,-0.44189453125,-0.0104522705078125
20220223-1342,2022-02-23 13:43:07Z,u01, 244,40,movements,el-ex, rt, d,203714.914954625, -1.504018104535626, 0.4995945329505465, 0.25883776850580964, -0.09907007217407227, -0.20576682686805725, -0.37057867646217346, -0.8758204579353333, -0.47906967997550964, -0.05857282504439354, 0.008526146411895752, 0.035862892866134644, 0.09299671649932861, 0.2644543804878785, -0.6330698762929508, 0.7235266236676787,-0.07612911460871502,-0.8897857666015625,-0.4650421142578125,0.0303955078125
20220223-1342,2022-02-23 13:43:07Z,u01, 245,40,movements,el-ex, rt, d,203714.93989862502, -1.5087989834301658, 0.5097371908491211, 0.25571576782777383, 0.13325048983097076, -0.3250919580459595, -0.46327778697013855, -0.8711956143379211, -0.48794785141944885, -0.05408112332224846, 0.14286327362060547, 0.08368158340454102, 0.0011941902339458466, 0.2667190084622777, -0.633893058414883, 0.7214041768860004,-0.08134136341735593,-0.7474365234375,-0.378326416015625,-0.0345458984375
20220223-1342,2022-02-23 13:43:07Z,u01, 246,40,movements,el-ex, rt, d,203714.964843625, -1.5235604327835672, 0.5217238232687039, 0.26712577127048925, 0.5910179615020752, -0.32013681530952454, -0.39762017130851746, -0.8659943342208862, -0.4983753561973572, -0.04093646630644798, 0.039334237575531006, 0.034691303968429565, 0.04563618078827858, 0.27376925658590345, -0.6360677328453469, 0.7166062254228606,-0.08332906471285773,-0.7889556884765625,-0.45330810546875,-0.016815185546875
20220223-1342,2022-02-23 13:43:07Z,u01, 247,40,movements,el-ex, rt, d,203714.989788625, -1.5358428133309965, 0.5295675391716871, 0.28479069931259593, 0.6093098521232605, 0.041877664625644684, -0.19016970694065094, -0.8624983429908752, -0.5051601529121399, -0.030159631744027138, -0.0675399899482727, -0.022732853889465332, 0.05436015501618385, 0.2814947555400869, -0.6369308335668977, 0.7130572845411473,-0.08141888115720936,-0.9505767822265625,-0.522064208984375,0.0377655029296875
20220223-1342,2022-02-23 13:43:07Z,u01, 248,40,movements,el-ex, rt, d,203715.01473262502, -1.5424844224206407, 0.5334733022925878, 0.29917797340838487, 0.4170971214771271, -0.049237728118896484, -0.13887707889080048, -0.8607007265090942, -0.5085271000862122, -0.024374589323997498, 0.059889137744903564, 0.02424377202987671, 0.01500571146607399, 0.2870971542218582, -0.6367008160480588, 0.7113442591529335,-0.07859048406450558,-0.8283233642578125,-0.487884521484375,0.0079498291015625
20220223-1342,2022-02-23 13:43:07Z,u01, 249,40,movements,el-ex, rt, d,203715.039677625, -1.5501442182894813, 0.5381192974599031, 0.3066874676492311, 0.08534014225006104, -0.25812211632728577, -0.17607703804969788, -0.8584909439086914, -0.5125219821929932, -0.0177321694791317, 0.04432779550552368, 0.04891425371170044, 0.054399073123931885, 0.29070865738764284, -0.6376695003865877, 0.7090001950034763,-0.07864340291751282,-0.7815399169921875,-0.4551239013671875,0.0023040771484375
