SessionID,LoggingTime,UID,RecNo,Hertz,Activity,MoveType,Wrist,Side,TimeStamp,DMRoll,DMPitch,DMYaw,DMRotX,DMRotY,DMRotZ,DMGrvX,DMGrvY,DMGrvZ,DMUAccelX,DMUAccelY,DMUAccelZ,DMQuatX,DMQuatY,DMQuatW,DMQuatZ,AccelroX,AceelroY,AceelroZ
20220118-1321,2022-01-18 13:22:01Z,u01, 1,40,movements,el-ex, rt, d,203839.7205024167, 3.0766456419163686, -1.027552364452651, 3.1049325267372696, -0.13195715844631195, 3.1414222717285156, -3.5122008323669434, 0.03354853764176369, 0.8560363054275513, 0.5158259272575378, 0.6356104016304016, 0.04133307933807373, 0.060147643089294434, -0.8705819687893288, -5.551115123125783e-17, 0.49164602773038363,0.019267879194730275,0.6486358642578125,0.907257080078125,0.568878173828125
20220118-1321,2022-01-18 13:22:01Z,u01, 2,40,movements,el-ex, rt, d,203839.7454454167, -2.989220986074842, -1.0207292721891745, -3.013922255697816, -0.1326986849308014, 3.0108582973480225, -3.3586061000823975, -0.07934362441301346, 0.8524894714355469, 0.5166881084442139, 0.6558054089546204, -0.011134982109069824, -0.018137633800506592, -0.8706351850111245, -0.018396468138521083, 0.4903229384783969,-0.0352060229184365,0.5764617919921875,0.8413543701171875,0.4985504150390625
20220118-1321,2022-01-18 13:22:01Z,u01, 3,40,movements,el-ex, rt, d,203839.77038841668, -2.787740359841755, -0.993187680921526, -2.864359946987328, -0.5478549599647522, 3.3663406372070312, -3.648892879486084, -0.18920430541038513, 0.8377707600593567, 0.5121932029724121, 0.5388136506080627, 0.07150042057037354, 0.09081888198852539, -0.8687702145934146, -0.036536456401996875, 0.4858791543907155,-0.08845819773621089,0.779327392578125,0.8534088134765625,0.5416107177734375
20220118-1321,2022-01-18 13:22:01Z,u01, 4,40,movements,el-ex, rt, d,203839.7953324167, -2.6175370669977513, -0.9441231205049548, -2.7456259882264624, -0.8306766748428345, 2.918182134628296, -3.2381680011749268, -0.2934587299823761, 0.8099830150604248, 0.507749617099762, 0.6476914882659912, -0.061249494552612305, -0.008543014526367188, -0.8665967681372689, -0.05371091110420034, 0.4760011631427031,-0.13981463522358775,0.3542327880859375,0.7487335205078125,0.49920654296875
20220118-1321,2022-01-18 13:22:01Z,u01, 5,40,movements,el-ex, rt, d,203839.82027541669, -2.477152713349577, -0.8789022065734405, -2.6603021327587473, -1.0874311923980713, 2.9180872440338135, -3.0911808013916016, -0.3934006094932556, 0.7700389623641968, 0.5022709369659424, 0.6348099112510681, 0.12131845951080322, 0.09880328178405762, -0.8639189120875501, -0.06913444823593207, 0.4609346700051959,-0.19079781287231384,0.2216033935546875,0.9010772705078125,0.5850067138671875
20220118-1321,2022-01-18 13:22:01Z,u01, 6,40,movements,el-ex, rt, d,203839.84521841668, -2.3560787706688773, -0.8099392244244189, -2.5989503894589387, -1.0047569274902344, 3.0928795337677, -3.025536298751831, -0.48763659596443176, 0.7242452502250671, 0.48752373456954956, 0.5939140319824219, 0.17875456809997559, 0.15247571468353271, -0.8584811184676249, -0.08229240702937013, 0.44495402516160615,-0.24135878047796586,0.1062774658203125,0.9029998779296875,0.6399993896484375
20220118-1321,2022-01-18 13:22:01Z,u01, 7,40,movements,el-ex, rt, d,203839.87016141668, -2.2478330165789426, -0.7413114338839114, -2.5528769414437598, -0.6595378518104553, 3.046234607696533, -2.859619379043579, -0.5748966336250305, 0.6752557754516602, 0.4620857834815979, 0.6136997938156128, 0.07182961702346802, -0.04903039336204529, -0.8498206366115401, -0.09406261369277535, 0.42947040966258854,-0.29070981308496907,0.003326416015625,0.7257232666015625,0.420440673828125
20220118-1321,2022-01-18 13:22:01Z,u01, 8,40,movements,el-ex, rt, d,203839.89510541668, -2.147596641232811, -0.6785242825035926, -2.513614988819527, -0.3172341585159302, 2.968736410140991, -2.6282389163970947, -0.6525477766990662, 0.6276448369026184, 0.42455077171325684, 0.5218409895896912, -0.049535155296325684, -0.10902953147888184, -0.8373943253752433, -0.10510056691065733, 0.4170924628191976,-0.3372810586676952,-0.130706787109375,0.5781097412109375,0.315521240234375
20220118-1321,2022-01-18 13:22:01Z,u01, 9,40,movements,el-ex, rt, d,203839.92004841668, -2.0545749501884645, -0.6195733390660605, -2.4831586775218644, -0.47682979702949524, 2.9528303146362305, -2.4254252910614014, -0.7207003831863403, 0.5806878805160522, 0.37867262959480286, 0.4792909622192383, -0.05384761095046997, 0.06160455942153931, -0.822349808084615, -0.11435518095927705, 0.40614744886998694,-0.38171727337806655,-0.2689056396484375,0.5090484619140625,0.4347686767578125
20220118-1321,2022-01-18 13:22:01Z,u01, 10,40,movements,el-ex, rt, d,203839.94499141668, -1.973029985013335, -0.5564744671956235, -2.4730827853762003, -1.1630198955535889, 3.011625051498413, -2.401179313659668, -0.781353235244751, 0.528195858001709, 0.3324100375175476, 0.413097620010376, 0.00653308629989624, 0.03406035900115967, -0.8073444071523201, -0.12000012925759707, 0.3904192087550783,-0.4258730912718104,-0.368255615234375,0.53472900390625,0.3664703369140625
20220118-1321,2022-01-18 13:22:01Z,u01, 11,40,movements,el-ex, rt, d,203839.96993441667, -1.9072980931734775, -0.49089344801622853, -2.487921529658672, -1.548639178276062, 2.813436985015869, -2.1016111373901367, -0.8324505686759949, 0.4714140295982361, 0.29119598865509033, 0.4497295618057251, -0.06565234065055847, -0.23997211456298828, -0.7943583098776892, -0.12080097074339735, 0.3679011387759118,-0.46802866787532815,-0.3979949951171875,0.3533782958984375,-0.033660888671875
20220118-1321,2022-01-18 13:22:01Z,u01, 12,40,movements,el-ex, rt, d,203839.99487841668, -1.8461995653552135, -0.43762245633923774, -2.496326325217828, -0.08660586178302765, 2.4434826374053955, -1.6789582967758179, -0.8716288805007935, 0.4237871766090393, 0.24630838632583618, 0.3471841812133789, -0.3374834656715393, -0.6205759048461914, -0.779820936909088, -0.12261117286613665, 0.3509160014414186,-0.5036902857172443,-0.524444580078125,0.0863037109375,-0.374267578125
20220118-1321,2022-01-18 13:22:01Z,u01, 13,40,movements,el-ex, rt, d,203840.01982141667, -1.7813209619528276, -0.4103025742975814, -2.4690721382045533, 1.4489532709121704, 1.7862486839294434, -0.8395885229110718, -0.8967540860176086, 0.3988867998123169, 0.19162824749946594, 0.30002862215042114, -0.49184343218803406, -0.8650290966033936, -0.7608267363799666, -0.13021828771309124, 0.35267502780254617,-0.5289670763933456,-0.586334228515625,-0.13916015625,-0.738739013671875
20220118-1321,2022-01-18 13:22:01Z,u01, 14,40,movements,el-ex, rt, d,203840.04476425002, -1.7344266013801057, -0.41096126418270035, -2.4273823833518984, 1.3103845119476318, 0.596538782119751, 0.2467391937971115, -0.9044919610023499, 0.39949074387550354, 0.14933748543262482, 0.4386868476867676, -0.9607548713684082, -0.9922176599502563, -0.7455372593659195, -0.1372695739410857, 0.36716322425214254,-0.5390014136625403,-0.4658050537109375,-0.5612640380859375,-0.8428802490234375
20220118-1321,2022-01-18 13:22:01Z,u01, 15,40,movements,el-ex, rt, d,203840.06970725002, -1.7270183624084356, -0.428192416575037, -2.404679809133979, -0.015729989856481552, -0.7297854423522949, 0.8975566625595093, -0.898639440536499, 0.41522708535194397, 0.14154060184955597, 0.4739110469818115, -1.0841877460479736, -0.8331298828125, -0.742644833895476, -0.13874059966739638, 0.3793505237585651,-0.5341562703956019,-0.4227294921875,-0.5719451904296875,-0.619171142578125
20220118-1321,2022-01-18 13:22:01Z,u01, 16,40,movements,el-ex, rt, d,203840.09465125002, -1.7603507702068977, -0.456640510877872, -2.416600559278038, -0.26619985699653625, -1.5115686655044556, 1.4460880756378174, -0.8814625144004822, 0.440935343503952, 0.16911549866199493, 0.3797840476036072, -0.4789602756500244, -0.6001609563827515, -0.7531802030584351, -0.13144324807033964, 0.38316663961103015,-0.5182910802929569,-0.501678466796875,-0.03802490234375,-0.4310455322265625
20220118-1321,2022-01-18 13:22:01Z,u01, 17,40,movements,el-ex, rt, d,203840.11959425002, -1.810979212867775, -0.49403626686009117, -2.4340919115394697, -0.28565165400505066, -1.860728144645691, 1.7237526178359985, -0.85515296459198, 0.4741833806037903, 0.20943598449230194, 0.31995099782943726, -0.24975720047950745, -0.41964104771614075, -0.7678994704309614, -0.1226718892973575, 0.38780753933576817,-0.49486085635180865,-0.5478057861328125,0.24346923828125,-0.1479949951171875
20220118-1321,2022-01-18 13:22:01Z,u01, 18,40,movements,el-ex, rt, d,203840.14453725002, -1.8690947040436114, -0.5346891327610414, -2.4554050569745463, -0.5234724879264832, -1.953249454498291, 1.7797560691833496, -0.8224288821220398, 0.5095735788345337, 0.252874493598938, 0.2095901370048523, -0.09702181816101074, 0.018945664167404175, -0.7833483508092363, -0.11314861736603166, 0.39288078802185883,-0.4681959520372526,-0.6128387451171875,0.4125518798828125,0.271820068359375
20220118-1321,2022-01-18 13:22:01Z,u01, 19,40,movements,el-ex, rt, d,203840.16948025, -1.9404847993835852, -0.5671588437695123, -2.4993743822306245, -1.4618980884552002, -1.946603536605835, 1.672873854637146, -0.7864487171173096, 0.5372378826141357, 0.3047526478767395, 0.11870867013931274, 0.003548860549926758, 0.11954858899116516, -0.8014884083046019, -0.09996327726768167, 0.390270093440467,-0.44194234454911857,-0.669708251953125,0.5530853271484375,0.419219970703125
20220118-1321,2022-01-18 13:22:01Z,u01, 20,40,movements,el-ex, rt, d,203840.19442425002, -2.0238246555952895, -0.5920090740131368, -2.559532732998028, -1.057659387588501, -2.082327365875244, 1.7681976556777954, -0.7461135983467102, 0.558029294013977, 0.3632047474384308, 0.12744605541229248, -0.0828402042388916, -0.2186124622821808, -0.8212530683485915, -0.08453269448873868, 0.38244752470532084,-0.4148873193043409,-0.6186676025390625,0.475189208984375,0.14459228515625
20220118-1321,2022-01-18 13:22:01Z,u01, 21,40,movements,el-ex, rt, d,203840.21936725, -2.0988143260377945, -0.6297027237482519, -2.5953552625754934, 0.5449674129486084, -2.2682044506073, 1.9833674430847168, -0.6981313228607178, 0.5889045000076294, 0.4071904718875885, 0.16901755332946777, -0.11756056547164917, -0.3011113405227661, -0.8355467706345007, -0.07387035901433958, 0.3863218933379,-0.3836145988693694,-0.5186004638671875,0.46380615234375,0.11907958984375
20220118-1321,2022-01-18 13:22:01Z,u01, 22,40,movements,el-ex, rt, d,203840.24431025, -2.1599140126712753, -0.6873437485336833, -2.603410037043813, 0.9669449925422668, -2.316171884536743, 2.249814510345459, -0.6426416635513306, 0.6344863176345825, 0.42946362495422363, 0.19215631484985352, -0.11811363697052002, -0.012410342693328857, -0.8427073086547292, -0.0676476538342965, 0.4044590187424498,-0.34882825893252395,-0.4504852294921875,0.5163726806640625,0.41705322265625
20220118-1321,2022-01-18 13:22:01Z,u01, 23,40,movements,el-ex, rt, d,203840.26925325, -2.2413482665182443, -0.7426948055689075, -2.6367493366170227, -0.020271245390176773, -2.466107130050659, 2.520939826965332, -0.5771487355232239, 0.6762754917144775, 0.45776721835136414, 0.24862700700759888, -0.30727219581604004, -0.22305655479431152, -0.8518637692670858, -0.05667211271475736, 0.4176269148031489,-0.3109729267258974,-0.269927978515625,0.37255859375,0.205169677734375
20220118-1321,2022-01-18 13:22:01Z,u01, 24,40,movements,el-ex, rt, d,203840.29419725, -2.3526900039879144, -0.7873952118054539, -2.703251831185172, -0.0366528183221817, -2.8041815757751465, 2.7033772468566895, -0.500745952129364, 0.7085174918174744, 0.49724844098091125, 0.4677259922027588, -0.18929165601730347, -0.3796490430831909, -0.8642361587995643, -0.041473945124300415, 0.42283853936368754,-0.2694126801734712,-0.03302001953125,0.51922607421875,0.1175994873046875
20220118-1321,2022-01-18 13:22:01Z,u01, 25,40,movements,el-ex, rt, d,203840.31914025, -2.4674263347887986, -0.8473737237298926, -2.7600914889501835, 1.3257943391799927, -2.9675140380859375, 2.829432725906372, -0.4132223129272461, 0.7495445013046265, 0.5171367526054382, 0.3930959701538086, -0.10756152868270874, -0.27542227506637573, -0.8704552473867594, -0.029598145702196044, 0.438111832436334,-0.22246273396833022,-0.0172271728515625,0.695709228515625,0.352508544921875
20220118-1321,2022-01-18 13:22:01Z,u01, 26,40,movements,el-ex, rt, d,203840.34408325, -2.5955094629281703, -0.9061720354565642, -2.8318193444235766, 0.288155734539032, -2.867037773132324, 2.810302257537842, -0.3203123211860657, 0.7871485352516174, 0.5270644426345825, 0.38739001750946045, 0.005423307418823242, 0.23251807689666748, -0.8736391802338038, -0.01693510962765421, 0.4538828465351151,-0.17452239825178573,0.06707763671875,0.792572021484375,0.75958251953125
20220118-1321,2022-01-18 13:22:01Z,u01, 27,40,movements,el-ex, rt, d,203840.36902625, -2.7531729267679075, -0.9261554790028063, -2.939878095973556, -0.9801411628723145, -2.8991165161132812, 2.6591989994049072, -0.2275809496641159, 0.7993156313896179, 0.5561487078666687, 0.5144309401512146, 0.020661115646362305, 0.10222232341766357, -0.8820813455514832, -0.002616915303961298, 0.45346371735423846,-0.12765693589047464,0.3341064453125,0.8182373046875,0.6192474365234375
20220118-1321,2022-01-18 13:22:01Z,u01, 28,40,movements,el-ex, rt, d,203840.39397025, -2.9195827407695036, -0.9322997791292414, -3.0535574425929117, 0.12987491488456726, -3.127633810043335, 2.706305742263794, -0.1312311738729477, 0.8029927015304565, 0.5813614130020142, 0.4816950261592865, 0.14663797616958618, -0.09250020980834961, -0.889138214965929, 0.01067405476014216, 0.45060587148723164,-0.07920633225983278,0.3504638671875,0.9496307373046875,0.488861083984375
20220118-1321,2022-01-18 13:22:01Z,u01, 29,40,movements,el-ex, rt, d,203840.41891325, -3.0897791395281318, -0.9667631309766164, 3.1162961811558096, 1.3837755918502808, -3.0204477310180664, 2.9396328926086426, -0.029415184631943703, 0.8230515718460083, 0.567204475402832, 0.29142382740974426, 0.0681532621383667, -0.005528450012207031, -0.8849081472035905, 0.023233579043631825, 0.4642927339598658,-0.02881064429059005,0.258880615234375,0.8748321533203125,0.654571533203125
20220118-1321,2022-01-18 13:22:01Z,u01, 30,40,movements,el-ex, rt, d,203840.44385625, 3.0124150016960827, -0.9816406542681201, 2.983241138702496, -0.19685789942741394, -2.6929521560668945, 2.954253673553467, 0.07157927751541138, 0.8314101099967957, 0.5510294437408447, 0.39422574639320374, -0.025181591510772705, 0.332866370677948, -0.8797565402174714, 0.0392829466145323, 0.4733954938697951,0.019543212237527363,0.4658050537109375,0.8062286376953125,0.8838958740234375
20220118-1321,2022-01-18 13:22:01Z,u01, 31,40,movements,el-ex, rt, d,203840.46879925003, 2.849423513350208, -0.9477912343617714, 2.866986749117792, -0.8468645811080933, -2.7466962337493896, 2.831120729446411, 0.16805928945541382, 0.8121287226676941, 0.5587511658668518, 0.5419932007789612, 0.04259222745895386, 0.2044934630393982, -0.881127105577719, 0.05468653672759688, 0.4649742789691589,0.06650778780421535,0.73565673828125,0.9098968505859375,0.699310302734375
20220118-1321,2022-01-18 13:22:01Z,u01, 32,40,movements,el-ex, rt, d,203840.49374225002, 2.696780286978844, -0.9196435217338663, 2.761329806549896, 0.655485987663269, -2.788862705230713, 2.7022247314453125, 0.26079949736595154, 0.7953855991363525, 0.5471246838569641, 0.40452951192855835, 0.33400893211364746, -0.020910024642944336, -0.8768083614714389, 0.06906115391185896, 0.46241383762038807,0.11229924438002906,0.6653289794921875,1.12939453125,0.526214599609375
20220118-1321,2022-01-18 13:22:01Z,u01, 33,40,movements,el-ex, rt, d,203840.51868625003, 2.532288307621554, -0.9076493744118923, 2.642246187016394, 1.0526494979858398, -2.8636603355407715, 2.8595948219299316, 0.35230618715286255, 0.788058876991272, 0.5048206448554993, 0.29300329089164734, 0.12229585647583008, -0.04493588209152222, -0.8632978150034407, 0.08442270755539583, 0.4718649750214418,0.15790260238734025,0.660247802734375,0.855926513671875,0.4440155029296875
20220118-1321,2022-01-18 13:22:01Z,u01, 34,40,movements,el-ex, rt, d,203840.54362925002, 2.3757715829568857, -0.8750510816249019, 2.5340009480264385, 0.41319599747657776, -2.9251272678375244, 3.01979923248291, 0.4442664086818695, 0.7675762176513672, 0.4620109498500824, 0.3580407500267029, -0.05140501260757446, 0.048120975494384766, -0.84908638462506, 0.1002885245887652, 0.4762572807441393,0.20536198478347437,0.80230712890625,0.7161712646484375,0.5101318359375
20220118-1321,2022-01-18 13:22:01Z,u01, 35,40,movements,el-ex, rt, d,203840.56857225002, 2.241312169831332, -0.8233099631607353, 2.4539745230176333, -0.10309092700481415, -3.0318119525909424, 2.897122859954834, 0.5326223373413086, 0.7333999276161194, 0.42241963744163513, 0.3921366333961487, 0.047178685665130615, 0.1269274353981018, -0.8355590515484118, 0.11424050113711387, 0.47359160817614876,0.2539710602356743,0.9600982666015625,0.80682373046875,0.5264739990234375
20220118-1321,2022-01-18 13:22:01Z,u01, 36,40,movements,el-ex, rt, d,203840.59351525002, 2.129127906370686, -0.7611081135375791, 2.4022208202948256, -0.29524239897727966, -3.0044283866882324, 2.837578535079956, 0.6141145825386047, 0.6897242069244385, 0.38359302282333374, 0.4394131898880005, 0.14593851566314697, 0.09751659631729126, -0.8222262008612458, 0.1254614872226365, 0.46556830628941215,0.3024063342055622,1.05352783203125,0.835662841796875,0.481109619140625
20220118-1321,2022-01-18 13:22:01Z,u01, 37,40,movements,el-ex, rt, d,203840.61845925002, 2.029802792351127, -0.6978051434747286, 2.3631852290500373, -0.10595522820949554, -2.855738639831543, 2.774948835372925, 0.6869418025016785, 0.6425374150276184, 0.33949485421180725, 0.3946317434310913, 0.22150671482086182, 0.14857280254364014, -0.8070040425206297, 0.13598493871064893, 0.45684687039875155,0.3486309783766931,1.0931854248046875,0.8511962890625,0.490570068359375
20220118-1321,2022-01-18 13:22:01Z,u01, 38,40,movements,el-ex, rt, d,203840.64340225002, 1.9403975476751514, -0.6356824598604648, 2.3289710071415954, 0.06811510771512985, -2.6247034072875977, 2.6413943767547607, 0.7503286004066467, 0.5937268137931824, 0.2906806468963623, 0.3947976231575012, 0.21572130918502808, 0.25204402208328247, -0.7896749708931174, 0.14749158797238143, 0.4490021252611962,0.3912246002823394,1.1451263427734375,0.8094482421875,0.542724609375
20220118-1321,2022-01-18 13:22:01Z,u01, 39,40,movements,el-ex, rt, d,203840.66834525001, 1.863888493756945, -0.5751017932966058, 2.3016799336879057, 0.09214507788419724, -2.232028007507324, 2.5312695503234863, 0.8033521175384521, 0.5439202189445496, 0.24243836104869843, 0.30535149574279785, 0.31749945878982544, 0.28601932525634766, -0.7718755509548574, 0.1594594508531859, 0.44102051187828273,0.4292805739249152,1.092681884765625,0.8696746826171875,0.5237884521484375
20220118-1321,2022-01-18 13:22:01Z,u01, 40,40,movements,el-ex, rt, d,203840.69328825, 1.801040866575444, -0.520068005303381, 2.281229640612782, 0.05665925145149231, -1.9498343467712402, 2.117234230041504, 0.8448852300643921, 0.49693915247917175, 0.19804221391677856, 0.18810439109802246, 0.45116573572158813, 0.3013475239276886, -0.7549156700296109, 0.17065591206346858, 0.43348373449458605,0.46159600578597015,1.032989501953125,0.9481048583984375,0.4993896484375
20220118-1321,2022-01-18 13:22:02Z,u01, 41,40,movements,el-ex, rt, d,203840.71823225002, 1.7509138363078638, -0.4712686273237005, 2.2703357562230644, -0.0900651067495346, -1.6253639459609985, 1.8085662126541138, 0.8765792846679688, 0.4540169835090637, 0.15961714088916779, 0.050255000591278076, 0.5184104442596436, 0.3252614736557007, -0.7400013952631365, 0.1794617079005394, 0.42538662452978787,0.48911939177553077,0.9053955078125,0.9877166748046875,0.48260498046875
20220118-1321,2022-01-18 13:22:02Z,u01, 42,40,movements,el-ex, rt, d,203840.74317525, 1.7112276358680796, -0.430321427452508, 2.2633950393141844, 0.08229094743728638, -1.2621334791183472, 1.4407192468643188, 0.899884819984436, 0.4171629548072815, 0.12720933556556702, -0.07307219505310059, 0.5118225812911987, 0.4144320487976074, -0.7271166050623585, 0.18683176995964262, 0.4182481159364205,0.5113352854100317,0.826812744140625,0.928985595703125,0.5416412353515625
20220118-1321,2022-01-18 13:22:02Z,u01, 43,40,movements,el-ex, rt, d,203840.76811825, 1.6788586361856257, -0.4038297548754025, 2.254976615646916, 0.2034667432308197, -1.0482209920883179, 0.7300711870193481, 0.9141990542411804, 0.3929429054260254, 0.0991768091917038, -0.11372298002243042, 0.47639602422714233, 0.4993492364883423, -0.716113130269183, 0.19175606428636427, 0.41548801999244817,0.5270496612627472,0.799713134765625,0.8952789306640625,0.586334228515625
20220118-1321,2022-01-18 13:22:02Z,u01, 44,40,movements,el-ex, rt, d,203840.79306125, 1.6551490346211817, -0.39239607631990653, 2.2516011295945004, -0.11989790201187134, -0.7241079807281494, 0.21741367876529694, 0.9207101464271545, 0.3824034631252289, 0.0778491199016571, -0.09787988662719727, 0.5137299299240112, 0.45213449001312256, -0.7086176003665112, 0.1917958748665784, 0.4152401557460758,0.537262574834934,0.8228302001953125,0.8961334228515625,0.5299835205078125
20220118-1321,2022-01-18 13:22:02Z,u01, 45,40,movements,el-ex, rt, d,203840.81800525, 1.6457403324482989, -0.39195195779367126, 2.260617433974294, -0.473595529794693, -0.30114901065826416, -0.19514299929141998, 0.9215710759162903, 0.3819930851459503, 0.06919582188129425, -0.11332827806472778, 0.4282332956790924, 0.4826383590698242, -0.7068964778403444, 0.1868027880727144, 0.4135646549164686,0.542555399711581,0.8019866943359375,0.7985687255859375,0.55218505859375
20220118-1321,2022-01-18 13:22:02Z,u01, 46,40,movements,el-ex, rt, d,203840.84294825, 1.6479238019103106, -0.401344195663396, 2.272399280410219, -0.2900331914424896, 0.07554652541875839, -0.632881760597229, 0.9177999496459961, 0.39065608382225037, 0.07092829048633575, -0.13334572315216064, 0.40417414903640747, 0.4679969549179077, -0.7092802016622503, 0.1799603865576126, 0.41296159300641994,0.5422162381083614,0.784454345703125,0.794830322265625,0.5389251708984375
20220118-1321,2022-01-18 13:22:02Z,u01, 47,40,movements,el-ex, rt, d,203840.86789125, 1.6585760102848253, -0.42085003913788605, 2.2819649103536577, -0.30948925018310547, 0.4766354262828827, -0.9557743072509766, 0.9092277884483337, 0.40853646397590637, 0.08001735061407089, -0.12581104040145874, 0.35504379868507385, 0.4382932186126709, -0.7143737254130935, 0.17227552138900992, 0.41525759327286726,0.5362391573406037,0.781005859375,0.74163818359375,0.5254974365234375
20220118-1321,2022-01-18 13:22:02Z,u01, 48,40,movements,el-ex, rt, d,203840.89283425, 1.6813954466320762, -0.4466167570377551, 2.295274932828263, -0.461714506149292, 0.8961975574493408, -1.2039529085159302, 0.8964029550552368, 0.43191662430763245, 0.0995476096868515, -0.10935467481613159, 0.2771745026111603, 0.48800742626190186, -0.7231698501456458, 0.16370452363125182, 0.41753017077826166,0.5252568439406756,0.78704833984375,0.7090911865234375,0.587554931640625
20220118-1321,2022-01-18 13:22:02Z,u01, 49,40,movements,el-ex, rt, d,203840.91777825, 1.7170388499052331, -0.47951024417969224, 2.314075792964526, -0.5680158734321594, 1.3047999143600464, -1.578898549079895, 0.8777503967285156, 0.46134471893310547, 0.12928743660449982, -0.0466042160987854, 0.29179850220680237, 0.42216527462005615, -0.7355825761919833, 0.1534991484129099, 0.4198143458349763,0.5090305986305464,0.84600830078125,0.759185791015625,0.544525146484375
20220118-1321,2022-01-18 13:22:02Z,u01, 50,40,movements,el-ex, rt, d,203840.94272125, 1.7672303456869805, -0.519096631652039, 2.340484686684572, -0.6474854946136475, 1.6634522676467896, -1.8421125411987305, 0.8515698909759521, 0.4960959851741791, 0.16946257650852203, 0.04334282875061035, 0.2715584337711334, 0.3735215663909912, -0.7514872187556583, 0.14141515571079044, 0.4217618303956722,0.48722244190844066,0.8949127197265625,0.7676544189453125,0.5429840087890625
20220118-1321,2022-01-18 13:22:02Z,u01, 51,40,movements,el-ex, rt, d,203840.96766425, 1.826013129441645, -0.5639120616571591, 2.3668178687094517, -0.28925639390945435, 1.9743163585662842, -2.053443193435669, 0.8177942037582397, 0.5344966650009155, 0.21336767077445984, 0.0677189826965332, 0.2962833046913147, 0.31640228629112244, -0.7680341780504447, 0.1296431265795056, 0.4257020314313042,0.46053648871167113,0.8830413818359375,0.84259033203125,0.5304718017578125
20220118-1321,2022-01-18 13:22:02Z,u01, 52,40,movements,el-ex, rt, d,203840.99260725002, 1.8921137438622908, -0.6133293234866412, 2.389747751929935, -0.06348762661218643, 2.2918741703033447, -2.1643974781036377, 0.7758845090866089, 0.5755931735038757, 0.2582548260688782, 0.15511518716812134, 0.2891985774040222, 0.2712556719779968, -0.7840980481980842, 0.11965642382439384, 0.4324728392991608,0.4287653833896091,0.930999755859375,0.8647918701171875,0.529510498046875
20220118-1321,2022-01-18 13:22:02Z,u01, 53,40,movements,el-ex, rt, d,203841.01755125, 1.9652185123316837, -0.6659296840281855, 2.411470754224759, 0.22803084552288055, 2.495880126953125, -2.298903703689575, 0.7259665727615356, 0.6177904605865479, 0.3021717965602875, 0.23114103078842163, 0.25601935386657715, 0.2386913299560547, -0.7991864030869216, 0.11129682980550865, 0.4412071525703145,0.3927473261687664,0.9618377685546875,0.87335205078125,0.5459136962890625
20220118-1321,2022-01-18 13:22:02Z,u01, 54,40,movements,el-ex, rt, d,203841.04249450003, 2.044536104547746, -0.7226250580499046, 2.4353889907821564, 0.31664639711380005, 2.6161623001098633, -2.4252591133117676, 0.6674655675888062, 0.6613559126853943, 0.342195987701416, 0.28884851932525635, 0.17818254232406616, 0.23464736342430115, -0.8126958864842677, 0.10306982948879484, 0.4517051244587806,0.35336170615396606,0.9563140869140625,0.83953857421875,0.57684326171875
20220118-1321,2022-01-18 13:22:02Z,u01, 55,40,movements,el-ex, rt, d,203841.06743750002, 2.1339422272406696, -0.7810155863001305, 2.466969617261205, 0.4163471460342407, 2.8032310009002686, -2.595529556274414, 0.6005299687385559, 0.7040010690689087, 0.3791390061378479, 0.3348338007926941, 0.1455625295639038, 0.21580123901367188, -0.824998209199781, 0.09459096884221474, 0.4623205651506116,0.31095054280311135,0.9382476806640625,0.8866424560546875,0.5906982421875
20220118-1321,2022-01-18 13:22:02Z,u01, 56,40,movements,el-ex, rt, d,203841.09238050002, 2.2346362037841048, -0.8430060311736143, 2.5069607175968387, 0.6646890044212341, 2.8885154724121094, -2.7862181663513184, 0.5239497423171997, 0.7466461658477783, 0.409873366355896, 0.4122532606124878, 0.1999785304069519, 0.28255534172058105, -0.8352257974792638, 0.08564196422411724, 0.4741491283681605,0.26503946698035147,0.9362030029296875,0.946624755859375,0.6924285888671875
20220118-1321,2022-01-18 13:22:02Z,u01, 57,40,movements,el-ex, rt, d,203841.11732450002, 2.351724620807515, -0.9069940608703018, 2.563927975761854, 0.3834438920021057, 2.9706780910491943, -2.981083393096924, 0.43760281801223755, 0.7876552939414978, 0.433708131313324, 0.4940530061721802, 0.13861411809921265, 0.24115759134292603, -0.8433659345712112, 0.07475270103139631, 0.48614750702639775,0.21634803492101173,0.930328369140625,0.94189453125,0.663665771484375
20220118-1321,2022-01-18 13:22:02Z,u01, 58,40,movements,el-ex, rt, d,203841.14226750002, 2.4980668966486377, -0.9579595031055931, 2.655371624729341, -0.0018808539025485516, 2.9446792602539062, -3.059386968612671, 0.3451254963874817, 0.8180195689201355, 0.46014371514320374, 0.4612862467765808, 0.18458950519561768, 0.07757610082626343, -0.8522472323742527, 0.06120873268159793, 0.4919239312195133,0.16714951433897388,0.8064117431640625,1.0026092529296875,0.5377197265625
20220118-1321,2022-01-18 13:22:02Z,u01, 59,40,movements,el-ex, rt, d,203841.16721050002, 2.6688487090046835, -0.9978484190255981, 2.7722357881516095, 0.014799488708376884, 3.0107834339141846, -3.0950589179992676, 0.24684017896652222, 0.8403065204620361, 0.482653945684433, 0.4195263981819153, 0.1952158808708191, 0.07366630434989929, -0.8597405098706045, 0.04661795481147457, 0.49502633392564693,0.11671309550675221,0.6392669677734375,1.0276641845703125,0.5332489013671875
20220118-1321,2022-01-18 13:22:02Z,u01, 60,40,movements,el-ex, rt, d,203841.19215350001, 2.8597225296387867, -1.0285199349417375, 2.908075711575038, 0.14802156388759613, 2.9884612560272217, -3.1296792030334473, 0.14355091750621796, 0.8565360903739929, 0.49572083353996277, 0.47825998067855835, 0.1547553539276123, 0.050406575202941895, -0.86420453313324, 0.0317952022223672, 0.49794492943948543,0.06473375179450638,0.6218109130859375,1.01129150390625,0.5461273193359375
20220118-1321,2022-01-18 13:22:02Z,u01, 61,40,movements,el-ex, rt, d,203841.2170965, 3.069014738344408, -1.0417356410451446, 3.06561772445401, -0.4488520920276642, 2.887164354324341, -3.3204312324523926, 0.03659956902265549, 0.8632815480232239, 0.5033939480781555, 0.5564333200454712, 0.16830414533615112, 0.09938931465148926, -0.8668769216228998, 0.014878649294870872, 0.4981418233496556,0.01256015322343601,0.5912322998046875,1.017120361328125,0.5598602294921875
20220118-1321,2022-01-18 13:22:02Z,u01, 62,40,movements,el-ex, rt, d,203841.24204050002, -3.006280099973298, -1.0200717190584898, -3.059231617003868, -0.8875859379768372, 2.894859552383423, -3.186394453048706, -0.07059384137392044, 0.8521455526351929, 0.5185214877128601, 0.5973272323608398, 0.07758772373199463, -0.07244598865509033, -0.871350968359679, -0.002869798058837414, 0.48910762788992823,-0.038897391431893996,0.5267333984375,0.9297332763671875,0.446075439453125
20220118-1321,2022-01-18 13:22:02Z,u01, 63,40,movements,el-ex, rt, d,203841.2669835, -2.81665702824516, -0.9866991517563657, -2.9210133855991662, -0.34240901470184326, 2.939296007156372, -3.2258238792419434, -0.17604804039001465, 0.8342102766036987, 0.522589921951294, 0.5756909847259521, 0.134585440158844, 0.02863377332687378, -0.8723036622088652, -0.019526516229003865, 0.48018332357367205,-0.09016093550887941,0.3734283447265625,0.9764862060546875,0.5734405517578125
20220118-1321,2022-01-18 13:22:02Z,u01, 64,40,movements,el-ex, rt, d,203841.2919265, -2.644719383859262, -0.9430298454419044, -2.801104135867387, -0.7759877443313599, 2.8832802772521973, -3.1164910793304443, -0.27997201681137085, 0.8093413710594177, 0.5163158178329468, 0.5860328674316406, 0.057632386684417725, 0.13207590579986572, -0.8699687823920572, -0.036224776721064, 0.4710388317471317,-0.14129556065111334,0.306060791015625,0.866973876953125,0.6483917236328125
20220118-1321,2022-01-18 13:22:02Z,u01, 65,40,movements,el-ex, rt, d,203841.3168695, -2.509579374654442, -0.8811775095554635, -2.719222695730985, -1.1253718137741089, 2.893531084060669, -2.9127821922302246, -0.3758734464645386, 0.771488606929779, 0.5133460760116577, 0.6168708205223083, 0.0031694769859313965, 0.041967034339904785, -0.8683954326938833, -0.050620340297144906, 0.4552719425696933,-0.18987975040395655,0.204132080078125,0.8081512451171875,0.582489013671875
20220118-1321,2022-01-18 13:22:02Z,u01, 66,40,movements,el-ex, rt, d,203841.3418135, -2.3757786356430906, -0.8254936957939082, -2.640185717614976, 0.5893619656562805, 3.1354708671569824, -3.216188430786133, -0.47007259726524353, 0.7348827123641968, 0.4888547956943512, 0.5215100646018982, 0.31809568405151367, 0.05623498558998108, -0.860303738096655, -0.0656115195010446, 0.4453520333475168,-0.2392365313228373,0.0514373779296875,1.052978515625,0.5450897216796875
20220118-1321,2022-01-18 13:22:02Z,u01, 67,40,movements,el-ex, rt, d,203841.3667565, -2.2201968476719163, -0.7796852881243069, -2.5366710146049662, 1.1683095693588257, 3.358191728591919, -3.409623384475708, -0.5663807392120361, 0.7030556797981262, 0.43002963066101074, 0.5473073124885559, 0.4432303309440613, 0.12156033515930176, -0.8412509549201022, -0.08550819132148257, 0.447456762528502,-0.2911487502669244,-0.0450592041015625,1.04095458984375,0.5410003662109375
20220118-1321,2022-01-18 13:22:02Z,u01, 68,40,movements,el-ex, rt, d,203841.3916995, -2.08052453786598, -0.7150847087791528, -2.4562712594323677, -0.39059656858444214, 3.2912185192108154, -3.461730718612671, -0.6590551733970642, 0.6556813716888428, 0.36841312050819397, 0.5995764136314392, -0.12791049480438232, 0.22935006022453308, -0.8205159494817169, -0.10469068087661748, 0.4435750815137497,-0.3450139036876134,-0.059478759765625,0.52777099609375,0.5977630615234375
20220118-1321,2022-01-18 13:22:02Z,u01, 69,40,movements,el-ex, rt, d,203841.4166425, -1.9893310062178935, -0.6283872210510916, -2.440006783200317, -1.6405001878738403, 3.230757236480713, -3.2797718048095703, -0.73915034532547, 0.5878407955169678, 0.3287860155105591, 0.6166526675224304, -0.2801320552825928, 0.14338210225105286, -0.8068135985716987, -0.11595179351117851, 0.42142510122109583,-0.39750218407700105,-0.157501220703125,0.327789306640625,0.4575653076171875
20220118-1321,2022-01-18 13:22:02Z,u01, 70,40,movements,el-ex, rt, d,203841.4415865, -1.917556075635732, -0.5419347939647984, -2.4517968914058774, -1.3507733345031738, 3.1727800369262695, -2.911013603210449, -0.805719792842865, 0.5157945156097412, 0.2911555767059326, 0.51125568151474, 0.049665629863739014, -0.11694598197937012, -0.7941757652495232, -0.12191242045853545, 0.3933366125009686,-0.4468875778798451,-0.294464111328125,0.565460205078125,0.1742095947265625
20220118-1321,2022-01-18 13:22:02Z,u01, 71,40,movements,el-ex, rt, d,203841.4665295, -1.8398249158665385, -0.47059776797040936, -2.448144191266284, -0.13176648318767548, 2.873422384262085, -2.5937464237213135, -0.8592369556427002, 0.45341914892196655, 0.23690244555473328, 0.548873245716095, 0.029231488704681396, -0.3303166925907135, -0.7755896997334402, -0.1300455361362346, 0.3746513351685604,-0.4911059675401712,-0.3226470947265625,0.410858154296875,-0.1792144775390625
20220118-1321,2022-01-18 13:22:02Z,u01, 72,40,movements,el-ex, rt, d,203841.4914725, -1.7652886174825047, -0.4143266884623267, -2.4304276435155883, 0.019641749560832977, 2.4711711406707764, -2.002842903137207, -0.898128867149353, 0.40257367491722107, 0.17691552639007568, 0.4936641454696655, -0.45823776721954346, -0.6031086444854736, -0.754096793085858, -0.14069751858937418, 0.3653142593093459,-0.527340295879639,-0.4044647216796875,-0.0556640625,-0.4261932373046875
20220118-1321,2022-01-18 13:22:02Z,u01, 73,40,movements,el-ex, rt, d,203841.51641550002, -1.716618719322941, -0.377487230753225, -2.4249374636354997, -0.29227912425994873, 1.184829592704773, -0.9323382377624512, -0.9197278022766113, 0.3685857951641083, 0.13507568836212158, 0.5221142768859863, -0.8995611667633057, -0.7810412645339966, -0.7391041467768182, -0.14581806245896012, 0.35815779402210457,-0.5515298923782695,-0.39251708984375,-0.5818328857421875,-0.7150421142578125
20220118-1321,2022-01-18 13:22:02Z,u01, 74,40,movements,el-ex, rt, d,203841.5413595, -1.7080975333549342, -0.3664386327875239, -2.437739553771977, -0.4838811159133911, -0.10547764599323273, 0.16266906261444092, -0.9248229265213013, 0.3582927882671356, 0.12778329849243164, 0.5205872058868408, -1.068681001663208, -1.1823182106018066, -0.7371496630243435, -0.14318526422973477, 0.35160693283790906,-0.5589998359010683,-0.40423583984375,-0.71038818359375,-1.054534912109375
20220118-1321,2022-01-18 13:22:02Z,u01, 75,40,movements,el-ex, rt, d,203841.56630250002, -1.7273009655001792, -0.38247621844839563, -2.4435068967214417, 0.37343597412109375, -1.154449701309204, 1.1084057092666626, -0.9164044857025146, 0.3732188940048218, 0.14460411667823792, 0.4780958294868469, -0.7026867270469666, -1.0684322118759155, -0.7435867284853291, -0.1392150596684058, 0.3539196855577177,-0.549944295673672,-0.464935302734375,-0.2599639892578125,-0.8435211181640625
20220118-1321,2022-01-18 13:22:02Z,u01, 76,40,movements,el-ex, rt, d,203841.59124550002, -1.7578716604254643, -0.4201652916178503, -2.4294045938280013, 0.9873055815696716, -1.7374472618103027, 1.659440279006958, -0.8970915079116821, 0.40791136026382446, 0.1698092669248581, 0.36632972955703735, -0.41268742084503174, -0.5689486265182495, -0.752263410679879, -0.13785643877480763, 0.368031479364172,-0.5288177312105339,-0.53076171875,-0.0047760009765625,-0.399139404296875
20220118-1321,2022-01-18 13:22:02Z,u01, 77,40,movements,el-ex, rt, d,203841.61618850002, -1.7992275539635194, -0.4718068237299125, -2.411556048901907, 0.9996482729911804, -2.129859447479248, 2.1433160305023193, -0.867609441280365, 0.45449644327163696, 0.2017098218202591, 0.3282875418663025, -0.42657288908958435, -0.4500923156738281, -0.7631216631948139, -0.13601558053057455, 0.386819250920943,-0.4995157455981941,-0.548675537109375,0.0235137939453125,-0.219146728515625
20220118-1321,2022-01-18 13:22:02Z,u01, 78,40,movements,el-ex, rt, d,203841.64113150002, -1.8512369007819667, -0.5349377592931048, -2.4050989212232414, 0.8444488644599915, -2.27803897857666, 2.6024603843688965, -0.8266915678977966, 0.5097874999046326, 0.238113135099411, 0.29988181591033936, -0.43787288665771484, -0.33029139041900635, -0.7761343233068645, -0.12912039355237548, 0.4057838531534729,-0.4650623132973305,-0.5268096923828125,0.0719146728515625,-0.0921783447265625
20220118-1321,2022-01-18 13:22:02Z,u01, 79,40,movements,el-ex, rt, d,203841.66607550002, -1.9062705395494148, -0.608000952731223, -2.3991032993447154, 1.2759196758270264, -2.445420503616333, 2.8252317905426025, -0.7750359177589417, 0.5712277889251709, 0.27021849155426025, 0.3021203279495239, -0.23751819133758545, -0.05462697148323059, -0.7877533617363464, -0.12063951997147843, 0.42786857430144437,-0.4264026174084351,-0.4705047607421875,0.407745361328125,0.268646240234375
20220118-1321,2022-01-18 13:22:02Z,u01, 80,40,movements,el-ex, rt, d,203841.69101850002, -1.9676939593978606, -0.6862032172646453, -2.3966948085174615, 1.0045466423034668, -2.530196189880371, 3.020960569381714, -0.7135167121887207, 0.6336043477058411, 0.29906415939331055, 0.23962455987930298, -0.035917699337005615, -0.07666721940040588, -0.7981439367948816, -0.11179593148085093, 0.4506903929271126,-0.38385681906022406,-0.4738922119140625,0.597686767578125,0.2223968505859375
20220118-1321,2022-01-18 13:22:03Z,u01, 81,40,movements,el-ex, rt, d,203841.7159615, -2.039120998287941, -0.766469247786502, -2.4110832958629507, 1.1163817644119263, -2.392638683319092, 3.1080145835876465, -0.6427995562553406, 0.6935961246490479, 0.32516664266586304, 0.2604295611381531, -0.12242913246154785, -0.1488358974456787, -0.8079141016791116, -0.09928807147663393, 0.47102637156173205,-0.33992782095052576,-0.35748291015625,0.6016082763671875,0.2230224609375
20220118-1321,2022-01-18 13:22:03Z,u01, 82,40,movements,el-ex, rt, d,203841.7409045, -2.100198998985949, -0.850494750256734, -2.41495954072466, 1.7076884508132935, -2.2772021293640137, 2.9779343605041504, -0.5693165063858032, 0.751606822013855, 0.3331155776977539, 0.30997806787490845, 0.17093950510025024, 0.053862690925598145, -0.8115661018797491, -0.08898453208839058, 0.4955601831555704,-0.2964158541560296,-0.25933837890625,0.92254638671875,0.3869781494140625
20220118-1321,2022-01-18 13:22:03Z,u01, 83,40,movements,el-ex, rt, d,203841.7658485, -2.1713106401543425, -0.9277645701953409, -2.4358396269679714, 0.40956658124923706, -2.1589224338531494, 2.818819284439087, -0.4947173297405243, 0.8002815246582031, 0.3388279974460602, 0.2608153522014618, 0.058544158935546875, 0.20275235176086426, -0.8144870471136775, -0.07761988926613089, 0.5155395927715263,-0.25456824505722264,-0.2094268798828125,0.7974395751953125,0.5300140380859375
20220118-1321,2022-01-18 13:22:03Z,u01, 84,40,movements,el-ex, rt, d,203841.7907915, -2.3028224184023, -0.9736409305439675, -2.530112075148099, -1.2841815948486328, -2.2117996215820312, 2.7761988639831543, -0.4182451367378235, 0.8269384503364563, 0.3758237659931183, 0.35646235942840576, -0.11497879028320312, 0.07691973447799683, -0.8271349904923156, -0.0613154599273506, 0.5157889036249423,-0.21459222676951195,-0.0617828369140625,0.7119598388671875,0.4527435302734375
20220118-1321,2022-01-18 13:22:03Z,u01, 85,40,movements,el-ex, rt, d,203841.8157345, -2.458426824204174, -1.0069204785109798, -2.648802755400676, 0.07459744065999985, -2.255758762359619, 2.884071111679077, -0.3373824954032898, 0.8451899290084839, 0.4145202040672302, 0.33597874641418457, 0.09293562173843384, -0.06607046723365784, -0.8398057611958284, -0.04456884707917835, 0.5124226182725939,-0.1736748845302311,-0.0021209716796875,0.9730682373046875,0.3863677978515625
20220118-1321,2022-01-18 13:22:03Z,u01, 86,40,movements,el-ex, rt, d,203841.8406775, -2.5908015141269813, -1.0691668716627691, -2.736835183017498, 1.4469772577285767, -2.220122814178467, 3.067351818084717, -0.251661092042923, 0.8768001794815063, 0.4097418487071991, 0.3785074055194855, 0.2027592658996582, -0.1260504126548767, -0.8390035382642635, -0.030724450736375863, 0.5273097415402019,-0.1306660143264567,0.1268463134765625,1.079559326171875,0.28369140625
20220118-1321,2022-01-18 13:22:03Z,u01, 87,40,movements,el-ex, rt, d,203841.8656215, -2.7522815937778606, -1.1283350616458014, -2.8572952747660105, 0.27525749802589417, -2.039486885070801, 3.0371270179748535, -0.16251054406166077, 0.903700590133667, 0.396125853061676, 0.3545118570327759, -0.020674467086791992, 0.12435150146484375, -0.83536568106373, -0.01506995335528527, 0.5424793704844254,-0.08748280796412175,0.220947265625,0.8871002197265625,0.5707550048828125
20220118-1321,2022-01-18 13:22:03Z,u01, 88,40,movements,el-ex, rt, d,203841.8905645, -2.9604740304706203, -1.1423472692432883, -3.0315525064949074, -0.5454052090644836, -2.0383150577545166, 2.8325538635253906, -0.07483695447444916, 0.9096112251281738, 0.4086650311946869, 0.39546987414360046, 0.04607737064361572, 0.19398099184036255, -0.8392407182997734, 0.0027436185229619547, 0.5417735375102359,-0.046357258057960926,0.3206329345703125,0.9556884765625,0.6026458740234375
20220118-1321,2022-01-18 13:22:03Z,u01, 89,40,movements,el-ex, rt, d,203841.9155075, 3.1122149348854338, -1.1390274796706963, 3.077946987315952, -0.05935383588075638, -2.197479486465454, 2.939697742462158, 0.012292158789932728, 0.9082269668579102, 0.4182973802089691, 0.35903048515319824, 0.19379329681396484, -0.030189990997314453, -0.8418980765932693, 0.018876336914430858, 0.5392850360816814,-0.004791133999745845,0.37548828125,1.0609893798828125,0.34490966796875
20220118-1321,2022-01-18 13:22:03Z,u01, 90,40,movements,el-ex, rt, d,203841.9404505, 2.8930167585433426, -1.1320601069278613, 2.896217458149037, 0.5060641169548035, -2.051680564880371, 3.2411086559295654, 0.1045098677277565, 0.9052892327308655, 0.4117390215396881, 0.2617468237876892, -0.17079228162765503, -0.014842569828033447, -0.839366577794779, 0.036513824951102114, 0.5409537948772677,0.03872282215460948,0.3662567138671875,0.7344970703125,0.3968963623046875
20220118-1321,2022-01-18 13:22:03Z,u01, 91,40,movements,el-ex, rt, d,203841.9653945, 2.672185463729139, -1.1224705709587905, 2.7044471471454576, 0.6121580600738525, -1.7647579908370972, 3.1010189056396484, 0.19607767462730408, 0.9011740684509277, 0.3865729570388794, 0.31510698795318604, 0.17162543535232544, 0.24250119924545288, -0.8306357729787293, 0.05771211862488562, 0.5480155110586168,0.07995285031887786,0.57965087890625,1.2024383544921875,0.652801513671875
20220118-1321,2022-01-18 13:22:03Z,u01, 92,40,movements,el-ex, rt, d,203841.9903375, 2.514424973659241, -1.0823140692684305, 2.5790600673591197, -0.9996101260185242, -1.8914071321487427, 2.491560697555542, 0.2754024863243103, 0.8830461502075195, 0.37997785210609436, 0.5122562646865845, 0.30509471893310547, 0.15722322463989258, -0.8273840338193803, 0.0736517786375197, 0.5441407298655254,0.11799153675872195,0.78765869140625,1.188140869140625,0.537200927734375
20220118-1321,2022-01-18 13:22:03Z,u01, 93,40,movements,el-ex, rt, d,203842.01528050003, 2.420842227138638, -1.0186528858668031, 2.527328870638324, -1.2286418676376343, -1.9220434427261353, 2.4003586769104004, 0.3461518883705139, 0.851402223110199, 0.3940725028514862, 0.2849363684654236, 0.24269872903823853, 0.1060647964477539, -0.8307403135990037, 0.08310706226931353, 0.5279939227699053,0.1555190252724615,0.5532989501953125,1.089447021484375,0.49407958984375
20220118-1321,2022-01-18 13:22:03Z,u01, 94,40,movements,el-ex, rt, d,203842.04022329167, 2.3105706688813794, -0.9738418389381789, 2.447578274814144, 1.1413346529006958, -1.6496639251708984, 2.438622236251831, 0.41519811749458313, 0.8270514011383057, 0.37894129753112793, -0.028601467609405518, 0.26662224531173706, 0.12316450476646423, -0.8246150483054254, 0.09736870211420112, 0.5238992760785822,0.1898918373576065,0.3865966796875,1.0936737060546875,0.502105712890625
20220118-1321,2022-01-18 13:22:03Z,u01, 95,40,movements,el-ex, rt, d,203842.0651662917, 2.179870705406239, -0.9479970515738997, 2.3377474372630997, 0.9592351913452148, -1.6989210844039917, 2.2708325386047363, 0.47841909527778625, 0.8122487664222717, 0.333717405796051, 0.1341145634651184, 0.36240339279174805, -0.03249356150627136, -0.8085772458913768, 0.11428708813110894, 0.5334286079333208,0.22044343538494174,0.652252197265625,1.0947113037109375,0.306243896484375
20220118-1321,2022-01-18 13:22:03Z,u01, 96,40,movements,el-ex, rt, d,203842.09011029167, 2.1060298548021317, -0.9012910721127234, 2.3059016147861797, -1.6445144414901733, -2.2554330825805664, 1.845679521560669, 0.5338071584701538, 0.7841287851333618, 0.31653106212615967, 0.18976455926895142, 0.1348622441291809, 0.11921426653862, -0.8023567703007575, 0.12037084101888151, 0.5266916183081936,0.2536343987254672,0.72357177734375,0.9189910888671875,0.4357452392578125
20220118-1321,2022-01-18 13:22:03Z,u01, 97,40,movements,el-ex, rt, d,203842.11505329167, 2.066630170873026, -0.8369271899730377, 2.331934105092548, -1.544084906578064, -2.368555784225464, 1.9619760513305664, 0.5890918374061584, 0.7425886392593384, 0.31864282488822937, -0.023143231868743896, 0.0997423529624939, -0.02375134825706482, -0.8033799656016494, 0.11790693671743635, 0.5050941896572779,0.29250392779316436,0.54168701171875,0.845245361328125,0.300506591796875
20220118-1321,2022-01-18 13:22:03Z,u01, 98,40,movements,el-ex, rt, d,203842.1399962917, 2.008599282289257, -0.7805976306126928, 2.332766162715469, -0.6900213956832886, -2.3410003185272217, 2.0195136070251465, 0.6434831023216248, 0.7037041783332825, 0.3012140095233917, 0.11724376678466797, 0.16804563999176025, -0.038289815187454224, -0.7977267852316888, 0.11932720279009051, 0.4904256272153825,0.32996315538417553,0.7607269287109375,0.8717498779296875,0.2629241943359375
20220118-1321,2022-01-18 13:22:03Z,u01, 99,40,movements,el-ex, rt, d,203842.1649392917, 1.9458422480370963, -0.7298195549134231, 2.3241245040119147, -0.49311119318008423, -2.1728832721710205, 1.9421910047531128, 0.6934897899627686, 0.6667351722717285, 0.27301278710365295, 0.22823256254196167, 0.04237121343612671, 0.006314605474472046, -0.7883456131248991, 0.12254629653400362, 0.47965138058436,0.3652781229215726,0.9559173583984375,0.671142578125,0.284149169921875
20220118-1321,2022-01-18 13:22:03Z,u01, 100,40,movements,el-ex, rt, d,203842.1898832917, 1.887610438627357, -0.6780510411697281, 2.315116654455434, -0.1935766190290451, -1.9988752603530884, 2.0919697284698486, 0.7400383353233337, 0.6272763609886169, 0.24262700974941254, 0.2810036540031433, -0.014025628566741943, 0.10577705502510071, -0.7777741031911176, 0.12798809110601583, 0.46884174003391255,0.39859003036838214,1.0210418701171875,0.613250732421875,0.3484039306640625
20220118-1321,2022-01-18 13:22:03Z,u01, 101,40,movements,el-ex, rt, d,203842.2148262917, 1.8264805157881379, -0.6310449173242337, 2.2908831956286244, 0.5489559173583984, -1.745147705078125, 1.9452587366104126, 0.7811629176139832, 0.5899887681007385, 0.20420034229755402, 0.18836528062820435, 0.0994337797164917, 0.20906876027584076, -0.7636314583848969, 0.13772134959572896, 0.4634750257455322,0.42789103474153856,0.9787750244140625,0.7063751220703125,0.386383056640625
20220118-1321,2022-01-18 13:22:03Z,u01, 102,40,movements,el-ex, rt, d,203842.2397692917, 1.7680058971967545, -0.5891543360449637, 2.259586268553433, 0.5311684012413025, -1.5026057958602905, 1.765880823135376, 0.815295934677124, 0.5556581020355225, 0.16290149092674255, 0.18006551265716553, 0.10013413429260254, 0.1910109668970108, -0.7477545172123128, 0.1493784708552322, 0.4620198177851681,0.4528654073474236,0.995361328125,0.655792236328125,0.353912353515625
20220118-1321,2022-01-18 13:22:03Z,u01, 103,40,movements,el-ex, rt, d,203842.26471229168, 1.72311529661548, -0.5488930978610351, 2.242596412178407, -0.01119043305516243, -1.2726253271102905, 1.5991419553756714, 0.843225359916687, 0.5217432379722595, 0.12944182753562927, 0.09711295366287231, 0.13050895929336548, 0.23397685587406158, -0.7345896029723282, 0.1584267347722108, 0.45762126831080124,0.47524934512160355,0.920745849609375,0.654998779296875,0.3687896728515625
20220118-1321,2022-01-18 13:22:03Z,u01, 104,40,movements,el-ex, rt, d,203842.2896562917, 1.6936532198417118, -0.511925823515883, 2.2417576802541803, -0.294662743806839, -1.0417646169662476, 1.222367525100708, 0.8652315735816956, 0.4898570775985718, 0.10683772712945938, -0.023358404636383057, 0.26557499170303345, 0.3464246988296509, -0.7255757662105766, 0.16419096454009252, 0.44947115847541447,0.4945268102605486,0.8418731689453125,0.75543212890625,0.4532623291015625
20220118-1321,2022-01-18 13:22:03Z,u01, 105,40,movements,el-ex, rt, d,203842.31459929168, 1.6736974303186305, -0.48608787676242476, 2.2488956741692623, -0.43389570713043213, -0.8164070844650269, 0.7771514654159546, 0.8794902563095093, 0.46717050671577454, 0.09082130342721939, -0.04576534032821655, 0.4299852252006531, 0.3263387680053711, -0.719687690765656, 0.16571143321271542, 0.44183080128084806,0.5092885692567294,0.826629638671875,0.89483642578125,0.41815185546875
20220118-1321,2022-01-18 13:22:03Z,u01, 106,40,movements,el-ex, rt, d,203842.33954229168, 1.665066796106192, -0.47073862173370523, 2.2631919576274435, -0.6879065632820129, -0.37346014380455017, 0.387091726064682, 0.8872763514518738, 0.4535447061061859, 0.08389262109994888, -0.08205479383468628, 0.4482802450656891, 0.3922884464263916, -0.7177193637455433, 0.1637840787667298, 0.4343968552535237,0.5189923737283045,0.8052215576171875,0.901824951171875,0.4761810302734375
20220118-1321,2022-01-18 13:22:03Z,u01, 107,40,movements,el-ex, rt, d,203842.36448529168, 1.669176072755524, -0.46439544505688585, 2.279153130637129, -0.37722790241241455, 0.08955628424882889, 0.006490916945040226, 0.8897693753242493, 0.44788235425949097, 0.08781878650188446, -0.10862600803375244, 0.4730313718318939, 0.4027208089828491, -0.7197041635180295, 0.16104443539898705, 0.4280448224943091,0.52236802265046,0.7740478515625,0.92022705078125,0.493133544921875
20220118-1321,2022-01-18 13:22:03Z,u01, 108,40,movements,el-ex, rt, d,203842.38942929168, 1.6755172351560887, -0.4684360434328166, 2.2799394022248127, 0.21688087284564972, 0.4009307324886322, -0.31519678235054016, 0.887387216091156, 0.4514913558959961, 0.09326919168233871, -0.15490448474884033, 0.5170449018478394, 0.32138848304748535, -0.7216545650522593, 0.16077712626454493, 0.42852425784774323,0.5193575096958433,0.73248291015625,0.968536376953125,0.4146575927734375
20220118-1321,2022-01-18 13:22:03Z,u01, 109,40,movements,el-ex, rt, d,203842.41437229168, 1.687025328606233, -0.4808331767726478, 2.275199271483245, 0.14643490314483643, 0.6886188983917236, -0.6650829315185547, 0.8806279897689819, 0.46251803636550903, 0.10281792283058167, -0.15679681301116943, 0.4468294680118561, 0.3394428491592407, -0.7249355177663983, 0.16086471758502402, 0.4324900017252225,0.5114132246824392,0.7321624755859375,0.88446044921875,0.455535888671875
20220118-1321,2022-01-18 13:22:03Z,u01, 110,40,movements,el-ex, rt, d,203842.43931529167, 1.709675423733495, -0.5005119935906643, 2.278967450638347, -0.08527481555938721, 0.9426771402359009, -0.9640548825263977, 0.8688897490501404, 0.47987478971481323, 0.1214524656534195, -0.05379575490951538, 0.3350208103656769, 0.4227675199508667, -0.731972779785286, 0.15793062856005435, 0.43557761774152204,0.4995456814989491,0.815093994140625,0.8148956298828125,0.544219970703125
20220118-1321,2022-01-18 13:22:03Z,u01, 111,40,movements,el-ex, rt, d,203842.46425829167, 1.7405822277787777, -0.5291069064402545, 2.2884137871516357, -0.21001394093036652, 1.2129757404327393, -1.357364296913147, 0.8508452773094177, 0.504762589931488, 0.14586587250232697, -0.012939512729644775, 0.4111766815185547, 0.3523184061050415, -0.7415286026671055, 0.15188241708682926, 0.4394269319365436,0.4837054485505326,0.834686279296875,0.9193572998046875,0.49383544921875
20220118-1321,2022-01-18 13:22:03Z,u01, 112,40,movements,el-ex, rt, d,203842.48920129167, 1.783330445592152, -0.565887126378336, 2.3018381397304877, -0.09763327986001968, 1.6676040887832642, -1.7110477685928345, 0.8251204490661621, 0.5361648797988892, 0.1780553162097931, 0.014052033424377441, 0.3569168448448181, 0.3347926139831543, -0.7537635047367376, 0.14445843580640172, 0.4442381494114255,0.4621957384347768,0.83917236328125,0.8930816650390625,0.512847900390625
20220118-1321,2022-01-18 13:22:03Z,u01, 113,40,movements,el-ex, rt, d,203842.51414529167, 1.8358510035993527, -0.6114347433207882, 2.313964894909357, 0.1718035191297531, 1.954350233078003, -2.0579733848571777, 0.790230393409729, 0.5740428566932678, 0.21450112760066986, 0.0835336446762085, 0.3470691442489624, 0.300315260887146, -0.7670904961004534, 0.13719597929296978, 0.451839225097886,0.4342703652630082,0.883453369140625,0.930694580078125,0.5117340087890625
20220118-1321,2022-01-18 13:22:03Z,u01, 114,40,movements,el-ex, rt, d,203842.53908829167, 1.8963048996261156, -0.6654448137935746, 2.3290043270326373, 0.12374305725097656, 2.1937191486358643, -2.357431411743164, 0.7453345060348511, 0.6174091100692749, 0.2515609562397003, 0.13995003700256348, 0.3398815393447876, 0.29355934262275696, -0.7805622558901539, 0.1284641686477867, 0.46156363208991813,0.4014706893608904,0.885284423828125,0.9572906494140625,0.5451202392578125
20220118-1321,2022-01-18 13:22:03Z,u01, 115,40,movements,el-ex, rt, d,203842.56403129167, 1.9730192337042127, -0.7241696018510231, 2.358676039102619, -0.17238250374794006, 2.4101972579956055, -2.701338052749634, 0.6892704963684082, 0.6625136733055115, 0.2932266592979431, 0.2261958122253418, 0.28551483154296875, 0.2682357728481293, -0.795565984073574, 0.1169961221222503, 0.4699217294639708,0.3640882414205696,0.9240875244140625,0.9600067138671875,0.560211181640625
20220118-1321,2022-01-18 13:22:03Z,u01, 116,40,movements,el-ex, rt, d,203842.5889742917, 2.0704762252438105, -0.7846594404586553, 2.4094395183990174, -0.2913699150085449, 2.6022214889526367, -2.9396748542785645, 0.6211113333702087, 0.7065842151641846, 0.3390565514564514, 0.3147406578063965, 0.3459364175796509, 0.21352526545524597, -0.8118322834475578, 0.10225759079041757, 0.47581354201725257,0.3226037099830066,0.93585205078125,1.052520751953125,0.552581787109375
20220118-1321,2022-01-18 13:22:03Z,u01, 117,40,movements,el-ex, rt, d,203842.61391829167, 2.1852386077482113, -0.8462073400259515, 2.4745492648976084, -0.1582861840724945, 2.7882256507873535, -3.125404119491577, 0.5415931344032288, 0.7487719058990479, 0.3821219801902771, 0.37539905309677124, 0.3312908411026001, 0.2192726731300354, -0.8267886777515618, 0.08649550999508249, 0.48181095694155296,0.27712289260948764,0.923797607421875,1.075439453125,0.6113128662109375
20220118-1321,2022-01-18 13:22:03Z,u01, 118,40,movements,el-ex, rt, d,203842.6388612917, 2.320149328808141, -0.9056938951455323, 2.556982997646074, -0.131305992603302, 2.9712212085723877, -3.242131233215332, 0.4518265128135681, 0.786853551864624, 0.4203742742538452, 0.48684847354888916, 0.27247267961502075, 0.2319238781929016, -0.8397900972533091, 0.07028324910028899, 0.4875811140405123,0.22820521356793566,0.9386749267578125,1.059326171875,0.6522979736328125
20220118-1321,2022-01-18 13:22:03Z,u01, 119,40,movements,el-ex, rt, d,203842.6638042917, 2.4812854612005006, -0.9599658053895125, 2.663180372269171, 0.06212040036916733, 3.0969130992889404, -3.447077512741089, 0.3517912030220032, 0.8191719651222229, 0.4529905319213867, 0.5573885440826416, 0.2710379958152771, 0.19988727569580078, -0.8506742129270695, 0.05337269304987763, 0.4925183558875428,0.17587057998415564,0.890655517578125,1.101898193359375,0.6507720947265625
20220118-1321,2022-01-18 13:22:03Z,u01, 120,40,movements,el-ex, rt, d,203842.6887472917, 2.6654896515986244, -1.0143475428298856, 2.78877766347044, 0.6081328988075256, 3.294691324234009, -3.5720934867858887, 0.2420721799135208, 0.8491361141204834, 0.4694344997406006, 0.5556877851486206, 0.38885509967803955, 0.18837183713912964, -0.8563866772524483, 0.03631959998448747, 0.50085990361314,0.12009184681039345,0.797760009765625,1.2379913330078125,0.657806396484375
20220118-1321,2022-01-18 13:22:04Z,u01, 121,40,movements,el-ex, rt, d,203842.7136912917, 2.8842683491438863, -1.0630685741164205, 2.9461949064915984, 0.8430530428886414, 3.321928024291992, -3.8138980865478516, 0.12373316287994385, 0.8738515377044678, 0.47018489241600037, 0.6567081212997437, 0.3796122074127197, 0.1572718620300293, -0.8571720838057371, 0.018667131932194492, 0.5110587605300658,0.06104559428118839,0.7665252685546875,1.2028656005859375,0.628631591796875
20220118-1321,2022-01-18 13:22:04Z,u01, 122,40,movements,el-ex, rt, d,203842.7386342917, -3.1404461014696, -1.095800296610448, -3.136212941255133, 0.6857478022575378, 3.166154384613037, -4.017878532409668, -0.0005243580671958625, 0.8892945647239685, 0.4573344886302948, 0.6202448606491089, 0.13667583465576172, 0.1526814103126526, -0.8536177427329903, -0.0019974960740713477, 0.5208952732077942,0.0009117749078357829,0.619720458984375,1.025970458984375,0.610015869140625
20220118-1321,2022-01-18 13:22:04Z,u01, 123,40,movements,el-ex, rt, d,203842.76357729168, -2.8664206066966877, -1.0934550822782163, -2.9151752884154396, 0.2185676246881485, 3.0293357372283936, -4.012958526611328, -0.12483002245426178, 0.8882195353507996, 0.44213542342185974, 0.6347177028656006, -0.05243462324142456, 0.10014677047729492, -0.8487965942444933, -0.02473963155835962, 0.524920173691038,-0.05823383377563604,0.48785400390625,0.8146209716796875,0.5498046875
20220118-1321,2022-01-18 13:22:04Z,u01, 124,40,movements,el-ex, rt, d,203842.78852029168, -2.6260467572701884, -1.0531403968480975, -2.7260697321053073, -0.4310602843761444, 2.7823452949523926, -3.860888957977295, -0.24396319687366486, 0.8689815402030945, 0.43052640557289124, 0.6998348236083984, -0.05506259202957153, 0.058685749769210815, -0.8444213738852381, -0.047071772465965944, 0.5209762904795788,-0.11541432467806723,0.45587158203125,0.8139190673828125,0.4892120361328125
20220118-1321,2022-01-18 13:22:04Z,u01, 125,40,movements,el-ex, rt, d,203842.81346329168, -2.4472589336679214, -0.9875535745533967, -2.595878035336289, -0.7160803079605103, 2.6248724460601807, -3.6558611392974854, -0.3523995876312256, 0.8346811532974243, 0.42322754859924316, 0.7196481823921204, -0.12763482332229614, -0.05739817023277283, -0.8408392196439467, -0.06784672025397587, 0.5099267557320618,-0.16840667720010252,0.3335723876953125,0.694732666015625,0.3495635986328125
20220118-1321,2022-01-18 13:22:04Z,u01, 126,40,movements,el-ex, rt, d,203842.83840729168, -2.3071418378219715, -0.9136218928915161, -2.503418473396585, -0.5072848796844482, 2.5375595092773438, -3.5143542289733887, -0.45261943340301514, 0.7917214632034302, 0.4102589786052704, 0.6327495574951172, -0.0731547474861145, -0.11472675204277039, -0.8351312736422032, -0.08766549433083037, 0.49697997897310053,-0.2188179517877785,0.1801300048828125,0.71856689453125,0.2955322265625
20220118-1321,2022-01-18 13:22:04Z,u01, 127,40,movements,el-ex, rt, d,203842.86335029168, -2.1863176353399822, -0.8424934100083321, -2.429747396259762, -0.10665073990821838, 2.5742337703704834, -3.307326555252075, -0.5434472560882568, 0.7463050484657288, 0.38430914282798767, 0.6266688108444214, -0.07572722434997559, -0.031205475330352783, -0.8251494018878158, -0.10622162970404603, 0.48655246679953357,-0.26666834293264413,0.0565948486328125,0.6584625244140625,0.3797760009765625
20220118-1321,2022-01-18 13:22:04Z,u01, 128,40,movements,el-ex, rt, d,203842.88829329167, -2.0809922635707747, -0.7701205164751471, -2.372032523779943, -0.40382570028305054, 2.555039405822754, -3.2672526836395264, -0.6264109015464783, 0.6962217688560486, 0.3505495488643646, 0.5355600118637085, -0.001153409481048584, 0.08420398831367493, -0.8123414909521742, -0.1240003191304368, 0.4762838705972334,-0.3128562330478105,-0.090850830078125,0.695068359375,0.43475341796875
20220118-1321,2022-01-18 13:22:04Z,u01, 129,40,movements,el-ex, rt, d,203842.91323629167, -1.998655341487269, -0.6908322305383701, -2.345292480038583, -0.841097891330719, 2.6787216663360596, -3.1596429347991943, -0.7012407779693604, 0.6371788382530212, 0.31978839635849, 0.5098803043365479, -0.04020923376083374, -0.0018867254257202148, -0.8005242485158205, -0.13804031991564952, 0.459828703911337,-0.35869678928181215,-0.22320556640625,0.5868988037109375,0.3154449462890625
20220118-1321,2022-01-18 13:22:04Z,u01, 130,40,movements,el-ex, rt, d,203842.93818029168, -1.9173236008204297, -0.6154650008303755, -2.3229975506773557, 0.011242073029279709, 2.6911964416503906, -2.981288194656372, -0.767970085144043, 0.5773382782936096, 0.2773124575614929, 0.45313560962677, 0.14337998628616333, -0.07557600736618042, -0.784816462749073, -0.15072940465253581, 0.4453571532294889,-0.40373340347756675,-0.3148345947265625,0.7207183837890625,0.2017364501953125
20220118-1321,2022-01-18 13:22:04Z,u01, 131,40,movements,el-ex, rt, d,203842.96312329167, -1.8299219047709439, -0.5498473015822155, -2.2855203606964336, 0.5814326405525208, 2.674586057662964, -2.827772617340088, -0.8241397142410278, 0.5225570201873779, 0.21846745908260345, 0.44617950916290283, 0.1275588870048523, -0.0502086877822876, -0.7626775877773129, -0.16600188279996536, 0.4393644568866098,-0.44466304262587164,-0.3979034423828125,0.5928497314453125,0.205963134765625
20220118-1321,2022-01-18 13:22:04Z,u01, 132,40,movements,el-ex, rt, d,203842.98806629167, -1.7573333991819011, -0.4831087346572066, -2.2639681354850283, -0.2856847643852234, 2.322486639022827, -2.706930160522461, -0.87019282579422, 0.46453437209129333, 0.164232537150383, 0.43180781602859497, -0.22683298587799072, -0.15851044654846191, -0.741572641316315, -0.17940537662578343, 0.4299856243429249,-0.4826967341023165,-0.438385009765625,0.237701416015625,0.0057220458984375
20220118-1321,2022-01-18 13:22:04Z,u01, 133,40,movements,el-ex, rt, d,203843.01300929167, -1.7077872383766202, -0.42137263042787076, -2.269184141337592, -0.6869359612464905, 1.7958401441574097, -2.070812940597534, -0.9039793610572815, 0.40901339054107666, 0.12461747229099274, 0.4198331832885742, -0.43396157026290894, -0.352736234664917, -0.72620355944442, -0.18691476025731452, 0.4143578407800522,-0.5157508033493443,-0.5011138916015625,-0.077911376953125,-0.296661376953125
20220118-1321,2022-01-18 13:22:04Z,u01, 134,40,movements,el-ex, rt, d,203843.037953875, -1.6729951410629877, -0.37899457608375864, -2.2807054564570537, -0.5291945338249207, 1.2505552768707275, -1.1685179471969604, -0.9241896271705627, 0.3699865937232971, 0.094781294465065, 0.37108904123306274, -0.7013617753982544, -0.6147243976593018, -0.7151800879527941, -0.18949429954084596, 0.4016653353489543,-0.5396983438618392,-0.5531005859375,-0.3313751220703125,-0.5199432373046875
20220118-1321,2022-01-18 13:22:04Z,u01, 135,40,movements,el-ex, rt, d,203843.06289687502, -1.6547513000551808, -0.36118278956476035, -2.2881031356350015, -0.0037434687837958336, 0.45007386803627014, -0.20883724093437195, -0.9321845769882202, 0.35338094830513, 0.0784459263086319, 0.41024249792099, -0.8075436353683472, -0.7833714485168457, -0.7095555846741841, -0.18908684592137415, 0.3959468567047284,-0.5513647715750634,-0.526153564453125,-0.47412109375,-0.7282562255859375
20220118-1321,2022-01-18 13:22:04Z,u01, 136,40,movements,el-ex, rt, d,203843.08783987502, -1.653004427796864, -0.3688789257151598, -2.283668505408681, 0.21456250548362732, -0.4103492796421051, 0.7885653376579285, -0.9295821785926819, 0.3605699837207794, 0.07659180462360382, 0.4185958504676819, -0.8077288866043091, -0.6848223209381104, -0.7092525529695796, -0.18776772097662747, 0.3996693204769509,-0.5495166421023666,-0.510986328125,-0.4471588134765625,-0.6082305908203125
20220118-1321,2022-01-18 13:22:04Z,u01, 137,40,movements,el-ex, rt, d,203843.11278287502, -1.6709735223711613, -0.3967843329049741, -2.2812290255107044, 0.172071173787117, -1.0562400817871094, 1.4053878784179688, -0.9176843762397766, 0.3864545226097107, 0.09223981201648712, 0.3706568479537964, -0.654963493347168, -0.5784763097763062, -0.7159698511747121, -0.1830493858341074, 0.40711877983901357,-0.5367814675728827,-0.5547332763671875,-0.2203826904296875,-0.4410400390625
20220118-1321,2022-01-18 13:22:04Z,u01, 138,40,movements,el-ex, rt, d,203843.137725875, -1.704557375470393, -0.4370252893112566, -2.284917585825391, -0.05142989754676819, -1.5181838274002075, 1.7950884103775024, -0.897921621799469, 0.42324620485305786, 0.12082841992378235, 0.313418447971344, -0.39475804567337036, -0.36478590965270996, -0.7277618765985912, -0.17543335348593103, 0.4153605045586414,-0.5167799249041494,-0.584503173828125,0.0284881591796875,-0.24395751953125
20220118-1321,2022-01-18 13:22:04Z,u01, 139,40,movements,el-ex, rt, d,203843.16266987502, -1.750988845593883, -0.4866156831956727, -2.294468066855053, 0.15188491344451904, -1.8239567279815674, 2.24503493309021, -0.8696092367172241, 0.4676370918750763, 0.15841534733772278, 0.25138407945632935, -0.3773356080055237, -0.3840928077697754, -0.7428201458071118, -0.16560768033321704, 0.4241865661995221,-0.49077297866632785,-0.6184539794921875,0.099029541015625,-0.2199554443359375
20220118-1321,2022-01-18 13:22:04Z,u01, 140,40,movements,el-ex, rt, d,203843.18761287502, -1.7999069414203517, -0.5471552306655496, -2.297866241427321, 0.41249945759773254, -2.0342066287994385, 2.539199113845825, -0.8316916227340698, 0.5202598571777344, 0.19395498931407928, 0.2775077223777771, -0.21993649005889893, -0.1901250034570694, -0.7568188639469738, -0.15557216374300392, 0.4381493116510405,-0.4593991737322422,-0.5541839599609375,0.300323486328125,0.0038299560546875
20220118-1321,2022-01-18 13:22:04Z,u01, 141,40,movements,el-ex, rt, d,203843.212555875, -1.8565405037968106, -0.6140151071016389, -2.3051653284452076, 0.46044644713401794, -2.141118049621582, 2.793274164199829, -0.7842000722885132, 0.5761538147926331, 0.23038530349731445, 0.25409436225891113, -0.21529871225357056, -0.20987734198570251, -0.7709248616441464, -0.14445591700628663, 0.4530724110995562,-0.4237132199263328,-0.5176544189453125,0.372467041015625,0.042999267578125
20220118-1321,2022-01-18 13:22:04Z,u01, 142,40,movements,el-ex, rt, d,203843.237498875, -1.921789577419708, -0.6864740066784615, -2.3212973137169213, 0.4832918643951416, -2.3020644187927246, 3.030459403991699, -0.7263277173042297, 0.6338137984275818, 0.26594817638397217, 0.29853224754333496, -0.2354373335838318, -0.19754287600517273, -0.784735727871776, -0.13101115451014728, 0.4680550127592754,-0.3846434296860787,-0.42779541015625,0.39837646484375,0.0684051513671875
20220118-1321,2022-01-18 13:22:04Z,u01, 143,40,movements,el-ex, rt, d,203843.262442875, -1.991759096679012, -0.7661280705362309, -2.336181735085639, 1.0830339193344116, -2.518519401550293, 3.211860179901123, -0.6576892137527466, 0.6933503150939941, 0.2944657802581787, 0.29176825284957886, -0.1761385202407837, -0.1302964985370636, -0.7957944104900776, -0.11808530602082179, 0.48624518845323333,-0.34107579079871664,-0.34796142578125,0.5699462890625,0.1787872314453125
20220118-1321,2022-01-18 13:22:04Z,u01, 144,40,movements,el-ex, rt, d,203843.287385875, -2.0702114214112832, -0.8511203691296012, -2.3536774808325323, 1.0870676040649414, -2.761972188949585, 3.3116614818573, -0.5786351561546326, 0.7520193457603455, 0.31567052006721497, 0.3374548554420471, -0.013280510902404785, -0.18186622858047485, -0.8041068916830343, -0.10605360032808392, 0.5062591903175037,-0.29302941822550327,-0.241180419921875,0.738739013671875,0.1338043212890625
20220118-1321,2022-01-18 13:22:04Z,u01, 145,40,movements,el-ex, rt, d,203843.312328875, -2.156536337674856, -0.9389601632304773, -2.37742961506847, 1.0923978090286255, -2.5919275283813477, 3.323598861694336, -0.49217167496681213, 0.8069443702697754, 0.32650837302207947, 0.3679041564464569, -0.13842636346817017, -0.07775953412055969, -0.8089046489762248, -0.09448519045609038, 0.527131237731512,-0.24264880438512348,-0.09503173828125,0.718292236328125,0.3222198486328125
20220118-1321,2022-01-18 13:22:04Z,u01, 146,40,movements,el-ex, rt, d,203843.337271875, -2.2818902460957933, -1.0141034813440204, -2.447768857501516, 0.32466813921928406, -2.767348051071167, 3.3940000534057617, -0.40032726526260376, 0.8490071892738342, 0.3448549509048462, 0.5115790367126465, -0.08376365900039673, -0.10201120376586914, -0.8161181281534965, -0.07986657809079761, 0.5389896755017773,-0.19251670428023265,0.1112518310546875,0.7652435302734375,0.2428436279296875
20220118-1321,2022-01-18 13:22:04Z,u01, 147,40,movements,el-ex, rt, d,203843.362214875, -2.4417094319040635, -1.0851703568098678, -2.5501793769654824, 1.1438310146331787, -2.8146109580993652, 3.5277645587921143, -0.3006547689437866, 0.884382963180542, 0.3570345342159271, 0.41500410437583923, -0.06251406669616699, -0.12769484519958496, -0.8211456701467525, -0.06509265554604265, 0.5495642337393447,-0.13950605095013413,0.1062774658203125,0.8365325927734375,0.1964111328125
20220118-1321,2022-01-18 13:22:04Z,u01, 148,40,movements,el-ex, rt, d,203843.387158875, -2.6008261060865787, -1.1731175919277335, -2.6580772216854758, 1.714177131652832, -2.01654052734375, 3.5146265029907227, -0.19936873018741608, 0.9219624400138855, 0.33201998472213745, 0.37344101071357727, 0.23195284605026245, 0.310604065656662, -0.8146454967930332, -0.048607674784989174, 0.571135134813556,-0.08828725465112572,0.174072265625,1.1539154052734375,0.6426239013671875
20220118-1321,2022-01-18 13:22:04Z,u01, 149,40,movements,el-ex, rt, d,203843.412101875, -2.8274608931770397, -1.2117518096069007, -2.848506761832458, -0.8528150320053101, -2.100888729095459, 2.8698155879974365, -0.1085733100771904, 0.9362329840660095, 0.33418557047843933, 0.552115797996521, 0.47146666049957275, 0.39783966541290283, -0.8161905463522509, -0.03042656194047394, 0.5752183547129208,-0.04506881233999149,0.5162353515625,1.3015899658203125,0.6634063720703125
20220118-1321,2022-01-18 13:22:04Z,u01, 150,40,movements,el-ex, rt, d,203843.437044875, -3.0803525955956284, -1.190190803242291, -3.0594584178165816, -1.5494896173477173, -2.4172163009643555, 2.883418321609497, -0.02273540385067463, 0.9284398555755615, 0.37078630924224854, 0.6172941327095032, 0.2071191668510437, 0.09132620692253113, -0.8277135812227896, -0.016833918616814325, 0.5608934136333608,-0.0023264906086908343,0.5945587158203125,1.13555908203125,0.4621124267578125
20220118-1321,2022-01-18 13:22:04Z,u01, 151,40,movements,el-ex, rt, d,203843.46198787502, 2.9677839208507004, -1.1666649666408768, 3.0348087632965015, 0.20776361227035522, -2.3310916423797607, 2.9809725284576416, 0.06800150126218796, 0.9194443225860596, 0.38729560375213623, 0.26721882820129395, 0.18481886386871338, -0.051968395709991455, -0.8328484051752871, -0.0033659500649343976, 0.5518137901126845,0.043054808713506754,0.29071044921875,1.07672119140625,0.313385009765625
20220118-1321,2022-01-18 13:22:04Z,u01, 152,40,movements,el-ex, rt, d,203843.486931875, 2.7253233422629695, -1.1679485597403734, 2.825915016679722, 1.4038426876068115, -1.595474362373352, 3.2920358180999756, 0.15852180123329163, 0.9199482798576355, 0.3585611879825592, 0.14492973685264587, 0.0907023549079895, 0.08426427841186523, -0.8240334535840743, 0.01579438255105392, 0.5598363358033663,0.08545603096940185,0.3034515380859375,1.010650634765625,0.4428253173828125
20220118-1321,2022-01-18 13:22:04Z,u01, 153,40,movements,el-ex, rt, d,203843.51187487502, 2.5106998193270154, -1.146040542368757, 2.6309528618298477, -0.09607799351215363, -1.458126187324524, 2.9278759956359863, 0.2430826723575592, 0.9111394286155701, 0.3327697217464447, 0.3416951298713684, 0.23931217193603516, 0.3656403720378876, -0.8153922654769792, 0.038991301575547976, 0.5645492310468869,0.1220625065971977,0.6728973388671875,1.155029296875,0.65618896484375
20220118-1321,2022-01-18 13:22:04Z,u01, 154,40,movements,el-ex, rt, d,203843.53681787502, 2.395090111185528, -1.082671910939485, 2.5474110922743445, -1.564239501953125, -1.8178752660751343, 2.650465250015259, 0.3184664249420166, 0.883213996887207, 0.3442564606666565, 0.5028226375579834, 0.19294273853302002, 0.15386679768562317, -0.8180574545969559, 0.05394653590341192, 0.5502669956734119,0.1583607804265687,0.8212890625,1.0761566162109375,0.4981231689453125
20220118-1321,2022-01-18 13:22:04Z,u01, 155,40,movements,el-ex, rt, d,203843.56176087502, 2.3069710898137927, -1.0179028909527739, 2.4981050637244278, -0.5049625635147095, -1.7115800380706787, 2.5042953491210938, 0.3891599178314209, 0.8510085940361023, 0.3526175916194916, 0.1536867916584015, 0.349812388420105, -0.019640177488327026, -0.8198000752315042, 0.06508942386805344, 0.5345096115646584,0.19491220295805392,0.5006103515625,1.17596435546875,0.31585693359375
20220118-1321,2022-01-18 13:22:04Z,u01, 156,40,movements,el-ex, rt, d,203843.58670487502, 2.197414365419022, -0.9712456194990358, 2.4160967784105023, 0.8261840343475342, -1.5768547058105469, 2.6416757106781006, 0.45706886053085327, 0.8255892395973206, 0.3308939039707184, 0.06275242567062378, 0.122073233127594, -0.004096299409866333, -0.8117130605802891, 0.08104852031285159, 0.531361893612246,0.2284900229785836,0.5198211669921875,0.947662353515625,0.3267974853515625
20220118-1321,2022-01-18 13:22:04Z,u01, 157,40,movements,el-ex, rt, d,203843.61164787502, 2.0832708867217344, -0.9253511474578047, 2.3246693502925333, 0.5614309906959534, -1.6498332023620605, 2.758488178253174, 0.524275004863739, 0.7988320589065552, 0.29496341943740845, 0.13498109579086304, 0.07851791381835938, 0.012699633836746216, -0.7984192254595432, 0.1000422203164183, 0.5330285714181283,0.26153193855857504,0.696868896484375,0.845184326171875,0.3003082275390625
20220118-1321,2022-01-18 13:22:04Z,u01, 158,40,movements,el-ex, rt, d,203843.63659087502, 1.9979332870327149, -0.8654137249890345, 2.27089254691557, -0.3265693187713623, -1.8525569438934326, 2.7558224201202393, 0.5900766253471375, 0.7613635659217834, 0.26857948303222656, 0.2930257320404053, -0.0427510142326355, 0.04509550333023071, -0.7879022212600824, 0.11618875135948542, 0.5269203227077643,0.2967577646692709,0.8831024169921875,0.7186126708984375,0.3136749267578125
20220118-1321,2022-01-18 13:22:04Z,u01, 159,40,movements,el-ex, rt, d,203843.661533875, 1.93450452926273, -0.798482542464163, 2.251567100786273, -0.7352795004844666, -2.0155348777770996, 2.607759475708008, 0.6521475911140442, 0.7162980437278748, 0.24823500216007233, 0.2608926296234131, 0.04981517791748047, 0.09289050102233887, -0.7796693279626299, 0.127409719901243, 0.5139781816339776,0.3342288345458077,0.918609619140625,0.7926177978515625,0.341644287109375
20220118-1321,2022-01-18 13:22:04Z,u01, 160,40,movements,el-ex, rt, d,203843.686476875, 1.8787178118167691, -0.7332615056104161, 2.244646478195706, -0.5722085237503052, -2.0460283756256104, 2.4204294681549072, 0.7080492973327637, 0.6692965030670166, 0.2251860350370407, 0.23231947422027588, 0.17210370302200317, 0.12869587540626526, -0.7707692784934472, 0.13604314768621611, 0.49967792264819383,0.37111869009395526,0.94036865234375,0.841400146484375,0.3538818359375
20220118-1321,2022-01-18 13:22:05Z,u01, 161,40,movements,el-ex, rt, d,203843.711420875, 1.8265520761173322, -0.6727655939226201, 2.240595259796459, -0.5636923909187317, -1.9217925071716309, 2.2876861095428467, 0.7566615343093872, 0.6231513619422913, 0.19785338640213013, 0.19927114248275757, 0.22761768102645874, 0.14141058921813965, -0.7604416717423337, 0.14371902932277342, 0.48638415213487274,0.4055907354946271,0.955413818359375,0.82958984375,0.333343505859375
20220118-1321,2022-01-18 13:22:05Z,u01, 162,40,movements,el-ex, rt, d,203843.736363875, 1.7813453868570333, -0.6163752804501458, 2.2395792672934993, -0.39581969380378723, -1.6297909021377563, 2.1110122203826904, 0.7979593276977539, 0.5780812501907349, 0.1705370843410492, 0.1355428695678711, 0.23937779664993286, 0.18651866912841797, -0.7499312894054027, 0.15123360877605146, 0.473457446364805,0.4365426398074249,0.933502197265625,0.8174591064453125,0.3570556640625
20220118-1321,2022-01-18 13:22:05Z,u01, 163,40,movements,el-ex, rt, d,203843.761306875, 1.7400362915398873, -0.5669841764243517, 2.235322809059744, -0.14278793334960938, -1.455978274345398, 1.778314471244812, 0.831473171710968, 0.5370905995368958, 0.14207755029201508, 0.10213577747344971, 0.3614689111709595, 0.2226838916540146, -0.7387320456479907, 0.15910292817383603, 0.46323984724012807,0.4630011147464992,0.92889404296875,0.9218292236328125,0.3643951416015625
20220118-1321,2022-01-18 13:22:05Z,u01, 164,40,movements,el-ex, rt, d,203843.786249875, 1.7040909805963906, -0.5268661959608862, 2.2319708396493216, -0.15850324928760529, -1.2869511842727661, 1.4063299894332886, 0.8567194938659668, 0.502826988697052, 0.11487729102373123, 0.02017265558242798, 0.4134327173233032, 0.23758554458618164, -0.7281144313608718, 0.16519086385569143, 0.45533066800543726,0.48501067823747673,0.87689208984375,0.916259765625,0.3524627685546875
20220118-1321,2022-01-18 13:22:05Z,u01, 165,40,movements,el-ex, rt, d,203843.811193875, 1.6751007581644555, -0.4960892999286234, 2.2331347127068284, -0.2090555727481842, -1.0796468257904053, 1.0438756942749023, 0.874671220779419, 0.4759899079799652, 0.09156437963247299, -0.052451252937316895, 0.4370045065879822, 0.2704504728317261, -0.7193270452912608, 0.1683769384151409, 0.4485918514087469,0.5029744112270403,0.815399169921875,0.9071502685546875,0.36834716796875
20220118-1321,2022-01-18 13:22:05Z,u01, 166,40,movements,el-ex, rt, d,203843.836136875, 1.6541524205032732, -0.4738823293182502, 2.2378678960799614, -0.3095773458480835, -0.758618950843811, 0.7093859910964966, 0.8867139220237732, 0.45634421706199646, 0.07408467680215836, -0.08474242687225342, 0.42123445868492126, 0.29931318759918213, -0.7129836889588246, 0.16940069640509292, 0.4427732328267506,0.5166329425082116,0.801971435546875,0.8775787353515625,0.3733978271484375
20220118-1321,2022-01-18 13:22:05Z,u01, 167,40,movements,el-ex, rt, d,203843.861079875, 1.6420129653703286, -0.4597228302932739, 2.2440454957655507, -0.13440419733524323, -0.44974926114082336, 0.31975430250167847, 0.8939038515090942, 0.4436997175216675, 0.063768669962883, -0.10676395893096924, 0.43883806467056274, 0.3670327663421631, -0.7093894822825496, 0.16926576249888375, 0.4381246156908896,0.5255116411789097,0.778717041015625,0.891693115234375,0.434112548828125
20220118-1321,2022-01-18 13:22:05Z,u01, 168,40,movements,el-ex, rt, d,203843.886022875, 1.6360562395797593, -0.4581377163943933, 2.245021382944025, -0.042462266981601715, -0.04047967493534088, -0.1709224134683609, 0.894968569278717, 0.4422786235809326, 0.0584886260330677, -0.12047821283340454, 0.4990818202495575, 0.3850386142730713, -0.7077929161126243, 0.16814726183797568, 0.43791514685356825,0.5281913051542857,0.7744903564453125,0.9413604736328125,0.4435272216796875
20220118-1321,2022-01-18 13:22:05Z,u01, 169,40,movements,el-ex, rt, d,203843.91096587502, 1.6415456164426097, -0.46854274215297403, 2.2481707131288027, -0.13540728390216827, 0.3859434723854065, -0.6634730696678162, 0.8899953961372375, 0.4515865743160248, 0.06307180970907211, -0.10706675052642822, 0.4378940761089325, 0.40941667556762695, -0.7102086107184798, 0.16474111230570765, 0.43961234405809674,0.5246000277560664,0.7838287353515625,0.8993377685546875,0.477935791015625
20220118-1321,2022-01-18 13:22:05Z,u01, 170,40,movements,el-ex, rt, d,203843.935909875, 1.6587516204061508, -0.49022817142485153, 2.252509209927988, -0.01428489200770855, 0.819652795791626, -1.086603045463562, 0.8788151741027832, 0.4708271920681, 0.07749638706445694, -0.0823674201965332, 0.43086040019989014, 0.3954803943634033, -0.7164043254464046, 0.159728009250927, 0.4433184575159418,0.5145100184246476,0.79644775390625,0.9016876220703125,0.4729766845703125
20220118-1321,2022-01-18 13:22:05Z,u01, 171,40,movements,el-ex, rt, d,203843.96085287503, 1.683078300640103, -0.5222559392829683, 2.2520032578834996, 0.31633317470550537, 1.1508790254592896, -1.4480737447738647, 0.8612384796142578, 0.49883660674095154, 0.09710999578237534, -0.07985109090805054, 0.4142645299434662, 0.36877143383026123, -0.7243129758849121, 0.1546793762048423, 0.4507566839549099,0.49826038515191473,0.77728271484375,0.9147796630859375,0.4626007080078125
20220118-1321,2022-01-18 13:22:05Z,u01, 172,40,movements,el-ex, rt, d,203843.98579587502, 1.7124533309294272, -0.5634671610370834, 2.2457037871728387, 0.4424963593482971, 1.4684861898422241, -1.7568354606628418, 0.8369401693344116, 0.5341205596923828, 0.1193578764796257, -0.049022138118743896, 0.3498515486717224, 0.3302576541900635, -0.7329138254993643, 0.15005420506121742, 0.46191727455763903,0.4763963271257749,0.7879180908203125,0.88397216796875,0.449615478515625
20220118-1321,2022-01-18 13:22:05Z,u01, 173,40,movements,el-ex, rt, d,203844.01073887502, 1.7519044572353553, -0.6111325386354907, 2.246170186000903, 0.11307326704263687, 1.6590794324874878, -2.013787269592285, 0.805603563785553, 0.5737953782081604, 0.14751777052879333, 0.05784541368484497, 0.27894192934036255, 0.32364317774772644, -0.7437511824029313, 0.14350282302016804, 0.47264399142543256,0.4503872351733858,0.8810577392578125,0.8650054931640625,0.4783172607421875
20220118-1321,2022-01-18 13:22:05Z,u01, 174,40,movements,el-ex, rt, d,203844.03568262502, 1.8035366442716123, -0.663897109657615, 2.2604963110256384, -0.07700486481189728, 1.791725993156433, -2.34080171585083, 0.7663617134094238, 0.6161908507347107, 0.1816551387310028, 0.15012693405151367, 0.33759021759033203, 0.31198203563690186, -0.7569848334219619, 0.13342238314940152, 0.4812715079193463,0.4213670418551365,0.9164886474609375,0.9537811279296875,0.4936370849609375
20220118-1321,2022-01-18 13:22:05Z,u01, 175,40,movements,el-ex, rt, d,203844.06062562502, 1.8644694753739786, -0.724460412554588, 2.284499994927835, -0.06458757817745209, 1.8996684551239014, -2.7029330730438232, 0.7167966365814209, 0.6627314686775208, 0.21677179634571075, 0.18710362911224365, 0.3188512325286865, 0.2710670530796051, -0.7707201868718379, 0.11990117246327575, 0.4904167532374966,0.38872313018719395,0.8982086181640625,0.9799041748046875,0.484344482421875
20220118-1321,2022-01-18 13:22:05Z,u01, 176,40,movements,el-ex, rt, d,203844.085568625, 1.9379867402789954, -0.7890797947976013, 2.317999844991993, -0.12071516364812851, 2.174896717071533, -2.8341307640075684, 0.6575363874435425, 0.7097052931785583, 0.25291112065315247, 0.19643694162368774, 0.1802634596824646, 0.24121424555778503, -0.7844710034001099, 0.10517039103900727, 0.4995538513726017,0.3521225494805544,0.853973388671875,0.8899688720703125,0.4941253662109375
20220118-1321,2022-01-18 13:22:05Z,u01, 177,40,movements,el-ex, rt, d,203844.110511625, 2.032133523857397, -0.8535079867579233, 2.366487712066356, -0.1585306078195572, 2.500964403152466, -2.9324944019317627, 0.5886235237121582, 0.753591001033783, 0.29261377453804016, 0.2540430426597595, 0.19863367080688477, 0.26462194323539734, -0.7988115959010271, 0.09059205465110687, 0.5069587302881561,0.3109435761036837,0.8604736328125,0.9777374267578125,0.5714111328125
20220118-1321,2022-01-18 13:22:05Z,u01, 178,40,movements,el-ex, rt, d,203844.135454625, 2.140437337275832, -0.9196302639930312, 2.4253690111249813, 0.1093745306134224, 2.4982454776763916, -3.166055202484131, 0.5104054808616638, 0.7953775525093079, 0.32689541578292847, 0.4318552613258362, 0.2787647247314453, 0.20005163550376892, -0.8109612989893742, 0.07608862286901169, 0.515380844775754,0.26633591885597285,0.9422607421875,1.0741424560546875,0.526947021484375
20220118-1321,2022-01-18 13:22:05Z,u01, 179,40,movements,el-ex, rt, d,203844.160398625, 2.2673062934268287, -0.9844304837576703, 2.5061483500877735, -0.08508482575416565, 2.3801045417785645, -3.2022151947021484, 0.4244573712348938, 0.8329570889472961, 0.3549906015396118, 0.4833490252494812, 0.1863604187965393, 0.14592501521110535, -0.8209568021389776, 0.059373592091930716, 0.5232680977639435,0.22066980197893712,0.8812408447265625,0.989959716796875,0.4860382080078125
20220118-1321,2022-01-18 13:22:05Z,u01, 180,40,movements,el-ex, rt, d,203844.185341625, 2.4208879970755848, -1.0384689338000048, 2.6180681165936237, -0.22898370027542114, 2.363774538040161, -3.210845708847046, 0.3349330723285675, 0.8616281747817993, 0.3813357949256897, 0.35474893450737, 0.11816930770874023, 0.08257728815078735, -0.830040567215739, 0.04123771480255628, 0.5277487268614927,0.17553767515870655,0.6896820068359375,0.97979736328125,0.4639129638671875
20220118-1321,2022-01-18 13:22:05Z,u01, 181,40,movements,el-ex, rt, d,203844.210284625, 2.5991637277079795, -1.0855916422394543, 2.7532983609730834, 0.10861619561910629, 2.476227045059204, -3.310386896133423, 0.24075864255428314, 0.8845794796943665, 0.3994428515434265, 0.35895758867263794, 0.17636418342590332, 0.04443544149398804, -0.836166708066695, 0.02338094182819933, 0.532558431302361,0.12907426545383205,0.5931396484375,1.091796875,0.4700775146484375
20220118-1321,2022-01-18 13:22:05Z,u01, 182,40,movements,el-ex, rt, d,203844.235227625, 2.8141366543578794, -1.121071066832689, 2.9240153951143824, -0.1915619671344757, 2.4959487915039062, -3.454954147338867, 0.1398206651210785, 0.900566577911377, 0.41161876916885376, 0.5227159261703491, 0.19600623846054077, 0.09770438075065613, -0.8401121118047983, 0.004585630903510107, 0.5364182327684897,0.08028752033485789,0.66253662109375,1.0965728759765625,0.5093231201171875
20220118-1321,2022-01-18 13:22:05Z,u01, 183,40,movements,el-ex, rt, d,203844.260171625, 3.057517732663958, -1.1285120580057895, 3.1255471065086295, -0.6108285784721375, 2.4330523014068604, -3.439840793609619, 0.03594215214252472, 0.9037763476371765, 0.42649370431900024, 0.609489381313324, 0.14453309774398804, 0.018315374851226807, -0.844393478020387, -0.01570068187375928, 0.534582470311536,0.031222867075470728,0.622283935546875,1.0408477783203125,0.41937255859375
20220118-1321,2022-01-18 13:22:05Z,u01, 184,40,movements,el-ex, rt, d,203844.285114625, -2.989268104336835, -1.1120672266418699, -2.9629789990538913, -0.4150748550891876, 2.482586622238159, -3.358978033065796, -0.06719017028808594, 0.8966159820556641, 0.4376819133758545, 0.5493984222412109, 0.11797142028808594, -0.04469168186187744, -0.8471000304700989, -0.035531672063384645, 0.529957842098909,-0.017429816819015453,0.482208251953125,1.01458740234375,0.3929901123046875
20220118-1321,2022-01-18 13:22:05Z,u01, 185,40,movements,el-ex, rt, d,203844.310057625, -2.772599123899863, -1.0873110807093258, -2.7898905933546043, 0.06665010750293732, 2.51369047164917, -3.310683250427246, -0.16766704618930817, 0.8853801488876343, 0.43357786536216736, 0.5619999170303345, 0.10120731592178345, -0.007476121187210083, -0.8449258487294162, -0.05375167631123623, 0.528114277300551,-0.06562291253843733,0.37353515625,0.986907958984375,0.4317779541015625
20220118-1321,2022-01-18 13:22:05Z,u01, 186,40,movements,el-ex, rt, d,203844.33500062503, -2.5772645207775904, -1.0526260229796542, -2.6376504633333533, 0.008916765451431274, 2.4516260623931885, -3.1824982166290283, -0.2649056911468506, 0.8687268495559692, 0.41849544644355774, 0.5652749538421631, -0.0037673115730285645, -0.013008415699005127, -0.8391198742626054, -0.07159305930548171, 0.527270906695658,-0.11286099370833427,0.3003692626953125,0.864959716796875,0.405487060546875
20220118-1321,2022-01-18 13:22:05Z,u01, 187,40,movements,el-ex, rt, d,203844.35994362502, -2.4206497406304845, -1.0007754645047635, -2.524441652844791, -0.4972100555896759, 2.3421998023986816, -3.0816619396209717, -0.3562193512916565, 0.8418897390365601, 0.40537628531455994, 0.5785093307495117, -0.09561276435852051, -0.028026282787322998, -0.8336211289183102, -0.08811327965173071, 0.5217141665046445,-0.15851292790526653,0.1904754638671875,0.7329864501953125,0.395782470703125
20220118-1321,2022-01-18 13:22:05Z,u01, 188,40,movements,el-ex, rt, d,203844.38488762503, -2.303978433155874, -0.9391030196729584, -2.4518785600311936, -0.47629886865615845, 2.2414369583129883, -2.7370798587799072, -0.4387792646884918, 0.8070287704467773, 0.3951929211616516, 0.5022405385971069, -0.16474056243896484, -0.15555357933044434, -0.8289411460452827, -0.10224007413819519, 0.5116426219724202,-0.2015574413642469,0.0634613037109375,0.6422882080078125,0.2396392822265625
20220118-1321,2022-01-18 13:22:05Z,u01, 189,40,movements,el-ex, rt, d,203844.40983062502, -2.2024787743818517, -0.8831184138678791, -2.394284919882145, -0.3111020028591156, 2.166524648666382, -2.595329761505127, -0.5122610330581665, 0.7727220058441162, 0.37481871247291565, 0.45682597160339355, -0.05847346782684326, 0.025770366191864014, -0.8211902267976142, -0.11426268889511337, 0.5041276350304911,-0.24175584045331655,-0.0785064697265625,0.7164764404296875,0.4138946533203125
20220118-1321,2022-01-18 13:22:05Z,u01, 190,40,movements,el-ex, rt, d,203844.43477362502, -2.122076226160264, -0.8232263848747648, -2.3577766677672263, -0.8113467693328857, 2.085315704345703, -2.410560131072998, -0.5791409015655518, 0.7333431243896484, 0.35609495639801025, 0.41446810960769653, -0.08089268207550049, -0.02029469609260559, -0.8138752363943262, -0.12511826925737618, 0.4935575560142754,-0.2799168215939912,-0.1646728515625,0.6524505615234375,0.3358001708984375
20220118-1321,2022-01-18 13:22:05Z,u01, 191,40,movements,el-ex, rt, d,203844.45971662502, -2.0601321112289646, -0.7641463713166133, -2.3397152721039824, -0.5208683609962463, 1.9091722965240479, -2.192776679992676, -0.6372461915016174, 0.6919209361076355, 0.33935609459877014, 0.382912814617157, -0.08007413148880005, -0.11962944269180298, -0.8073312515643054, -0.13376954654321055, 0.48071872425748524,-0.31501020651420186,-0.282257080078125,0.6183624267578125,0.20916748046875
20220118-1321,2022-01-18 13:22:05Z,u01, 192,40,movements,el-ex, rt, d,203844.48466062502, -1.999321716923646, -0.7136295798369313, -2.317737843812348, -0.2438785433769226, 1.837707281112671, -2.029231071472168, -0.6876338720321655, 0.6545820236206055, 0.31413689255714417, 0.2690242528915405, 0.0016221404075622559, -0.06341972947120667, -0.797958054832955, -0.14258819395435646, 0.47207977567593,-0.3465143569443984,-0.418609619140625,0.6562042236328125,0.2507171630859375
20220118-1321,2022-01-18 13:22:05Z,u01, 193,40,movements,el-ex, rt, d,203844.50960362502, -1.9370279909149228, -0.6655988501659473, -2.295795176750457, -0.057660460472106934, 2.075235605239868, -2.1013689041137695, -0.7343858480453491, 0.6175302863121033, 0.28166210651397705, 0.18995237350463867, 0.0018543601036071777, 0.004913270473480225, -0.7861751474603922, -0.1508631507732643, 0.4652386199356329,-0.3777854743790422,-0.561187744140625,0.6276702880859375,0.3345184326171875
20220118-1321,2022-01-18 13:22:05Z,u01, 194,40,movements,el-ex, rt, d,203844.53454662501, -1.8746748351304554, -0.6142291293900096, -2.2806432017557876, -0.3171882629394531, 2.1499595642089844, -2.1466307640075684, -0.7797755002975464, 0.576328694820404, 0.244530588388443, 0.18132585287094116, 0.050288617610931396, 0.031043142080307007, -0.7728568209223079, -0.1579798419680966, 0.4568858335987035,-0.4110839074934504,-0.59844970703125,0.626617431640625,0.27557373046875
20220118-1321,2022-01-18 13:22:05Z,u01, 195,40,movements,el-ex, rt, d,203844.559489625, -1.8196286098534982, -0.5592176091612027, -2.2799184620257753, -0.8507882952690125, 2.1512210369110107, -2.0820627212524414, -0.8215627670288086, 0.5305231213569641, 0.20875780284404755, 0.2308797836303711, 0.08268171548843384, 0.11628495156764984, -0.7601528277862226, -0.16293122307555868, 0.444370981977973,-0.4451466194221372,-0.5931243896484375,0.614898681640625,0.2664642333984375
20220118-1321,2022-01-18 13:22:05Z,u01, 196,40,movements,el-ex, rt, d,203844.584432625, -1.7716091009035788, -0.5045405901635375, -2.2874194369099192, -0.6337723731994629, 2.06862211227417, -1.9984055757522583, -0.8578054904937744, 0.48340532183647156, 0.17461174726486206, 0.22772419452667236, -0.04103776812553406, -0.1549888700246811, -0.7479644364653135, -0.16689840359749997, 0.42970484267963494,-0.47754367940702186,-0.6300811767578125,0.4423675537109375,0.019622802734375
20220118-1321,2022-01-18 13:22:05Z,u01, 197,40,movements,el-ex, rt, d,203844.609376625, -1.7223988006010935, -0.4577961668937161, -2.2860412927172606, 0.09933757781982422, 1.8057692050933838, -1.6431879997253418, -0.8867400884628296, 0.4419722855091095, 0.13547144830226898, 0.2537902593612671, -0.20604091882705688, -0.3230323791503906, -0.733590176415072, -0.17199179438487633, 0.41985956236896244,-0.5059468714016366,-0.62896728515625,0.1702728271484375,-0.24700927734375
20220118-1321,2022-01-18 13:22:05Z,u01, 198,40,movements,el-ex, rt, d,203844.634319625, -1.678575553311243, -0.42655157591309967, -2.2770270963971346, -0.029136940836906433, 1.3291865587234497, -0.8998156189918518, -0.9051150679588318, 0.4137338399887085, 0.09793210029602051, 0.3115330934524536, -0.6895212531089783, -0.5683910846710205, -0.7196373520400161, -0.17631826926083044, 0.41653453844406374,-0.5268137973299559,-0.5935821533203125,-0.275787353515625,-0.470458984375
20220118-1321,2022-01-18 13:22:05Z,u01, 199,40,movements,el-ex, rt, d,203844.659262625, -1.6602902213446105, -0.41498427498165635, -2.2856857208095818, -0.5979527235031128, 0.34633082151412964, 0.020225636661052704, -0.9114603996276855, 0.4031755328178406, 0.08178861439228058, 0.36231184005737305, -1.0484697818756104, -0.6783003807067871, -0.7147580813319978, -0.17324892787134577, 0.4123564535636326,-0.5376502969516466,-0.5338592529296875,-0.6905975341796875,-0.625213623046875
20220118-1321,2022-01-18 13:22:05Z,u01, 200,40,movements,el-ex, rt, d,203844.684205625, -1.6738529419351302, -0.42297304448426054, -2.3078383627060326, -0.6336773037910461, -0.6612346768379211, 0.8056240081787109, -0.9070345163345337, 0.4104732871055603, 0.09380824863910675, 0.39507168531417847, -0.6834683418273926, -0.7249269485473633, -0.7207889192047006, -0.1654311257360236, 0.40767323997301125,-0.5356289702611235,-0.511962890625,-0.2729949951171875,-0.6311187744140625
20220118-1321,2022-01-18 13:22:06Z,u01, 201,40,movements,el-ex, rt, d,203844.709149625, -1.7027817248307275, -0.4499286154674196, -2.3177506690938836, 0.10171595215797424, -1.256121277809143, 1.3136940002441406, -0.8926463723182678, 0.43490126729011536, 0.11850520968437195, 0.33472394943237305, -0.44205766916275024, -0.6405082941055298, -0.7307609907245975, -0.15887409910094052, 0.41092991976390425,-0.5214250041389766,-0.5655975341796875,0.0372161865234375,-0.4766082763671875
20220118-1321,2022-01-18 13:22:06Z,u01, 202,40,movements,el-ex, rt, d,203844.734092625, -1.7404480651226693, -0.4887497933412605, -2.3184614241378063, 0.3632722496986389, -1.7034343481063843, 1.771591305732727, -0.870245099067688, 0.4695224165916443, 0.14907152950763702, 0.3074856400489807, -0.38994789123535156, -0.5091941356658936, -0.742216402307647, -0.15378743551361468, 0.4197475932710747,-0.49927575146689374,-0.5627593994140625,0.0795745849609375,-0.3601226806640625
20220118-1321,2022-01-18 13:22:06Z,u01, 203,40,movements,el-ex, rt, d,203844.759035625, -1.7852496758930108, -0.5385844310606482, -2.3173724288885245, 0.44096237421035767, -1.9304426908493042, 2.126634120941162, -0.8387715220451355, 0.5129213333129883, 0.18268658220767975, 0.27236515283584595, -0.3129395842552185, -0.32114481925964355, -0.7546642803609367, -0.1477332683046158, 0.43206532663998193,-0.47114373094329337,-0.5659332275390625,0.2285614013671875,-0.1004486083984375
20220118-1321,2022-01-18 13:22:06Z,u01, 204,40,movements,el-ex, rt, d,203844.78397862503, -1.8354259165235007, -0.59786413572002, -2.317214367023822, 0.706763505935669, -2.080690383911133, 2.5217807292938232, -0.7977675199508667, 0.5628783702850342, 0.21618294715881348, 0.2720564007759094, -0.25324708223342896, -0.2674523591995239, -0.767113220332916, -0.14010275970167585, 0.4469400570568539,-0.4383527891947112,-0.5257110595703125,0.30963134765625,-0.05126953125
20220118-1321,2022-01-18 13:22:06Z,u01, 205,40,movements,el-ex, rt, d,203844.80892162502, -1.8886291635972257, -0.6689961683879468, -2.316375317926897, 0.9619636535644531, -2.2427990436553955, 2.914299249649048, -0.7451556324958801, 0.6201988458633423, 0.2451457381248474, 0.3196491003036499, -0.27380913496017456, -0.26719462871551514, -0.778163129258135, -0.1305182569826957, 0.4657063585923975,-0.40068028691124746,-0.39410400390625,0.3568878173828125,-0.0181884765625
20220118-1321,2022-01-18 13:22:06Z,u01, 206,40,movements,el-ex, rt, d,203844.833865625, -1.948082798088483, -0.749282749801321, -2.320664375781296, 0.80460125207901, -2.2573511600494385, 3.1481213569641113, -0.6806818246841431, 0.6811137795448303, 0.26973357796669006, 0.38575994968414307, -0.1968761682510376, 0.016658753156661987, -0.7879074103571344, -0.11861154978465144, 0.4862369013521367,-0.35875736779185063,-0.294921875,0.4842376708984375,0.2863922119140625
20220118-1321,2022-01-18 13:22:06Z,u01, 207,40,movements,el-ex, rt, d,203844.85880862502, -2.0362823348507555, -0.8235322486345238, -2.3611464969450218, -0.24944432079792023, -2.5271520614624023, 3.237525463104248, -0.6073235273361206, 0.733551025390625, 0.30505868792533875, 0.3934411406517029, -0.12329113483428955, -0.05582156777381897, -0.8012762598836639, -0.1023997076762801, 0.49803644215680987,-0.31532568941994676,-0.1834716796875,0.59722900390625,0.1918487548828125
20220118-1321,2022-01-18 13:22:06Z,u01, 208,40,movements,el-ex, rt, d,203844.88375162502, -2.154335422643089, -0.8954728151748366, -2.4290809255021597, 0.31126868724823, -2.773998975753784, 3.5191314220428467, -0.5216989517211914, 0.7805047631263733, 0.34444573521614075, 0.46809476613998413, -0.19737476110458374, -0.30520007014274597, -0.8155149041071288, -0.08460678430776913, 0.5062699903033135,-0.2673349236754416,-0.0536041259765625,0.5831298828125,0.03924560546875
20220118-1321,2022-01-18 13:22:06Z,u01, 209,40,movements,el-ex, rt, d,203844.90869462502, -2.2718799080157694, -0.9792610925440091, -2.490839831874936, 1.153377890586853, -2.5907082557678223, 3.5131497383117676, -0.426114022731781, 0.8300855755805969, 0.35970091819763184, 0.4319581687450409, -0.025718510150909424, 0.032190531492233276, -0.8217117801286344, -0.06811904802679536, 0.52299557663993,-0.21592856708438418,0.0145111083984375,0.8873138427734375,0.55419921875
20220118-1321,2022-01-18 13:22:06Z,u01, 210,40,movements,el-ex, rt, d,203844.93363862502, -2.4165465199355727, -1.043531165988533, -2.5883419921720203, -0.6921348571777344, -2.4728546142578125, 3.055781126022339, -0.333688348531723, 0.8641864061355591, 0.37660831212997437, 0.485879510641098, 0.39605212211608887, 0.4128052592277527, -0.8280504602438542, -0.051347739943040205, 0.5322676599945044,-0.16848421283415788,0.152191162109375,1.2602386474609375,0.7894134521484375
20220118-1321,2022-01-18 13:22:06Z,u01, 211,40,movements,el-ex, rt, d,203844.95858162502, -2.6111383775078982, -1.0683407771652862, -2.7372479145120394, -0.9115267992019653, -2.7973968982696533, 3.0267326831817627, -0.24364319443702698, 0.8764026761054993, 0.4153995215892792, 0.5593017339706421, 0.12561166286468506, 0.013921946287155151, -0.840476433059189, -0.03604333424923506, 0.5266198634584249,-0.12235972251601812,0.3250885009765625,0.9770660400390625,0.353759765625
20220118-1321,2022-01-18 13:22:06Z,u01, 212,40,movements,el-ex, rt, d,203844.98352462501, -2.821499394788268, -1.0958926196599532, -2.8946015612976597, 0.6160215139389038, -2.816988706588745, 3.2365059852600098, -0.14387696981430054, 0.8893367648124695, 0.4340272843837738, 0.25218385457992554, 0.022970974445343018, -0.26050424575805664, -0.8464956792226676, -0.021417588324325332, 0.5271177341423501,-0.07164702230317244,0.108306884765625,0.9123077392578125,0.17352294921875
20220118-1321,2022-01-18 13:22:06Z,u01, 213,40,movements,el-ex, rt, d,203845.008467625, -3.0428631590533524, -1.1488275489548887, -3.0698215998440865, 2.1145858764648438, -2.2444870471954346, 3.5072243213653564, -0.04036976769566536, 0.9122843742370605, 0.4075632393360138, 0.13602712750434875, -0.133170485496521, 0.08644014596939087, -0.8389104872813795, -0.003289321405800183, 0.5438176393245875,-0.021928552493925668,0.1230010986328125,0.783416748046875,0.65771484375
20220118-1321,2022-01-18 13:22:06Z,u01, 214,40,movements,el-ex, rt, d,203845.033410625, 2.988152706800317, -1.1809851123585935, 2.994446124019654, 0.29115530848503113, -1.9141244888305664, 3.3269946575164795, 0.058080751448869705, 0.9249808192253113, 0.3755490183830261, 0.4908541738986969, 0.19592976570129395, 0.32702669501304626, -0.8291192968622749, 0.018322052731217398, 0.5583106067665919,0.022687904544794968,0.5489349365234375,1.12091064453125,0.70257568359375
20220118-1321,2022-01-18 13:22:06Z,u01, 215,40,movements,el-ex, rt, d,203845.0583541667, 2.7700665023647675, -1.141589007448183, 2.814542924747228, -1.5075902938842773, -2.29587459564209, 3.0434248447418213, 0.15107832849025726, 0.909295916557312, 0.3877582252025604, 0.775877833366394, 0.06250584125518799, 0.09159672260284424, -0.8322083265225158, 0.036171942156109305, 0.549222778873024,0.06689756770182093,0.945648193359375,0.998199462890625,0.469879150390625
20220118-1321,2022-01-18 13:22:06Z,u01, 216,40,movements,el-ex, rt, d,203845.08329716668, 2.5956139898051185, -1.0841140012224444, 2.688378035094507, -0.39625105261802673, -2.434627056121826, 3.0546088218688965, 0.24285343289375305, 0.883889377117157, 0.399702250957489, 0.36549925804138184, 0.3190067410469055, 0.01643550395965576, -0.8350873243084005, 0.049802471530717096, 0.5359850787326486,0.11344122959496603,0.6083526611328125,1.2028961181640625,0.4161376953125
20220118-1321,2022-01-18 13:22:06Z,u01, 217,40,movements,el-ex, rt, d,203845.10824016668, 2.416359873050777, -1.045055438620519, 2.5488083569109787, 0.8876014351844788, -2.1543028354644775, 3.112682819366455, 0.33288460969924927, 0.8649523854255676, 0.3755599558353424, 0.11032217741012573, 0.0459362268447876, 0.17947861552238464, -0.8265876197342993, 0.06732671837598708, 0.5360514726094512,0.157698613096596,0.47119140625,0.9473114013671875,0.51556396484375
20220118-1321,2022-01-18 13:22:06Z,u01, 218,40,movements,el-ex, rt, d,203845.13318316668, 2.251074851532942, -1.0014643973533333, 2.4144257212342812, 0.5433679819107056, -1.9916995763778687, 3.1962890625, 0.4190713167190552, 0.8422613143920898, 0.3390798568725586, 0.3334921896457672, 0.14095395803451538, 0.14889630675315857, -0.8134754522563589, 0.08830415137387032, 0.5392991440829655,0.19903894766041666,0.7525634765625,0.98321533203125,0.48797607421875
20220118-1321,2022-01-18 13:22:06Z,u01, 219,40,movements,el-ex, rt, d,203845.15812716668, 2.13729324726738, -0.9397563660547894, 2.3395432146203405, -0.6623489856719971, -2.1313602924346924, 2.8827898502349854, 0.4978211224079132, 0.8074144124984741, 0.31663280725479126, 0.41709595918655396, 0.16768336296081543, 0.0898156464099884, -0.8046156104935064, 0.10445152699545807, 0.5329172952208984,0.2401724850789369,0.932830810546875,0.9826507568359375,0.3961029052734375
20220118-1321,2022-01-18 13:22:06Z,u01, 220,40,movements,el-ex, rt, d,203845.18307016668, 2.0617352235528252, -0.8689741995929323, 2.311774350279024, -0.8321183919906616, -2.10205340385437, 2.780116558074951, 0.5693578124046326, 0.7636670470237732, 0.30437570810317993, 0.290841281414032, 0.24997437000274658, 0.05502989888191223, -0.7992649469989108, 0.11560015296736675, 0.518401385223322,0.2811978965100172,0.860198974609375,1.013641357421875,0.359405517578125
20220118-1321,2022-01-18 13:22:06Z,u01, 221,40,movements,el-ex, rt, d,203845.20801316667, 1.9866800904437463, -0.802059456775442, 2.282678341561279, -0.1788356602191925, -2.172750949859619, 2.6870803833007812, 0.6359663009643555, 0.7187893986701965, 0.2808710038661957, 0.19727033376693726, 0.20162063837051392, 0.1337561309337616, -0.7900603944333822, 0.1274365298953768, 0.5066336775210789,0.32075967661257854,0.8369293212890625,0.94677734375,0.4168243408203125
20220118-1321,2022-01-18 13:22:06Z,u01, 222,40,movements,el-ex, rt, d,203845.23295616667, 1.914424154880001, -0.7376329732795871, 2.2558958814753143, -0.45052552223205566, -2.1060497760772705, 2.6098475456237793, 0.6967975497245789, 0.6725380420684814, 0.2493308186531067, 0.21222954988479614, 0.19260478019714355, 0.10677886009216309, -0.7779974863419075, 0.13923118846635002, 0.49646486644667287,0.3589669380510622,0.909027099609375,0.865142822265625,0.356109619140625
20220118-1321,2022-01-18 13:22:06Z,u01, 223,40,movements,el-ex, rt, d,203845.25789916667, 1.860859755516931, -0.6728245286323215, 2.25418575102519, -1.0534634590148926, -2.124006509780884, 2.3625009059906006, 0.7493945360183716, 0.6231974363327026, 0.22368067502975464, 0.2335919737815857, 0.18020838499069214, 0.15241804718971252, -0.768302414612607, 0.1468051120702228, 0.48118684249678145,0.3957511784520002,0.990264892578125,0.8010101318359375,0.3721771240234375
20220118-1321,2022-01-18 13:22:06Z,u01, 224,40,movements,el-ex, rt, d,203845.28284316667, 1.8182357259356043, -0.6102921437826502, 2.2695489299787233, -1.104581594467163, -1.9619038105010986, 2.2160778045654297, 0.7945213317871094, 0.5731068849563599, 0.20070892572402954, 0.14677798748016357, 0.22541594505310059, 0.19074007868766785, -0.7600710463844726, 0.1504874242970919, 0.4623663698656171,0.4311180518793007,0.9412994384765625,0.79852294921875,0.391448974609375
20220118-1321,2022-01-18 13:22:06Z,u01, 225,40,movements,el-ex, rt, d,203845.30778616667, 1.7739414911065088, -0.5553146156917204, 2.27565704815985, -0.27908793091773987, -1.8659383058547974, 1.9061148166656494, 0.8322615027427673, 0.5272106528282166, 0.1714346557855606, 0.10563528537750244, 0.27637815475463867, 0.26293742656707764, -0.7493398547202927, 0.15558635154623185, 0.44778296933057904,0.4623560575988811,0.9390869140625,0.8260040283203125,0.422119140625
20220118-1321,2022-01-18 13:22:06Z,u01, 226,40,movements,el-ex, rt, d,203845.33272916666, 1.7279244065114956, -0.5104728935237901, 2.270244463892528, -0.15870828926563263, -1.5388365983963013, 1.6526098251342773, 0.8617648482322693, 0.48858991265296936, 0.1365329474210739, 0.04802519083023071, 0.35339003801345825, 0.25998198986053467, -0.7362502810282556, 0.16187030496461147, 0.43924692315900987,0.4886672504874406,0.9097900390625,0.84197998046875,0.396514892578125
20220118-1321,2022-01-18 13:22:06Z,u01, 227,40,movements,el-ex, rt, d,203845.3576721667, 1.694753738358228, -0.4731325450987463, 2.27234151544705, -0.3802407681941986, -1.2002257108688354, 1.2868281602859497, 0.8833152055740356, 0.45567694306373596, 0.11005774140357971, 0.01759415864944458, 0.30605700612068176, 0.3235207796096802, -0.726248898490951, 0.16610661599022114, 0.4303013767594956,0.5097174008917156,0.89892578125,0.7557830810546875,0.4362335205078125
20220118-1321,2022-01-18 13:22:06Z,u01, 228,40,movements,el-ex, rt, d,203845.38261616667, 1.6724478083336602, -0.4445177930417766, 2.2812381962174055, -0.4348497688770294, -0.9063758254051208, 0.8943651914596558, 0.8981575965881348, 0.43002259731292725, 0.09161482006311417, -0.043970704078674316, 0.411743700504303, 0.3610372543334961, -0.7195294561393341, 0.16758512300391604, 0.4213315565074295,0.5259964104438458,0.85418701171875,0.841766357421875,0.4526519775390625
20220118-1321,2022-01-18 13:22:06Z,u01, 229,40,movements,el-ex, rt, d,203845.4075591667, 1.6580821006495465, -0.42733293876205536, 2.2905064851432213, -0.38980045914649963, -0.5640002489089966, 0.4222036302089691, 0.9066095948219299, 0.41444504261016846, 0.07933570444583893, -0.10076254606246948, 0.4593494236469269, 0.3821359872817993, -0.7153957266328421, 0.16696348602416966, 0.4149431146341275,0.5368000241783222,0.79644775390625,0.8643035888671875,0.4574737548828125
20220118-1321,2022-01-18 13:22:06Z,u01, 230,40,movements,el-ex, rt, d,203845.4325021667, 1.6542325571869512, -0.42137354727170095, 2.3032988326681814, -0.5768859386444092, -0.17319737374782562, 0.0016929004341363907, 0.9093536138534546, 0.4090142250061035, 0.07604959607124329, -0.15256333351135254, 0.4571051597595215, 0.4141542911529541, -0.7150286449825839, 0.1635812753804033, 0.4100276791615165,0.5420817034802138,0.7567901611328125,0.866119384765625,0.490203857421875
20220118-1321,2022-01-18 13:22:06Z,u01, 231,40,movements,el-ex, rt, d,203845.45744516668, 1.6618690174355888, -0.42548570707058203, 2.319565292387847, -0.5628991723060608, 0.24879667162895203, -0.46187669038772583, 0.9070636034011841, 0.41276323795318604, 0.08283787965774536, -0.15489685535430908, 0.4770224988460541, 0.4225790500640869, -0.7186615985660094, 0.15793810693299448, 0.40624455899038514,0.5417992548610677,0.7611083984375,0.897674560546875,0.502197265625
20220118-1321,2022-01-18 13:22:06Z,u01, 232,40,movements,el-ex, rt, d,203845.48238816668, 1.6807871453237184, -0.4412202238470823, 2.336349618298867, -0.4852556884288788, 0.6940179467201233, -0.8947992324829102, 0.8987669348716736, 0.4270431399345398, 0.09925670176744461, -0.06290584802627563, 0.44475239515304565, 0.40397822856903076, -0.7259358223935948, 0.15048432895523467, 0.40505211997453733,0.5350741220806303,0.8358612060546875,0.871795654296875,0.50323486328125
20220118-1321,2022-01-18 13:22:06Z,u01, 233,40,movements,el-ex, rt, d,203845.5073321667, 1.7090258834516838, -0.46675781571233094, 2.349708029726031, -0.16281887888908386, 1.116161584854126, -1.2563682794570923, 0.884513795375824, 0.4499932825565338, 0.12305067479610443, -0.0626295804977417, 0.4186590313911438, 0.3981437683105469, -0.7355957174046504, 0.1429135350889933, 0.4073031905087057,0.522090800285891,0.8079681396484375,0.8626251220703125,0.5283203125
20220118-1321,2022-01-18 13:22:06Z,u01, 234,40,movements,el-ex, rt, d,203845.53227516668, 1.7458662424828388, -0.5023851809727828, 2.3570489886376005, 0.01908108778297901, 1.5495283603668213, -1.6288113594055176, 0.8630397319793701, 0.48151737451553345, 0.15265507996082306, -0.04663342237472534, 0.4039958715438843, 0.3631225824356079, -0.7468565168243229, 0.1361355434193247, 0.41392674135154617,0.5023317165949478,0.81640625,0.8855133056640625,0.515777587890625
20220118-1321,2022-01-18 13:22:06Z,u01, 235,40,movements,el-ex, rt, d,203845.55721816668, 1.7931416366574817, -0.5461891282334236, 2.367777929546396, -0.09091788530349731, 1.7852572202682495, -1.9554945230484009, 0.8334749341011047, 0.5194345712661743, 0.18843477964401245, 0.04915463924407959, 0.32906097173690796, 0.3402060866355896, -0.7601691696452026, 0.12790708018371044, 0.4219545844903077,0.47721811929171754,0.890045166015625,0.8580169677734375,0.5341339111328125
20220118-1321,2022-01-18 13:22:06Z,u01, 236,40,movements,el-ex, rt, d,203845.58216116668, 1.8508177812962767, -0.5949971420017783, 2.3886955078253176, -0.31102314591407776, 1.9238932132720947, -2.191699504852295, 0.795893132686615, 0.5605064034461975, 0.22888100147247314, 0.11125707626342773, 0.30948859453201294, 0.35235685110092163, -0.7751109132354524, 0.11680569917696548, 0.4291867736633834,0.44872945949866616,0.9071502685546875,0.8699951171875,0.58123779296875
20220118-1321,2022-01-18 13:22:06Z,u01, 237,40,movements,el-ex, rt, d,203845.60710416667, 1.9230387976249885, -0.6461070375416583, 2.4256730879634074, -0.7319625020027161, 2.149881601333618, -2.451261520385742, 0.7494111061096191, 0.6020827293395996, 0.27546241879463196, 0.15722042322158813, 0.2416520118713379, 0.39677882194519043, -0.7920016287890518, 0.10229678383506313, 0.43397031238695394,0.4170594711451221,0.908599853515625,0.8362884521484375,0.6875762939453125
20220118-1321,2022-01-18 13:22:06Z,u01, 238,40,movements,el-ex, rt, d,203845.63204816668, 2.019225711516649, -0.6956405783899038, 2.4863150873822426, -1.1542993783950806, 2.5680510997772217, -2.654315233230591, 0.691745936870575, 0.6408773064613342, 0.33281242847442627, 0.25542813539505005, 0.26814979314804077, 0.31570151448249817, -0.811963429296465, 0.08438957281979664, 0.43422845774015745,0.3808405850911424,0.947174072265625,0.909027099609375,0.6485137939453125
20220118-1321,2022-01-18 13:22:06Z,u01, 239,40,movements,el-ex, rt, d,203845.65699116667, 2.1346111213916674, -0.7433727540936487, 2.5554258902609694, -0.5371012091636658, 2.9891648292541504, -2.7297861576080322, 0.6222445368766785, 0.6767747402191162, 0.3934306502342224, 0.33587008714675903, 0.3371259570121765, 0.25261133909225464, -0.8319191553497145, 0.06801352913927206, 0.43442630233241564,0.3384648685758483,0.9557342529296875,1.032745361328125,0.663848876953125
20220118-1321,2022-01-18 13:22:06Z,u01, 240,40,movements,el-ex, rt, d,203845.68193416667, 2.255538887452076, -0.7971982009132793, 2.6171201297289963, 0.10740871727466583, 3.24006724357605, -2.847344398498535, 0.5412110090255737, 0.7154012322425842, 0.4419179856777191, 0.387393057346344, 0.3305581212043762, 0.28322547674179077, -0.8472994898702664, 0.05515947131869664, 0.4410875156591058,0.29065913489528916,0.9286041259765625,1.04595947265625,0.7251434326171875
20220118-1321,2022-01-18 13:22:07Z,u01, 241,40,movements,el-ex, rt, d,203845.70687716667, 2.3881295018386, -0.8523929714199355, 2.686462219618491, 0.06441514194011688, 3.3090782165527344, -2.9586708545684814, 0.45030850172042847, 0.7528575658798218, 0.4800289571285248, 0.48072177171707153, 0.2581897974014282, 0.2580540180206299, -0.8591729260729986, 0.042852734746778365, 0.450080247638662,0.2396107667035432,0.9209747314453125,0.982421875,0.7355194091796875
20220118-1321,2022-01-18 13:22:07Z,u01, 242,40,movements,el-ex, rt, d,203845.73182116667, 2.541745996518183, -0.9000818702993136, 2.7778708318828866, 0.04288528487086296, 3.3501689434051514, -3.080113172531128, 0.350872665643692, 0.7833778262138367, 0.5130379796028137, 0.47859522700309753, 0.22856992483139038, 0.1289910078048706, -0.8692913421294894, 0.029181243693932046, 0.4568440811328517,0.18647955141265152,0.8294677734375,1.0119476318359375,0.64202880859375
20220118-1321,2022-01-18 13:22:07Z,u01, 243,40,movements,el-ex, rt, d,203845.75676416667, 2.7131161641246155, -0.94215945818915, 2.88760341073137, 0.3269639015197754, 3.375648021697998, -3.2255468368530273, 0.24432313442230225, 0.8088298439979553, 0.5348833203315735, 0.527588427066803, 0.25325798988342285, 0.07914555072784424, -0.8759163852632406, 0.014565540677701716, 0.4638958478801684,0.13175306851439822,0.7489166259765625,1.0609588623046875,0.6302490234375
20220118-1321,2022-01-18 13:22:07Z,u01, 244,40,movements,el-ex, rt, d,203845.78170716667, 2.902952755589904, -0.9817906536816156, 3.0168185604678937, 0.648133397102356, 3.311715602874756, -3.387547731399536, 0.13131792843341827, 0.8314934968948364, 0.5397907495498657, 0.5594169497489929, 0.20816397666931152, 0.12492793798446655, -0.8774356807372614, -0.001413551461296736, 0.473698403308645,0.07559364708529376,0.69073486328125,1.0396575927734375,0.6647186279296875
20220118-1321,2022-01-18 13:22:07Z,u01, 245,40,movements,el-ex, rt, d,203845.8066501667, 3.1108229357105572, -1.0080054201165407, -3.1154053562701076, 0.46853819489479065, 3.1723861694335938, -3.3872547149658203, 0.016414549201726913, 0.8457693457603455, 0.5332960486412048, 0.6510353684425354, 0.08538287878036499, 0.07215750217437744, -0.8753805298531226, -0.018892799983119768, 0.4826594936409927,0.01979260793864185,0.649749755859375,0.89056396484375,0.596893310546875
20220118-1321,2022-01-18 13:22:07Z,u01, 246,40,movements,el-ex, rt, d,203845.8315931667, -2.959415367450504, -1.0089942801189986, -2.955736826989758, 0.15247003734111786, 3.088324785232544, -3.3987576961517334, -0.09651213884353638, 0.846296489238739, 0.5238966345787048, 0.6192629933357239, 0.02011275291442871, 0.04238772392272949, -0.8721069644809938, -0.03711823503934264, 0.4866756861183421,-0.03461906363218084,0.5227508544921875,0.8664093017578125,0.5662841796875
20220118-1321,2022-01-18 13:22:07Z,u01, 247,40,movements,el-ex, rt, d,203845.8565371667, -2.7571012717779153, -0.9870546441271422, -2.806273305541024, 0.03023224137723446, 3.0412800312042236, -3.353760004043579, -0.20672960579395294, 0.8344062566757202, 0.5109102129936218, 0.6571385264396667, 0.03655022382736206, 0.09536737203598022, -0.8674266695606629, -0.055009841140141735, 0.4865665764252316,-0.08830585483988657,0.434112548828125,0.868408203125,0.606536865234375
20220118-1321,2022-01-18 13:22:07Z,u01, 248,40,movements,el-ex, rt, d,203845.8814801667, -2.573582210959399, -0.9506176688173523, -2.6741507881790523, 0.20211972296237946, 2.9608523845672607, -3.271885633468628, -0.3126494884490967, 0.8137746453285217, 0.48991939425468445, 0.6878325939178467, 0.08298426866531372, -0.006627708673477173, -0.8600230127481874, -0.07293907274430855, 0.4850391824962099,-0.14063162707778687,0.37518310546875,0.896759033203125,0.4832916259765625
20220118-1321,2022-01-18 13:22:07Z,u01, 249,40,movements,el-ex, rt, d,203845.90642316669, -2.4076259261856023, -0.9081053691536354, -2.5568769066852575, 0.3964084982872009, 2.8346548080444336, -3.2624847888946533, -0.41210052371025085, 0.7883394956588745, 0.45683032274246216, 0.6755740642547607, 0.06720548868179321, -0.01279953122138977, -0.848600144544928, -0.09106569410803861, 0.4849660388546052,-0.19076887261146022,0.2279205322265625,0.82275390625,0.44921875
20220118-1321,2022-01-18 13:22:07Z,u01, 250,40,movements,el-ex, rt, d,203845.93136616668, -2.265911456864547, -0.8538418658161999, -2.4627393750066577, -0.09869897365570068, 2.721920967102051, -3.1967885494232178, -0.5046334862709045, 0.7538104057312012, 0.4208502769470215, 0.5859018564224243, -0.05593448877334595, 0.060152649879455566, -0.8357984179019611, -0.10893179726969071, 0.4821086430448772,-0.23905261071616749,0.081268310546875,0.6978759765625,0.4810028076171875
20220118-1321,2022-01-18 13:22:07Z,u01, 251,40,movements,el-ex, rt, d,203845.95630916668, -2.153478460042036, -0.7870399746899348, -2.401724415634157, -0.382305383682251, 2.6944754123687744, -3.0757524967193604, -0.5894566774368286, 0.7082667350769043, 0.3884570598602295, 0.5878087878227234, -0.00025904178619384766, 0.09274408221244812, -0.8238558375287881, -0.12445916151563163, 0.47309565253934666,-0.28627248366284175,-0.0195770263671875,0.7346954345703125,0.4788970947265625
20220118-1321,2022-01-18 13:22:07Z,u01, 252,40,movements,el-ex, rt, d,203845.98125316668, -2.0560302633956633, -0.7192757241556138, -2.356042838601258, -0.11505697667598724, 2.6276979446411133, -2.9091668128967285, -0.6654439568519592, 0.658840000629425, 0.3508763611316681, 0.5507588982582092, 0.056583523750305176, -0.015854358673095703, -0.8100387284477308, -0.13883601883301733, 0.46345728737284647,-0.331314308558646,-0.11468505859375,0.715423583984375,0.33502197265625
20220118-1321,2022-01-18 13:22:07Z,u01, 253,40,movements,el-ex, rt, d,203846.00619616668, -1.9705289990641273, -0.6516993798832643, -2.3236601436590423, -0.4487348794937134, 2.603804111480713, -2.843254327774048, -0.732376217842102, 0.6065383553504944, 0.30941295623779297, 0.5400086045265198, 0.03848111629486084, 0.05780506134033203, -0.7947993365295327, -0.15165911648781216, 0.452987604197288,-0.3742937356887276,-0.2108306884765625,0.6218719482421875,0.387054443359375
20220118-1321,2022-01-18 13:22:07Z,u01, 254,40,movements,el-ex, rt, d,203846.03113916668, -1.8990870142520173, -0.5791411716283813, -2.3117976489258227, -0.6794446110725403, 2.5261964797973633, -2.800438642501831, -0.7922362685203552, 0.5473053455352783, 0.26984843611717224, 0.4328461289405823, 0.029995501041412354, 0.034717023372650146, -0.7801730441127748, -0.16203162266049698, 0.4373436957918807,-0.4169006203956628,-0.3593902587890625,0.577301025390625,0.3045654296875
