SessionID,LoggingTime,UID,RecNo,Hertz,Activity,MoveType,Wrist,Side,TimeStamp,DMRoll,DMPitch,DMYaw,DMRotX,DMRotY,DMRotZ,DMGrvX,DMGrvY,DMGrvZ,DMUAccelX,DMUAccelY,DMUAccelZ,DMQuatX,DMQuatY,DMQuatW,DMQuatZ,AccelroX,AceelroY,AceelroZ
20220118-1828,2022-01-18 18:28:43Z,u01, 1,40,movements,el-ex, rt, d,211440.72255279167, 1.8020035275674051, -0.4493586066988707, 2.7835015569765122, -0.010570285841822624, 2.082023859024048, -1.747722864151001, 0.876758337020874, 0.4343878924846649, 0.206403911113739, 0.07206392288208008, 0.33358705043792725, 0.41108909249305725, -0.7766607741425854, 1.3877787807814457e-17, 0.27965098689430234,0.5644409952736086,0.935394287109375,0.7676239013671875,0.6100006103515625
20220118-1828,2022-01-18 18:28:43Z,u01, 2,40,movements,el-ex, rt, d,211440.7474977917, 1.8651065077681745, -0.49480264643656674, 2.7993022970497745, -0.18366965651512146, 2.3822176456451416, -2.0421998500823975, 0.842222273349762, 0.47485798597335815, 0.25528839230537415, 0.15918177366256714, 0.2757067084312439, 0.36620238423347473, -0.7921615509309389, -0.011148108615103874, 0.29218388728092337,0.5357094580805218,1.00140380859375,0.7505645751953125,0.621490478515625
20220118-1828,2022-01-18 18:28:43Z,u01, 3,40,movements,el-ex, rt, d,211440.77244279167, 1.941798669984343, -0.5423722344458569, 2.826301885023536, -0.26109644770622253, 2.6802875995635986, -2.153210163116455, 0.7982150912284851, 0.5161692500114441, 0.3105190396308899, 0.2059200406074524, 0.26532483100891113, 0.3127111792564392, -0.809109876157724, -0.02450964170440939, 0.30375267128769684,0.5024687218075256,1.0111846923828125,0.76806640625,0.6189117431640625
20220118-1828,2022-01-18 18:28:43Z,u01, 4,40,movements,el-ex, rt, d,211440.79738779168, 2.0277301460783024, -0.5924087747398722, 2.8554958245220696, 0.09955242276191711, 2.9539268016815186, -2.300645351409912, 0.7444896101951599, 0.5583609342575073, 0.3660176694393158, 0.23472803831100464, 0.29971712827682495, 0.30652907490730286, -0.8256163399309612, -0.03696616603054023, 0.3173245925694268,0.46507688186347784,0.979217529296875,0.8580780029296875,0.67254638671875
20220118-1828,2022-01-18 18:28:43Z,u01, 5,40,movements,el-ex, rt, d,211440.8223327917, 2.120999992844977, -0.6475674653150507, 2.885644412533064, 0.2128601372241974, 3.0841140747070312, -2.5199413299560547, 0.6798491477966309, 0.603248119354248, 0.4170095920562744, 0.35133975744247437, 0.26769304275512695, 0.26804929971694946, -0.8403260007229092, -0.04854909383436346, 0.3344501081781699,0.4238376943712117,1.0193634033203125,0.882965087890625,0.68072509765625
20220118-1828,2022-01-18 18:28:43Z,u01, 6,40,movements,el-ex, rt, d,211440.84727779168, 2.2274941682611544, -0.7018183763632938, 2.9292015936823694, -0.015856560319662094, 3.2468526363372803, -2.626922845840454, 0.6048360466957092, 0.6456074118614197, 0.4662241041660309, 0.40247291326522827, 0.1809154748916626, 0.2511070966720581, -0.8540063795159925, -0.061523663848772, 0.3506565577979252,0.37937855695418926,1.0073089599609375,0.8265228271484375,0.7173309326171875
20220118-1828,2022-01-18 18:28:43Z,u01, 7,40,movements,el-ex, rt, d,211440.8722227917, 2.3500101902854467, -0.7504928958579182, 2.989575407763672, -0.04524214565753937, 3.0695221424102783, -2.4719157218933105, 0.520332932472229, 0.6819993257522583, 0.5139366388320923, 0.23129969835281372, 0.2263258695602417, 0.2537028193473816, -0.8667395174990348, -0.07570283393723101, 0.36443076904736016,0.3319969884517484,0.976654052734375,0.869781494140625,0.7302703857421875
20220118-1828,2022-01-18 18:28:43Z,u01, 8,40,movements,el-ex, rt, d,211440.8971669167, 2.4819339991545126, -0.7981661279071245, 3.057870393453706, 0.31737256050109863, 3.371368408203125, -2.797732353210449, 0.4277805984020233, 0.7160772085189819, 0.5515777468681335, 0.3529658913612366, 0.23132586479187012, 0.16355639696121216, -0.8762542865364242, -0.08925975022364174, 0.37979542892599827,0.28278406015156526,0.7807464599609375,0.9474029541015625,0.7151336669921875
20220118-1828,2022-01-18 18:28:43Z,u01, 9,40,movements,el-ex, rt, d,211440.92211191668, 2.6214879137962845, -0.8464175525409521, 3.1347002710358476, 0.5127912163734436, 3.3213095664978027, -2.828357458114624, 0.32932808995246887, 0.7489112615585327, 0.575043797492981, 0.49040448665618896, 0.14601671695709229, 0.06039351224899292, -0.8814775071403107, -0.10256362887976012, 0.3976850216353404,0.23307692914475397,0.8450775146484375,0.9143829345703125,0.6386260986328125
20220118-1828,2022-01-18 18:28:43Z,u01, 10,40,movements,el-ex, rt, d,211440.9470569167, 2.7755625227300142, -0.8893159711500381, -3.056180113924761, 0.535882830619812, 3.354839324951172, -2.97891902923584, 0.22546404600143433, 0.7766410112380981, 0.5882135033607483, 0.4935605525970459, 0.09825223684310913, 0.10386443138122559, -0.8835297557038028, -0.11611171791795351, 0.41556530826590665,0.18220555150659418,0.719024658203125,0.8748931884765625,0.69207763671875
20220118-1828,2022-01-18 18:28:43Z,u01, 11,40,movements,el-ex, rt, d,211440.97200191667, 2.9480189958949756, -0.9224026365967412, -2.9443608507311922, 0.41556185483932495, 3.413851499557495, -3.043517589569092, 0.11617177724838257, 0.7970548868179321, 0.592627763748169, 0.48754215240478516, 0.13789695501327515, 0.19300150871276855, -0.8827625997624069, -0.13055297201348082, 0.43226903750019907,0.12972898564940621,0.6209716796875,0.9257659912109375,0.77947998046875
20220118-1828,2022-01-18 18:28:44Z,u01, 12,40,movements,el-ex, rt, d,211440.99694691668, 3.1324858183152213, -0.9364164847258171, -2.818176039298348, 0.061482734978199005, 3.28913950920105, -3.126446485519409, 0.0053973509930074215, 0.8054394125938416, 0.5926539301872253, 0.5675548315048218, 0.12227976322174072, 0.14353716373443604, -0.8803961831894854, -0.14570353691568805, 0.4447415450668714,0.07666899611308343,0.5729522705078125,0.9277191162109375,0.7361907958984375
20220118-1828,2022-01-18 18:28:44Z,u01, 13,40,movements,el-ex, rt, d,211441.02189191667, -2.960226113561444, -0.9261935088220689, -2.68652642765652, -0.34959477186203003, 3.5478415489196777, -3.3788952827453613, -0.10838329046964645, 0.7993384599685669, 0.5910257697105408, 0.5960235595703125, 0.24411851167678833, 0.3431939482688904, -0.8771581795411818, -0.16157476120517378, 0.45169495074758165,0.021422429028449284,0.501373291015625,0.991912841796875,0.90869140625
20220118-1828,2022-01-18 18:28:44Z,u01, 14,40,movements,el-ex, rt, d,211441.04683691668, -2.770181307766942, -0.886810118053809, -2.558649745142958, -0.6589184403419495, 3.5801470279693604, -3.5223212242126465, -0.22933168709278107, 0.7750600576400757, 0.5888033509254456, 0.6672587990760803, 0.3014780879020691, 0.19156193733215332, -0.8730840388193983, -0.1792371323365139, 0.4517848591130506,-0.038586456321547564,0.43792724609375,1.0765380859375,0.780364990234375
20220118-1828,2022-01-18 18:28:44Z,u01, 15,40,movements,el-ex, rt, d,211441.0717819167, -2.5898883105359496, -0.8412462358428212, -2.4429840621370578, 0.17208325862884521, 3.754457712173462, -3.5115673542022705, -0.34935712814331055, 0.7454743385314941, 0.5676425695419312, 0.559836745262146, 0.17867422103881836, 0.06880176067352295, -0.8633454083221338, -0.19610197539676255, 0.4542562863727459,-0.09914688621866724,0.2487030029296875,0.94561767578125,0.659698486328125
20220118-1828,2022-01-18 18:28:44Z,u01, 16,40,movements,el-ex, rt, d,211441.09672691667, -2.410854191946197, -0.7985227857441503, -2.326455212965631, 0.6176079511642456, 3.803931474685669, -3.6375606060028076, -0.4657028317451477, 0.716326117515564, 0.5196136236190796, 0.5937544107437134, 0.1762368083000183, 0.09531587362289429, -0.845097935777073, -0.21357972075628567, 0.4638221138877762,-0.15831114089855056,0.1280517578125,0.8925628662109375,0.61492919921875
20220118-1828,2022-01-18 18:28:44Z,u01, 17,40,movements,el-ex, rt, d,211441.12167191668, -2.2524808829797265, -0.7356125249139819, -2.2323038654708514, -0.16860122978687286, 3.6033895015716553, -3.671534776687622, -0.5757218599319458, 0.6710414290428162, 0.46717026829719543, 0.6810836791992188, -0.06361955404281616, 0.016350388526916504, -0.8247524836527221, -0.23101619068392215, 0.46786945075645675,-0.21797511928686228,0.1168060302734375,0.662078857421875,0.5333404541015625
20220118-1828,2022-01-18 18:28:44Z,u01, 18,40,movements,el-ex, rt, d,211441.14661691667, -2.127849362832486, -0.6571061705630202, -2.1758902273350453, -0.6927328705787659, 3.431762456893921, -3.5000853538513184, -0.6720620393753052, 0.610828161239624, 0.4185950458049774, 0.6879615783691406, -0.037631869316101074, 0.04424998164176941, -0.8056275885161189, -0.2454826004101824, 0.4631903803708458,-0.275966021426232,0.015899658203125,0.5731964111328125,0.4628448486328125
20220118-1828,2022-01-18 18:28:44Z,u01, 19,40,movements,el-ex, rt, d,211441.17156191668, -2.0217542594114555, -0.5752401322649797, -2.140286991851257, -0.37132391333580017, 3.4491124153137207, -3.38557505607605, -0.755180835723877, 0.5440362691879272, 0.3656865656375885, 0.6359180808067322, 0.08248955011367798, 0.0436306893825531, -0.7850925969470535, -0.2578233838598068, 0.4553183464632166,-0.3314242319996215,-0.1043701171875,0.607696533203125,0.4152679443359375
20220118-1828,2022-01-18 18:28:44Z,u01, 20,40,movements,el-ex, rt, d,211441.1965069167, -1.920525325780041, -0.4975405377453359, -2.1060878371544383, 0.19735857844352722, 3.2768163681030273, -3.2705633640289307, -0.8255642652511597, 0.47726571559906006, 0.3011009693145752, 0.6702141761779785, 0.014906525611877441, -0.0833577811717987, -0.7598987059728397, -0.2703783218494811, 0.4503019281817248,-0.38298557747739453,-0.1553497314453125,0.4921722412109375,0.217742919921875
20220118-1828,2022-01-18 18:28:44Z,u01, 21,40,movements,el-ex, rt, d,211441.22145191667, -1.828644251014608, -0.42228462110962917, -2.0761170131293363, 0.03436216711997986, 2.973517417907715, -3.0430402755737305, -0.8820002675056458, 0.4098454415798187, 0.23259977996349335, 0.6668359041213989, -0.1900884211063385, -0.19603955745697021, -0.7321838135614893, -0.2832079670227991, 0.44610726211335405,-0.4297541239047552,-0.204681396484375,0.3037567138671875,0.061767578125
20220118-1828,2022-01-18 18:28:44Z,u01, 22,40,movements,el-ex, rt, d,211441.2463969167, -1.7529346671871004, -0.35577408660533, -2.0553789654672308, 0.19532687962055206, 2.3792879581451416, -2.4150888919830322, -0.9218718409538269, 0.3483160734176636, 0.16978992521762848, 0.6557583808898926, -0.3492774963378906, -0.26332616806030273, -0.7060367407051662, -0.2939508233791314, 0.441881848914502,-0.46887699954184925,-0.26611328125,-0.0009613037109375,-0.093536376953125
20220118-1828,2022-01-18 18:28:44Z,u01, 23,40,movements,el-ex, rt, d,211441.27134191667, -1.6996087428679172, -0.30658305922049384, -2.0466065391345025, -0.02005566656589508, 1.6476439237594604, -1.5738743543624878, -0.945472002029419, 0.30180278420448303, 0.12246663123369217, 0.5735083818435669, -0.6384575366973877, -0.6436761617660522, -0.6863059337393336, -0.3003622465950966, 0.43753027692339813,-0.4973269100227642,-0.367462158203125,-0.2362060546875,-0.4387969970703125
20220118-1828,2022-01-18 18:28:44Z,u01, 24,40,movements,el-ex, rt, d,211441.29628691668, -1.6689032703990727, -0.27804920100513586, -2.0472906914073694, -0.5732859373092651, 0.8699838519096375, -0.6706006526947021, -0.9569689035415649, 0.27448028326034546, 0.0941876694560051, 0.5675644874572754, -0.9000297784805298, -0.8158825635910034, -0.6750735506022313, -0.3022739445233343, 0.4337109302711324,-0.514588278255858,-0.389404296875,-0.62554931640625,-0.7216949462890625
20220118-1828,2022-01-18 18:28:44Z,u01, 25,40,movements,el-ex, rt, d,211441.3212319167, -1.667667353248062, -0.27214249145317165, -2.0662125019250235, -0.7030978202819824, -0.2509074807167053, 0.38803261518478394, -0.9586814641952515, 0.2687956988811493, 0.09316004067659378, 0.4417288899421692, -0.6729096174240112, -0.9374287128448486, -0.6768330912176331, -0.29745081598877776, 0.4272845515304485,-0.5204305001174511,-0.496185302734375,-0.4939422607421875,-0.8482666015625
20220118-1828,2022-01-18 18:28:44Z,u01, 26,40,movements,el-ex, rt, d,211441.34617691668, -1.6873978742356763, -0.29132102847247404, -2.0719376125614692, 0.444856196641922, -1.1508225202560425, 1.0765067338943481, -0.9513612985610962, 0.2872178554534912, 0.11143568158149719, 0.41895145177841187, -0.447740375995636, -0.8237158060073853, -0.6851461501229859, -0.2937560096165224, 0.4285036944716579,-0.5105554621387239,-0.53240966796875,-0.1605224609375,-0.7122802734375
20220118-1828,2022-01-18 18:28:44Z,u01, 27,40,movements,el-ex, rt, d,211441.3711219167, -1.71930220366947, -0.32728462758618443, -2.0564036746552627, 0.8726241588592529, -1.7493246793746948, 1.6639748811721802, -0.9364965558052063, 0.32147297263145447, 0.14010672271251678, 0.3432650566101074, -0.34777918457984924, -0.5029147863388062, -0.6950387382273359, -0.29491442243855703, 0.4382243327244843,-0.48775640155210676,-0.5839691162109375,-0.0116119384765625,-0.4201202392578125
20220118-1828,2022-01-18 18:28:44Z,u01, 28,40,movements,el-ex, rt, d,211441.39606691667, -1.7660670230024296, -0.3760765893683292, -2.0517901740232243, 0.11847921460866928, -2.152071714401245, 2.1246960163116455, -0.9124362468719482, 0.36727410554885864, 0.1804717481136322, 0.3111025094985962, -0.3614453375339508, -0.35051560401916504, -0.7106304664298484, -0.29195926478845763, 0.44676238236190796,-0.45844037399177007,-0.6013336181640625,0.005828857421875,-0.1700439453125
20220118-1828,2022-01-18 18:28:44Z,u01, 29,40,movements,el-ex, rt, d,211441.42101191668, -1.8285872795510605, -0.43219500700490165, -2.0654226169281533, 0.09020892530679703, -2.4109792709350586, 2.4440252780914307, -0.8780428171157837, 0.41886499524116516, 0.23150262236595154, 0.3054106831550598, -0.17412927746772766, -0.24358734488487244, -0.7314470169736508, -0.2841418205656241, 0.45137234980479396,-0.4248669456255117,-0.5815582275390625,0.2038116455078125,-0.02532958984375
20220118-1828,2022-01-18 18:28:44Z,u01, 30,40,movements,el-ex, rt, d,211441.4459569167, -1.8942108916971927, -0.4973170947592949, -2.074082655972453, 0.8244627714157104, -2.502458095550537, 2.7200324535369873, -0.833301842212677, 0.47706934809684753, 0.27930882573127747, 0.2935982346534729, -0.1250491440296173, -0.20904195308685303, -0.75045306275206, -0.2765404324232088, 0.45998259849030765,-0.385696501416886,-0.539703369140625,0.352020263671875,0.0702667236328125
20220118-1828,2022-01-18 18:28:44Z,u01, 31,40,movements,el-ex, rt, d,211441.47090191668, -1.9599179770772803, -0.5685791035112161, -2.0811766914989667, 0.42408353090286255, -2.5379600524902344, 2.827684164047241, -0.7796715497970581, 0.5384352207183838, 0.3196875751018524, 0.3216025233268738, -0.05213773250579834, -0.0493931770324707, -0.7667073718541576, -0.2683348501142868, 0.47135044325647174,-0.34348961532864675,-0.472259521484375,0.4996490478515625,0.272552490234375
20220118-1828,2022-01-18 18:28:44Z,u01, 32,40,movements,el-ex, rt, d,211441.4958469167, -2.0444965332146507, -0.6358769518942188, -2.115182924576767, -0.037345606833696365, -2.6864025592803955, 3.0130207538604736, -0.7159593105316162, 0.5938832759857178, 0.36702197790145874, 0.28592073917388916, -0.24209201335906982, -0.07423606514930725, -0.7861362115965329, -0.25593132028439286, 0.4755662955141491,-0.30054249777144554,-0.4300384521484375,0.3517913818359375,0.29278564453125
20220118-1828,2022-01-18 18:28:44Z,u01, 33,40,movements,el-ex, rt, d,211441.52079191667, -2.1404515772639057, -0.705228262288221, -2.1597636448108593, 0.5250257253646851, -2.7892022132873535, 3.201235294342041, -0.6412188410758972, 0.6482076644897461, 0.4106892943382263, 0.3146805763244629, -0.1267843246459961, -0.27075064182281494, -0.8042341303360062, -0.24197544873269242, 0.4795314881613038,-0.2543719197502099,-0.3576202392578125,0.49945068359375,0.1732330322265625
20220118-1828,2022-01-18 18:28:44Z,u01, 34,40,movements,el-ex, rt, d,211441.54573691668, -2.238987386824337, -0.7820245811465634, -2.202187537984227, 0.540754497051239, -2.7627766132354736, 3.2147512435913086, -0.5569087266921997, 0.7047172784805298, 0.43957585096359253, 0.3249748945236206, -0.09573894739151001, -0.05313152074813843, -0.817097391424059, -0.22834136977174374, 0.48832990896080397,-0.20431889019568195,-0.23193359375,0.608978271484375,0.386444091796875
20220118-1828,2022-01-18 18:28:44Z,u01, 35,40,movements,el-ex, rt, d,211441.57068191667, -2.365826856379408, -0.8416365560055769, -2.279332717556038, -0.663597822189331, -2.8997464179992676, 3.2408578395843506, -0.4665456712245941, 0.745734453201294, 0.4756212532520294, 0.40335890650749207, -0.04767543077468872, 0.03966829180717468, -0.8321996175465664, -0.21273087256904044, 0.4878274835869044,-0.15560794527598637,-0.1049346923828125,0.6640472412109375,0.5088348388671875
20220118-1828,2022-01-18 18:28:44Z,u01, 36,40,movements,el-ex, rt, d,211441.59562691668, -2.5285192723832832, -0.8789001681767982, -2.3929373867803974, -0.3989018499851227, -3.214818000793457, 3.237600088119507, -0.36709436774253845, 0.7700376510620117, 0.521808922290802, 0.4472333490848541, -0.014574825763702393, -0.14958566427230835, -0.8499957253579916, -0.19598911077706216, 0.47737610019530796,-0.10586719630076871,0.08013916015625,0.755462646484375,0.372222900390625
20220118-1828,2022-01-18 18:28:44Z,u01, 37,40,movements,el-ex, rt, d,211441.6205719167, -2.688888237053223, -0.9276505989128652, -2.495529502767086, 1.189326524734497, -3.1641921997070312, 3.1255550384521484, -0.2623152732849121, 0.8002131581306458, 0.5393051505088806, 0.38255441188812256, 0.11476486921310425, -0.13984501361846924, -0.8583280183050739, -0.18145411707281484, 0.47712669052099527,-0.051939398760231056,0.1078338623046875,0.8972625732421875,0.338287353515625
20220118-1828,2022-01-18 18:28:44Z,u01, 38,40,movements,el-ex, rt, d,211441.64551691667, -2.853707516147766, -0.9782457524710819, -2.604295331891403, 0.1377163529396057, -2.9158482551574707, 3.015360116958618, -0.15856613218784332, 0.8295189142227173, 0.5354955196380615, 0.35541969537734985, 0.15136176347732544, 0.31800514459609985, -0.8601694264159537, -0.16690212236106133, 0.4819238112980239,0.0013381525659987223,0.1968536376953125,0.9808807373046875,0.8535003662109375
20220118-1828,2022-01-18 18:28:44Z,u01, 39,40,movements,el-ex, rt, d,211441.67046191668, -3.040466787863614, -0.9686124294323368, -2.738689392220834, -1.7360131740570068, -3.1146352291107178, 2.831577777862549, -0.05718454718589783, 0.8241005539894104, 0.5635499954223633, 0.5810186862945557, 0.10654830932617188, 0.24388426542282104, -0.8707014150609791, -0.1537987150826527, 0.4645456846499858,0.04921808521825065,0.5017852783203125,0.9005584716796875,0.8381805419921875
20220118-1828,2022-01-18 18:28:44Z,u01, 40,40,movements,el-ex, rt, d,211441.69540691667, 3.0687685293622278, -0.9420830310305243, -2.8570501244002124, -0.06811510026454926, -3.0136680603027344, 2.5913867950439453, 0.04279039427638054, 0.8087849020957947, 0.5865463614463806, 0.3865918517112732, 0.31999945640563965, 0.04556459188461304, -0.8791658823689568, -0.14262019124699526, 0.44433200299101244,0.09641628959060447,0.42938232421875,1.1287841796875,0.632110595703125
20220118-1828,2022-01-18 18:28:44Z,u01, 41,40,movements,el-ex, rt, d,211441.72035191668, 2.902165815182626, -0.9528666687375056, -2.9730378795240555, 1.312941074371338, -2.8429605960845947, 2.729712963104248, 0.13739021122455597, 0.8150796294212341, 0.5628224611282349, 0.30412277579307556, 0.03721517324447632, 0.06043821573257446, -0.8745343413348489, -0.12884459875490156, 0.4447806236881652,0.1440797433663395,0.421905517578125,0.942596435546875,0.5799713134765625
20220118-1828,2022-01-18 18:28:44Z,u01, 42,40,movements,el-ex, rt, d,211441.7452969167, 2.7300509374998243, -0.9496039541721397, -3.099701298234889, -0.08722305297851562, -2.669994592666626, 2.923525094985962, 0.23281554877758026, 0.8131850957870483, 0.5334112644195557, 0.31444084644317627, -0.07174515724182129, 0.2490750551223755, -0.8684734411227417, -0.11162217927009352, 0.44361370865193617,0.19105351622857625,0.5472564697265625,0.7414398193359375,0.7824859619140625
20220118-1828,2022-01-18 18:28:44Z,u01, 43,40,movements,el-ex, rt, d,211441.77024191667, 2.5961190364900255, -0.8932277857036426, 3.1006138555802063, -1.6559021472930908, -2.84881854057312, 2.6593503952026367, 0.32525068521499634, 0.7790992856025696, 0.5359262228012085, 0.5240534543991089, 0.13781678676605225, 0.2803735136985779, -0.8707790247958552, -0.09852405951280574, 0.4208394335347996,0.23437422449817424,0.832733154296875,0.86016845703125,0.860687255859375
20220118-1828,2022-01-18 18:28:44Z,u01, 44,40,movements,el-ex, rt, d,211441.7951869167, 2.486243581303528, -0.8338975585455995, 3.048557446557399, -0.4112817645072937, -2.774643898010254, 2.258680820465088, 0.409537672996521, 0.7405561208724976, 0.5327809453010559, 0.36757713556289673, 0.40983444452285767, 0.10724914073944092, -0.8708048107127676, -0.089941383087019, 0.396694293544516,0.27612166498253715,0.7771148681640625,1.150390625,0.6400299072265625
20220118-1828,2022-01-18 18:28:44Z,u01, 45,40,movements,el-ex, rt, d,211441.82013191667, 2.3721521667318446, -0.7992425773665132, 2.982821661486763, 0.2610999643802643, -2.603015661239624, 2.327031135559082, 0.4851002097129822, 0.7168281674385071, 0.5008347630500793, 0.28343915939331055, 0.10688704252243042, 0.07292646169662476, -0.8627616715882178, -0.0778440322423131, 0.38691115656301983,0.31604189780223585,0.7467193603515625,0.8943939208984375,0.56353759765625
20220118-1828,2022-01-18 18:28:44Z,u01, 46,40,movements,el-ex, rt, d,211441.84507691668, 2.266936962789927, -0.7545485082782978, 2.9274709420346485, -0.40537795424461365, -2.71748423576355, 2.4724063873291016, 0.5590567588806152, 0.6849597692489624, 0.4672106206417084, 0.2757056951522827, -0.04454845190048218, 0.10249176621437073, -0.8540274199252633, -0.06513429971013934, 0.3738799762842292,0.35582087656020556,0.8347625732421875,0.640411376953125,0.5697021484375
20220118-1828,2022-01-18 18:28:44Z,u01, 47,40,movements,el-ex, rt, d,211441.8700209167, 2.1738598281392165, -0.6998008601054768, 2.890482782442212, -0.35083919763565063, -2.7722222805023193, 2.3378853797912598, 0.6300312280654907, 0.6440653800964355, 0.4338669776916504, 0.2676433324813843, 0.17931413650512695, -0.029005348682403564, -0.8449900609427197, -0.05408592502800168, 0.355788240154405,0.3955771338728237,0.8756561279296875,0.7842254638671875,0.42242431640625
20220118-1828,2022-01-18 18:28:44Z,u01, 48,40,movements,el-ex, rt, d,211441.89496591667, 2.082135160056647, -0.6508014947528002, 2.8557488898839773, 0.0116275604814291, -2.8699605464935303, 2.1867411136627197, 0.6938339471817017, 0.6058242917060852, 0.38932254910469055, 0.2921585440635681, 0.24819499254226685, 0.002203047275543213, -0.8323312701815945, -0.043427367685484455, 0.3412563174715004,0.43460681507729826,0.985992431640625,0.8540191650390625,0.3915252685546875
20220118-1828,2022-01-18 18:28:44Z,u01, 49,40,movements,el-ex, rt, d,211441.919912, 1.9923985407726246, -0.6031772483241158, 2.822512149027802, 0.2863847017288208, -2.753246545791626, 2.192011833190918, 0.7514241337776184, 0.5672619342803955, 0.3370104730129242, 0.24791979789733887, 0.15022164583206177, 0.03422093391418457, -0.8169930958225186, -0.032054892668149204, 0.3286154132257461,0.47276507707171334,0.9931488037109375,0.738555908203125,0.3684234619140625
20220118-1828,2022-01-18 18:28:44Z,u01, 50,40,movements,el-ex, rt, d,211441.94485700002, 1.9047618113042102, -0.5572216014665299, 2.7852993698272948, 0.5725191831588745, -2.668253183364868, 2.0853683948516846, 0.8018354773521423, 0.5288301110267639, 0.2782061696052551, 0.24526840448379517, 0.2142118215560913, 0.11968228220939636, -0.799234323555294, -0.018099006908405366, 0.3193121627247928,0.5088582396806461,1.0471038818359375,0.7430419921875,0.39788818359375
20220118-1828,2022-01-18 18:28:44Z,u01, 51,40,movements,el-ex, rt, d,211441.969802, 1.8230289774692918, -0.5129563231041814, 2.755728210978574, 0.1737148016691208, -2.6082112789154053, 1.8572479486465454, 0.843727707862854, 0.49075523018836975, 0.21744677424430847, 0.2850106954574585, 0.24319252371788025, 0.2531803846359253, -0.7801849053649558, -0.005907625196812691, 0.3103999284755131,0.5430732926877451,1.1267852783203125,0.7486724853515625,0.463348388671875
20220118-1828,2022-01-18 18:28:45Z,u01, 52,40,movements,el-ex, rt, d,211441.99474700002, 1.7582932048656494, -0.47029009831876095, 2.7495510294650383, -0.330497145652771, -2.2898097038269043, 1.5859867334365845, 0.8758135437965393, 0.453144907951355, 0.16616405546665192, 0.2250165343284607, 0.2334548532962799, 0.3147321939468384, -0.7635980696713892, 0.00012760560702283763, 0.2968127292158432,0.5734285096095582,1.100830078125,0.6865997314453125,0.48089599609375
20220118-1828,2022-01-18 18:28:45Z,u01, 53,40,movements,el-ex, rt, d,211442.019692, 1.7032963717725718, -0.43417232667323535, 2.7448310960656785, 0.1959332823753357, -1.8390694856643677, 1.2960163354873657, 0.8992666006088257, 0.4206596612930298, 0.11985509097576141, 0.09823101758956909, 0.35915607213974, 0.32898247241973877, -0.7482613783084291, 0.005697058414380729, 0.28564995335430615,0.598729217756757,1.0155487060546875,0.768890380859375,0.4522857666015625
20220118-1828,2022-01-18 18:28:45Z,u01, 54,40,movements,el-ex, rt, d,211442.044637, 1.657881864381464, -0.4055838738990255, 2.732271707549085, 0.42107534408569336, -1.4084508419036865, 1.06575608253479, 0.9153903126716614, 0.39455533027648926, 0.07991939783096313, 0.01823413372039795, 0.3377598226070404, 0.35515475273132324, -0.7346951639999014, 0.013517140400537933, 0.27988325455538304,0.6178235055474884,0.933624267578125,0.7323150634765625,0.4350738525390625
20220118-1828,2022-01-18 18:28:45Z,u01, 55,40,movements,el-ex, rt, d,211442.06958200003, 1.6215199884299891, -0.3837848207139001, 2.720806936929218, 0.12030008435249329, -1.1339844465255737, 0.7452701926231384, 0.926061749458313, 0.37443262338638306, 0.04701356962323189, -0.08508872985839844, 0.3477506637573242, 0.4187307357788086, -0.7232585124257204, 0.020097491824156682, 0.2764272748903103,0.63251986875635,0.8509063720703125,0.7107086181640625,0.4608154296875
20220118-1828,2022-01-18 18:28:45Z,u01, 56,40,movements,el-ex, rt, d,211442.094527, 1.5982889929390136, -0.368625899524116, 2.7257062597192196, -0.457425057888031, -0.8494808077812195, 0.4371134340763092, 0.9324709177017212, 0.36033397912979126, 0.025642573833465576, -0.12035238742828369, 0.37399524450302124, 0.4561234712600708, -0.7158241710552026, 0.020421623048424403, 0.27005347617467773,0.6436224941052107,0.8121185302734375,0.7343292236328125,0.4817657470703125
20220118-1828,2022-01-18 18:28:45Z,u01, 57,40,movements,el-ex, rt, d,211442.11947200002, 1.5861238473147519, -0.36155966805269546, 2.738085036111156, -0.42129579186439514, -0.45402801036834717, 0.10457142442464828, 0.9352364540100098, 0.35373347997665405, 0.014335978776216507, -0.15133136510849, 0.40703922510147095, 0.4873884916305542, -0.711957861059436, 0.016852106858867344, 0.2638219005077512,0.6505613678127998,0.7880096435546875,0.755340576171875,0.4914093017578125
20220118-1828,2022-01-18 18:28:45Z,u01, 58,40,movements,el-ex, rt, d,211442.144417, 1.5843698354550524, -0.3636970246064154, 2.747457983598116, -0.36533814668655396, 0.06838396936655045, -0.29383566975593567, 0.934502124786377, 0.3557318449020386, 0.012685251422226429, -0.1549304723739624, 0.4114342927932739, 0.5505626201629639, -0.7114671303696326, 0.012535873401020747, 0.26148926260474176,0.6521356155697716,0.779571533203125,0.7671661376953125,0.5632476806640625
20220118-1828,2022-01-18 18:28:45Z,u01, 59,40,movements,el-ex, rt, d,211442.16936200002, 1.5972640110103131, -0.37589910961916395, 2.760739967582171, -0.6271593570709229, 0.5776940584182739, -0.6639540791511536, 0.9298521280288696, 0.3671090006828308, 0.024616781622171402, -0.12630903720855713, 0.3263571560382843, 0.5825153589248657, -0.7157382678410154, 0.005207959180886651, 0.26116749523468724,0.6476752022335961,0.7967376708984375,0.70355224609375,0.6143951416015625
20220118-1828,2022-01-18 18:28:45Z,u01, 60,40,movements,el-ex, rt, d,211442.19430700003, 1.6246266073562121, -0.39457313133324967, 2.7795625396449735, -0.653881311416626, 1.0279834270477295, -0.8937494158744812, 0.9218236804008484, 0.3844141662120819, 0.0496700145304203, -0.09165388345718384, 0.29449519515037537, 0.5323004722595215, -0.7244411661632045, -0.004472563111370731, 0.26137978668011463,0.6378446047555282,0.830169677734375,0.6789093017578125,0.58197021484375
20220118-1828,2022-01-18 18:28:45Z,u01, 61,40,movements,el-ex, rt, d,211442.219252, 1.6625819277902938, -0.4190999410703544, 2.7974850947142635, -0.4520952105522156, 1.4441641569137573, -1.1447538137435913, 0.9096105694770813, 0.40693846344947815, 0.08372440189123154, -0.0367773175239563, 0.31118592619895935, 0.47757041454315186, -0.7359720597648107, -0.014398831689711011, 0.2642719897339044,0.6231357270206184,0.8654937744140625,0.708160400390625,0.5699005126953125
20220118-1828,2022-01-18 18:28:45Z,u01, 62,40,movements,el-ex, rt, d,211442.24419700002, 1.7086125300061779, -0.4507621612301132, 2.807927240030954, 0.017918981611728668, 1.9084129333496094, -1.4606679677963257, 0.8915808796882629, 0.4356516897678375, 0.12365817278623581, 0.014898061752319336, 0.3070088326931, 0.3858177661895752, -0.7492097407313252, -0.022668285164305815, 0.2724884583318804,0.6032586705614338,0.9064788818359375,0.7426605224609375,0.5094757080078125
20220118-1828,2022-01-18 18:28:45Z,u01, 63,40,movements,el-ex, rt, d,211442.269142, 1.7636034655149366, -0.4906633972215619, 2.8152394548052233, -0.20751820504665375, 2.220486640930176, -1.7582217454910278, 0.8656772375106812, 0.47121113538742065, 0.16900822520256042, 0.12239062786102295, 0.281184583902359, 0.47480618953704834, -0.7639112240216478, -0.030720589706692294, 0.285172801199234,0.5780767040997217,0.980194091796875,0.7451934814453125,0.609344482421875
20220118-1828,2022-01-18 18:28:45Z,u01, 64,40,movements,el-ex, rt, d,211442.29408700002, 1.836315492626064, -0.5317032618103884, 2.843600490006595, -0.8169786930084229, 2.502472400665283, -1.9216933250427246, 0.8317394852638245, 0.5070021748542786, 0.22618326544761658, 0.17761439085006714, 0.2310960292816162, 0.4034099876880646, -0.7817649669362431, -0.043990534087425946, 0.29340466533026494,0.5484727287943019,1.0093536376953125,0.73809814453125,0.6295928955078125
20220118-1828,2022-01-18 18:28:45Z,u01, 65,40,movements,el-ex, rt, d,211442.319032, 1.9227365302259456, -0.5747964816810822, 2.879680420626353, -0.33067986369132996, 2.9001805782318115, -2.1052284240722656, 0.787858784198761, 0.5436639785766602, 0.28932440280914307, 0.24854886531829834, 0.3589698076248169, 0.23568502068519592, -0.800797964883091, -0.05817927133587774, 0.30211788561114555,0.5138704141366318,1.029022216796875,0.866241455078125,0.532012939453125
20220118-1828,2022-01-18 18:28:45Z,u01, 66,40,movements,el-ex, rt, d,211442.343977, 2.009999543516424, -0.627664275743271, 2.899654056235164, 0.6636593341827393, 3.185948133468628, -2.319298267364502, 0.7325817942619324, 0.5872558355331421, 0.3441724181175232, 0.3146899342536926, 0.4067169427871704, 0.1847279965877533, -0.8170340687465508, -0.06739095403826412, 0.3202257565048988,0.4747307597903996,1.047271728515625,0.9939727783203125,0.528900146484375
20220118-1828,2022-01-18 18:28:45Z,u01, 67,40,movements,el-ex, rt, d,211442.36892200002, 2.101162118748177, -0.6915868557644007, 2.913994663525282, 0.7155908942222595, 3.4036028385162354, -2.60675048828125, 0.6644220352172852, 0.6377602219581604, 0.3896227180957794, 0.3879614472389221, 0.29920583963394165, 0.31144267320632935, -0.830200587690942, -0.07468834959944877, 0.34530547452618965,0.4312226808721234,1.05322265625,0.964599609375,0.655120849609375
20220118-1828,2022-01-18 18:28:45Z,u01, 68,40,movements,el-ex, rt, d,211442.393867, 2.212420559769423, -0.7538313503143103, 2.9532058582917786, 0.1058904156088829, 3.4090497493743896, -2.8669345378875732, 0.584077775478363, 0.684437096118927, 0.4363478422164917, 0.46877872943878174, 0.18099570274353027, 0.2984393835067749, -0.8430770696696764, -0.08599407621133673, 0.36676770262824654,0.38380682439441516,1.0528564453125,0.8654327392578125,0.7347869873046875
20220118-1828,2022-01-18 18:28:45Z,u01, 69,40,movements,el-ex, rt, d,211442.41881200002, 2.346381442020229, -0.8089246762310482, 3.0189951149757355, 0.14581385254859924, 3.626002788543701, -2.937436103820801, 0.49286597967147827, 0.7235453128814697, 0.48328664898872375, 0.4965139329433441, 0.31597501039505005, 0.17387926578521729, -0.8553419824788538, -0.10016691267892928, 0.383951296711794,0.33307403268706826,1.011260986328125,1.0004730224609375,0.658843994140625
20220118-1828,2022-01-18 18:28:45Z,u01, 70,40,movements,el-ex, rt, d,211442.443757, 2.497781190590646, -0.8656856108191374, 3.0981869318122657, 0.3663124144077301, 3.76708722114563, -3.2180347442626953, 0.3890317976474762, 0.7615398168563843, 0.5183738470077515, 0.5434327125549316, 0.38351017236709595, 0.14587199687957764, -0.8638253691637929, -0.11398530716762968, 0.40404640334355135,0.27849524609368553,0.932464599609375,1.145050048828125,0.66424560546875
20220118-1828,2022-01-18 18:28:45Z,u01, 71,40,movements,el-ex, rt, d,211442.468702, 2.6712561877403074, -0.9156652250620202, -3.0819575148677774, 0.2305544763803482, 3.6483960151672363, -3.273712158203125, 0.27610984444618225, 0.7929680347442627, 0.5431071519851685, 0.5547311305999756, 0.1465919017791748, 0.17744368314743042, -0.8688643254408076, -0.12895098927846757, 0.4234164960985303,0.22173185040232346,0.8659210205078125,0.946929931640625,0.7099761962890625
20220118-1828,2022-01-18 18:28:45Z,u01, 72,40,movements,el-ex, rt, d,211442.49364700002, 2.866093663325971, -0.9465926607696453, -2.9521178034905233, -0.20153258740901947, 3.6395180225372314, -3.3522303104400635, 0.15898676216602325, 0.8114287853240967, 0.562411904335022, 0.5575659275054932, 0.1512635350227356, 0.11507868766784668, -0.8717652344811069, -0.14570970946103792, 0.4379187750833813,0.16438186599379037,0.716552734375,0.9626922607421875,0.677490234375
20220118-1828,2022-01-18 18:28:45Z,u01, 73,40,movements,el-ex, rt, d,211442.518592, 3.0754988979079414, -0.9534843660779284, -2.806553448523403, -0.36185747385025024, 3.6399998664855957, -3.4323832988739014, 0.038230251520872116, 0.815437376499176, 0.577582061290741, 0.621742844581604, 0.18338775634765625, 0.08503127098083496, -0.8730506517608169, -0.1630140652821937, 0.44732129704260093,0.10541746762576468,0.6722564697265625,0.974822998046875,0.665618896484375
20220118-1828,2022-01-18 18:28:45Z,u01, 74,40,movements,el-ex, rt, d,211442.54353700002, -2.998855722080616, -0.9422883652612677, -2.6609314682967997, -0.031270239502191544, 3.6363179683685303, -3.419373035430908, -0.08363592624664307, 0.8089056611061096, 0.5819598436355591, 0.652132511138916, 0.1535426378250122, 0.034358203411102295, -0.8709413104939356, -0.1801142689011222, 0.4548619651355765,0.04605266230042951,0.5684967041015625,0.9624481201171875,0.6163177490234375
20220118-1828,2022-01-18 18:28:45Z,u01, 75,40,movements,el-ex, rt, d,211442.568482, -2.790575358419896, -0.9304978167535276, -2.5166428929543034, 0.6679404973983765, 3.7112181186676025, -3.4840829372406006, -0.20543000102043152, 0.8019174337387085, 0.5610055327415466, 0.5746773481369019, 0.15697532892227173, 0.18205195665359497, -0.8614502894665124, -0.19597489287580983, 0.4683334773914707,-0.012691845225991635,0.38250732421875,0.9659423828125,0.7671966552734375
20220118-1828,2022-01-18 18:28:45Z,u01, 76,40,movements,el-ex, rt, d,211442.593427, -2.5853757987967336, -0.9054667132930692, -2.373258688540322, 0.30018240213394165, 3.5436596870422363, -3.6947200298309326, -0.3259301483631134, 0.7867133617401123, 0.5242632031440735, 0.662798285484314, 0.1586143970489502, 0.18491971492767334, -0.8466829737620591, -0.21274290852020056, 0.48248630757218197,-0.07124216792230903,0.3368682861328125,0.9453277587890625,0.7091827392578125
20220118-1828,2022-01-18 18:28:45Z,u01, 77,40,movements,el-ex, rt, d,211442.61837200003, -2.4180736392589557, -0.8424623610475733, -2.268328553281487, -0.8053176403045654, 3.4042937755584717, -3.6276636123657227, -0.4406628906726837, 0.7462843656539917, 0.4988749921321869, 0.6687968969345093, -0.09603112936019897, -0.020557433366775513, -0.8346407911006191, -0.22980916390066436, 0.48312752199197395,-0.13095970149342653,0.27447509765625,0.7124176025390625,0.4893646240234375
20220118-1828,2022-01-18 18:28:45Z,u01, 78,40,movements,el-ex, rt, d,211442.643317, -2.281788035148048, -0.7652792625800944, -2.1976022929949948, -0.5696347951889038, 3.406081438064575, -3.503730297088623, -0.5464558005332947, 0.69273841381073, 0.4706375300884247, 0.6202319860458374, 0.020426809787750244, 0.0011338591575622559, -0.82182080913563, -0.24480465820358271, 0.4780795868732108,-0.19005577724514838,0.0737762451171875,0.713165283203125,0.471771240234375
20220118-1828,2022-01-18 18:28:45Z,u01, 79,40,movements,el-ex, rt, d,211442.66826200002, -2.157356493018795, -0.6929924371929489, -2.1346677785939088, -0.14229290187358856, 3.3012819290161133, -3.377887487411499, -0.6407427787780762, 0.6388422250747681, 0.42582815885543823, 0.5887712836265564, -0.008639037609100342, -0.03657618165016174, -0.8035121881275266, -0.25938820265335216, 0.4765782225521775,-0.2448657754821983,-0.0499267578125,0.63458251953125,0.368408203125
20220118-1828,2022-01-18 18:28:45Z,u01, 80,40,movements,el-ex, rt, d,211442.693207, -2.0514804563283477, -0.6166019848486487, -2.0926406041541776, -0.7032057642936707, 3.181694746017456, -3.32922101020813, -0.7233954071998596, 0.5782662630081177, 0.3772367537021637, 0.6390447020530701, -0.03265780210494995, 0.032400935888290405, -0.7840443880027657, -0.27183224908058295, 0.4719802906015858,-0.29768498157096385,-0.0843505859375,0.5456085205078125,0.409637451171875
20220118-1828,2022-01-18 18:28:45Z,u01, 81,40,movements,el-ex, rt, d,211442.71815200002, -1.9658604226244982, -0.5338036249111306, -2.0785528836195457, -0.9909040331840515, 3.0697414875030518, -3.1112470626831055, -0.7945664525032043, 0.5088114738464355, 0.33132392168045044, 0.578776478767395, -0.05098676681518555, -0.05262184143066406, -0.7660610553032222, -0.28073550256851243, 0.4603264801079521,-0.34991104728154254,-0.195037841796875,0.4779205322265625,0.293304443359375
20220118-1828,2022-01-18 18:28:45Z,u01, 82,40,movements,el-ex, rt, d,211442.743097, -1.8855593301452223, -0.45851185868321154, -2.067264101282275, -0.2434200793504715, 2.9236295223236084, -2.8504581451416016, -0.852656900882721, 0.4426141679286957, 0.2776142656803131, 0.5833847522735596, 0.03909057378768921, -0.08936628699302673, -0.7453624946109875, -0.28851669199347857, 0.45077278964989115,-0.3974884386572223,-0.2692718505859375,0.4817047119140625,0.1882476806640625
20220118-1828,2022-01-18 18:28:45Z,u01, 83,40,movements,el-ex, rt, d,211442.768042, -1.8068559006246487, -0.39186867936888997, -2.0484805462665046, -0.11983489245176315, 2.730379581451416, -2.678973436355591, -0.8985665440559387, 0.3819161057472229, 0.21614506840705872, 0.5654670000076294, -0.013370633125305176, -0.06439614295959473, -0.7208149210562822, -0.29748677865620676, 0.44616593771513646,-0.4391624103946869,-0.3235321044921875,0.4063720703125,0.1818084716796875
20220118-1828,2022-01-18 18:28:45Z,u01, 84,40,movements,el-ex, rt, d,211442.79298700002, -1.7413151085008398, -0.32781889918775764, -2.043791778834141, -0.5475150346755981, 2.394650459289551, -2.3796327114105225, -0.9330163598060608, 0.3219788372516632, 0.16065695881843567, 0.5501883029937744, -0.18390214443206787, -0.12984929978847504, -0.698521255729843, -0.30396798571530864, 0.43812787723504304,-0.4771956884403964,-0.3828277587890625,0.1380767822265625,0.0308074951171875
20220118-1828,2022-01-18 18:28:45Z,u01, 85,40,movements,el-ex, rt, d,211442.817932, -1.6883256309720043, -0.272264312554592, -2.0512127423320003, -0.6017999649047852, 1.971825122833252, -1.9092987775802612, -0.9565201997756958, 0.26891303062438965, 0.11293964833021164, 0.4622268080711365, -0.3067396283149719, -0.3091675043106079, -0.6799049888655766, -0.3069186056491169, 0.4280637802149979,-0.5101879848494293,-0.4835357666015625,-0.0152587890625,-0.1197357177734375
20220118-1828,2022-01-18 18:28:45Z,u01, 86,40,movements,el-ex, rt, d,211442.84287700002, -1.6486046936100953, -0.23313410678758115, -2.0570981040552274, -0.1774977445602417, 1.3344311714172363, -1.1398576498031616, -0.9700035452842712, 0.2310279756784439, 0.07562707364559174, 0.4609854817390442, -0.44718408584594727, -0.5787701606750488, -0.6652626019981276, -0.30860849923939315, 0.4211920799606707,-0.5336513828915761,-0.5090179443359375,-0.216156005859375,-0.503143310546875
20220118-1828,2022-01-18 18:28:45Z,u01, 87,40,movements,el-ex, rt, d,211442.867822, -1.6266337210358166, -0.21666396174427496, -2.0607824244372255, -0.0737721249461174, 0.3917153775691986, -0.20287974178791046, -0.9750982522964478, 0.21497277915477753, 0.05450360104441643, 0.46649205684661865, -0.722586989402771, -0.8435811996459961, -0.657602013948405, -0.30791458619957, 0.4187880576538576,-0.5453118685694929,-0.506011962890625,-0.4850921630859375,-0.7439117431640625
20220118-1828,2022-01-18 18:28:45Z,u01, 88,40,movements,el-ex, rt, d,211442.892767, -1.6293793658864615, -0.2225491187501561, -2.056695988368077, 0.45036861300468445, -0.6723479628562927, 0.6665784120559692, -0.9736648797988892, 0.22071659564971924, 0.057105593383312225, 0.4536147713661194, -0.5873701572418213, -0.935904860496521, -0.6585533732496147, -0.3079939137640952, 0.421184528742096,-0.542264602570181,-0.520050048828125,-0.3666534423828125,-0.8787994384765625
20220118-1828,2022-01-18 18:28:45Z,u01, 89,40,movements,el-ex, rt, d,211442.91771216667, -1.651271693386309, -0.2491135479570248, -2.0356841492742395, 1.092665195465088, -1.4506312608718872, 1.3066333532333374, -0.9659949541091919, 0.2465449720621109, 0.07790704816579819, 0.3885412812232971, -0.44822049140930176, -0.7041885852813721, -0.6648490042193193, -0.31133475122393395, 0.4310788826074698,-0.5246117926641214,-0.57470703125,-0.1956939697265625,-0.6874542236328125
20220118-1828,2022-01-18 18:28:45Z,u01, 90,40,movements,el-ex, rt, d,211442.94265716668, -1.6895808659957026, -0.29132946359888406, -2.0153434680446365, 0.7493662238121033, -2.0060839653015137, 1.9165836572647095, -0.951113224029541, 0.2872259318828583, 0.11351191997528076, 0.360720157623291, -0.4429725408554077, -0.5606706142425537, -0.6771050507593444, -0.31350392572237007, 0.44243787325825923,-0.49748645757399074,-0.59039306640625,-0.1557464599609375,-0.4471588134765625
20220118-1828,2022-01-18 18:28:45Z,u01, 91,40,movements,el-ex, rt, d,211442.96760216667, -1.742163967099352, -0.34703339855935633, -2.0059812310966434, 0.7250151634216309, -2.4137630462646484, 2.381072521209717, -0.9266117215156555, 0.34010955691337585, 0.16036415100097656, 0.3283143639564514, -0.31027865409851074, -0.392084002494812, -0.6950886720125989, -0.3115025042205874, 0.4524856928418996,-0.46376160150123624,-0.60443115234375,-0.011962890625,-0.2823944091796875
20220118-1828,2022-01-18 18:28:46Z,u01, 92,40,movements,el-ex, rt, d,211442.99254716668, -1.8032226693730855, -0.41424202096091967, -1.9998254277719638, 0.7581816911697388, -2.6550073623657227, 2.776482582092285, -0.8908063769340515, 0.40249618887901306, 0.2108575999736786, 0.32797062397003174, -0.1980132758617401, -0.28336718678474426, -0.7147825505360887, -0.30743243554359767, 0.4637704846322596,-0.4236604436955624,-0.562835693359375,0.2044830322265625,-0.072509765625
20220118-1828,2022-01-18 18:28:46Z,u01, 93,40,movements,el-ex, rt, d,211443.0174921667, -1.8722749920364115, -0.4880387717949987, -2.0040279174687377, 0.4698319435119629, -2.712585210800171, 3.0217134952545166, -0.8434180617332458, 0.4688945412635803, 0.2622668743133545, 0.3358191251754761, -0.14546936750411987, -0.1235646903514862, -0.7355435791731212, -0.3001817407943678, 0.473807139424768,-0.37996493333686016,-0.5244903564453125,0.3049774169921875,0.1069793701171875
20220118-1828,2022-01-18 18:28:46Z,u01, 94,40,movements,el-ex, rt, d,211443.04243716667, -1.9534307709350986, -0.563890118930928, -2.0271505496826965, 0.16303418576717377, -2.8504772186279297, 3.235166549682617, -0.7840624451637268, 0.5344780683517456, 0.3155621290206909, 0.35242170095443726, -0.13048648834228516, -0.1723581850528717, -0.7578978046396929, -0.28874206544111364, 0.4800013360236148,-0.3343915680681208,-0.431640625,0.40399169921875,0.1432037353515625
20220118-1828,2022-01-18 18:28:46Z,u01, 95,40,movements,el-ex, rt, d,211443.0673821667, -2.0432995799509506, -0.6438416799458967, -2.0580310020133608, 0.7400160431861877, -2.9538512229919434, 3.465803861618042, -0.7121636271476746, 0.6002724170684814, 0.36400043964385986, 0.404485285282135, -0.10761195421218872, -0.24754512310028076, -0.7784331418210652, -0.27575724332336893, 0.48655133693938263,-0.2850749226509849,-0.3323974609375,0.482147216796875,0.1228179931640625
20220118-1828,2022-01-18 18:28:46Z,u01, 96,40,movements,el-ex, rt, d,211443.09232716667, -2.13617836500529, -0.7355319613733433, -2.0881422616568477, 1.1907093524932861, -2.954160213470459, 3.8564670085906982, -0.6260889172554016, 0.6709817051887512, 0.3972361981868744, 0.42369621992111206, -0.18921595811843872, -0.19046416878700256, -0.793935783027001, -0.26131221931056525, 0.4983560026741827,-0.23026791608303673,-0.202392578125,0.4817657470703125,0.2067718505859375
20220118-1828,2022-01-18 18:28:46Z,u01, 97,40,movements,el-ex, rt, d,211443.11727216668, -2.24390246308426, -0.8350540855961704, -2.1368791592017065, 1.1466175317764282, -2.8683629035949707, 4.186262130737305, -0.5247554183006287, 0.7413328289985657, 0.41839924454689026, 0.43550658226013184, -0.2998197078704834, 0.10421454906463623, -0.8065248184333927, -0.24231662082890051, 0.5111820718704629,-0.17173655573110785,-0.1009674072265625,0.42236328125,0.448699951171875
20220118-1828,2022-01-18 18:28:46Z,u01, 98,40,movements,el-ex, rt, d,211443.1422171667, -2.3803387488910914, -0.9258398408408117, -2.2233294057080686, 0.2415686547756195, -2.8138275146484375, 4.214542388916016, -0.4147007167339325, 0.7991259098052979, 0.43522554636001587, 0.48312100768089294, -0.11083251237869263, -0.02586260437965393, -0.8182072503175097, -0.2194303347399158, 0.5189766476776542,-0.11423895663109779,0.06842041015625,0.68829345703125,0.40936279296875
20220118-1828,2022-01-18 18:28:46Z,u01, 99,40,movements,el-ex, rt, d,211443.16716216668, -2.572844747637372, -0.9917787745378951, -2.367685705979393, 0.12228462845087051, -3.107485294342041, 4.261446475982666, -0.2947109043598175, 0.8370006680488586, 0.4610596299171448, 0.6802393198013306, -0.048807740211486816, -0.24163788557052612, -0.8321780711948591, -0.194960190750039, 0.5160572949812949,-0.056171666669046466,0.3596649169921875,0.76629638671875,0.192718505859375
20220118-1828,2022-01-18 18:28:46Z,u01, 100,40,movements,el-ex, rt, d,211443.1921071667, -2.793267305230882, -1.0525133584693727, -2.5352471592234047, 1.1811848878860474, -3.0568995475769043, 4.079069137573242, -0.1690884232521057, 0.8686710596084595, 0.46563920378685, 0.5653133392333984, 0.08616286516189575, 0.182661235332489, -0.838759632847673, -0.17117790347276818, 0.5168737466779416,0.0046892470511923565,0.3962249755859375,0.954833984375,0.6483001708984375
20220118-1828,2022-01-18 18:28:46Z,u01, 101,40,movements,el-ex, rt, d,211443.21705216667, -3.0262292348855, -1.0987844772912025, -2.71915463730501, 0.23651184141635895, -2.654985189437866, 3.49253511428833, -0.05233713239431381, 0.8906553387641907, 0.4516574442386627, 0.5543054342269897, 0.5737308263778687, 0.5032379031181335, -0.838812967978176, -0.1490688550523361, 0.5200228859815873,0.061218235739680535,0.44171142578125,1.400634765625,0.954681396484375
20220118-1828,2022-01-18 18:28:46Z,u01, 102,40,movements,el-ex, rt, d,211443.24199716668, 3.0340535960239374, -1.0810932391425059, -2.8919712081405855, -1.3936362266540527, -2.8997771739959717, 3.0263423919677734, 0.050485119223594666, 0.882472574710846, 0.46764734387397766, 0.6846680045127869, 0.3187451958656311, 0.19522535800933838, -0.8460855319749823, -0.13402592143283365, 0.504127197775847,0.1096918320451685,0.7351531982421875,1.2012176513671875,0.662872314453125
20220118-1828,2022-01-18 18:28:46Z,u01, 103,40,movements,el-ex, rt, d,211443.26694216667, 2.844334082969288, -1.0310505045259681, -3.024528537286369, -1.113603115081787, -2.9623992443084717, 2.980044364929199, 0.15052658319473267, 0.8578393459320068, 0.4913789629936218, 0.43092474341392517, 0.2506810426712036, 0.0714111328125, -0.8546975973572797, -0.12321320198592235, 0.4791849550715811,0.15713769049313742,0.6362762451171875,1.1077423095703125,0.535430908203125
20220118-1828,2022-01-18 18:28:46Z,u01, 104,40,movements,el-ex, rt, d,211443.29188716668, 2.659705424192409, -1.005435177605873, 3.1264932918303767, 1.2950787544250488, -2.776838541030884, 2.891390800476074, 0.24828137457370758, 0.8443951606750488, 0.4747145473957062, 0.19176682829856873, 0.102611243724823, 0.12458997964859009, -0.8518075569268336, -0.10854104758940203, 0.46945592065709907,0.20555807978647753,0.4400482177734375,0.9470062255859375,0.59930419921875
20220118-1828,2022-01-18 18:28:46Z,u01, 105,40,movements,el-ex, rt, d,211443.3168321667, 2.4673860512307737, -0.9914207705455503, 2.9742517017915517, 0.9856681823730469, -2.524911880493164, 3.1935741901397705, 0.3417932689189911, 0.8368046879768372, 0.4277099072933197, 0.4224889278411865, 0.07950091361999512, 0.12435340881347656, -0.840366743379122, -0.08739960724831394, 0.47162959035926827,0.2524098932521648,0.696502685546875,0.945892333984375,0.5174102783203125
20220118-1828,2022-01-18 18:28:46Z,u01, 106,40,movements,el-ex, rt, d,211443.34177716667, 2.3200652028599436, -0.9370365713621404, 2.875573783352513, -1.1082384586334229, -2.678666353225708, 3.1222615242004395, 0.43358591198921204, 0.8058067560195923, 0.4033353626728058, 0.5031206607818604, -0.000813901424407959, 0.12730461359024048, -0.8347061370954438, -0.07023780708577071, 0.4575939156873594,0.29822872172338394,0.93670654296875,0.80499267578125,0.5306396484375
20220118-1828,2022-01-18 18:28:46Z,u01, 107,40,movements,el-ex, rt, d,211443.36672216668, 2.223117290597837, -0.8543472175049198, 2.838519949683515, -1.2720414400100708, -2.7892439365386963, 3.044604539871216, 0.521873414516449, 0.7541424036026001, 0.3986450731754303, 0.4302903413772583, 0.13654369115829468, 0.11702597141265869, -0.834214567313191, -0.058383129826201086, 0.4280199296859812,0.3427485531219526,0.970001220703125,0.841094970703125,0.51580810546875
20220118-1828,2022-01-18 18:28:46Z,u01, 108,40,movements,el-ex, rt, d,211443.39166716667, 2.1228262136710145, -0.7855317612966642, 2.7962306053586516, -0.07396247982978821, -2.745689868927002, 2.8311543464660645, 0.6019944548606873, 0.7072012424468994, 0.37076935172080994, 0.35726475715637207, 0.3560161590576172, 0.06222972273826599, -0.8266405358246857, -0.04527798375193526, 0.4065921982077276,0.3863915172432076,0.959259033203125,1.0632171630859375,0.4329986572265625
20220118-1828,2022-01-18 18:28:46Z,u01, 109,40,movements,el-ex, rt, d,211443.41661216668, 2.0230823500496626, -0.7240134594694729, 2.751729303888459, -0.22844718396663666, -2.7919092178344727, 2.76247501373291, 0.6738265752792358, 0.6623966693878174, 0.32739728689193726, 0.43254250288009644, 0.16665923595428467, 0.128138929605484, -0.8140949580678196, -0.030790214133680355, 0.3906189606629963,0.42862388268075585,1.099212646484375,0.8604736328125,0.4521026611328125
20220118-1828,2022-01-18 18:28:46Z,u01, 110,40,movements,el-ex, rt, d,211443.4415571667, 1.940120999330943, -0.6575919373681282, 2.72863797076002, -0.5430184602737427, -2.6543257236480713, 2.692739725112915, 0.738099217414856, 0.6112127304077148, 0.2857081890106201, 0.38543611764907837, 0.1458369493484497, 0.14785531163215637, -0.8015664211263656, -0.018584104496779455, 0.3703878429521825,0.4689978463978576,1.12353515625,0.757049560546875,0.433563232421875
20220118-1828,2022-01-18 18:28:46Z,u01, 111,40,movements,el-ex, rt, d,211443.46650216667, 1.8686232039879132, -0.5927204040978614, 2.716070734898957, -0.2675676643848419, -2.498129367828369, 2.430393695831299, 0.7929102182388306, 0.5586194396018982, 0.24338917434215546, 0.30463939905166626, 0.26176947355270386, 0.21008720993995667, -0.7884427138543092, -0.007257569246280057, 0.3495967707610535,0.5060511457603744,1.1016082763671875,0.794464111328125,0.4654541015625
20220118-1828,2022-01-18 18:28:46Z,u01, 112,40,movements,el-ex, rt, d,211443.49144716669, 1.801730465851858, -0.5363500581843391, 2.701747710319218, -0.05013880133628845, -2.218635082244873, 2.1580119132995605, 0.8367604613304138, 0.5110020041465759, 0.1967466026544571, 0.22569382190704346, 0.36379969120025635, 0.1960606575012207, -0.7735338405651829, 0.004323969782974391, 0.3333165577849191,0.5390054997701681,1.0624542236328125,0.8748016357421875,0.3928070068359375
20220118-1828,2022-01-18 18:28:46Z,u01, 113,40,movements,el-ex, rt, d,211443.51639216667, 1.7446415961103092, -0.4865268472972915, 2.692768322727402, -0.17558157444000244, -1.929882287979126, 1.8205913305282593, 0.8706384301185608, 0.4675585925579071, 0.15289980173110962, 0.14806902408599854, 0.37693923711776733, 0.26068997383117676, -0.7591065057323232, 0.014394997018510117, 0.31872639307460016,0.567418596549345,1.0225982666015625,0.849090576171875,0.4007720947265625
20220118-1828,2022-01-18 18:28:46Z,u01, 114,40,movements,el-ex, rt, d,211443.54133716668, 1.6992457201914541, -0.4446837673939706, 2.692226981672892, -0.2270948588848114, -1.7076170444488525, 1.4898062944412231, 0.8953096866607666, 0.4301724135875702, 0.11563867330551147, 0.0920102596282959, 0.3586611747741699, 0.3374103307723999, -0.7465701046349871, 0.021270049912775257, 0.3049348879370545,0.5909275867233802,0.9873199462890625,0.7888336181640625,0.4530487060546875
20220118-1828,2022-01-18 18:28:46Z,u01, 115,40,movements,el-ex, rt, d,211443.5662821667, 1.659104193539807, -0.40979130646577633, 2.692102631992053, -0.02258996292948723, -1.4886467456817627, 1.314330816268921, 0.9136301875114441, 0.3984179198741913, 0.08089111000299454, 0.01720184087753296, 0.3738599717617035, 0.24413669109344482, -0.7346532305861566, 0.02702196751961615, 0.29363466412773476,0.6110100436505446,0.938262939453125,0.7649688720703125,0.3360748291015625
20220118-1828,2022-01-18 18:28:46Z,u01, 116,40,movements,el-ex, rt, d,211443.59122716667, 1.62200608982402, -0.37995496393391304, 2.686109564306112, 0.2657304108142853, -1.3197963237762451, 1.074120044708252, 0.9274640679359436, 0.3708786368370056, 0.04753677919507027, -0.04956477880477905, 0.42883455753326416, 0.27588868141174316, -0.7229178322927933, 0.034032285357723985, 0.2860792245320581,0.6280051374921675,0.877899169921875,0.799713134765625,0.32342529296875
20220118-1828,2022-01-18 18:28:46Z,u01, 117,40,movements,el-ex, rt, d,211443.6161721667, 1.590346655927543, -0.3586332551096828, 2.6824895766327677, -0.20066705346107483, -1.08306884765625, 0.625767171382904, 0.9361985325813293, 0.3509947657585144, 0.018305322155356407, -0.13299107551574707, 0.4138672649860382, 0.43866515159606934, -0.7125232505091964, 0.03825281887906863, 0.2807646806750017,0.641886726199311,0.8096160888671875,0.7777252197265625,0.4386749267578125
20220118-1828,2022-01-18 18:28:46Z,u01, 118,40,movements,el-ex, rt, d,211443.64111716667, 1.5723360142167342, -0.3481057449333035, 2.6958892088369697, -0.6905607581138611, -0.7152363061904907, 0.22852998971939087, 0.940019428730011, 0.3411177694797516, 0.0014473372139036655, -0.15455806255340576, 0.3760605454444885, 0.47972357273101807, -0.7067668565423146, 0.03470272501765853, 0.2733163976905553,0.6515937962482965,0.78546142578125,0.7171783447265625,0.481170654296875
20220118-1828,2022-01-18 18:28:46Z,u01, 119,40,movements,el-ex, rt, d,211443.66606216668, 1.5662049588462563, -0.3469898878378379, 2.712664206836212, -0.536252498626709, -0.22343850135803223, -0.13421505689620972, 0.940390944480896, 0.34006863832473755, -0.004317711107432842, -0.1344672441482544, 0.41560766100883484, 0.4634702205657959, -0.7050089134801517, 0.028347421265739997, 0.2675643473490107,0.6561771216047153,0.800811767578125,0.751739501953125,0.44635009765625
20220118-1828,2022-01-18 18:28:46Z,u01, 120,40,movements,el-ex, rt, d,211443.6910071667, 1.5713792857396407, -0.3563842285811182, 2.72699755241013, -0.6683067679405212, 0.24004846811294556, -0.6209753751754761, 0.9371643662452698, 0.34888795018196106, 0.000546328432392329, -0.1333465576171875, 0.38927122950553894, 0.5246614217758179, -0.7069982493730488, 0.02065525576496681, 0.26587528363833324,0.6550093494959464,0.8038177490234375,0.7381591796875,0.52520751953125
20220118-1828,2022-01-18 18:28:46Z,u01, 121,40,movements,el-ex, rt, d,211443.71595216668, 1.5911080659476584, -0.37710870373898747, 2.7501298739249163, -1.0211492776870728, 0.6603410243988037, -1.0194714069366455, 0.9295415878295898, 0.36823388934135437, 0.018883202224969864, -0.09117782115936279, 0.3231571316719055, 0.5354384183883667, -0.7137095190178147, 0.007766844077023036, 0.26502706863290293,0.6483202873215429,0.830474853515625,0.692718505859375,0.5521087646484375
20220118-1828,2022-01-18 18:28:46Z,u01, 122,40,movements,el-ex, rt, d,211443.74089616668, 1.6248108510621937, -0.4055376437937991, 2.7815010556092803, -1.14397394657135, 1.098214864730835, -1.3279380798339844, 0.9175504446029663, 0.3945128619670868, 0.04960930719971657, -0.05553555488586426, 0.3452332615852356, 0.49574005603790283, -0.724379008143663, -0.008927843438130634, 0.26446514933572113,0.6365953910930107,0.8620147705078125,0.73974609375,0.54534912109375
20220118-1828,2022-01-18 18:28:46Z,u01, 123,40,movements,el-ex, rt, d,211443.7658411667, 1.6695674691850522, -0.43917529149775636, 2.8122102490729888, -0.8198208212852478, 1.4511587619781494, -1.5047816038131714, 0.9006915092468262, 0.4251931607723236, 0.0892527624964714, -0.01661241054534912, 0.30817481875419617, 0.3760795593261719, -0.7375416641403267, -0.02566463391438023, 0.26667984406993134,0.6198836118510812,0.8834686279296875,0.7260284423828125,0.484344482421875
20220118-1828,2022-01-18 18:28:46Z,u01, 124,40,movements,el-ex, rt, d,211443.79078616668, 1.7196643238247347, -0.47571865845640476, 2.835568249660037, -0.5130699872970581, 1.7179434299468994, -1.6149829626083374, 0.8791316151618958, 0.45797741413116455, 0.13185001909732819, 0.009586036205291748, 0.26272568106651306, 0.3192763328552246, -0.7512303422207582, -0.03972380078285554, 0.27311400339098124,0.5995696956691443,0.8887176513671875,0.720703125,0.4511260986328125
20220118-1828,2022-01-18 18:28:46Z,u01, 125,40,movements,el-ex, rt, d,211443.8157311667, 1.7758585235271769, -0.5156590402344583, 2.8569468237008366, -0.35133177042007446, 1.9350841045379639, -1.8096741437911987, 0.8517409563064575, 0.4931083023548126, 0.1771499365568161, 0.07606995105743408, 0.27996307611465454, 0.3490191698074341, -0.7653623279497455, -0.05287227931305955, 0.2823540305447752,0.5759352963008401,0.9131622314453125,0.7709808349609375,0.525177001953125
20220118-1828,2022-01-18 18:28:46Z,u01, 126,40,movements,el-ex, rt, d,211443.84067616667, 1.8385047245175052, -0.5604040072005533, 2.8794676420724303, -0.34735849499702454, 2.1601836681365967, -1.994481086730957, 0.8168687224388123, 0.5315284729003906, 0.2240610122680664, 0.16224205493927002, 0.2736167907714844, 0.31602418422698975, -0.7795006366345818, -0.06640228851628721, 0.2941722771011572,0.5490284958135231,0.9791107177734375,0.805145263671875,0.5400848388671875
20220118-1828,2022-01-18 18:28:46Z,u01, 127,40,movements,el-ex, rt, d,211443.86562116668, 1.9099135419178543, -0.6066811094340161, 2.906690466131023, -0.29509440064430237, 2.3818533420562744, -2.0752859115600586, 0.774756908416748, 0.57014399766922, 0.27329081296920776, 0.22150474786758423, 0.18438786268234253, 0.2694798409938812, -0.7938726431782525, -0.08007266115712003, 0.30675228579781355,0.518900526663703,1.0016632080078125,0.7603607177734375,0.5422515869140625
20220118-1828,2022-01-18 18:28:46Z,u01, 128,40,movements,el-ex, rt, d,211443.89056616666, 1.9902536320709905, -0.6529509581466257, 2.9380337424989427, -0.1667165458202362, 2.5803229808807373, -2.1168575286865234, 0.7254371643066406, 0.6075329780578613, 0.3234882354736328, 0.2520255446434021, 0.1855425238609314, 0.22433310747146606, -0.8081473954801072, -0.09296181539520355, 0.3200166285162266,0.4856390077778005,0.9774627685546875,0.7930755615234375,0.547821044921875
20220118-1828,2022-01-18 18:28:46Z,u01, 129,40,movements,el-ex, rt, d,211443.91551062503, 2.0784590524968274, -0.7012360506966729, 2.972506176916758, -0.09420619159936905, 2.719698905944824, -2.341322422027588, 0.6676866412162781, 0.6451625823974609, 0.3714301586151123, 0.345268189907074, 0.2162114381790161, 0.2586055099964142, -0.8213798736266215, -0.10511987253349807, 0.33522408499258743,0.44934389273053477,1.00244140625,0.8592071533203125,0.6189422607421875
20220118-1828,2022-01-18 18:28:46Z,u01, 130,40,movements,el-ex, rt, d,211443.940455625, 2.181271659000031, -0.7485273241406588, 3.02222530757989, -0.4376979470252991, 2.867825984954834, -2.420111656188965, 0.600350022315979, 0.6805604696273804, 0.42002084851264954, 0.427390456199646, 0.16576820611953735, 0.24935194849967957, -0.8341286380934876, -0.11933079070122099, 0.34931511618945343,0.40983972317209383,1.027740478515625,0.8463287353515625,0.66937255859375
20220118-1828,2022-01-18 18:28:46Z,u01, 131,40,movements,el-ex, rt, d,211443.96540062502, 2.3006281767013896, -0.7880198456497708, 3.0887127285392433, -0.5414350628852844, 2.984041213989258, -2.4244744777679443, 0.5256137847900391, 0.7089581489562988, 0.4702218472957611, 0.45892900228500366, 0.1433977484703064, 0.1519860327243805, -0.8467919557691861, -0.13436630356194243, 0.36029616146273247,0.36752657940669164,0.99920654296875,0.8332366943359375,0.6256103515625
20220118-1828,2022-01-18 18:28:47Z,u01, 132,40,movements,el-ex, rt, d,211443.990345625, 2.4316714878825842, -0.8236240387888034, -3.1200655928231225, -0.2636226415634155, 3.2096774578094482, -2.5639872550964355, 0.44292423129081726, 0.7336134314537048, 0.5153927803039551, 0.45456716418266296, 0.20225387811660767, 0.1566198468208313, -0.8577219333437928, -0.1483559191101436, 0.37186787047116704,0.3225181781916874,0.897491455078125,0.9358673095703125,0.6720123291015625
20220118-1828,2022-01-18 18:28:47Z,u01, 133,40,movements,el-ex, rt, d,211444.01529062502, 2.5748503271870278, -0.8625039454174454, -3.03745696440308, 0.059866297990083694, 3.2940375804901123, -2.787580966949463, 0.34926536679267883, 0.7594738602638245, 0.5488296747207642, 0.49044111371040344, 0.21428120136260986, 0.13714486360549927, -0.8649484507268566, -0.1621080260350673, 0.3875745848363934,0.2745384730337886,0.845062255859375,0.9657745361328125,0.702117919921875
20220118-1828,2022-01-18 18:28:47Z,u01, 134,40,movements,el-ex, rt, d,211444.04023562503, 2.7318749161759928, -0.8941698403223305, -2.939888524935942, -0.15204450488090515, 3.288203477859497, -2.785983085632324, 0.24943393468856812, 0.7796895503997803, 0.5743412971496582, 0.5358902215957642, 0.15065431594848633, 0.062835693359375, -0.8695154135186071, -0.176390437836785, 0.4026790844969083,0.22512045299991768,0.7853240966796875,0.9303436279296875,0.637176513671875
20220118-1828,2022-01-18 18:28:47Z,u01, 135,40,movements,el-ex, rt, d,211444.065180625, 2.9044676665065867, -0.9102532420228764, -2.827335904139031, -0.39496853947639465, 3.4570882320404053, -2.982909679412842, 0.14412745833396912, 0.7896591424942017, 0.5963771939277649, 0.5421059727668762, 0.16432029008865356, 0.24595391750335693, -0.872775799532011, -0.19092146881870797, 0.4144874769083132,0.1732384076221377,0.692230224609375,0.9290008544921875,0.8200531005859375
20220118-1828,2022-01-18 18:28:47Z,u01, 136,40,movements,el-ex, rt, d,211444.09012562502, 3.096358586171733, -0.9069282545794334, -2.6972346850320106, -0.8998034000396729, 3.6246304512023926, -3.226905345916748, 0.027862314134836197, 0.7876147627830505, 0.615538477897644, 0.6924135088920593, 0.33756858110427856, 0.27552950382232666, -0.8744315560642182, -0.20769853617477058, 0.42272483488236995,0.11633899260281738,0.72027587890625,1.12518310546875,0.8910675048828125
20220118-1828,2022-01-18 18:28:47Z,u01, 137,40,movements,el-ex, rt, d,211444.115070625, -2.9954738389910145, -0.8842404457888432, -2.570325774694298, -0.5043433308601379, 3.7649736404418945, -3.221047878265381, -0.09229215979576111, 0.7734337449073792, 0.6271224617958069, 0.703376054763794, 0.24782168865203857, 0.03582632541656494, -0.8737121539004835, -0.2240274472153167, 0.42801599926678313,0.05693093702279705,0.63873291015625,1.0410919189453125,0.6844635009765625
20220118-1828,2022-01-18 18:28:47Z,u01, 138,40,movements,el-ex, rt, d,211444.14001562502, -2.811138652563695, -0.8602273418284909, -2.4521665001105917, -0.0012256531044840813, 3.829724073410034, -3.2148962020874023, -0.2116423100233078, 0.7579908967018127, 0.6169750094413757, 0.6815060377120972, 0.17509949207305908, 0.09352034330368042, -0.8669745238424885, -0.23841704275606612, 0.43761832827708647,-0.0017134134359633596,0.4698638916015625,0.9330902099609375,0.7104949951171875
20220118-1828,2022-01-18 18:28:47Z,u01, 139,40,movements,el-ex, rt, d,211444.164960625, -2.632997448199262, -0.8261044695851717, -2.34174234637426, -0.17538577318191528, 3.7539026737213135, -3.2948553562164307, -0.3300285339355469, 0.7352967858314514, 0.5919626355171204, 0.6725578308105469, 0.07373929023742676, 0.10139691829681396, -0.8558120992010149, -0.25212491767189366, 0.4475508910355443,-0.06096611908153968,0.362396240234375,0.8084716796875,0.72601318359375
20220118-1828,2022-01-18 18:28:47Z,u01, 140,40,movements,el-ex, rt, d,211444.189905625, -2.478055494544794, -0.7713327682896916, -2.255591561062684, -0.6815980672836304, 3.6377174854278564, -3.1414618492126465, -0.4415948688983917, 0.6970914006233215, 0.564852237701416, 0.7105308771133423, -0.005730986595153809, -0.06590479612350464, -0.8439798796809942, -0.2648095358322521, 0.4506940952358165,-0.12020350340309283,0.2689361572265625,0.6913604736328125,0.4989471435546875
20220118-1828,2022-01-18 18:28:47Z,u01, 141,40,movements,el-ex, rt, d,211444.21485062502, -2.34505178968171, -0.7052702588629175, -2.196054681030164, -0.9062669277191162, 3.723961591720581, -3.022632360458374, -0.5443829298019409, 0.6482396125793457, 0.5323843359947205, 0.6529185175895691, 0.016616404056549072, -0.011418521404266357, -0.8311241018012289, -0.274635956156081, 0.44915279562824745,-0.17908031947800765,0.1309967041015625,0.682830810546875,0.5491790771484375
20220118-1828,2022-01-18 18:28:47Z,u01, 142,40,movements,el-ex, rt, d,211444.239795625, -2.2262632854971827, -0.6369234001612495, -2.1529406616000837, -0.6307960748672485, 3.6969780921936035, -2.9002528190612793, -0.6373258829116821, 0.5947248935699463, 0.490018755197525, 0.6216244697570801, -0.009077370166778564, -0.035932183265686035, -0.8156253245528237, -0.2824264667638953, 0.44635034225176223,-0.23614003999611377,-0.0157012939453125,0.5856475830078125,0.4540863037109375
20220118-1828,2022-01-18 18:28:47Z,u01, 143,40,movements,el-ex, rt, d,211444.26474062502, -2.115341254118018, -0.5706132906581384, -2.118115744587441, -0.6138085722923279, 3.6034414768218994, -2.776994228363037, -0.7198480367660522, 0.5401482582092285, 0.4359576106071472, 0.6432487964630127, 0.04401916265487671, -0.10699319839477539, -0.7965589589746306, -0.28891631506802784, 0.4444670071788184,-0.29063792367390967,-0.07952880859375,0.6315155029296875,0.3948974609375
20220118-1828,2022-01-18 18:28:47Z,u01, 144,40,movements,el-ex, rt, d,211444.289685625, -2.0181800556384766, -0.5053666810114741, -2.096055413986217, -0.5166063904762268, 3.3483669757843018, -2.5926127433776855, -0.7888818979263306, 0.48412832617759705, 0.3785310983657837, 0.656359076499939, -0.05950671434402466, -0.20155936479568481, -0.7765072394909647, -0.2937721050108553, 0.44081751436286154,-0.3411958816406837,-0.1325225830078125,0.42462158203125,0.176971435546875
20220118-1828,2022-01-18 18:28:47Z,u01, 145,40,movements,el-ex, rt, d,211444.314630625, -1.9307944794252487, -0.4422468122645479, -2.0845515708983067, -0.5857104063034058, 3.1924962997436523, -2.3732786178588867, -0.8458573222160339, 0.4279711842536926, 0.31838130950927734, 0.5418561697006226, -0.07953676581382751, -0.14301177859306335, -0.7557290565306185, -0.2967562188045619, 0.4357189202395875,-0.3885338992327563,-0.2670135498046875,0.362884521484375,0.1716766357421875
20220118-1828,2022-01-18 18:28:47Z,u01, 146,40,movements,el-ex, rt, d,211444.33957562502, -1.850546553798894, -0.3842213885917812, -2.077848397469529, -0.47503453493118286, 2.984124183654785, -2.155113697052002, -0.8910496830940247, 0.37483739852905273, 0.25598424673080444, 0.47236359119415283, -0.0672813355922699, -0.21588397026062012, -0.7340300724080795, -0.2986502509799601, 0.43094022811311533,-0.43162322096828054,-0.4186859130859375,0.30755615234375,0.04010009765625
20220118-1828,2022-01-18 18:28:47Z,u01, 147,40,movements,el-ex, rt, d,211444.364520625, -1.782495868916706, -0.33181627911658385, -2.0807560051614056, -0.8335781097412109, 2.5334854125976562, -1.8249404430389404, -0.9243453741073608, 0.32576078176498413, 0.19866016507148743, 0.4658644199371338, -0.2571115791797638, -0.4950162172317505, -0.7142670185790757, -0.2985845032809691, 0.4243699690925026,-0.46965963102598873,-0.4447174072265625,0.1292877197265625,-0.2452850341796875
20220118-1828,2022-01-18 18:28:47Z,u01, 148,40,movements,el-ex, rt, d,211444.38946562502, -1.7344848770721992, -0.289686836245755, -2.1002979170074956, -1.185676097869873, 1.8176085948944092, -1.1386982202529907, -0.9455233812332153, 0.28565213084220886, 0.1561686396598816, 0.3962831497192383, -0.4444504678249359, -0.7000832557678223, -0.7010306584640537, -0.29434730576202006, 0.413921585677744,-0.5005843673667776,-0.5492401123046875,-0.1587982177734375,-0.543914794921875
20220118-1828,2022-01-18 18:28:47Z,u01, 149,40,movements,el-ex, rt, d,211444.414410625, -1.704097807763629, -0.2677421748129229, -2.1206292448989457, -0.5317479372024536, 0.9801240563392639, -0.36048322916030884, -0.955815315246582, 0.2645547389984131, 0.1281716674566269, 0.35921186208724976, -0.5064371824264526, -0.935300350189209, -0.6937416313857176, -0.2877644625360442, 0.4064827450244448,-0.5202749328786919,-0.5962371826171875,-0.2647705078125,-0.7881317138671875
20220118-1828,2022-01-18 18:28:47Z,u01, 150,40,movements,el-ex, rt, d,211444.439355625, -1.6955513237287982, -0.2683429997059352, -2.1239454732587686, 0.39248770475387573, -0.19776928424835205, 0.41611045598983765, -0.9567179679870605, 0.2651340961456299, 0.11997843533754349, 0.3312143087387085, -0.5173772573471069, -1.0440047979354858, -0.6920550306855814, -0.2846911493957861, 0.40702258992479445,-0.5237780661038716,-0.6255035400390625,-0.2522430419921875,-0.9240264892578125
20220118-1828,2022-01-18 18:28:47Z,u01, 151,40,movements,el-ex, rt, d,211444.46430062503, -1.7087146721814523, -0.28838245885229674, -2.1081211818605863, 0.8834787607192993, -1.1951831579208374, 0.9901090860366821, -0.9496015906333923, 0.28440186381340027, 0.13180424273014069, 0.3190321922302246, -0.4870539903640747, -0.8458238840103149, -0.6954998730691264, -0.2866741137291309, 0.41529057969934696,-0.5114993368710189,-0.6287689208984375,-0.2107696533203125,-0.7684783935546875
20220118-1828,2022-01-18 18:28:47Z,u01, 152,40,movements,el-ex, rt, d,211444.489245625, -1.7418528633824475, -0.320878746113208, -2.0916927450473897, 0.7267714142799377, -1.867530345916748, 1.3643722534179688, -0.9351093769073486, 0.3154005706310272, 0.16153517365455627, 0.2911118268966675, -0.440644770860672, -0.5975854396820068, -0.7049968583519455, -0.28939076726514135, 0.4244111054963246,-0.48898660232697916,-0.6439971923828125,-0.125244140625,-0.4360504150390625
20220118-1828,2022-01-18 18:28:47Z,u01, 153,40,movements,el-ex, rt, d,211444.51419062502, -1.792040239881442, -0.36145850145585495, -2.084491582617844, 0.3613017499446869, -2.2979238033294678, 1.7128938436508179, -0.9125823378562927, 0.3536388576030731, 0.2052634060382843, 0.24189752340316772, -0.29425179958343506, -0.29382529854774475, -0.7199361704711534, -0.29038527875131903, 0.4311073246161536,-0.45990734939019373,-0.6691131591796875,0.024169921875,-0.1476898193359375
20220118-1828,2022-01-18 18:28:47Z,u01, 154,40,movements,el-ex, rt, d,211444.539135625, -1.8564510691389193, -0.4062646654395322, -2.0924662203719797, 0.08357781916856766, -2.629633903503418, 1.9099977016448975, -0.8813793659210205, 0.3951807916164398, 0.2588493824005127, 0.2222909927368164, -0.23807638883590698, -0.2983846664428711, -0.7392176386662886, -0.2880659106098089, 0.43374526962604115,-0.42713055749093526,-0.659088134765625,0.1571044921875,-0.0395355224609375
20220118-1828,2022-01-18 18:28:47Z,u01, 155,40,movements,el-ex, rt, d,211444.56408062502, -1.9295666419613495, -0.456459595427769, -2.1043271910898107, 0.4166194498538971, -2.838766098022461, 2.1543540954589844, -0.8404669761657715, 0.4407729506492615, 0.31517475843429565, 0.3003970980644226, -0.20464318990707397, -0.31560179591178894, -0.7592108679504312, -0.2849319988531308, 0.43653174733364497,-0.38968306744299264,-0.56622314453125,0.212310791015625,-0.0329437255859375
20220118-1828,2022-01-18 18:28:47Z,u01, 156,40,movements,el-ex, rt, d,211444.589025625, -2.0070528321396157, -0.5119720830798813, -2.1159867034757145, 0.4857160449028015, -2.9092578887939453, 2.2484326362609863, -0.7901292443275452, 0.4898974299430847, 0.36837038397789, 0.32583463191986084, -0.143873929977417, -0.1859666109085083, -0.7776935778461415, -0.28174082661439936, 0.44110991006895256,-0.34819104772854226,-0.46429443359375,0.3460235595703125,0.182403564453125
20220118-1828,2022-01-18 18:28:47Z,u01, 157,40,movements,el-ex, rt, d,211444.613970625, -2.092301708242155, -0.5662044746026587, -2.1397355287217845, 0.04036936163902283, -2.987211227416992, 2.4365978240966797, -0.7317580580711365, 0.536432683467865, 0.4204407036304474, 0.3802869915962219, -0.13292938470840454, -0.13658124208450317, -0.7961395251225267, -0.27637332024880246, 0.4430411570752151,-0.305768371112222,-0.3827056884765625,0.418487548828125,0.3198089599609375
20220118-1828,2022-01-18 18:28:47Z,u01, 158,40,movements,el-ex, rt, d,211444.63891562502, -2.1914285008172705, -0.6215914100226645, -2.1790630697192137, 0.33103522658348083, -3.1730873584747314, 2.673797369003296, -0.6613463759422302, 0.5823296308517456, 0.4727725684642792, 0.4214932322502136, -0.2054833173751831, -0.22715157270431519, -0.8152328177214401, -0.2679211530001188, 0.4426500878219219,-0.2601439203200086,-0.2398529052734375,0.3768463134765625,0.2456207275390625
20220118-1828,2022-01-18 18:28:47Z,u01, 159,40,movements,el-ex, rt, d,211444.663860625, -2.295437051564719, -0.6869607000845808, -2.216471043547833, 0.958707332611084, -3.3035972118377686, 2.9083995819091797, -0.5789071321487427, 0.6341902017593384, 0.5125134587287903, 0.5057867765426636, 0.032695233821868896, -0.16642862558364868, -0.8300434047607588, -0.2593929173584175, 0.4473148875473543,-0.20893274129333456,-0.09710693359375,0.6103363037109375,0.28857421875
20220118-1828,2022-01-18 18:28:47Z,u01, 160,40,movements,el-ex, rt, d,211444.68880562502, -2.408389091981901, -0.7552600275777995, -2.262619965894219, 0.8322465419769287, -3.279935836791992, 2.868062973022461, -0.48727917671203613, 0.6854780316352844, 0.5409985184669495, 0.4580584466457367, 0.07245653867721558, 0.18640351295471191, -0.841542637551889, -0.2496101732241966, 0.4532702757072208,-0.15507082406155787,-0.0292205810546875,0.7579345703125,0.7274017333984375
20220118-1828,2022-01-18 18:28:47Z,u01, 161,40,movements,el-ex, rt, d,211444.713750625, -2.53982002406415, -0.8075338034884629, -2.3336410867114403, 0.08254973590373993, -3.2663488388061523, 2.910182476043701, -0.3913385272026062, 0.7225845456123352, 0.5698477029800415, 0.4666557013988495, -0.0033919811248779297, 0.003623664379119873, -0.8533473180636211, -0.23816425771361865, 0.45215750133545907,-0.10310163209021678,0.048370361328125,0.7373809814453125,0.6482696533203125
20220118-1828,2022-01-18 18:28:47Z,u01, 162,40,movements,el-ex, rt, d,211444.738695625, -2.6876684596189477, -0.8488548801999162, -2.422736952004739, 0.5606572031974792, -3.328111171722412, 2.9711556434631348, -0.28977710008621216, 0.7505241632461548, 0.5939221978187561, 0.4680759012699127, 0.02456146478652954, -0.22301119565963745, -0.8637589593756146, -0.22556939765410514, 0.4477237434740605,-0.05081947458202512,0.1782989501953125,0.77508544921875,0.37091064453125
20220118-1828,2022-01-18 18:28:47Z,u01, 163,40,movements,el-ex, rt, d,211444.76364062502, -2.842754160759961, -0.9028379785295676, -2.516586776232214, 1.589544653892517, -3.252040147781372, 3.0559098720550537, -0.18235337734222412, 0.7850878834724426, 0.5919333100318909, 0.42283177375793457, 0.0909498929977417, 0.2771313786506653, -0.8666726550259527, -0.21176675725477107, 0.4516712914788123,0.005160285208115123,0.238800048828125,0.84283447265625,0.650848388671875
20220118-1828,2022-01-18 18:28:47Z,u01, 164,40,movements,el-ex, rt, d,211444.788585625, -3.008595458754415, -0.9488752741731736, -2.627080319241147, 0.5747225880622864, -2.9677019119262695, 2.9294204711914062, -0.07725568115711212, 0.8127607703208923, 0.577453076839447, 0.39530980587005615, 0.10734426975250244, 0.41543662548065186, -0.8660985349660806, -0.19646847436012288, 0.4558672592700231,0.0588105184170216,0.31805419921875,0.92010498046875,0.992889404296875
20220118-1828,2022-01-18 18:28:47Z,u01, 165,40,movements,el-ex, rt, d,211444.81353062502, 3.0975409496629824, -0.9438276595880155, -2.7518755679034577, -1.0241832733154297, -3.0867013931274414, 2.8522369861602783, 0.025836458429694176, 0.809809684753418, 0.5861235857009888, 0.6126369833946228, 0.06047523021697998, 0.030453801155090332, -0.8716929511690987, -0.18224489668971755, 0.44208208626742285,0.10724582900808988,0.61004638671875,0.8601531982421875,0.6663970947265625
20220118-1828,2022-01-18 18:28:47Z,u01, 166,40,movements,el-ex, rt, d,211444.838475625, 2.9291385223262174, -0.9185741417654183, -2.86585401931627, 0.15906795859336853, -3.054551839828491, 2.8258025646209717, 0.12798212468624115, 0.7947369813919067, 0.5933080315589905, 0.44326114654541016, 0.1895313262939453, -0.032943904399871826, -0.876398895005333, -0.16905320273150187, 0.42356583379079,0.15471975589592235,0.5712432861328125,0.9842681884765625,0.56036376953125
20220118-1828,2022-01-18 18:28:47Z,u01, 167,40,movements,el-ex, rt, d,211444.863420625, 2.7505233450559317, -0.930869300828809, -2.9972669850269993, 2.2605113983154297, -2.709547519683838, 2.9803755283355713, 0.22761507332324982, 0.8021393418312073, 0.5520544648170471, 0.2716066837310791, 0.12902826070785522, 0.19271200895309448, -0.8680290479269234, -0.15017595159040986, 0.4265945158130287,0.20491454201929032,0.4734649658203125,0.9495391845703125,0.6428985595703125
20220118-1828,2022-01-18 18:28:47Z,u01, 168,40,movements,el-ex, rt, d,211444.88836562503, 2.5767879076239835, -0.9273927854465893, -3.1333143752963775, 0.13632865250110626, -2.628117084503174, 2.896188735961914, 0.3211090862751007, 0.8000585436820984, 0.5067504644393921, 0.4762694537639618, 0.12138938903808594, 0.45768171548843384, -0.8584537822714735, -0.12818870884096142, 0.428505398349535,0.2510142171147353,0.7973785400390625,0.92144775390625,0.9644317626953125
20220118-1828,2022-01-18 18:28:47Z,u01, 169,40,movements,el-ex, rt, d,211444.91331066668, 2.4539560935736278, -0.8722758436738298, 3.0801797743805803, -1.214384913444519, -2.667865514755249, 2.519169569015503, 0.4081747233867645, 0.7657944560050964, 0.49694353342056274, 0.5447977781295776, 0.2525620460510254, 0.06129962205886841, -0.857312664586809, -0.1161324865186299, 0.4069111178947599,0.2931753781698293,0.9643096923828125,0.9574737548828125,0.6031341552734375
20220118-1828,2022-01-18 18:28:47Z,u01, 170,40,movements,el-ex, rt, d,211444.93825566667, 2.349255738889551, -0.820366910932693, 3.027124155123289, 0.25528883934020996, -2.583216428756714, 2.366363048553467, 0.4855481684207916, 0.7313960790634155, 0.47885629534721375, 0.34915342926979065, 0.41189926862716675, 0.12238603830337524, -0.8534363070378148, -0.10523604081151042, 0.38753110141860747,0.33225247867914787,0.8347015380859375,1.1432952880859375,0.6012420654296875
20220118-1828,2022-01-18 18:28:47Z,u01, 171,40,movements,el-ex, rt, d,211444.96319966667, 2.230602721561597, -0.7868785607336121, 2.9487696899387608, 0.9267010688781738, -2.359276533126831, 2.5290353298187256, 0.5578652024269104, 0.7081528306007385, 0.4327889084815979, 0.16561496257781982, 0.15091705322265625, 0.0856439471244812, -0.8418116990862234, -0.08801997835862546, 0.3817924806317451,0.3712682764824312,0.7150115966796875,0.9029083251953125,0.54449462890625
20220118-1828,2022-01-18 18:28:48Z,u01, 172,40,movements,el-ex, rt, d,211444.98814466668, 2.1206381529651432, -0.7447093662997287, 2.874806971360079, 0.5384481549263, -2.344717025756836, 2.6473920345306396, 0.626909613609314, 0.6777581572532654, 0.38422513008117676, 0.21926665306091309, 0.06323927640914917, 0.08318251371383667, -0.8291422385370736, -0.06808606311810321, 0.3751370238447522,0.40885193342773324,0.8461761474609375,0.740997314453125,0.4674072265625
20220118-1828,2022-01-18 18:28:48Z,u01, 173,40,movements,el-ex, rt, d,211445.01308966667, 2.028516366494416, -0.6903866343744722, 2.826823774644749, -0.09695324301719666, -2.472139358520508, 2.558500289916992, 0.6916353106498718, 0.6368353366851807, 0.34070807695388794, 0.3158568739891052, 0.1328181028366089, 0.10011866688728333, -0.817142337951698, -0.05130735466716076, 0.36167390349052897,0.4459127449316786,0.988250732421875,0.759429931640625,0.446807861328125
20220118-1828,2022-01-18 18:28:48Z,u01, 174,40,movements,el-ex, rt, d,211445.03803466668, 1.9502425080785382, -0.6323251914164388, 2.801420506967026, -0.25097113847732544, -2.5054783821105957, 2.304622173309326, 0.7492783665657043, 0.5910219550132751, 0.29879024624824524, 0.2868698239326477, 0.19663679599761963, 0.12523654103279114, -0.8049178210400587, -0.038761206133473655, 0.34392095964132124,0.4819994925970281,1.0361480712890625,0.78765869140625,0.4240264892578125
20220118-1828,2022-01-18 18:28:48Z,u01, 175,40,movements,el-ex, rt, d,211445.0629796667, 1.8791672366047498, -0.5785725259775759, 2.7847164878574486, -0.16054761409759521, -2.382768392562866, 2.1432950496673584, 0.7977508902549744, 0.546829342842102, 0.25410935282707214, 0.2336517572402954, 0.23348993062973022, 0.17095494270324707, -0.7913608055547261, -0.02833278510212446, 0.32703433118668557,0.5157460958300103,1.0417633056640625,0.7996368408203125,0.416778564453125
20220118-1828,2022-01-18 18:28:48Z,u01, 176,40,movements,el-ex, rt, d,211445.08792466667, 1.8143131629477973, -0.5286130922570851, 2.769566980280873, 0.051585063338279724, -2.128736734390259, 1.9610048532485962, 0.8380308747291565, 0.5043362379074097, 0.20820656418800354, 0.1725437045097351, 0.21938830614089966, 0.24159245193004608, -0.7770434442752852, -0.017514856071645754, 0.31220916553834954,0.5462805647694069,1.0105743408203125,0.723724365234375,0.449798583984375
20220118-1828,2022-01-18 18:28:48Z,u01, 177,40,movements,el-ex, rt, d,211445.1128696667, 1.7558188212776338, -0.4831355093482732, 2.75378766952262, 0.1730765402317047, -1.9107575416564941, 1.8001492023468018, 0.8704283237457275, 0.46455809473991394, 0.16291208565235138, 0.08399361371994019, 0.27941465377807617, 0.2702089250087738, -0.7625091050058982, -0.005992345619177428, 0.30012058842146067,0.5731244307750895,0.96533203125,0.7305450439453125,0.4290924072265625
20220118-1828,2022-01-18 18:28:48Z,u01, 178,40,movements,el-ex, rt, d,211445.13781466667, 1.705789545083242, -0.44153246797959594, 2.7428840226248408, 0.0802849531173706, -1.7166246175765991, 1.6118810176849365, 0.8958727717399597, 0.42732545733451843, 0.12167676538228989, 0.04181039333343506, 0.33254700899124146, 0.3114900588989258, -0.7488788192678222, 0.004346927791235411, 0.28877239532848614,0.596466495906387,0.93768310546875,0.7598724365234375,0.43316650390625
20220118-1828,2022-01-18 18:28:48Z,u01, 179,40,movements,el-ex, rt, d,211445.16275966668, 1.6638486778225285, -0.4051502116611502, 2.737492004217865, -0.021045628935098648, -1.469792127609253, 1.2904242277145386, 0.9150673151016235, 0.394156813621521, 0.08539578318595886, -0.015332698822021484, 0.376137375831604, 0.3685077428817749, -0.7365729635890824, 0.012576155765933864, 0.27808591888565243,0.6164174203025263,0.9053192138671875,0.785919189453125,0.4586334228515625
20220118-1828,2022-01-18 18:28:48Z,u01, 180,40,movements,el-ex, rt, d,211445.1877046667, 1.632312313268171, -0.377850936455866, 2.7411322506727602, -0.5121819972991943, -1.1426303386688232, 0.8596210479736328, 0.9277017712593079, 0.3689238429069519, 0.05714058503508568, -0.053891777992248535, 0.3096955716609955, 0.4348336458206177, -0.7268469908396298, 0.01624023699948446, 0.26790882357371804,0.6321825652955312,0.873809814453125,0.678619384765625,0.491973876953125
20220118-1828,2022-01-18 18:28:48Z,u01, 181,40,movements,el-ex, rt, d,211445.21264966668, 1.6137156477564607, -0.3600833936022101, 2.7567666784756506, -0.49175727367401123, -0.7727814316749573, 0.49595019221305847, 0.9350059032440186, 0.3523522913455963, 0.04015447944402695, -0.11953020095825195, 0.42694464325904846, 0.42426228523254395, -0.7210226673978148, 0.014267163820007103, 0.2570712994702002,0.6433019374051238,0.82733154296875,0.747528076171875,0.47540283203125
20220118-1828,2022-01-18 18:28:48Z,u01, 182,40,movements,el-ex, rt, d,211445.2375946667, 1.6012444233916447, -0.3517838439269849, 2.761015587280075, 0.06798500567674637, -0.3317456543445587, 0.14185021817684174, 0.9383245706558228, 0.3445729613304138, 0.028579028323292732, -0.1361393928527832, 0.4587259888648987, 0.4003305435180664, -0.7170025086259033, 0.01403271549004681, 0.25299651999719586,0.6493869175814384,0.80218505859375,0.8032989501953125,0.4289093017578125
20220118-1828,2022-01-18 18:28:48Z,u01, 183,40,movements,el-ex, rt, d,211445.26253966667, 1.598766676445003, -0.35401644765958945, 2.761732785346806, -0.20493845641613007, 0.1172141581773758, -0.3250387907028198, 0.937620997428894, 0.34666797518730164, 0.02623242884874344, -0.12866109609603882, 0.370006799697876, 0.46182024478912354, -0.7162090074519202, 0.012683538644872358, 0.25352841114747904,0.6500824028112517,0.8124542236328125,0.7121734619140625,0.4689788818359375
20220118-1828,2022-01-18 18:28:48Z,u01, 184,40,movements,el-ex, rt, d,211445.28748466668, 1.6114122955371424, -0.36967032351775175, 2.7701026153668113, -0.4511074423789978, 0.7140882611274719, -0.9398630261421204, 0.9316775798797607, 0.3613080382347107, 0.03786180913448334, -0.16324490308761597, 0.4275103211402893, 0.5072433948516846, -0.7203448892763662, 0.005843420331863788, 0.25601730938932454,0.6446117532516823,0.7684326171875,0.788818359375,0.54510498046875
20220118-1828,2022-01-18 18:28:48Z,u01, 185,40,movements,el-ex, rt, d,211445.3124296667, 1.6435781734542678, -0.39796568122226217, 2.7868374758994863, -0.6298595666885376, 1.3574233055114746, -1.4147834777832031, 0.9194109439849854, 0.38754379749298096, 0.06703483313322067, -0.07299047708511353, 0.43104448914527893, 0.48194611072540283, -0.7303996545875878, -0.005810395940765434, 0.26027240371683996,0.6314594271141037,0.828338623046875,0.8145599365234375,0.5651702880859375
20220118-1828,2022-01-18 18:28:48Z,u01, 186,40,movements,el-ex, rt, d,211445.33737466668, 1.6914696351543583, -0.43484032838149195, 2.8070786037706443, -0.5143630504608154, 1.7903534173965454, -1.6287418603897095, 0.9003421068191528, 0.4212656021118164, 0.10917772352695465, -0.007580757141113281, 0.39039522409439087, 0.3977196216583252, -0.7444547408596577, -0.019390732956951012, 0.2670039885321597,0.6116536300652662,0.89276123046875,0.8116607666015625,0.50689697265625
20220118-1828,2022-01-18 18:28:48Z,u01, 187,40,movements,el-ex, rt, d,211445.3623196667, 1.7471649618367606, -0.47638166950912963, 2.8230613987472175, -0.15905146300792694, 2.0848617553710938, -1.8105180263519287, 0.8748745918273926, 0.45856672525405884, 0.15592049062252045, 0.024829387664794922, 0.39880937337875366, 0.3997591733932495, -0.7595870347171433, -0.03142895227719422, 0.2775493178216607,0.5873723047588779,0.8975982666015625,0.845947265625,0.53582763671875
20220118-1828,2022-01-18 18:28:48Z,u01, 188,40,movements,el-ex, rt, d,211445.38726466667, 1.8098433754313767, -0.5228929319892364, 2.838406009594096, -0.16007834672927856, 2.320539951324463, -2.0559580326080322, 0.8417420387268066, 0.49938860535621643, 0.20513835549354553, 0.10794979333877563, 0.35266220569610596, 0.41192734241485596, -0.7750544516101613, -0.043125101537772804, 0.29104803070847285,0.5592155335822717,0.9496917724609375,0.85205078125,0.6170654296875
20220118-1828,2022-01-18 18:28:48Z,u01, 189,40,movements,el-ex, rt, d,211445.41220966668, 1.8831963803142293, -0.5736468715849767, 2.862547296758276, -0.3561815619468689, 2.5717599391937256, -2.262112855911255, 0.799274206161499, 0.5426987409591675, 0.2581462860107422, 0.2572751045227051, 0.2923690676689148, 0.3526480495929718, -0.7910885403202772, -0.05702683489377838, 0.305006419337476,0.5271605218774127,1.0447540283203125,0.8307647705078125,0.604522705078125
20220118-1828,2022-01-18 18:28:48Z,u01, 190,40,movements,el-ex, rt, d,211445.43715466667, 1.9706709750821945, -0.6249859351159913, 2.8969648093572116, -0.24292269349098206, 2.899956703186035, -2.3898487091064453, 0.7469939589500427, 0.5850858688354492, 0.3157136142253876, 0.3150331377983093, 0.26096832752227783, 0.3048464357852936, -0.8078952162748981, -0.07184790297495391, 0.31847213838228133,0.49063110842073554,1.0620269775390625,0.8460540771484375,0.6205596923828125
20220118-1828,2022-01-18 18:28:48Z,u01, 191,40,movements,el-ex, rt, d,211445.46209966668, 2.06897495852031, -0.6800146603219733, 2.932565361253388, 0.15862242877483368, 3.2203524112701416, -2.5776920318603516, 0.6830542087554932, 0.6288044452667236, 0.3715404272079468, 0.36195921897888184, 0.24517327547073364, 0.2691764533519745, -0.8237456003454042, -0.08493170623304463, 0.33536154965850806,0.4491798451306719,1.0462799072265625,0.8733367919921875,0.6503753662109375
20220118-1828,2022-01-18 18:28:48Z,u01, 192,40,movements,el-ex, rt, d,211445.4870446667, 2.173738128829897, -0.7423035859509266, 2.9660577826242407, 0.7592748403549194, 3.3554797172546387, -2.732753276824951, 0.6069744825363159, 0.6759872436523438, 0.41788023710250854, 0.44221991300582886, 0.2192002534866333, 0.2404758334159851, -0.8365194265666636, -0.09578811191358248, 0.35781267926906435,0.4037700021337229,1.0491943359375,0.8951873779296875,0.658355712890625
20220118-1828,2022-01-18 18:28:48Z,u01, 193,40,movements,el-ex, rt, d,211445.51198966667, 2.2767166957679206, -0.8162081936310035, 2.9957554778661377, 1.409637212753296, 3.2614340782165527, -3.0214297771453857, 0.52128666639328, 0.7285537123680115, 0.4443759024143219, 0.48365718126296997, 0.24459081888198853, 0.1312011182308197, -0.84328418230681, -0.1051652854027192, 0.3874037072000882,0.3573940387981149,1.018890380859375,0.9516143798828125,0.5640411376953125
20220118-1828,2022-01-18 18:28:48Z,u01, 194,40,movements,el-ex, rt, d,211445.53693466668, 2.395301775822961, -0.893448296527912, 3.044786080420285, 1.0015652179718018, 3.2686078548431396, -3.1993770599365234, 0.42549893260002136, 0.7792375087738037, 0.4601520001888275, 0.5566482543945312, 0.1825392246246338, 0.16849514842033386, -0.8464419000660215, -0.11667095344572707, 0.41772084130485754,0.30892298040774063,0.982147216796875,0.9617767333984375,0.6286468505859375
20220118-1828,2022-01-18 18:28:48Z,u01, 195,40,movements,el-ex, rt, d,211445.56187966667, 2.544784803618634, -0.9597115633640841, 3.132381734589682, 0.5629101395606995, 3.15964674949646, -3.3518576622009277, 0.3224542737007141, 0.8190261125564575, 0.4745737612247467, 0.5143072605133057, 0.13231384754180908, 0.15364623069763184, -0.848475786378823, -0.13181699341282224, 0.4424457354041025,0.25875693918965204,0.860809326171875,0.9272613525390625,0.6389617919921875
20220118-1828,2022-01-18 18:28:48Z,u01, 196,40,movements,el-ex, rt, d,211445.58682466668, 2.7273309015756446, -1.0084586455833728, -3.0271360642076792, 0.23019888997077942, 3.187967300415039, -3.4411239624023438, 0.21460676193237305, 0.8460110425949097, 0.4880671501159668, 0.5612720847129822, 0.1425144076347351, 0.1241462230682373, -0.8497466347270438, -0.14820334302262372, 0.46173293085763767,0.20680722716009886,0.77587890625,0.988525390625,0.612213134765625
20220118-1828,2022-01-18 18:28:48Z,u01, 197,40,movements,el-ex, rt, d,211445.6117696667, 2.9396233233213747, -1.0336311591467278, -2.869484726896675, -0.20426064729690552, 3.015800952911377, -3.4403460025787354, 0.10264710336923599, 0.8591627478599548, 0.5013017654418945, 0.6027361154556274, 0.05265682935714722, 0.03531956672668457, -0.8502182963038492, -0.16667248298175044, 0.47516591902418065,0.15351426096536525,0.7346038818359375,0.932830810546875,0.5662078857421875
20220118-1828,2022-01-18 18:28:48Z,u01, 198,40,movements,el-ex, rt, d,211445.63671466667, -3.122082518482182, -1.0370802988841383, -2.7008685075324257, -0.06731585413217545, 3.09008526802063, -3.4202005863189697, -0.009924893267452717, 0.8609225153923035, 0.508639931678772, 0.6049718260765076, 0.11443471908569336, -0.004748642444610596, -0.8485574459487633, -0.18512217312145657, 0.4854568296924967,0.10005966864398955,0.5950469970703125,0.9753570556640625,0.5038909912109375
20220118-1828,2022-01-18 18:28:48Z,u01, 199,40,movements,el-ex, rt, d,211445.6616596667, -2.9042217860816484, -1.0271594559818902, -2.536081164548502, 0.002325804904103279, 2.967632293701172, -3.383589506149292, -0.12163092941045761, 0.8558331727981567, 0.5027486085891724, 0.6159697771072388, 0.06262403726577759, 0.022688090801239014, -0.8428733257934731, -0.20233352432384522, 0.49640303332143565,0.04701004376643107,0.5037384033203125,0.9256134033203125,0.531402587890625
20220118-1828,2022-01-18 18:28:48Z,u01, 200,40,movements,el-ex, rt, d,211445.68660466667, -2.708494538396775, -0.9926568605655651, -2.3926896425179884, -0.5976437926292419, 2.974882125854492, -3.299835443496704, -0.2293439507484436, 0.8374808430671692, 0.4960116446018219, 0.6542859077453613, 0.0059487223625183105, 0.047216713428497314, -0.8367157274615641, -0.21888951002261825, 0.5019575582068894,-0.005735195611536181,0.4249420166015625,0.8434295654296875,0.5432281494140625
20220118-1828,2022-01-18 18:28:48Z,u01, 201,40,movements,el-ex, rt, d,211445.71154966668, -2.5428430827639534, -0.9361999594457717, -2.2820813346216307, -0.8169801831245422, 3.0062432289123535, -3.261354446411133, -0.3341379463672638, 0.8053110837936401, 0.4897209703922272, 0.6206978559494019, 0.08746558427810669, 0.07017010450363159, -0.8306340500986863, -0.23432363445409438, 0.5015806391409268,-0.05963730216093642,0.301849365234375,0.8947601318359375,0.5720977783203125
20220118-1828,2022-01-18 18:28:48Z,u01, 202,40,movements,el-ex, rt, d,211445.7364946667, -2.403460102132554, -0.8719771523671662, -2.1991823393276624, -0.63102126121521, 2.949202299118042, -3.117828130722046, -0.43289104104042053, 0.7656023502349854, 0.47587651014328003, 0.6169730424880981, 0.0872417688369751, -0.0071721673011779785, -0.8224432491528351, -0.24804306654874597, 0.49939145149655634,-0.11256088330632219,0.18408203125,0.85284423828125,0.4687042236328125
20220118-1828,2022-01-18 18:28:48Z,u01, 203,40,movements,el-ex, rt, d,211445.76143966668, -2.279086915559861, -0.8117555832140669, -2.1280079847831233, 0.15225450694561005, 2.8938798904418945, -2.974900722503662, -0.5226905345916748, 0.7254965305328369, 0.4477161765098572, 0.512406051158905, 0.001783132553100586, -0.1730577051639557, -0.8098351099423603, -0.26081638879942604, 0.5000005029788235,-0.16168346536718664,0.029998779296875,0.744110107421875,0.2635955810546875
20220118-1828,2022-01-18 18:28:48Z,u01, 204,40,movements,el-ex, rt, d,211445.7863846667, -2.153570115562063, -0.7613622090424873, -2.0504891171485644, 0.8438273072242737, 2.7066617012023926, -2.883246421813965, -0.6044104099273682, 0.6899082064628601, 0.39839115738868713, 0.5082493424415588, -0.021618962287902832, -0.1736895740032196, -0.7901707891214923, -0.27354286090365487, 0.5080677545105462,-0.2065716737346915,-0.096160888671875,0.6682891845703125,0.224700927734375
20220118-1828,2022-01-18 18:28:48Z,u01, 205,40,movements,el-ex, rt, d,211445.81132966667, -2.0416688585451195, -0.7089036146008509, -1.979174865501411, 0.6170011162757874, 2.3366429805755615, -2.870570182800293, -0.6764681339263916, 0.6510019302368164, 0.3443656265735626, 0.48542797565460205, 0.027052879333496094, -0.07242321968078613, -0.7678570336742205, -0.2873645474712888, 0.5164289823783159,-0.2472213983023241,-0.1762237548828125,0.6831207275390625,0.31488037109375
20220118-1828,2022-01-18 18:28:48Z,u01, 206,40,movements,el-ex, rt, d,211445.83627466668, -1.9430996583222409, -0.6507398630261092, -1.9185520300531402, 1.0530478954315186, 2.547633171081543, -2.9807281494140625, -0.7411285042762756, 0.6057752370834351, 0.28942206501960754, 0.3759703040122986, 0.056486666202545166, -0.011071115732192993, -0.7441486590885518, -0.30158549801219015, 0.5229477992995312,-0.28603260993885016,-0.3651580810546875,0.662261962890625,0.278350830078125
20220118-1828,2022-01-18 18:28:48Z,u01, 207,40,movements,el-ex, rt, d,211445.86121966667, -1.8413957486989316, -0.5913092029055014, -1.848816668546105, 1.6242347955703735, 2.348506450653076, -2.9154601097106934, -0.8000011444091797, 0.5574483871459961, 0.22192318737506866, 0.39706212282180786, -0.06762605905532837, 0.009934425354003906, -0.7140863011846966, -0.3178715850853566, 0.5338829154238541,-0.32250214638992364,-0.39984130859375,0.5742645263671875,0.2686767578125
20220118-1828,2022-01-18 18:28:48Z,u01, 208,40,movements,el-ex, rt, d,211445.88616366667, -1.759112687281503, -0.5287134805835969, -1.7971713717300368, 0.41515111923217773, 2.039449691772461, -2.7782833576202393, -0.8481917381286621, 0.5044229030609131, 0.16164371371269226, 0.43722665309906006, -0.30113011598587036, -0.05791425704956055, -0.6856245337203338, -0.3327774852695186, 0.540702656839211,-0.3561165032866859,-0.4109649658203125,0.2032928466796875,0.103729248046875
20220118-1828,2022-01-18 18:28:48Z,u01, 209,40,movements,el-ex, rt, d,211445.9111097917, -1.7116019927269561, -0.4625169158864358, -1.7971714184964906, -1.2559744119644165, 1.6942147016525269, -2.408759117126465, -0.8860757350921631, 0.44620198011398315, 0.12559561431407928, 0.33556878566741943, -0.47705525159835815, -0.2049562782049179, -0.6686690799716851, -0.3401168423565521, 0.5328119103058968,-0.3915532537341475,-0.52886962890625,0.01708984375,-0.0356903076171875
20220118-1828,2022-01-18 18:28:48Z,u01, 210,40,movements,el-ex, rt, d,211445.93605379167, -1.6904146176316401, -0.40485190861423137, -1.8372798872549587, -1.963392734527588, 1.2330507040023804, -1.7405565977096558, -0.9125929474830627, 0.3938826322555542, 0.1096864566206932, 0.32810473442077637, -0.5724714994430542, -0.3902953863143921, -0.6634057075959162, -0.338727169478682, 0.5140407091155828,-0.4253459152218972,-0.5844879150390625,-0.1785888671875,-0.280609130859375
20220118-1828,2022-01-18 18:28:48Z,u01, 211,40,movements,el-ex, rt, d,211445.96099879168, -1.6839200388375561, -0.36719527320203244, -1.8841282392636292, -1.5971989631652832, 0.6185706257820129, -0.8701320886611938, -0.9273724555969238, 0.358999103307724, 0.10535761713981628, 0.3067210912704468, -0.7297420501708984, -0.7479813098907471, -0.6646749812991213, -0.3329954610808473, 0.49525014974701076,-0.4494981365365125,-0.626312255859375,-0.378143310546875,-0.5749053955078125
20220118-1828,2022-01-18 18:28:49Z,u01, 212,40,movements,el-ex, rt, d,211445.9859437917, -1.6846345736269512, -0.35391570109812975, -1.9057050244095506, -0.03672146424651146, -0.07675124704837799, 0.0374465137720108, -0.9319517612457275, 0.34657347202301025, 0.10655242949724197, 0.32944291830062866, -0.6015630960464478, -0.883895993232727, -0.6665957531769595, -0.33003986946156916, 0.48674208640894956,-0.45804608975500977,-0.602508544921875,-0.2549896240234375,-0.77734375
20220118-1828,2022-01-18 18:28:49Z,u01, 213,40,movements,el-ex, rt, d,211446.01088879167, -1.6914130953810114, -0.36720129783842065, -1.8924299054608715, 1.0482805967330933, -0.7931408286094666, 0.849247932434082, -0.9265548586845398, 0.3590047061443329, 0.11230318993330002, 0.31774425506591797, -0.6394003033638, -0.6265699863433838, -0.6677393369360806, -0.33207796321132066, 0.49214100966923874,-0.4490498367778304,-0.5988311767578125,-0.30908203125,-0.5695343017578125
20220118-1828,2022-01-18 18:28:49Z,u01, 214,40,movements,el-ex, rt, d,211446.03583379168, -1.7042962481314103, -0.4007988318562297, -1.8614056734259934, 1.3307744264602661, -1.151259183883667, 1.5241293907165527, -0.912557065486908, 0.39015400409698486, 0.12255522608757019, 0.27303051948547363, -0.5957357287406921, -0.4262049198150635, -0.6698863270675549, -0.3354548010102415, 0.5055256535492801,-0.42797935054238934,-0.6395263671875,-0.2055816650390625,-0.30364990234375
20220118-1828,2022-01-18 18:28:49Z,u01, 215,40,movements,el-ex, rt, d,211446.06077879167, -1.729901649626085, -0.44991116529981207, -1.8421114323509309, 0.6268306970596313, -1.5489014387130737, 2.1916041374206543, -0.8891121745109558, 0.43488553166389465, 0.14266838133335114, 0.30923235416412354, -0.6369883418083191, -0.3498215675354004, -0.6782593205186122, -0.3336142727636793, 0.5177229883731702,-0.40078522564359265,-0.5960845947265625,-0.2457733154296875,-0.219329833984375
20220118-1828,2022-01-18 18:28:49Z,u01, 216,40,movements,el-ex, rt, d,211446.08572379168, -1.7718476883965144, -0.5108492577475702, -1.8415609098307288, 0.47741925716400146, -1.8588898181915283, 2.5746850967407227, -0.854758620262146, 0.4889182448387146, 0.17420394718647003, 0.34072035551071167, -0.3875236213207245, -0.2524508237838745, -0.6932808797816191, -0.3262875913058091, 0.5261903777815174,-0.3688114514811422,-0.5140380859375,0.1013946533203125,-0.0782470703125
20220118-1828,2022-01-18 18:28:49Z,u01, 217,40,movements,el-ex, rt, d,211446.1106687917, -1.8198606451506616, -0.5801146811881475, -1.8409386713022597, 0.6939080357551575, -1.9890416860580444, 2.8130064010620117, -0.8105916976928711, 0.548119843006134, 0.20617032051086426, 0.27065926790237427, -0.1431974172592163, -0.13459110260009766, -0.7083612925306425, -0.31829144360805506, 0.5358043382178881,-0.331404207755627,-0.540374755859375,0.366485595703125,0.0526123046875
20220118-1828,2022-01-18 18:28:49Z,u01, 218,40,movements,el-ex, rt, d,211446.13561379167, -1.8749427716158646, -0.6540537440961761, -1.8477494259589704, 0.330989807844162, -2.1577489376068115, 3.0373382568359375, -0.757199227809906, 0.6084085702896118, 0.23767372965812683, 0.2659423351287842, -0.12954199314117432, -0.12588763236999512, -0.7236919822010042, -0.30839387147481595, 0.5444213409538847,-0.29115068577615777,-0.4912567138671875,0.4788665771484375,0.111785888671875
20220118-1828,2022-01-18 18:28:49Z,u01, 219,40,movements,el-ex, rt, d,211446.1605587917, -1.9525750121466436, -0.7266913968579531, -1.8831362148445319, -0.19129283726215363, -2.175945520401001, 3.1609885692596436, -0.6935683488845825, 0.6644005179405212, 0.27845147252082825, 0.34673601388931274, -0.10716480016708374, -0.15390899777412415, -0.7431908853925173, -0.29477626953516345, 0.5461481312810629,-0.24999319592981134,-0.3642730712890625,0.52264404296875,0.0841827392578125
20220118-1828,2022-01-18 18:28:49Z,u01, 220,40,movements,el-ex, rt, d,211446.18550379167, -2.030731961058666, -0.80321349348353, -1.9170899932950463, 1.0843418836593628, -2.1998982429504395, 3.2597477436065674, -0.6222372055053711, 0.7195912599563599, 0.3082367777824402, 0.3188159465789795, -0.011644423007965088, -0.08918127417564392, -0.758472423035518, -0.2807809944397138, 0.5507431906863236,-0.20630990219795742,-0.3034210205078125,0.70794677734375,0.21905517578125
20220118-1828,2022-01-18 18:28:49Z,u01, 221,40,movements,el-ex, rt, d,211446.21044879168, -2.088874542623778, -0.8955387966123051, -1.9236344584299636, 1.5235799551010132, -2.078380584716797, 3.4862730503082275, -0.5430682897567749, 0.7805460095405579, 0.30955588817596436, 0.3611682057380676, -0.029188096523284912, -0.02882438898086548, -0.7637137732567305, -0.26743076747198763, 0.5661055785143829,-0.1573103579815583,-0.2142791748046875,0.808380126953125,0.259796142578125
20220118-1828,2022-01-18 18:28:49Z,u01, 222,40,movements,el-ex, rt, d,211446.2353937917, -2.180625090377187, -0.9840995369748387, -1.9726517421112892, 0.5169098377227783, -2.0500028133392334, 3.7234785556793213, -0.453822523355484, 0.8327739238739014, 0.3170694410800934, 0.46398475766181946, -0.18245959281921387, -0.10782542824745178, -0.7723165171455721, -0.2491223077859112, 0.5741704524244109,-0.10859872151077418,0.010162353515625,0.6503143310546875,0.2092437744140625
20220118-1828,2022-01-18 18:28:49Z,u01, 223,40,movements,el-ex, rt, d,211446.26033879168, -2.291703940014564, -1.0739740222562097, -2.04099012179388, 2.040851593017578, -2.1269123554229736, 3.7121570110321045, -0.3580514192581177, 0.879101574420929, 0.3146108090877533, 0.4533729553222656, 0.12199705839157104, -0.03909790515899658, -0.777548384499874, -0.22961689924711018, 0.5824983872006343,-0.05822690552544896,0.0958251953125,0.974609375,0.23773193359375
20220118-1828,2022-01-18 18:28:49Z,u01, 224,40,movements,el-ex, rt, d,211446.2852837917, -2.377183239945473, -1.1916129369357273, -2.078156502078591, 3.112931251525879, -1.9847780466079712, 4.033133506774902, -0.25619372725486755, 0.9289672374725342, 0.26718032360076904, 0.372404545545578, 0.07266557216644287, 0.04013204574584961, -0.7680634395261847, -0.20897059450032945, 0.6053145787734546,-0.002088263709106336,0.1162109375,1.0016326904296875,0.30731201171875
20220118-1828,2022-01-18 18:28:49Z,u01, 225,40,movements,el-ex, rt, d,211446.31022879167, -2.5669142978668322, -1.2923422007280743, -2.2307222429015026, 0.7133524417877197, -1.6219149827957153, 3.8045639991760254, -0.14940960705280304, 0.961481511592865, 0.2307167649269104, 0.5694229602813721, 0.10620647668838501, 0.2025720775127411, -0.7626769388821442, -0.1835272953549349, 0.6181117638467881,0.05078897090779884,0.351165771484375,0.9777679443359375,0.4252777099609375
20220118-1828,2022-01-18 18:28:49Z,u01, 226,40,movements,el-ex, rt, d,211446.33517379168, -2.9125470966080043, -1.339753344233825, -2.5459391238042293, 0.42787477374076843, -1.634163498878479, 3.4993205070495605, -0.05199255421757698, 0.9734280705451965, 0.22301305830478668, 0.5419674515724182, 0.44148898124694824, 0.2939244508743286, -0.7652995198803638, -0.16069590475697648, 0.6159533905582956,0.09536777183069146,0.4899749755859375,1.4149169921875,0.516937255859375
20220118-1828,2022-01-18 18:28:49Z,u01, 227,40,movements,el-ex, rt, d,211446.3601187917, 2.9525606464448515, -1.3594704666839563, -2.9351917406558052, 0.872099757194519, -1.381242036819458, 3.371356248855591, 0.03941502049565315, 0.9777536392211914, 0.2060202658176422, 0.2632429897785187, 0.19604390859603882, 0.10048326849937439, -0.7640372099526591, -0.1387705755184543, 0.6148906133938107,0.1374752860505879,0.3177642822265625,1.2499847412109375,0.319976806640625
20220118-1828,2022-01-18 18:28:49Z,u01, 228,40,movements,el-ex, rt, d,211446.38506379168, 2.536385889352685, -1.3400914381651439, 2.9549110511634598, 0.32519587874412537, -1.304248571395874, 3.6195967197418213, 0.13009460270404816, 0.973505437374115, 0.18805015087127686, 0.16334711015224457, -0.10140448808670044, 0.10682618618011475, -0.7621734279933517, -0.11452835757882343, 0.6119947579629397,0.1773061713278451,0.2934417724609375,0.872100830078125,0.2948760986328125
20220118-1828,2022-01-18 18:28:49Z,u01, 229,40,movements,el-ex, rt, d,211446.4100087917, 2.2559984035314904, -1.2774308532088479, 2.6968558065050834, -0.02701287344098091, -1.1943858861923218, 3.519804000854492, 0.22390681505203247, 0.9572761058807373, 0.1829994171857834, 0.32737791538238525, 0.22425788640975952, 0.0615687370300293, -0.7639044285785244, -0.089161283597226, 0.6012713188430207,0.21673330564128743,0.494903564453125,1.084747314453125,0.241973876953125
20220118-1828,2022-01-18 18:28:49Z,u01, 230,40,movements,el-ex, rt, d,211446.43495379167, 2.090279248846851, -1.208336272599011, 2.5533697396600052, -0.15215082466602325, -1.2050883769989014, 3.1452367305755615, 0.3077985942363739, 0.9350273609161377, 0.176022469997406, 0.34567421674728394, 0.35537785291671753, 0.08179029822349548, -0.7639345500903756, -0.06644723216926493, 0.5899949844285016,0.2527740570962279,0.653472900390625,1.2904052734375,0.2578125
20220118-1828,2022-01-18 18:28:49Z,u01, 231,40,movements,el-ex, rt, d,211446.45989879168, 1.9972011753623806, -1.1353376031909765, 2.485940167144397, -0.5385519862174988, -1.2885931730270386, 3.0184736251831055, 0.38405558466911316, 0.9066766500473022, 0.1744675636291504, 0.2518543601036072, 0.11357176303863525, 0.04812799394130707, -0.7648450215189971, -0.047390639050532694, 0.5749554050532705,0.28669245906461227,0.642791748046875,1.0431365966796875,0.242218017578125
20220118-1828,2022-01-18 18:28:49Z,u01, 232,40,movements,el-ex, rt, d,211446.48484379167, 1.9308972468922425, -1.05969962283509, 2.4487212616669387, -0.5425077080726624, -1.387484073638916, 3.095632791519165, 0.4577620029449463, 0.8722085952758789, 0.17235566675662994, 0.1671464443206787, 0.060240864753723145, 0.0064165592193603516, -0.765050664935669, -0.029585686439009565, 0.5576298928837821,0.32073543982346797,0.624908447265625,0.9324493408203125,0.17877197265625
20220118-1828,2022-01-18 18:28:49Z,u01, 233,40,movements,el-ex, rt, d,211446.50978879168, 1.877773465729424, -0.9803147909835431, 2.4286844816127813, -0.7726910710334778, -1.5134283304214478, 3.1449341773986816, 0.5307338237762451, 0.8306726813316345, 0.16824139654636383, 0.28027087450027466, 0.025330424308776855, -0.01450870931148529, -0.7641808936184926, -0.012176241142852692, 0.5378356261994384,0.35582640063054055,0.769805908203125,0.83978271484375,0.1475372314453125
20220118-1828,2022-01-18 18:28:49Z,u01, 234,40,movements,el-ex, rt, d,211446.5347337917, 1.837494049407988, -0.8986455326429511, 2.4287115708125655, -1.033443570137024, -1.6799694299697876, 3.1144001483917236, 0.6006567478179932, 0.782484233379364, 0.16410312056541443, 0.3303886651992798, 0.08694630861282349, 0.0317130982875824, -0.762917839401557, 0.002815909174772452, 0.514269373572308,0.39175939987394737,0.9310455322265625,0.8694305419921875,0.1958160400390625
20220118-1828,2022-01-18 18:28:49Z,u01, 235,40,movements,el-ex, rt, d,211446.55967879167, 1.8034312335745042, -0.8172244908871107, 2.439301742855408, -1.0892040729522705, -1.6597150564193726, 3.0937564373016357, 0.6658163070678711, 0.7292494773864746, 0.15774816274642944, 0.32241928577423096, 0.08474600315093994, 0.03638972342014313, -0.7606656317201435, 0.01618264811279975, 0.4884393037279973,0.42726252678269283,0.9738616943359375,0.8236846923828125,0.19256591796875
20220118-1828,2022-01-18 18:28:49Z,u01, 236,40,movements,el-ex, rt, d,211446.58462379168, 1.7687328514123293, -0.7380410204713962, 2.447916847525202, -0.7530077695846558, -1.5935665369033813, 2.980539083480835, 0.7253437042236328, 0.6728399991989136, 0.14547686278820038, 0.310987651348114, 0.15449172258377075, 0.0545661598443985, -0.7561902780235158, 0.03024390458258905, 0.4633286713839557,0.46107306751991006,1.0363311767578125,0.82733154296875,0.200042724609375
20220118-1828,2022-01-18 18:28:49Z,u01, 237,40,movements,el-ex, rt, d,211446.60956879167, 1.732317702850489, -0.6635009755825452, 2.4529884963747093, -0.6689777970314026, -1.5814834833145142, 2.8014307022094727, 0.7775863409042358, 0.6158788204193115, 0.12670058012008667, 0.32917946577072144, 0.15580403804779053, 0.09499466419219971, -0.749243940948613, 0.04453992973640712, 0.4402918890168248,0.4927402001233983,1.1020965576171875,0.7850341796875,0.2240142822265625
20220118-1828,2022-01-18 18:28:49Z,u01, 238,40,movements,el-ex, rt, d,211446.63451379168, 1.6994020081489993, -0.5944673068518114, 2.463693113279518, -0.8434731960296631, -1.5348199605941772, 2.548825263977051, 0.8216055631637573, 0.5600675344467163, 0.10624955594539642, 0.28134554624557495, 0.22698086500167847, 0.12203752249479294, -0.7415801329821192, 0.05642414296399345, 0.4173500783371706,0.5222013497068416,1.1029510498046875,0.78704833984375,0.2282867431640625
20220118-1828,2022-01-18 18:28:49Z,u01, 239,40,movements,el-ex, rt, d,211446.6594587917, 1.6697806036976068, -0.5321062158141805, 2.4806698185195284, -0.861945390701294, -1.5154706239700317, 2.247452735900879, 0.8575223684310913, 0.5073494911193848, 0.0851595476269722, 0.18695706129074097, 0.29845190048217773, 0.1320037841796875, -0.7337170649161803, 0.06510791598514144, 0.39448804303909746,0.5493628588429006,1.0625,0.7979888916015625,0.21624755859375
20220118-1828,2022-01-18 18:28:49Z,u01, 240,40,movements,el-ex, rt, d,211446.68440279167, 1.6414155615897712, -0.4784357506393914, 2.4970296888191714, -0.6458987593650818, -1.3856139183044434, 1.9425475597381592, 0.8855036497116089, 0.4603911340236664, 0.06263774633407593, 0.10900324583053589, 0.3628358542919159, 0.14550769329071045, -0.7253592715807244, 0.07192219377711706, 0.37419745183339215,0.573286547165205,0.9945068359375,0.8232269287109375,0.2081451416015625
20220118-1828,2022-01-18 18:28:49Z,u01, 241,40,movements,el-ex, rt, d,211446.70934779168, 1.6135325272101448, -0.4306718424809512, 2.5059565550136105, -0.17451615631580353, -1.1433072090148926, 1.8516178131103516, 0.9078559875488281, 0.417481392621994, 0.038821954280138016, 0.042263150215148926, 0.37881386280059814, 0.21418428421020508, -0.7162476872399233, 0.08000141882211548, 0.3577608716449619,0.5937982419216639,0.9589385986328125,0.7912139892578125,0.2496490478515625
20220118-1828,2022-01-18 18:28:49Z,u01, 242,40,movements,el-ex, rt, d,211446.7342927917, 1.5825576197725941, -0.38465302496883624, 2.5014088482009327, 0.19240379333496094, -1.1985193490982056, 1.8452386856079102, 0.9268648028373718, 0.37523752450942993, 0.010901630856096745, 0.0467376708984375, 0.3067999482154846, 0.1281977891921997, -0.7049552366420708, 0.09213538925135344, 0.3461491273966564,0.6121520879191219,0.973602294921875,0.682037353515625,0.13909912109375
20220118-1828,2022-01-18 18:28:49Z,u01, 243,40,movements,el-ex, rt, d,211446.75923779167, 1.5513925181662063, -0.3434089406985376, 2.5088157546562773, -1.0513142347335815, -1.5075217485427856, 1.4808107614517212, 0.9414352178573608, 0.3366989493370056, -0.018269721418619156, 0.06327980756759644, 0.27267611026763916, 0.24200963973999023, -0.693626550980931, 0.09872865367561343, 0.33256584174913467,0.6312962244100296,1.0229339599609375,0.580596923828125,0.2058258056640625
20220118-1828,2022-01-18 18:28:49Z,u01, 244,40,movements,el-ex, rt, d,211446.7841827917, 1.5284150722810825, -0.31275006274885747, 2.55273274187986, -1.916142463684082, -1.3708471059799194, 0.9703807234764099, 0.9506368041038513, 0.3076764643192291, -0.040313322097063065, -0.07089120149612427, 0.41444581747055054, 0.33686816692352295, -0.6867357219256373, 0.0907600562417949, 0.3100723102165788,0.6511620411193436,0.8797454833984375,0.7221221923828125,0.2965545654296875
20220118-1828,2022-01-18 18:28:49Z,u01, 245,40,movements,el-ex, rt, d,211446.80912779167, 1.5146320958346078, -0.298801589482992, 2.6004221292551257, -1.508824348449707, -0.8050056099891663, 0.3878994584083557, 0.9541831016540527, 0.29437512159347534, -0.05364738032221794, -0.23151153326034546, 0.5366338491439819, 0.32438433170318604, -0.6835152222525447, 0.07735147784940423, 0.29060768041153723,0.6651097041842863,0.7393798828125,0.8341522216796875,0.2916259765625
20220118-1828,2022-01-18 18:28:49Z,u01, 246,40,movements,el-ex, rt, d,211446.83407279168, 1.5109535322317287, -0.29630119555194845, 2.628330858460651, -0.6591933965682983, -0.22058351337909698, -0.0110658910125494, 0.9547111988067627, 0.29198458790779114, -0.05720088630914688, -0.1931295394897461, 0.5072250366210938, 0.2651326656341553, -0.6831906529307147, 0.06819156172087515, 0.2806370812290402,0.6707037416191346,0.7615814208984375,0.7992095947265625,0.2079315185546875
20220118-1828,2022-01-18 18:28:49Z,u01, 247,40,movements,el-ex, rt, d,211446.8590177917, 1.5129266430160593, -0.30108742212789164, 2.6389330824891033, -0.27883949875831604, 0.10280266404151917, -0.3583211898803711, 0.953416109085083, 0.2965588867664337, -0.05523556098341942, -0.11030679941177368, 0.38709592819213867, 0.3314046263694763, -0.6843966541472732, 0.06311449525153237, 0.27852263817691914,0.670852529498464,0.8402862548828125,0.70428466796875,0.248565673828125
20220118-1828,2022-01-18 18:28:49Z,u01, 248,40,movements,el-ex, rt, d,211446.88396279168, 1.5218165533253247, -0.3160071626584082, 2.6491809198389147, -0.6749733090400696, 0.3787616789340973, -0.8178298473358154, 0.9493442177772522, 0.31077390909194946, -0.046535883098840714, -0.0980256199836731, 0.3154010474681854, 0.3804595470428467, -0.6882269649374677, 0.05545901791581119, 0.27954139607645817,0.667176731884113,0.851318359375,0.6261749267578125,0.33392333984375
20220118-1828,2022-01-18 18:28:49Z,u01, 249,40,movements,el-ex, rt, d,211446.9089075, 1.545334311270211, -0.3446367356761867, 2.676096131095977, -1.409239649772644, 0.8271450400352478, -1.4143003225326538, 0.9408933520317078, 0.33785480260849, -0.023962220177054405, -0.05341154336929321, 0.3742729127407074, 0.42293405532836914, -0.6974854091232741, 0.039153470120188175, 0.2791777487102439,0.6588179361013562,0.8822784423828125,0.69134521484375,0.3953704833984375
20220118-1828,2022-01-18 18:28:49Z,u01, 250,40,movements,el-ex, rt, d,211446.93385250002, 1.5856993859301922, -0.38656728439889143, 2.7121631180434567, -1.1575146913528442, 1.394421100616455, -1.8699218034744263, 0.9261059165000916, 0.377011239528656, 0.013802832923829556, -0.0012401342391967773, 0.3883390426635742, 0.38420772552490234, -0.7117612602181328, 0.017243109477781418, 0.28044006725070514,0.6437794695129313,0.92486572265625,0.765350341796875,0.39801025390625
20220118-1828,2022-01-18 18:28:49Z,u01, 251,40,movements,el-ex, rt, d,211446.9587975, 1.63672592977897, -0.4349207201083034, 2.738222467816381, -0.6619868874549866, 1.8433622121810913, -2.051091194152832, 0.9049333930015564, 0.4213384985923767, 0.05974849313497543, 0.08325648307800293, 0.3238702416419983, 0.41666173934936523, -0.7279227154040011, -0.0016634061147864365, 0.2879896483508705,0.6222442594209738,0.9846954345703125,0.7451324462890625,0.467864990234375
20220118-1828,2022-01-18 18:28:50Z,u01, 252,40,movements,el-ex, rt, d,211446.98374250002, 1.697472666521584, -0.48651792070066835, 2.7612166402238105, -0.5871675610542297, 2.175227165222168, -2.215437412261963, 0.8768835663795471, 0.46755069494247437, 0.11167839914560318, 0.12284201383590698, 0.2664124369621277, 0.4045572280883789, -0.7453132898385781, -0.01863600368795297, 0.2987645854570635,0.5957354506777088,0.999725341796875,0.7339630126953125,0.5162353515625
20220118-1828,2022-01-18 18:28:50Z,u01, 253,40,movements,el-ex, rt, d,211447.00868750003, 1.7669615024475647, -0.5414836658577679, 2.7853964410114815, -0.3216046690940857, 2.4202239513397217, -2.3738722801208496, 0.8405098915100098, 0.5154079794883728, 0.16702672839164734, 0.22012853622436523, 0.3372989296913147, 0.3382073640823364, -0.7630757059288296, -0.03505464715910593, 0.3117593821205431,0.5650599909796218,1.0479736328125,0.8355712890625,0.5108795166015625
20220118-1828,2022-01-18 18:28:50Z,u01, 254,40,movements,el-ex, rt, d,211447.0336325, 1.8416970346993662, -0.599666614307383, 2.8075286489062146, -0.15067216753959656, 2.5946176052093506, -2.5634586811065674, 0.7954173684120178, 0.5643672943115234, 0.2209097295999527, 0.29323625564575195, 0.35967445373535156, 0.3145214319229126, -0.7797277617729568, -0.049794430192648224, 0.3279894287840013,0.5310067847865502,1.088653564453125,0.924041748046875,0.535430908203125
