SessionID,LoggingTime,UID,RecNo,Hertz,Activity,MoveType,Wrist,Side,TimeStamp,DMRoll,DMPitch,DMYaw,DMRotX,DMRotY,DMRotZ,DMGrvX,DMGrvY,DMGrvZ,DMUAccelX,DMUAccelY,DMUAccelZ,DMQuatX,DMQuatY,DMQuatW,DMQuatZ,AccelroX,AceelroY,AceelroZ
20220118-1838,2022-01-18 18:38:33Z,u01, 1,40,movements,el-ex, rt, d,212030.81531662503, -2.021941603736704, -0.5359656441815894, -2.800759187380021, 0.12334181368350983, 2.7891883850097656, -2.6492714881896973, -0.7737539410591125, 0.5106714963912964, 0.3748593330383301, 0.5723837018013, 0.10349476337432861, -0.005428791046142578, -0.8291137803546632, 0.0, 0.30796226470402366,-0.4666150699541749,-0.2230377197265625,0.6517791748046875,0.37200927734375
20220118-1838,2022-01-18 18:38:33Z,u01, 2,40,movements,el-ex, rt, d,212030.840261625, -1.9345003176273614, -0.47732157968479705, -2.7629680408362387, 0.18263189494609833, 2.749469757080078, -2.6793153285980225, -0.830125629901886, 0.45940178632736206, 0.31597697734832764, 0.5186479091644287, 0.08205634355545044, 0.15149128437042236, -0.8109477283097759, -0.018768903770050582, 0.2949378152308813,-0.50499821313762,-0.3114776611328125,0.5414581298828125,0.46746826171875
20220118-1838,2022-01-18 18:38:33Z,u01, 3,40,movements,el-ex, rt, d,212030.865205625, -1.859714269277842, -0.41420229878334086, -2.7434017513622164, -0.4069020748138428, 3.1359779834747314, -3.0059309005737305, -0.8774953484535217, 0.4024598002433777, 0.2608221173286438, 0.28696489334106445, -0.13651436567306519, 0.021572232246398926, -0.7932292370366612, -0.03461843295368597, 0.2772955835993761,-0.5410140270359408,-0.0848846435546875,0.1717071533203125,0.176666259765625
20220118-1838,2022-01-18 18:38:33Z,u01, 4,40,movements,el-ex, rt, d,212030.89014962502, -1.8017144475681652, -0.3531718493576662, -2.747631341632006, -0.8971476554870605, 2.2119507789611816, -2.114758014678955, -0.9133753180503845, 0.34587562084198, 0.21474552154541016, 0.463195264339447, -0.2621811628341675, -0.29486942291259766, -0.7780952086282038, -0.04405235162963403, 0.25467103396101776,-0.5725119593383337,-0.4501800537109375,0.0836944580078125,-0.0801239013671875
20220118-1838,2022-01-18 18:38:33Z,u01, 5,40,movements,el-ex, rt, d,212030.915094625, -1.7553090364086246, -0.3019452075693987, -2.7565033888369563, -0.7094806432723999, 1.6441450119018555, -1.614471673965454, -0.938553512096405, 0.29737797379493713, 0.17516742646694183, 0.40783756971359253, -0.348418653011322, -0.4931453466415405, -0.764828096913365, -0.05120250561200637, 0.23443410156785577,-0.5978770044121198,-0.5289764404296875,-0.1036529541015625,-0.4049072265625
20220118-1838,2022-01-18 18:38:33Z,u01, 6,40,movements,el-ex, rt, d,212030.940038625, -1.7290111498405654, -0.269500606290059, -2.7688747011000787, -0.6972070932388306, 0.7425566911697388, -0.805634617805481, -0.9518648386001587, 0.2662501037120819, 0.15186843276023865, 0.43514132499694824, -0.7021937370300293, -0.927411675453186, -0.7569797325955824, -0.05399906720928105, 0.21959603794222984,-0.6130605699147106,-0.5167236328125,-0.435943603515625,-0.775543212890625
20220118-1838,2022-01-18 18:38:33Z,u01, 7,40,movements,el-ex, rt, d,212030.964982625, -1.7290044862374447, -0.26024316797887415, -2.784338044726491, -0.49290940165519714, -0.4073076546192169, 0.23806317150592804, -0.9542592167854309, 0.2573155462741852, 0.15224392712116241, 0.41057324409484863, -0.9021824598312378, -0.987189531326294, -0.7573010699949831, -0.05115715605779883, 0.2114851847950323,-0.6157532878547377,-0.55914306640625,-0.6283111572265625,-0.8229217529296875
20220118-1838,2022-01-18 18:38:34Z,u01, 8,40,movements,el-ex, rt, d,212030.98992762502, -1.753978303591584, -0.2766265298437819, -2.7917603558049886, 0.19194987416267395, -1.366986632347107, 1.1230190992355347, -0.9458874464035034, 0.2731119990348816, 0.17523396015167236, 0.35813409090042114, -0.6040140390396118, -0.8641682863235474, -0.7651985654227712, -0.045696107384305906, 0.21460261195273328,-0.6052510202796644,-0.5877532958984375,-0.330902099609375,-0.688934326171875
20220118-1838,2022-01-18 18:38:34Z,u01, 9,40,movements,el-ex, rt, d,212031.01487162503, -1.7957260344634083, -0.31271491150903985, -2.791272543799986, 0.29491734504699707, -1.968397855758667, 1.6783089637756348, -0.9275335669517517, 0.30764299631118774, 0.2122209668159485, 0.3430759906768799, -0.47707656025886536, -0.6173264980316162, -0.7775515328522274, -0.03903972033362313, 0.22720193023067892,-0.5850375907240539,-0.584259033203125,-0.133941650390625,-0.351654052734375
20220118-1838,2022-01-18 18:38:34Z,u01, 10,40,movements,el-ex, rt, d,212031.039815625, -1.8517133483862944, -0.35890854022792307, -2.8001684584170365, 0.0033110082149505615, -2.2489633560180664, 2.045780897140503, -0.8995799422264099, 0.3512525260448456, 0.25957149267196655, 0.29333311319351196, -0.3123273551464081, -0.32230034470558167, -0.7931019616461813, -0.027839217339761246, 0.24105235414070358,-0.5586662075042625,-0.6062469482421875,0.0389251708984375,-0.0627288818359375
20220118-1838,2022-01-18 18:38:34Z,u01, 11,40,movements,el-ex, rt, d,212031.064760625, -1.9160569430743657, -0.41120312862939623, -2.815493986584321, 0.32412585616111755, -2.422896146774292, 2.254410743713379, -0.8625470399856567, 0.3997124433517456, 0.3102295696735382, 0.2517683506011963, -0.21172422170639038, -0.2334778606891632, -0.8092681433070231, -0.01413715554875622, 0.25619061238930996,-0.5284425445708935,-0.6112823486328125,0.232940673828125,0.1269073486328125
20220118-1838,2022-01-18 18:38:34Z,u01, 12,40,movements,el-ex, rt, d,212031.08970462502, -1.982537888243848, -0.4693635231651076, -2.826950212386484, 0.5616113543510437, -2.5240681171417236, 2.392883062362671, -0.8173196911811829, 0.4523187279701233, 0.35692620277404785, 0.26186925172805786, -0.01613098382949829, -0.11789730191230774, -0.8236869051498753, -0.0017289369033973712, 0.27560976129735015,-0.49555640184781075,-0.555450439453125,0.436187744140625,0.2390289306640625
20220118-1838,2022-01-18 18:38:34Z,u01, 13,40,movements,el-ex, rt, d,212031.11464862502, -2.053765581758233, -0.5306941607852487, -2.842397360464237, 0.515235424041748, -2.5522449016571045, 2.491844654083252, -0.7638083696365356, 0.5061321258544922, 0.4005340039730072, 0.2770528197288513, -0.03730571269989014, -0.15602710843086243, -0.8367456416624429, 0.011123839326593499, 0.29632081829067675,-0.4603554319039921,-0.46673583984375,0.4832763671875,0.26824951171875
20220118-1838,2022-01-18 18:38:34Z,u01, 14,40,movements,el-ex, rt, d,212031.139593625, -2.12996341637586, -0.5920268519321048, -2.8656837040317216, 0.7684208750724792, -2.588535785675049, 2.560080051422119, -0.7034289240837097, 0.5580440759658813, 0.4401986598968506, 0.32992422580718994, -0.04659998416900635, -0.09744036197662354, -0.8482203609655916, 0.024930942358672464, 0.316489113738601,-0.42395212706715596,-0.373504638671875,0.511444091796875,0.3427581787109375
20220118-1838,2022-01-18 18:38:34Z,u01, 15,40,movements,el-ex, rt, d,212031.164537625, -2.2078943989215216, -0.6621593100507136, -2.88544244466808, 1.360411286354065, -2.745047092437744, 2.8143439292907715, -0.6339503526687622, 0.6148212552070618, 0.46915048360824585, 0.31743723154067993, -0.03170651197433472, -0.2355993390083313, -0.8562641483117732, 0.03724169145233211, 0.3422658394915487,-0.3850701087011556,-0.2992095947265625,0.5701446533203125,0.21826171875
20220118-1838,2022-01-18 18:38:34Z,u01, 16,40,movements,el-ex, rt, d,212031.189481625, -2.29428847230357, -0.7384495238416241, -2.9123821342778413, 0.8832026124000549, -2.786163330078125, 3.0049691200256348, -0.5542641878128052, 0.67314213514328, 0.48956236243247986, 0.3670540452003479, -0.15657097101211548, -0.09670943021774292, -0.8615476900350355, 0.05016738023878589, 0.3706713244803806,-0.3432516986777675,-0.1872100830078125,0.516571044921875,0.392852783203125
20220118-1838,2022-01-18 18:38:34Z,u01, 17,40,movements,el-ex, rt, d,212031.21442662503, -2.411263359272081, -0.7983123840569131, -2.979927449847111, -0.11856985092163086, -2.832179307937622, 3.1278576850891113, -0.4655904173851013, 0.7161793112754822, 0.5199160575866699, 0.4144735336303711, -0.13564342260360718, -0.026980817317962646, -0.8690334317312988, 0.06883991754363891, 0.38839811843959254,-0.29864501986254244,-0.016632080078125,0.6340179443359375,0.4792327880859375
20220118-1838,2022-01-18 18:38:34Z,u01, 18,40,movements,el-ex, rt, d,212031.239370625, -2.5439744657322243, -0.8508459209279788, -3.0644569534603106, 0.7864876389503479, -2.842000722885132, 3.0835533142089844, -0.37099847197532654, 0.7518384456634521, 0.5450682640075684, 0.44450005888938904, 0.15700560808181763, -0.09587991237640381, -0.8745390956256753, 0.08783794839482625, 0.4044639111742091,-0.2527348626409624,0.0735015869140625,0.908843994140625,0.449188232421875
20220118-1838,2022-01-18 18:38:34Z,u01, 19,40,movements,el-ex, rt, d,212031.264314625, -2.676924112403061, -0.9156854407023575, 3.138122948210885, 1.3462493419647217, -2.7828598022460938, 3.0892584323883057, -0.2730197608470917, 0.7929803729057312, 0.5446487069129944, 0.39248088002204895, 0.20238083600997925, -0.005708277225494385, -0.8727290439965429, 0.103287808845785, 0.429778878794812,-0.2072817517164504,0.136932373046875,0.97784423828125,0.593353271484375
20220118-1838,2022-01-18 18:38:34Z,u01, 20,40,movements,el-ex, rt, d,212031.28925962502, -2.8271211945821264, -0.9641886626162164, 3.034426131268738, 0.2525571584701538, -2.535123825073242, 2.9053688049316406, -0.17633476853370667, 0.8215866684913635, 0.5421266555786133, 0.37639278173446655, 0.0847243070602417, 0.33026403188705444, -0.8699514860152274, 0.11936394879658613, 0.44982849135044306,-0.16306735863396704,0.2000579833984375,0.90631103515625,0.8723907470703125
20220118-1838,2022-01-18 18:38:34Z,u01, 21,40,movements,el-ex, rt, d,212031.31420362502, -2.991351486352967, -0.9757640811984284, 2.909996163148586, -0.3395136594772339, -2.4653825759887695, 2.7355563640594482, -0.08389905840158463, 0.8281304240226746, 0.5542212128639221, 0.41457226872444153, 0.16166150569915771, 0.26281070709228516, -0.870872734353781, 0.1367160477097215, 0.4566440491267939,-0.11985689185753255,0.3470306396484375,1.00665283203125,0.725006103515625
20220118-1838,2022-01-18 18:38:34Z,u01, 22,40,movements,el-ex, rt, d,212031.33914762503, 3.1317451980040665, -0.9803739917668429, 2.7895906131114123, 0.41605281829833984, -2.455385446548462, 2.745837688446045, 0.00548210646957159, 0.8307056427001953, 0.5566848516464233, 0.37656745314598083, 0.1987132430076599, -0.062040746212005615, -0.8690110346294166, 0.15219147514396558, 0.464272967032234,-0.07815474345057392,0.382049560546875,1.0294189453125,0.4946441650390625
20220118-1838,2022-01-18 18:38:34Z,u01, 23,40,movements,el-ex, rt, d,212031.364092625, 2.9603762740028787, -0.994105037379437, 2.657112380796281, 1.2251629829406738, -2.4885787963867188, 2.8994057178497314, 0.09826892614364624, 0.8382713198661804, 0.5363249778747559, 0.24874645471572876, 0.00688248872756958, 0.13907480239868164, -0.8601773588973388, 0.16809935709514484, 0.48009436209283846,-0.03670067511386853,0.34735107421875,0.813507080078125,0.7407379150390625
20220118-1838,2022-01-18 18:38:34Z,u01, 24,40,movements,el-ex, rt, d,212031.389036625, 2.790596547935481, -0.9949446876239326, 2.525491259476589, -0.057805873453617096, -2.2498104572296143, 2.708261013031006, 0.18723422288894653, 0.8387288451194763, 0.5113485455513, 0.28671902418136597, 0.18418985605239868, 0.3764994144439697, -0.8498232320536, 0.1829610177181309, 0.4942789919257665,0.0037458628849060815,0.4739532470703125,1.022918701171875,0.887847900390625
20220118-1838,2022-01-18 18:38:34Z,u01, 25,40,movements,el-ex, rt, d,212031.41398062502, 2.6563868910567225, -0.9484839749859092, 2.4341841418750905, -1.3033390045166016, -2.2954864501953125, 2.4873058795928955, 0.2718661427497864, 0.8125327229499817, 0.5156347155570984, 0.40673792362213135, 0.10189586877822876, 0.07176756858825684, -0.8481263826331751, 0.19621163271196523, 0.4898764353824334,0.04694302177090645,0.6804962158203125,0.948822021484375,0.5505828857421875
20220118-1838,2022-01-18 18:38:34Z,u01, 26,40,movements,el-ex, rt, d,212031.438925625, 2.5445064813170317, -0.9013835702085657, 2.3645361734576515, 0.05007375031709671, -2.2312216758728027, 2.3986709117889404, 0.3488812744617462, 0.7841861844062805, 0.5131605863571167, 0.1966966986656189, 0.3836756944656372, 0.045677244663238525, -0.8447413673893481, 0.20734585553574775, 0.48558866076750923,0.08731174741603318,0.5455780029296875,1.1678619384765625,0.558837890625
20220118-1838,2022-01-18 18:38:34Z,u01, 27,40,movements,el-ex, rt, d,212031.463869625, 2.4167532243245544, -0.8774615944990687, 2.270686442154264, 0.9850684404373169, -2.155139684677124, 2.51786732673645, 0.4237368404865265, 0.7691190242767334, 0.4784383177757263, 0.05940219759941101, 0.1461184024810791, 0.08528244495391846, -0.8310186388643399, 0.22051571551828442, 0.4955180683083864,0.1234616128146884,0.4952850341796875,0.8717803955078125,0.545013427734375
20220118-1838,2022-01-18 18:38:34Z,u01, 28,40,movements,el-ex, rt, d,212031.488813625, 2.2945620694361297, -0.845780083868053, 2.1792709541274045, 0.5047592520713806, -2.079306125640869, 2.5877952575683594, 0.496908038854599, 0.7484886646270752, 0.43914374709129333, 0.1755925714969635, 0.020172834396362305, 0.05702638626098633, -0.8150052717876055, 0.23524090604265535, 0.5051026309245024,0.15905814308928973,0.6725006103515625,0.7686614990234375,0.4961700439453125
20220118-1838,2022-01-18 18:38:34Z,u01, 29,40,movements,el-ex, rt, d,212031.51375912502, 2.1956272605132874, -0.7986656163278424, 2.116321080557094, -0.14320632815361023, -2.1460204124450684, 2.511925458908081, 0.5658483505249023, 0.7164257764816284, 0.40810534358024597, 0.26557260751724243, 0.05481451749801636, 0.06439834833145142, -0.8016144712529053, 0.2479252033845047, 0.5074800311063414,0.19598833402855084,0.8594207763671875,0.7777862548828125,0.4807281494140625
20220118-1838,2022-01-18 18:38:34Z,u01, 30,40,movements,el-ex, rt, d,212031.538703125, 2.1133443544751085, -0.7430933888615282, 2.0775422757665782, -0.35089778900146484, -2.2551257610321045, 2.4097182750701904, 0.6306321024894714, 0.6765690445899963, 0.3802071511745453, 0.2927687168121338, 0.17386430501937866, 0.0917472243309021, -0.7897437733363566, 0.2576981717460744, 0.5048727183709452,0.2345207151645524,0.92340087890625,0.850433349609375,0.471954345703125
20220118-1838,2022-01-18 18:38:34Z,u01, 31,40,movements,el-ex, rt, d,212031.563647125, 2.038187034613776, -0.688946857758774, 2.049009576020896, -0.2489677369594574, -2.248350143432617, 2.219316005706787, 0.689125657081604, 0.6357246041297913, 0.34779322147369385, 0.243735671043396, 0.19658136367797852, 0.11822545528411865, -0.7768915172645773, 0.26520970207389316, 0.5020442653801469,0.272130437500286,0.9368896484375,0.821136474609375,0.461700439453125
20220118-1838,2022-01-18 18:38:34Z,u01, 32,40,movements,el-ex, rt, d,212031.58859212502, 1.9699737526147847, -0.6378364309744201, 2.02769225248634, -0.266689658164978, -2.1463849544525146, 2.0653982162475586, 0.7402245998382568, 0.5954586267471313, 0.3122444450855255, 0.21882081031799316, 0.18762236833572388, 0.1467094123363495, -0.7632989099565297, 0.27110330010323286, 0.49928979963909376,0.3075507825541118,0.95904541015625,0.7830810546875,0.458953857421875
20220118-1838,2022-01-18 18:38:34Z,u01, 33,40,movements,el-ex, rt, d,212031.61353612502, 1.9108425599337178, -0.5898167474437757, 2.013156378258195, -0.22549617290496826, -1.9101860523223877, 1.8460586071014404, 0.7834564447402954, 0.5562087297439575, 0.27717819809913635, 0.15144950151443481, 0.2249496579170227, 0.21903762221336365, -0.749931363890795, 0.276029068835383, 0.4959175925354225,0.3398185059243454,0.9253082275390625,0.791778564453125,0.501220703125
20220118-1838,2022-01-18 18:38:34Z,u01, 34,40,movements,el-ex, rt, d,212031.63848012502, 1.861244090850995, -0.5474471844181911, 2.0019159687900197, -0.0854659378528595, -1.547418236732483, 1.599422574043274, 0.8180930614471436, 0.5205091834068298, 0.24452842772006989, 0.057776689529418945, 0.29641586542129517, 0.25872182846069336, -0.7372407400161223, 0.2806070257071796, 0.49279971139899187,0.3672660316213913,0.8758697509765625,0.816925048828125,0.5032501220703125
20220118-1838,2022-01-18 18:38:34Z,u01, 35,40,movements,el-ex, rt, d,212031.663425125, 1.8199988187504508, -0.5133444871839388, 1.9910887298129316, 0.04166904836893082, -1.3154399394989014, 1.2271218299865723, 0.8441979289054871, 0.49109339714050293, 0.21484212577342987, 0.01774054765701294, 0.3474075496196747, 0.2682206630706787, -0.7255021343913979, 0.2847239247313037, 0.49113596547816074,0.3890557997232934,0.856231689453125,0.8428802490234375,0.4702301025390625
20220118-1838,2022-01-18 18:38:34Z,u01, 36,40,movements,el-ex, rt, d,212031.688369125, 1.7868480815415169, -0.4872452181909225, 1.9854941500448158, -0.21437963843345642, -1.0850571393966675, 0.8592108488082886, 0.863083004951477, 0.4681934714317322, 0.1894271969795227, -0.05554211139678955, 0.3315196931362152, 0.29970860481262207, -0.7159561293180048, 0.28656660773365417, 0.4897624346642909,0.40671759502767757,0.8075408935546875,0.799713134765625,0.4891357421875
20220118-1838,2022-01-18 18:38:34Z,u01, 37,40,movements,el-ex, rt, d,212031.71331312502, 1.7645547262941566, -0.4683681968247777, 1.9902742743221482, -0.42886924743652344, -0.8536868691444397, 0.5401752591133118, 0.8756086230278015, 0.4514308273792267, 0.1718119978904724, -0.11463779211044312, 0.32493624091148376, 0.34866517782211304, -0.7103226651741912, 0.2852152036619465, 0.48676616820914687,0.42089492716847343,0.7554473876953125,0.7899322509765625,0.515838623046875
20220118-1838,2022-01-18 18:38:34Z,u01, 38,40,movements,el-ex, rt, d,212031.738258125, 1.7512449862340522, -0.4552101288204444, 2.0008166911279046, -0.45485740900039673, -0.6007342338562012, 0.33447831869125366, 0.8835852146148682, 0.4396510422229767, 0.16119517385959625, -0.10944592952728271, 0.35734596848487854, 0.34095633029937744, -0.7077406165618582, 0.2823133104720465, 0.48278427619186937,0.4316499061920955,0.774139404296875,0.7969970703125,0.5021514892578125
20220118-1838,2022-01-18 18:38:34Z,u01, 39,40,movements,el-ex, rt, d,212031.763202125, 1.7429809660003153, -0.4485074687307413, 2.0095977282589, -0.2552869915962219, -0.36027437448501587, 0.06261251866817474, 0.8877708315849304, 0.4336211085319519, 0.15438927710056305, -0.0922994613647461, 0.38748490810394287, 0.3791344165802002, -0.7065324208863517, 0.2792965731276976, 0.4801835266532707,0.4384395978998738,0.793975830078125,0.8221588134765625,0.545867919921875
20220118-1838,2022-01-18 18:38:34Z,u01, 40,40,movements,el-ex, rt, d,212031.788146125, 1.7414657436597327, -0.4507081220399549, 2.015516743431113, -0.17447619140148163, 0.05505724623799324, -0.29741019010543823, 0.8870611786842346, 0.4356030523777008, 0.15288148820400238, -0.10312545299530029, 0.37041202187538147, 0.425792932510376, -0.7072326903081111, 0.2761569543621627, 0.4797031071411175,0.4398230476272962,0.783935546875,0.8060150146484375,0.57867431640625
20220118-1838,2022-01-18 18:38:34Z,u01, 41,40,movements,el-ex, rt, d,212031.813090125, 1.7510983489057221, -0.4613130201043506, 2.0220814295800573, -0.13638117909431458, 0.4806271195411682, -0.6102224588394165, 0.8809528350830078, 0.4451242685317993, 0.16058146953582764, -0.10225111246109009, 0.3491872549057007, 0.44317829608917236, -0.7112299656906736, 0.27284183858319133, 0.4798857470966847,0.4352228185312052,0.775543212890625,0.7938995361328125,0.6067352294921875
20220118-1838,2022-01-18 18:38:34Z,u01, 42,40,movements,el-ex, rt, d,212031.83803512502, 1.771937373681447, -0.4792913088864405, 2.0303675716892116, -0.15577815473079681, 0.8728250861167908, -0.9175469279289246, 0.8694328665733337, 0.46115046739578247, 0.17727583646774292, -0.09387445449829102, 0.33404606580734253, 0.41891562938690186, -0.7184094563389454, 0.26930609623670476, 0.48029391728269516,0.4250645139180916,0.7755584716796875,0.795196533203125,0.59619140625
20220118-1838,2022-01-18 18:38:34Z,u01, 43,40,movements,el-ex, rt, d,212031.862979125, 1.8023564826752807, -0.5050663894868188, 2.040440371180396, -0.10542469471693039, 1.1968910694122314, -1.240440845489502, 0.8517844080924988, 0.48386552929878235, 0.20084194839000702, -0.05622166395187378, 0.35471174120903015, 0.36420631408691406, -0.7281359531894346, 0.26502643564006073, 0.48138332124505834,0.40969397026777565,0.80303955078125,0.8363800048828125,0.562530517578125
20220118-1838,2022-01-18 18:38:34Z,u01, 44,40,movements,el-ex, rt, d,212031.887923125, 1.8427202379835141, -0.5382567814247692, 2.0536625699985054, -0.14031648635864258, 1.5016520023345947, -1.5523499250411987, 0.8270549774169922, 0.5126400589942932, 0.23060816526412964, 0.005525469779968262, 0.3237552046775818, 0.35931190848350525, -0.740157065790424, 0.2597529588163587, 0.4829027948983573,0.38923097327807255,0.83258056640625,0.836395263671875,0.5899200439453125
20220118-1838,2022-01-18 18:38:34Z,u01, 45,40,movements,el-ex, rt, d,212031.91286812501, 1.893796187329854, -0.5773425585902752, 2.072090310484147, -0.11075637489557266, 1.8098676204681396, -1.7976086139678955, 0.794585108757019, 0.5457991361618042, 0.26596513390541077, 0.05243021249771118, 0.311073362827301, 0.3030652105808258, -0.7541657152687309, 0.2534100365303888, 0.48419883941966796,0.3640999717264438,0.8507843017578125,0.862152099609375,0.573394775390625
20220118-1838,2022-01-18 18:38:34Z,u01, 46,40,movements,el-ex, rt, d,212031.93781212502, 1.954292332121558, -0.6222234106871984, 2.0930756787769242, 0.080023393034935, 2.091176748275757, -2.0571422576904297, 0.7535604238510132, 0.5828433036804199, 0.3040406405925751, 0.10351061820983887, 0.33628517389297485, 0.3191740810871124, -0.7688477689900115, 0.24676593127567195, 0.4862354770282641,0.3339983231597442,0.8570709228515625,0.91912841796875,0.6232147216796875
20220118-1838,2022-01-18 18:38:34Z,u01, 47,40,movements,el-ex, rt, d,212031.96275612502, 2.023356087881767, -0.67543626030523, 2.1161283237354023, 0.20573584735393524, 2.3357794284820557, -2.4581611156463623, 0.7018684148788452, 0.6252378225326538, 0.3412596583366394, 0.187383234500885, 0.35564279556274414, 0.2930787205696106, -0.7832021291084902, 0.2392159265000875, 0.49027472141328426,0.29832997472755984,0.900543212890625,1.0058441162109375,0.6394805908203125
20220118-1838,2022-01-18 18:38:35Z,u01, 48,40,movements,el-ex, rt, d,212031.987701125, 2.110844002383102, -0.7329335047489909, 2.155712264366946, -0.1094866394996643, 2.5957210063934326, -2.774176597595215, 0.6374436020851135, 0.6690527200698853, 0.38214391469955444, 0.3118666410446167, 0.30703669786453247, 0.32838159799575806, -0.799191365610395, 0.22883424719812123, 0.4924017676442556,0.2578148780349556,0.949310302734375,0.9760894775390625,0.7105255126953125
20220118-1838,2022-01-18 18:38:35Z,u01, 49,40,movements,el-ex, rt, d,212032.012645125, 2.2242388104973108, -0.7878779069866839, 2.2207725380327648, -0.4213370382785797, 2.892418622970581, -2.9729065895080566, 0.5600457787513733, 0.708858072757721, 0.4287993907928467, 0.39765679836273193, 0.3223613500595093, 0.2518647015094757, -0.8172543289686112, 0.21562713560006333, 0.48997667493370656,0.21336152395043725,0.9533233642578125,1.042144775390625,0.6739501953125
20220118-1838,2022-01-18 18:38:35Z,u01, 50,40,movements,el-ex, rt, d,212032.03758912502, 2.3578912454960705, -0.8412141037360703, 2.300222484179986, 0.002898750826716423, 3.153001308441162, -3.1234817504882812, 0.4705275297164917, 0.7454529404640198, 0.47212696075439453, 0.4474869966506958, 0.3552398085594177, 0.20447826385498047, -0.8337746418087811, 0.20219627545365743, 0.48683210239277486,0.1641068396923537,0.9180145263671875,1.1006927490234375,0.676605224609375
20220118-1838,2022-01-18 18:38:35Z,u01, 51,40,movements,el-ex, rt, d,212032.06253412503, 2.508082902750897, -0.8932065771169904, 2.3906645057978855, 0.04404931515455246, 3.3191823959350586, -3.168241500854492, 0.371120810508728, 0.7790859937667847, 0.5052672028541565, 0.514575719833374, 0.26040393114089966, 0.19178497791290283, -0.84667915881899, 0.18912427855694702, 0.4848467113079052,0.11086150439932313,0.876617431640625,1.013519287109375,0.704620361328125
20220118-1838,2022-01-18 18:38:35Z,u01, 52,40,movements,el-ex, rt, d,212032.087478125, 2.6844434496462717, -0.9293642493966043, 2.5068443851296456, -0.6271997690200806, 3.4189462661743164, -3.2015116214752197, 0.26410403847694397, 0.8012397289276123, 0.5369024276733398, 0.5780590772628784, 0.15106141567230225, 0.23064523935317993, -0.85891641452031, 0.1752535815245373, 0.4778983283592757,0.056232037120813205,0.8421630859375,0.952301025390625,0.767547607421875
20220118-1838,2022-01-18 18:38:35Z,u01, 53,40,movements,el-ex, rt, d,212032.112422125, 2.880210559877034, -0.9350655474925583, 2.6434948193508623, -1.0707135200500488, 3.4774227142333984, -3.047818183898926, 0.1534384936094284, 0.8046380281448364, 0.5735976099967957, 0.6026497483253479, 0.0809515118598938, 0.15114909410476685, -0.8722400124433402, 0.16123322916982008, 0.46172976424665074,0.0026060103611697527,0.724822998046875,0.87969970703125,0.7136993408203125
20220118-1838,2022-01-18 18:38:35Z,u01, 54,40,movements,el-ex, rt, d,212032.13736712502, 3.072401830857507, -0.9264643474332935, 2.7728804036554364, -0.6364874839782715, 3.5802581310272217, -3.011334180831909, 0.041527338325977325, 0.7995011806488037, 0.5992275476455688, 0.5263590216636658, 0.14114224910736084, 0.20680278539657593, -0.8817602985273467, 0.14870294064741424, 0.4446794601023004,-0.051444223408911374,0.5678863525390625,0.940643310546875,0.8060302734375
20220118-1838,2022-01-18 18:38:35Z,u01, 55,40,movements,el-ex, rt, d,212032.16231112502, -3.023079889319019, -0.911154447722712, 2.8972213437944587, -0.5506334900856018, 3.5351498126983643, -3.0554933547973633, -0.07245874404907227, 0.7902117371559143, 0.6085352301597595, 0.5795845985412598, 0.11876952648162842, 0.04882866144180298, -0.8865720312011677, 0.1351208339494032, 0.429452178527858,-0.10631658171385834,0.48876953125,0.890472412109375,0.6530914306640625
20220118-1838,2022-01-18 18:38:35Z,u01, 56,40,movements,el-ex, rt, d,212032.18725512503, -2.8474853848904726, -0.8765541306844111, 3.008635818219014, -1.0250377655029297, 3.5835940837860107, -3.0515241622924805, -0.18546979129314423, 0.768538773059845, 0.6123311519622803, 0.5464469790458679, -0.0025932788848876953, 0.15475881099700928, -0.8896022108718488, 0.12154623591759728, 0.4100588309465062,-0.16026939172344756,0.3609771728515625,0.7659454345703125,0.76708984375
20220118-1838,2022-01-18 18:38:35Z,u01, 57,40,movements,el-ex, rt, d,212032.212200125, -2.689868763658642, -0.8208446033314322, 3.097272691938755, -1.3305481672286987, 3.715437412261963, -2.8801112174987793, -0.2975316345691681, 0.7317217588424683, 0.6132359504699707, 0.613922655582428, 0.006422221660614014, 0.0813593864440918, -0.8914638326286322, 0.10913389376901517, 0.38421702271052066,-0.21391436845972317,0.3025665283203125,0.72589111328125,0.6751556396484375
20220118-1838,2022-01-18 18:38:35Z,u01, 58,40,movements,el-ex, rt, d,212032.237144125, -2.5496798431133594, -0.7622108083561949, -3.118745106000268, -0.7677382826805115, 3.699526071548462, -2.7563834190368652, -0.40357130765914917, 0.6905222535133362, 0.6002581715583801, 0.6014472246170044, 0.09178084135055542, -0.1096268892288208, -0.8890783302613917, 0.09833008663381795, 0.35884532027188953,-0.2666479770330913,0.1978759765625,0.7823028564453125,0.490631103515625
20220118-1838,2022-01-18 18:38:35Z,u01, 59,40,movements,el-ex, rt, d,212032.26208812502, -2.41451854211908, -0.7132989258277068, -3.053474392647283, -0.07236141711473465, 3.5943222045898438, -2.715919017791748, -0.5026408433914185, 0.6543319821357727, 0.5649794936180115, 0.6265727877616882, 0.11623680591583252, -0.038505494594573975, -0.8804475880919337, 0.08545049527154905, 0.34067802602393443,-0.31851018716395385,0.106597900390625,0.7402191162109375,0.52191162109375
20220118-1838,2022-01-18 18:38:35Z,u01, 60,40,movements,el-ex, rt, d,212032.287033125, -2.2877681279055118, -0.6629189624974992, -2.9941646722559185, -0.21627633273601532, 3.4978485107421875, -2.7973568439483643, -0.5941441059112549, 0.6154202222824097, 0.5179299116134644, 0.6004916429519653, -0.007921874523162842, 0.18315064907073975, -0.8682886678835471, 0.07099123373182831, 0.3242464278473424,-0.3686454922708408,0.00634765625,0.6074981689453125,0.701080322265625
20220118-1838,2022-01-18 18:38:35Z,u01, 61,40,movements,el-ex, rt, d,212032.311977125, -2.1767330440745294, -0.5974699605327739, -2.9542674502112165, -0.9876954555511475, 3.5415894985198975, -2.8310492038726807, -0.6795721054077148, 0.5625525116920471, 0.47086724638938904, 0.6026527285575867, 0.05504685640335083, 0.15147757530212402, -0.8556938112871881, 0.05676022240063433, 0.30104692405211375,-0.4170575372913169,-0.0914459228515625,0.5983734130859375,0.5759124755859375
20220118-1838,2022-01-18 18:38:35Z,u01, 62,40,movements,el-ex, rt, d,212032.336921125, -2.077708644236073, -0.5276414699902124, -2.9329079174333876, -0.5745869874954224, 3.527874231338501, -2.746595859527588, -0.7553473114967346, 0.5034970045089722, 0.41945338249206543, 0.5524513125419617, 0.05666834115982056, -0.11146992444992065, -0.8412559619985428, 0.04488981906448228, 0.2745158368380461,-0.46358854556546947,-0.2028961181640625,0.5601654052734375,0.3079833984375
20220118-1838,2022-01-18 18:38:35Z,u01, 63,40,movements,el-ex, rt, d,212032.36186612502, -1.9759853778765, -0.4674293234573233, -2.9003135126243413, 0.6416586637496948, 3.323559045791626, -2.6396570205688477, -0.8204435110092163, 0.45059284567832947, 0.3519073724746704, 0.5201199054718018, 0.0933983325958252, -0.05837401747703552, -0.8216599474297355, 0.028785779602461925, 0.25639108267963967,-0.5082421106842274,-0.324371337890625,0.5107879638671875,0.20977783203125
20220118-1838,2022-01-18 18:38:35Z,u01, 64,40,movements,el-ex, rt, d,212032.38681012503, -1.8736916514985371, -0.41782112298847146, -2.8446166476839423, 1.4584555625915527, 2.874032497406006, -2.4427804946899414, -0.8723684549331665, 0.4057699739933014, 0.2726251482963562, 0.5102314352989197, -0.1986929178237915, -0.33915337920188904, -0.7976770470731299, 0.0048894125724118775, 0.2509835887724605,-0.5483564967307553,-0.3621368408203125,0.2070770263671875,-0.0665283203125
20220118-1838,2022-01-18 18:38:35Z,u01, 65,40,movements,el-ex, rt, d,212032.411754125, -1.7951640031586986, -0.3708807052672582, -2.801153447066506, 0.3971395194530487, 2.0396130084991455, -1.9315571784973145, -0.9086477756500244, 0.3624363839626312, 0.20736251771450043, 0.5396138429641724, -0.5076085329055786, -0.5180314779281616, -0.7767861234121858, -0.0168694951719969, 0.245878091610778,-0.5795366668770066,-0.3706512451171875,-0.2742156982421875,-0.4157257080078125
20220118-1838,2022-01-18 18:38:35Z,u01, 66,40,movements,el-ex, rt, d,212032.436699125, -1.7550200537131553, -0.33486078723289514, -2.7988100785898786, -0.5744312405586243, 1.111491322517395, -0.9751189947128296, -0.9284746050834656, 0.3286376893520355, 0.17300871014595032, 0.4438708424568176, -1.022760033607483, -0.9492385387420654, -0.7654467048944381, -0.024406906860350214, 0.23377135249026412,-0.5990380177228644,-0.4846038818359375,-0.694122314453125,-0.7762298583984375
20220118-1838,2022-01-18 18:38:35Z,u01, 67,40,movements,el-ex, rt, d,212032.46164312502, -1.7447040317328546, -0.3192478933758439, -2.8098760630574335, -0.27718913555145264, -0.01290902215987444, -0.045955561101436615, -0.9351502060890198, 0.31385254859924316, 0.1642894297838211, 0.4069823622703552, -0.7259314060211182, -0.9984720945358276, -0.7626056462189846, -0.024027927083685174, 0.22487144384949687,-0.6060431250809185,-0.5279083251953125,-0.348052978515625,-0.8411865234375
20220118-1838,2022-01-18 18:38:35Z,u01, 68,40,movements,el-ex, rt, d,212032.48658712502, -1.7570495219206992, -0.32960137954975993, -2.807377087244752, 0.5776291489601135, -0.9823789596557617, 0.7706980109214783, -0.9298074245452881, 0.32366588711738586, 0.17521034181118011, 0.3780190944671631, -0.5372278690338135, -0.8978360891342163, -0.7662074395442394, -0.023050528651115815, 0.22925918721203345,-0.5998625722433794,-0.551788330078125,-0.21356201171875,-0.722625732421875
20220118-1838,2022-01-18 18:38:35Z,u01, 69,40,movements,el-ex, rt, d,212032.511532, -1.78641644496884, -0.35961128996375386, -2.7966422715022685, 0.5601673126220703, -1.6315737962722778, 1.4549522399902344, -0.9143587946891785, 0.35191041231155396, 0.20026741921901703, 0.34071987867355347, -0.44759827852249146, -0.6254230737686157, -0.7743955910859343, -0.02109926938847101, 0.24312096619626503,-0.5837452001268694,-0.5820770263671875,-0.078765869140625,-0.373199462890625
20220118-1838,2022-01-18 18:38:35Z,u01, 70,40,movements,el-ex, rt, d,212032.536476, -1.8323942763577996, -0.40361913630631213, -2.7954773080081794, 0.25336283445358276, -2.0513057708740234, 1.903237223625183, -0.888357400894165, 0.39274922013282776, 0.237842857837677, 0.31400132179260254, -0.32466453313827515, -0.3587534427642822, -0.7865977920162052, -0.013613999140987265, 0.2593461459565002,-0.5601947454206604,-0.5743560791015625,0.068084716796875,-0.12091064453125
20220118-1838,2022-01-18 18:38:35Z,u01, 71,40,movements,el-ex, rt, d,212032.56142, -1.8931528317110307, -0.45386032659129777, -2.8098472814052595, 0.14619003236293793, -2.3012983798980713, 2.240816354751587, -0.8524673581123352, 0.4384382963180542, 0.28472986817359924, 0.30290693044662476, -0.21985620260238647, -0.35510340332984924, -0.8014762684781637, -0.0008487006343718684, 0.2740820441570001,-0.5315205141309993,-0.544281005859375,0.2449188232421875,-0.0317535400390625
20220118-1838,2022-01-18 18:38:35Z,u01, 72,40,movements,el-ex, rt, d,212032.58636500002, -1.9562538409492771, -0.5129983469515833, -2.817960384277562, 0.8445361852645874, -2.477334499359131, 2.4333527088165283, -0.8073484301567078, 0.49079182744026184, 0.32758548855781555, 0.3233242630958557, 0.005576670169830322, -0.2713567912578583, -0.8146658669438509, 0.01059555373812765, 0.2947283327490247,-0.4993421890961955,-0.4840240478515625,0.496368408203125,0.0562286376953125
20220118-1838,2022-01-18 18:38:35Z,u01, 73,40,movements,el-ex, rt, d,212032.611309, -2.0225598419272743, -0.5808945085044642, -2.823130651293698, 0.9067815542221069, -2.607314109802246, 2.6248862743377686, -0.7521063685417175, 0.5487719178199768, 0.36494600772857666, 0.34536802768707275, -0.04056268930435181, -0.19003450870513916, -0.825843861872832, 0.02132901072909918, 0.32027512240295025,-0.46362798429310015,-0.3877716064453125,0.4886932373046875,0.222259521484375
20220118-1838,2022-01-18 18:38:35Z,u01, 74,40,movements,el-ex, rt, d,212032.636253, -2.103470324051193, -0.645648187293446, -2.848858541794193, 0.12030370533466339, -2.6731984615325928, 2.7274036407470703, -0.6880505681037903, 0.6017162799835205, 0.4056158661842346, 0.381974458694458, -0.13972586393356323, 0.07727915048599243, -0.8375802593893832, 0.03559844091204145, 0.3411260188408159,-0.4252354742389256,-0.3060760498046875,0.4619903564453125,0.4828948974609375
20220118-1838,2022-01-18 18:38:35Z,u01, 75,40,movements,el-ex, rt, d,212032.66119800002, -2.198865374680416, -0.7032659845004421, -2.894061310668873, 0.1655654013156891, -2.6561975479125977, 2.7301623821258545, -0.6171766519546509, 0.6467121839523315, 0.44816988706588745, 0.33676594495773315, 0.03086954355239868, -0.050083309412002563, -0.849344365875416, 0.05195272258594197, 0.3571524124433109,-0.385171644313475,-0.2625579833984375,0.7265777587890625,0.3591766357421875
20220118-1838,2022-01-18 18:38:35Z,u01, 76,40,movements,el-ex, rt, d,212032.68614200002, -2.296819964879893, -0.763225703771725, -2.941095224785169, 0.7093183994293213, -2.7176358699798584, 2.7616636753082275, -0.5403823852539062, 0.6912559866905212, 0.4797416925430298, 0.40505218505859375, 0.12403637170791626, -0.17511525750160217, -0.8575297420264395, 0.0671832601900009, 0.37605745663171086,-0.3445430860762033,-0.1353302001953125,0.8152923583984375,0.30462646484375
20220118-1838,2022-01-18 18:38:35Z,u01, 77,40,movements,el-ex, rt, d,212032.71108600002, -2.399374274032317, -0.8259470756409493, -2.9920642173715866, 0.7056426405906677, -2.5640695095062256, 2.713235378265381, -0.45818275213241577, 0.7351900935173035, 0.4995637536048889, 0.32770490646362305, 0.0006191730499267578, 0.2973875105381012, -0.8620668612449388, 0.0813793568000383, 0.3977799575623834,-0.3032971780172672,-0.1492767333984375,0.7674713134765625,0.920806884765625
20220118-1838,2022-01-18 18:38:35Z,u01, 78,40,movements,el-ex, rt, d,212032.73603, -2.5097352346735198, -0.875343312855675, -3.0584207669219508, 0.0474206805229187, -2.2427613735198975, 2.553245782852173, -0.3784457743167877, 0.7677634954452515, 0.517028272151947, 0.31959259510040283, 0.21995317935943604, 0.25305235385894775, -0.8656445865841574, 0.09577878447707572, 0.41420669502371144,-0.26442156887330304,-0.0588531494140625,0.9877166748046875,0.77008056640625
20220118-1838,2022-01-18 18:38:35Z,u01, 79,40,movements,el-ex, rt, d,212032.760975, -2.6306813605742096, -0.9093731148396174, -3.1405117214650713, 0.20014211535453796, -2.3673601150512695, 2.4829161167144775, -0.30034688115119934, 0.7891188263893127, 0.5358020067214966, 0.33272600173950195, 0.1301165223121643, -0.08162397146224976, -0.8693040930311879, 0.11050515479104434, 0.42505111944427376,-0.22678345102982794,0.039093017578125,0.8871917724609375,0.404449462890625
20220118-1838,2022-01-18 18:38:35Z,u01, 80,40,movements,el-ex, rt, d,212032.78591900002, -2.7632665755923234, -0.9474689219942354, 3.052569689814109, 0.6011711359024048, -2.4350550174713135, 2.7645695209503174, -0.21561339497566223, 0.811940610408783, 0.5424603819847107, 0.23288635909557343, -0.04535430669784546, -0.19999223947525024, -0.8693144128442015, 0.12458992386171666, 0.44018532076297723,-0.18710071731978312,0.01727294921875,0.7665863037109375,0.34246826171875
20220118-1838,2022-01-18 18:38:35Z,u01, 81,40,movements,el-ex, rt, d,212032.81086300002, -2.908201109360637, -0.996435702318883, 2.950823770450709, 1.3734831809997559, -2.3765268325805664, 2.6839945316314697, -0.1256532222032547, 0.8395398259162903, 0.5285683870315552, 0.1261415034532547, -0.19871634244918823, 0.21184927225112915, -0.8631963908934049, 0.13847806619492284, 0.4627124068954872,-0.14701420712717594,0.0276336669921875,0.77410888671875,0.8129425048828125
20220118-1838,2022-01-18 18:38:35Z,u01, 82,40,movements,el-ex, rt, d,212032.835808, -3.06924597087552, -1.0125751770204816, 2.8257968897637142, -0.49344682693481445, -2.200462579727173, 2.6926991939544678, -0.03828706964850426, 0.848198652267456, 0.5282930135726929, 0.35293856263160706, 0.071952223777771, 0.1302763819694519, -0.860348799335617, 0.15474640500792497, 0.47361462469305526,-0.10743746618445191,0.3146514892578125,0.9201507568359375,0.6585693359375
20220118-1838,2022-01-18 18:38:35Z,u01, 83,40,movements,el-ex, rt, d,212032.860752, 3.057182187800494, -0.9938632464333367, 2.706611771419721, -0.6581794023513794, -2.3632068634033203, 2.5015478134155273, 0.045987535268068314, 0.8381394743919373, 0.5435138940811157, 0.4242578446865082, 0.15824413299560547, -0.08559757471084595, -0.8619168157662794, 0.16987156912442347, 0.4730883672688543,-0.06656152264616594,0.471282958984375,1.011077880859375,0.4466094970703125
20220118-1838,2022-01-18 18:38:35Z,u01, 84,40,movements,el-ex, rt, d,212032.885696, 2.9010681356229795, -0.9819935384073762, 2.5920476551061618, 0.7907379865646362, -2.4974007606506348, 2.5773911476135254, 0.1322949379682541, 0.8316061496734619, 0.5393789410591125, 0.1695239394903183, 0.06216228008270264, 0.0872233510017395, -0.8579998452190741, 0.18310038194196915, 0.47924600105375786,-0.025177926360893055,0.30181884765625,0.893768310546875,0.6266021728515625
20220118-1838,2022-01-18 18:38:35Z,u01, 85,40,movements,el-ex, rt, d,212032.91064100002, 2.7402320758327994, -0.9841147339421481, 2.469428198838846, 0.6198803782463074, -2.181485176086426, 2.623906135559082, 0.21627572178840637, 0.8327823281288147, 0.5096060037612915, 0.08127066493034363, 0.12627828121185303, 0.20918971300125122, -0.8464134814499223, 0.1959265414603431, 0.4949982691057218,0.013178621611605712,0.3615875244140625,0.903778076171875,0.6878204345703125
20220118-1838,2022-01-18 18:38:35Z,u01, 86,40,movements,el-ex, rt, d,212032.935585, 2.6002205511289316, -0.9565295635708948, 2.36559524207711, -0.42844122648239136, -2.1893091201782227, 2.539055347442627, 0.2970050871372223, 0.817196249961853, 0.4939413368701935, 0.3358226418495178, 0.04004240036010742, 0.030793219804763794, -0.8384394125145453, 0.20973796508590686, 0.5003294260778038,0.05195898990839168,0.6328277587890625,0.85723876953125,0.5247344970703125
20220118-1838,2022-01-18 18:38:35Z,u01, 87,40,movements,el-ex, rt, d,212032.960529, 2.4831524364258364, -0.9101688556923287, 2.2892854078000178, -0.32899582386016846, -2.276228427886963, 2.5386006832122803, 0.3754597306251526, 0.7896073460578918, 0.48533549904823303, 0.3173504173755646, 0.1306656002998352, -0.01776033639907837, -0.8327062533332995, 0.2219640717995392, 0.4987759044579634,0.09249304645951786,0.6860198974609375,0.9337005615234375,0.46533203125
20220118-1838,2022-01-18 18:38:36Z,u01, 88,40,movements,el-ex, rt, d,212032.98547400002, 2.362783373586217, -0.8709029577868929, 2.208785225749659, 0.5533652305603027, -2.3849637508392334, 2.5373611450195312, 0.4524621069431305, 0.764910876750946, 0.45846420526504517, 0.2067480981349945, 0.061505138874053955, 0.05966329574584961, -0.8212206935234714, 0.23415522697741017, 0.5033424978528629,0.13196304567626269,0.659210205078125,0.826416015625,0.51812744140625
20220118-1838,2022-01-18 18:38:36Z,u01, 89,40,movements,el-ex, rt, d,212033.01041800002, 2.246149039022036, -0.8292751262745398, 2.1318764596257913, 0.18260137736797333, -2.331610918045044, 2.630673408508301, 0.5271486639976501, 0.7374419569969177, 0.42224806547164917, 0.2113460898399353, 0.054489076137542725, 0.05280378460884094, -0.8064750938045054, 0.24641826513582102, 0.5094945517376714,0.17114671915291316,0.7641143798828125,0.7852935791015625,0.4964141845703125
20220118-1838,2022-01-18 18:38:36Z,u01, 90,40,movements,el-ex, rt, d,212033.03536200002, 2.151281694452015, -0.7784219771021065, 2.080580998262135, -0.3226407468318939, -2.2821741104125977, 2.3612070083618164, 0.5953905582427979, 0.7021567225456238, 0.39049428701400757, 0.3100964426994324, 0.15616530179977417, 0.11896613240242004, -0.793420970716506, 0.2563792141054178, 0.5104311712337739,0.2102683809952788,0.905487060546875,0.8583221435546875,0.50946044921875
20220118-1838,2022-01-18 18:38:36Z,u01, 91,40,movements,el-ex, rt, d,212033.060307, 2.076802394720875, -0.723855241598083, 2.054594154515829, -0.5347687602043152, -2.252831220626831, 2.1402649879455566, 0.6553663611412048, 0.6622781753540039, 0.3631560802459717, 0.3175034523010254, 0.1859884262084961, 0.16121217608451843, -0.7826115790444514, 0.26286338712186275, 0.5066025738920585,0.24854721057909773,0.9681549072265625,0.8544921875,0.5232086181640625
20220118-1838,2022-01-18 18:38:36Z,u01, 92,40,movements,el-ex, rt, d,212033.085251, 2.009896066144522, -0.6725141651678415, 2.034749168321476, -0.16830924153327942, -2.081549882888794, 2.0580475330352783, 0.7080491185188293, 0.6229546666145325, 0.33255735039711, 0.19749915599822998, 0.21890336275100708, 0.19483229517936707, -0.770891971449584, 0.2683360727715755, 0.5029621234852008,0.2841665021842855,0.905548095703125,0.84185791015625,0.5273895263671875
20220118-1838,2022-01-18 18:38:36Z,u01, 93,40,movements,el-ex, rt, d,212033.11019500002, 1.946631105215687, -0.6275041377351089, 2.0111931197395556, 0.06262406706809998, -1.8558423519134521, 1.9013631343841553, 0.7529938817024231, 0.5871261954307556, 0.29712462425231934, 0.1423003077507019, 0.2568984627723694, 0.20534729957580566, -0.7570861266703142, 0.27455947880134607, 0.5020694996853139,0.31522041552864044,0.898223876953125,0.831298828125,0.4978179931640625
20220118-1838,2022-01-18 18:38:36Z,u01, 94,40,movements,el-ex, rt, d,212033.13514, 1.8913353442500362, -0.5851389301127792, 1.9916577914134093, -0.02684859186410904, -1.652637243270874, 1.716392159461975, 0.7911748290061951, 0.5523151755332947, 0.26266032457351685, 0.08350473642349243, 0.2571483254432678, 0.20734095573425293, -0.7433716145734344, 0.2805865418029182, 0.5009806984011553,0.34305718180452577,0.8746795654296875,0.8094635009765625,0.470001220703125
20220118-1838,2022-01-18 18:38:36Z,u01, 95,40,movements,el-ex, rt, d,212033.160084, 1.8453175788696536, -0.5466673145929236, 1.9796802111803302, -0.12460288405418396, -1.485532522201538, 1.4409083127975464, 0.8222739696502686, 0.5198431611061096, 0.2315785139799118, 0.03871840238571167, 0.3098687529563904, 0.2302592694759369, -0.7311172250523195, 0.2850558907528139, 0.4989209362268704,0.36781601812514453,0.8568267822265625,0.834869384765625,0.4702911376953125
20220118-1838,2022-01-18 18:38:36Z,u01, 96,40,movements,el-ex, rt, d,212033.185028, 1.807033538549277, -0.5147531858553908, 1.9741937974776878, -0.18264953792095184, -1.3257544040679932, 1.0839425325393677, 0.8462391495704651, 0.4923200309276581, 0.20371703803539276, -0.014360308647155762, 0.3338366150856018, 0.2972138226032257, -0.7206757505207918, 0.2872019831464935, 0.4966654574863957,0.3891851071706328,0.831878662109375,0.8261566162109375,0.5009307861328125
20220118-1838,2022-01-18 18:38:36Z,u01, 97,40,movements,el-ex, rt, d,212033.20997300002, 1.777521373169054, -0.4908021795038644, 1.9748613890907478, -0.2698286473751068, -1.0489946603775024, 0.7787202596664429, 0.8631768822669983, 0.4713335335254669, 0.1810263991355896, -0.06544739007949829, 0.35465526580810547, 0.3166695833206177, -0.7128504892435787, 0.2869797515505958, 0.494235037159514,0.40647092488647446,0.7933349609375,0.8176727294921875,0.495452880859375
20220118-1838,2022-01-18 18:38:36Z,u01, 98,40,movements,el-ex, rt, d,212033.23491700002, 1.7569757670392394, -0.4737239291593784, 1.9777277283127876, -0.15126445889472961, -0.6990841627120972, 0.5217452049255371, 0.8744972348213196, 0.45620328187942505, 0.1647210419178009, -0.09022611379623413, 0.3519783914089203, 0.3330053985118866, -0.707442735315888, 0.28615607787903724, 0.4919464562538096,0.4190800706365437,0.784271240234375,0.8081817626953125,0.4977264404296875
20220118-1838,2022-01-18 18:38:36Z,u01, 99,40,movements,el-ex, rt, d,212033.259861, 1.7441187843906034, -0.464419361566485, 1.9776043602463795, 0.016505373641848564, -0.341442346572876, 0.2023741602897644, 0.8806860446929932, 0.44790375232696533, 0.15418975055217743, -0.09435480833053589, 0.37774935364723206, 0.3642885684967041, -0.7038081657295259, 0.28591772358629064, 0.49129014724690967,0.4260741393771814,0.78924560546875,0.8189239501953125,0.5244903564453125
20220118-1838,2022-01-18 18:38:36Z,u01, 100,40,movements,el-ex, rt, d,212033.284806, 1.7396135682850031, -0.4640851313687206, 1.9777830616405885, -0.06342993676662445, -0.01650635525584221, -0.16233190894126892, 0.881519079208374, 0.4476048946380615, 0.15024563670158386, -0.09698855876922607, 0.3670160472393036, 0.37720489501953125, -0.7028389528824411, 0.2848512321180615, 0.4918044707613419,0.4277913634207247,0.7845306396484375,0.8146209716796875,0.5274505615234375
20220118-1838,2022-01-18 18:38:36Z,u01, 101,40,movements,el-ex, rt, d,212033.30975000001, 1.745090167365745, -0.4710713913189857, 1.9817870313472712, -0.06950104981660843, 0.3039426803588867, -0.4369358420372009, 0.8775821328163147, 0.4538412392139435, 0.15452507138252258, -0.10296958684921265, 0.3327951729297638, 0.3503882884979248, -0.7052577767230049, 0.2826198957437218, 0.4920614073611561,0.4249860469131295,0.7739410400390625,0.7877655029296875,0.5015869140625
20220118-1838,2022-01-18 18:38:36Z,u01, 102,40,movements,el-ex, rt, d,212033.33469400002, 1.7578522265512386, -0.4856771803144008, 1.9849355375954274, 0.022275280207395554, 0.5954063534736633, -0.7616421580314636, 0.86893230676651, 0.4668073356151581, 0.16446156799793243, -0.08307421207427979, 0.3678942024707794, 0.35604631900787354, -0.709762846977185, 0.28012048723929783, 0.4935570778008405,0.4173375869574443,0.785858154296875,0.8347015380859375,0.5205078125
20220118-1838,2022-01-18 18:38:36Z,u01, 103,40,movements,el-ex, rt, d,212033.359639, 1.7796420215674225, -0.5088848271825889, 1.9902773401945397, -0.046643733978271484, 0.9500331878662109, -1.1598619222640991, 0.8543124198913574, 0.4872036874294281, 0.1810595542192459, -0.05548447370529175, 0.3596285283565521, 0.3727276027202606, -0.7170209077677009, 0.2764250297442873, 0.4957316210920344,0.404623618118127,0.799713134765625,0.859893798828125,0.5606231689453125
20220118-1838,2022-01-18 18:38:36Z,u01, 104,40,movements,el-ex, rt, d,212033.384583, 1.8140176680768765, -0.5415343904307919, 2.0027694501662263, -0.208094984292984, 1.3082921504974365, -1.561763882637024, 0.8316973447799683, 0.5154514312744141, 0.20637211203575134, -0.03112971782684326, 0.36766624450683594, 0.3413422107696533, -0.728059893767608, 0.2703975738711637, 0.4974986302762693,0.386405378799107,0.800567626953125,0.88311767578125,0.5477142333984375
20220118-1838,2022-01-18 18:38:36Z,u01, 105,40,movements,el-ex, rt, d,212033.409527, 1.8618876690681405, -0.5808840251343235, 2.0220817609981157, -0.15858548879623413, 1.6842753887176514, -1.826036810874939, 0.8008092641830444, 0.5487631559371948, 0.23992380499839783, 0.012026369571685791, 0.3601570725440979, 0.3093925714492798, -0.7420797333509416, 0.2632101339877749, 0.4984234789929823,0.36278380569732144,0.818572998046875,0.9196624755859375,0.5499725341796875
20220118-1838,2022-01-18 18:38:36Z,u01, 106,40,movements,el-ex, rt, d,212033.43447100002, 1.919038423260265, -0.6273709168030459, 2.041016852354765, 0.1657169610261917, 2.0097923278808594, -2.117961883544922, 0.7609782218933105, 0.5870183706283569, 0.2762637436389923, 0.08780717849731445, 0.38804882764816284, 0.3116269111633301, -0.7565673480944727, 0.2563936785277732, 0.5008595866920518,0.3331783895473873,0.848785400390625,0.975067138671875,0.587890625
20220118-1838,2022-01-18 18:38:36Z,u01, 107,40,movements,el-ex, rt, d,212033.45941600003, 1.9836216823966564, -0.6833957194152586, 2.0595150584499766, 0.33570989966392517, 2.2690317630767822, -2.4651405811309814, 0.7102898955345154, 0.6314297914505005, 0.3111030161380768, 0.1750403642654419, 0.4045810103416443, 0.265496164560318, -0.7704221780569109, 0.24900035481994853, 0.505932761978398,0.2974570629170653,0.8949127197265625,1.029144287109375,0.5767822265625
20220118-1838,2022-01-18 18:38:36Z,u01, 108,40,movements,el-ex, rt, d,212033.48436, 2.062430378549897, -0.7455374893858894, 2.0894975460728302, 0.129925936460495, 2.459346055984497, -2.7695558071136475, 0.6477048993110657, 0.6783668398857117, 0.3468388020992279, 0.2802431583404541, 0.2991418242454529, 0.25245025753974915, -0.7849314415812807, 0.2393784239288341, 0.510467934307544,0.2569108916432762,0.927947998046875,0.977508544921875,0.5992889404296875
20220118-1838,2022-01-18 18:38:36Z,u01, 109,40,movements,el-ex, rt, d,212033.509304, 2.160766174250279, -0.8073625823466669, 2.13913065107879, 0.09742492437362671, 2.6245193481445312, -2.9761674404144287, 0.5745294690132141, 0.7224661707878113, 0.38465434312820435, 0.33448249101638794, 0.27974647283554077, 0.2556656002998352, -0.8003421110059078, 0.2275514847483433, 0.5120087364873168,0.2133542307021695,0.902679443359375,1.0276641845703125,0.6368255615234375
20220118-1838,2022-01-18 18:38:36Z,u01, 110,40,movements,el-ex, rt, d,212033.53424900002, 2.27662228116022, -0.871784503643028, 2.203688305497868, 0.25427570939064026, 2.782949686050415, -3.221712350845337, 0.48972344398498535, 0.7654784321784973, 0.41738972067832947, 0.4129713773727417, 0.3500155210494995, 0.2574760615825653, -0.8141569603185821, 0.21411049732912238, 0.5136727745112833,0.16566706331800346,0.9026947021484375,1.1154937744140625,0.67486572265625
20220118-1838,2022-01-18 18:38:36Z,u01, 111,40,movements,el-ex, rt, d,212033.55919300002, 2.416552324121921, -0.9345907868594853, 2.29244867021658, 0.05023883655667305, 2.8436501026153564, -3.418220043182373, 0.3940182328224182, 0.804356038570404, 0.44470319151878357, 0.5294283628463745, 0.27765995264053345, 0.18347057700157166, -0.8264563660174389, 0.19829642804652767, 0.5142215751636531,0.11499797721005608,0.9169464111328125,1.060394287109375,0.6334075927734375
20220118-1838,2022-01-18 18:38:36Z,u01, 112,40,movements,el-ex, rt, d,212033.58413700003, 2.589936972545333, -0.9858789027515551, 2.4166527414807972, -0.029564816504716873, 2.8934836387634277, -3.5914626121520996, 0.2893705368041992, 0.8337576985359192, 0.4702264070510864, 0.5103425979614258, 0.22445464134216309, 0.14047610759735107, -0.8382673154598808, 0.1800586252483091, 0.5108162085475388,0.06287780492897524,0.799713134765625,1.0582122802734375,0.6107025146484375
20220118-1838,2022-01-18 18:38:36Z,u01, 113,40,movements,el-ex, rt, d,212033.609082, 2.788820585057102, -1.0277889492166283, 2.566021186072437, 0.2689383924007416, 2.878498077392578, -3.6543798446655273, 0.17852453887462616, 0.8561586141586304, 0.48489293456077576, 0.5441164374351501, 0.23637056350708008, 0.13131797313690186, -0.8465496925537852, 0.1606240309613169, 0.5074144557882614,0.009165811379627714,0.704376220703125,1.0939483642578125,0.583587646484375
20220118-1838,2022-01-18 18:38:36Z,u01, 114,40,movements,el-ex, rt, d,212033.634026, 3.0092860861379966, -1.0583043651777009, 2.738911472500222, 0.3308520019054413, 2.8088231086730957, -3.7363269329071045, 0.06468746066093445, 0.8715252876281738, 0.4860648214817047, 0.5495093464851379, 0.13233506679534912, 0.0393715500831604, -0.8506207797053398, 0.13955893356831653, 0.5049343873861719,-0.044819472360779336,0.61419677734375,1.0038604736328125,0.5254364013671875
20220118-1838,2022-01-18 18:38:36Z,u01, 115,40,movements,el-ex, rt, d,212033.65897000002, -3.0342964998316106, -1.0599919117014847, 2.9334699500929338, -0.2899028956890106, 2.7596819400787354, -3.8606836795806885, -0.052354272454977036, 0.8723515272140503, 0.48606783151626587, 0.6117262244224548, 0.06145590543746948, 0.10139548778533936, -0.85409138625489, 0.11645525359408793, 0.4972659886487421,-0.09845126046531805,0.5478973388671875,0.8867034912109375,0.572479248046875
20220118-1838,2022-01-18 18:38:36Z,u01, 116,40,movements,el-ex, rt, d,212033.683915, -2.807806852904721, -1.023921476014442, 3.1154410206014767, -0.8601170182228088, 2.789578676223755, -3.8792405128479004, -0.17037038505077362, 0.8541538119316101, 0.49132028222084045, 0.5993711948394775, 0.14232158660888672, 0.14648199081420898, -0.8585353208438944, 0.09261340024604134, 0.4811459105614864,-0.1511245370916735,0.4290008544921875,0.9964752197265625,0.6378021240234375
20220118-1838,2022-01-18 18:38:36Z,u01, 117,40,movements,el-ex, rt, d,212033.708859, -2.6119000565124093, -0.9670192006315338, -3.01972409334808, -0.6555765867233276, 2.9109394550323486, -3.9038846492767334, -0.2868691086769104, 0.8231970071792603, 0.48995229601860046, 0.6345711946487427, 0.22763001918792725, 0.09490224719047546, -0.860323138411802, 0.069427977805438, 0.4619602210321007,-0.20400185389316183,0.3388519287109375,1.0718841552734375,0.56402587890625
20220118-1838,2022-01-18 18:38:36Z,u01, 118,40,movements,el-ex, rt, d,212033.733803, -2.4413798117520424, -0.898835290279204, -2.898855246866011, -0.5229084491729736, 3.0102179050445557, -3.9966514110565186, -0.40114104747772217, 0.7826023697853088, 0.47604575753211975, 0.6889065504074097, 0.18895524740219116, 0.13839519023895264, -0.8578777214053805, 0.04548282260983996, 0.44248772466749403,-0.2572582349783095,0.2877655029296875,0.9715576171875,0.61444091796875
20220118-1838,2022-01-18 18:38:36Z,u01, 119,40,movements,el-ex, rt, d,212033.75874800002, -2.296114321927995, -0.8156099808494331, -2.8080280156354522, -0.7615339159965515, 3.1628153324127197, -3.9731550216674805, -0.5128953456878662, 0.7281438112258911, 0.45469245314598083, 0.6970688700675964, 0.22878068685531616, 0.1807141900062561, -0.8525756933774773, 0.021468832139294347, 0.41918583400826237,-0.31134724795567714,0.153533935546875,0.8773345947265625,0.56597900390625
20220118-1838,2022-01-18 18:38:36Z,u01, 120,40,movements,el-ex, rt, d,212033.78369200003, -2.1674860025635927, -0.7300300421087242, -2.7382298752580985, -0.20022189617156982, 3.182021141052246, -3.8408565521240234, -0.6163918375968933, 0.6668919920921326, 0.41870760917663574, 0.6320931315422058, -0.0027532577514648438, -0.11748391389846802, -0.8422297692696087, -0.001679544327251814, 0.3966367464048589,-0.365137580399037,0.0157012939453125,0.6641387939453125,0.3012237548828125
20220118-1838,2022-01-18 18:38:36Z,u01, 121,40,movements,el-ex, rt, d,212033.808636, -2.049333767997444, -0.6542505964412859, -2.6735183058087197, 0.3616178333759308, 2.902764320373535, -3.449436664581299, -0.7043695449829102, 0.6085647344589233, 0.3653939962387085, 0.6716851592063904, -0.07188260555267334, -0.1645883321762085, -0.8258666087289717, -0.025324845442445953, 0.38115837680534037,-0.4147546080315196,-0.036865234375,0.486175537109375,0.18609619140625
20220118-1838,2022-01-18 18:38:36Z,u01, 122,40,movements,el-ex, rt, d,212033.833581, -1.9538365503358346, -0.5807002720670247, -2.6278109891690327, -0.3306453227996826, 2.6085562705993652, -3.1139779090881348, -0.7754905223846436, 0.5486095547676086, 0.3124779164791107, 0.617531418800354, -0.37644457817077637, -0.19304725527763367, -0.8087319790102854, -0.04681386820048872, 0.3657065773399665,-0.4582793080898839,-0.157958984375,0.1721649169921875,0.1194305419921875
20220118-1838,2022-01-18 18:38:36Z,u01, 123,40,movements,el-ex, rt, d,212033.85852500002, -1.8865940806789048, -0.5109510930371902, -2.6155394705215027, -0.6226699948310852, 2.2400450706481934, -2.4520609378814697, -0.8291447758674622, 0.4890070855617523, 0.2709082365036011, 0.5871555805206299, -0.6063013672828674, -0.410510778427124, -0.7948640890983822, -0.060375457079610256, 0.3452288334472983,-0.4953413205074391,-0.256134033203125,-0.13140869140625,-0.1480712890625
20220118-1838,2022-01-18 18:38:36Z,u01, 124,40,movements,el-ex, rt, d,212033.88346900002, -1.8397066276210456, -0.45661501790531933, -2.617152429213882, -0.5127848982810974, 1.5384666919708252, -1.6280947923660278, -0.8652930855751038, 0.4409124553203583, 0.23846207559108734, 0.5219550132751465, -0.5590307712554932, -0.566617488861084, -0.7839328709091075, -0.06841263220156715, 0.32689151090033586,-0.5233649929033304,-0.3433380126953125,-0.1181182861328125,-0.328155517578125
20220118-1838,2022-01-18 18:38:36Z,u01, 125,40,movements,el-ex, rt, d,212033.908414, -1.809966731838612, -0.42308842539733393, -2.620809183012598, -0.5839812755584717, 0.9658725261688232, -0.8546616435050964, -0.885870099067688, 0.41057851910591125, 0.21600843966007233, 0.430608868598938, -0.6706187725067139, -0.5851031541824341, -0.7763562734037746, -0.07263027758133117, 0.3150440246897209,-0.541057404595753,-0.4666900634765625,-0.2888946533203125,-0.3920135498046875
20220118-1838,2022-01-18 18:38:36Z,u01, 126,40,movements,el-ex, rt, d,212033.933358, -1.7990134607884078, -0.4088871584168211, -2.634696352479408, -0.5370913743972778, 0.31131863594055176, -0.028404202312231064, -0.8937726616859436, 0.39758846163749695, 0.20759078860282898, 0.3545423150062561, -0.6364495754241943, -0.6561534404754639, -0.7738830241529167, -0.07000329619026466, 0.30660551653348,-0.5497250966589737,-0.5392303466796875,-0.238861083984375,-0.4485626220703125
20220118-1838,2022-01-18 18:38:36Z,u01, 127,40,movements,el-ex, rt, d,212033.958302, -1.8036232917818151, -0.4173436318482946, -2.640764459786595, 0.266784131526947, -0.4522017538547516, 0.7873437404632568, -0.889502763748169, 0.4053335189819336, 0.2109253853559494, 0.3006356358528137, -0.5612783432006836, -0.7374756336212158, -0.7753359707515979, -0.06570255562325347, 0.3077912691971747,-0.547541624578844,-0.5950164794921875,-0.169525146484375,-0.5275726318359375
20220118-1838,2022-01-18 18:38:37Z,u01, 128,40,movements,el-ex, rt, d,212033.98324700003, -1.821572803637825, -0.44866016679081205, -2.6349987403349746, 0.676740288734436, -1.1535676717758179, 1.510218620300293, -0.8728451132774353, 0.4337587058544159, 0.2235960215330124, 0.2824976444244385, -0.5738648176193237, -0.6364072561264038, -0.7797954093813294, -0.06096828295494902, 0.31992495839171736,-0.5346495711743223,-0.5903472900390625,-0.140106201171875,-0.412811279296875
20220118-1838,2022-01-18 18:38:37Z,u01, 129,40,movements,el-ex, rt, d,212034.008191, -1.8538148985911826, -0.4955489423882433, -2.6297220998544053, 0.5722440481185913, -1.5931546688079834, 2.002403497695923, -0.8447102904319763, 0.47551462054252625, 0.24566315114498138, 0.2621755003929138, -0.5062458515167236, -0.5078396797180176, -0.7873574790918684, -0.05384957829546752, 0.33707932353703096,-0.5133672613505489,-0.57952880859375,-0.02203369140625,-0.218902587890625
20220118-1838,2022-01-18 18:38:37Z,u01, 130,40,movements,el-ex, rt, d,212034.033135, -1.9032397014571971, -0.5499291202825302, -2.6407558187570017, 0.013378489762544632, -1.9225820302963257, 2.3938117027282715, -0.8058820962905884, 0.5226268172264099, 0.27823659777641296, 0.26713991165161133, -0.35505467653274536, -0.29775258898735046, -0.798367598379386, -0.041562908755594846, 0.3526288557543825,-0.4863483532041728,-0.5387420654296875,0.167572021484375,-0.0195159912109375
20220118-1838,2022-01-18 18:38:37Z,u01, 131,40,movements,el-ex, rt, d,212034.05808000002, -1.967633808346912, -0.608648905225189, -2.666040538157034, 0.10264179110527039, -2.105745553970337, 2.608505964279175, -0.756664514541626, 0.5717595219612122, 0.31709566712379456, 0.24638020992279053, -0.24105584621429443, -0.24928563833236694, -0.8110989299677049, -0.025813995803601053, 0.3669331515661203,-0.45476604973595647,-0.4978485107421875,0.3695068359375,0.1056060791015625
20220118-1838,2022-01-18 18:38:37Z,u01, 132,40,movements,el-ex, rt, d,212034.08302400002, -2.037402429743785, -0.6723214154164404, -2.692293204662421, 0.4180288314819336, -2.214380979537964, 2.7403554916381836, -0.6987419128417969, 0.6228038668632507, 0.35195884108543396, 0.26881033182144165, -0.1390087604522705, -0.10844388604164124, -0.8221139681143607, -0.010394224574172162, 0.3840935415696166,-0.4201103818182457,-0.429931640625,0.483795166015625,0.2435150146484375
20220118-1838,2022-01-18 18:38:37Z,u01, 133,40,movements,el-ex, rt, d,212034.10796800003, -2.1174626997149866, -0.7396815581242431, -2.7282949029366397, 0.3016541302204132, -2.3288490772247314, 3.0255353450775146, -0.6310294270515442, 0.6740527153015137, 0.38399896025657654, 0.2935659885406494, -0.2504228949546814, -0.2235831618309021, -0.8318390954483204, 0.0065730672053390116, 0.4021358510486428,-0.38247539592775626,-0.3066558837890625,0.417633056640625,0.1640625
20220118-1838,2022-01-18 18:38:37Z,u01, 134,40,movements,el-ex, rt, d,212034.132912, -2.2125544481736514, -0.8098357070019512, -2.778847438537988, 0.5578604936599731, -2.4911811351776123, 3.2357349395751953, -0.5524141788482666, 0.724173903465271, 0.4128081202507019, 0.3800814747810364, -0.14192909002304077, -0.12872010469436646, -0.8400956810173541, 0.025363515567092598, 0.4206970349230897,-0.34148185557505273,-0.172332763671875,0.582244873046875,0.284088134765625
20220118-1838,2022-01-18 18:38:37Z,u01, 135,40,movements,el-ex, rt, d,212034.157857, -2.31999307370514, -0.8849286019426625, -2.8386698037355966, 0.8241288661956787, -2.488877773284912, 3.4074184894561768, -0.46375811100006104, 0.7738697528839111, 0.43134012818336487, 0.35468822717666626, -0.11807739734649658, -0.0719497799873352, -0.8448268080236514, 0.04401961657662856, 0.44250242284404306,-0.29752588375761124,-0.0941162109375,0.6710662841796875,0.395111083984375
20220118-1838,2022-01-18 18:38:37Z,u01, 136,40,movements,el-ex, rt, d,212034.18280100002, -2.444525050300789, -0.9593945986791451, -2.917053997711488, 0.8608205318450928, -2.4913036823272705, 3.4268853664398193, -0.3685021698474884, 0.818844199180603, 0.44011402130126953, 0.4193596839904785, -0.06029927730560303, -8.106231689453125e-05, -0.8462041906838004, 0.0632097979684525, 0.4649746086360484,-0.25247101470729966,0.0508575439453125,0.758544921875,0.440032958984375
20220118-1838,2022-01-18 18:38:37Z,u01, 137,40,movements,el-ex, rt, d,212034.20774500002, -2.603708025380052, -1.0208690360721386, -3.030852352366953, 0.31172889471054077, -2.6510114669799805, 3.5159621238708496, -0.2677517533302307, 0.8525625467300415, 0.448827862739563, 0.4689998924732208, -0.021782338619232178, -0.08272367715835571, -0.8470621044278279, 0.08306457293992739, 0.4831027461393673,-0.2054213078417124,0.2360992431640625,0.8107147216796875,0.3335113525390625
20220118-1838,2022-01-18 18:38:37Z,u01, 138,40,movements,el-ex, rt, d,212034.23269, -2.8054953842114214, -1.0646505092811833, 3.0973324217589395, 0.32169824838638306, -2.731217861175537, 3.6521189212799072, -0.15989281237125397, 0.8746195435523987, 0.457684189081192, 0.4700429439544678, -0.03473013639450073, -0.014523208141326904, -0.8474049766960332, 0.10366724796559856, 0.49707701769100987,-0.15515251175267675,0.310150146484375,0.8398895263671875,0.4431610107421875
20220118-1838,2022-01-18 18:38:37Z,u01, 139,40,movements,el-ex, rt, d,212034.257634, -3.0278514040788074, -1.10152086386793, 2.9187372054015, 0.9292934536933899, -2.4198873043060303, 3.462970018386841, -0.05132751539349556, 0.8918961882591248, 0.44931793212890625, 0.38465577363967896, 0.08430004119873047, 0.3209304213523865, -0.8421653889135963, 0.12416287995255562, 0.5138631860006588,-0.10623387316293981,0.3559722900390625,1.065399169921875,0.841033935546875
20220118-1838,2022-01-18 18:38:37Z,u01, 140,40,movements,el-ex, rt, d,212034.282578, 3.031681193811928, -1.1078324766308132, 2.734894215562837, -0.4644472002983093, -2.333662271499634, 3.2440099716186523, 0.04898794740438461, 0.8947327733039856, 0.4439074993133545, 0.5526508688926697, 0.29804694652557373, 0.14921706914901733, -0.8375253261447169, 0.14319593154726937, 0.5238398107105265,-0.060317885177938846,0.6016387939453125,1.192779541015625,0.5931243896484375
20220118-1838,2022-01-18 18:38:37Z,u01, 141,40,movements,el-ex, rt, d,212034.30752300002, 2.830401009369205, -1.0725622281381673, 2.575569584265431, -0.8285039663314819, -2.450152635574341, 3.1664774417877197, 0.14632222056388855, 0.8784278035163879, 0.45492273569107056, 0.5072422623634338, 0.036580801010131836, 0.010043144226074219, -0.8375577343155535, 0.1611161359535629, 0.5218894863009982,-0.013042330861736035,0.6347503662109375,0.95062255859375,0.4580535888671875
20220118-1838,2022-01-18 18:38:37Z,u01, 142,40,movements,el-ex, rt, d,212034.332467, 2.641343352245359, -1.0320701194896325, 2.4277434222241294, 0.43279600143432617, -2.363051176071167, 3.4911704063415527, 0.24607841670513153, 0.8583629131317139, 0.4501767158508301, 0.27867141366004944, 0.06502294540405273, 0.03419840335845947, -0.8322789010007245, 0.1800005366658901, 0.5231717997249747,0.034685488249733554,0.524749755859375,0.9233856201171875,0.484375
20220118-1838,2022-01-18 18:38:37Z,u01, 143,40,movements,el-ex, rt, d,212034.357411, 2.4424606863427116, -1.0087900465150907, 2.2595292560304547, 1.5403491258621216, -1.9908076524734497, 3.3856441974639893, 0.3429403305053711, 0.8461877107620239, 0.4078711271286011, 0.23422348499298096, 0.1940041184425354, 0.2477991282939911, -0.8144696646096216, 0.2014317024421844, 0.5385956493852202,0.07732630287602854,0.63580322265625,1.1102447509765625,0.6923675537109375
20220118-1838,2022-01-18 18:38:37Z,u01, 144,40,movements,el-ex, rt, d,212034.38235600002, 2.2766724578726576, -0.967964399020117, 2.11720896325512, 0.37401172518730164, -1.8678398132324219, 3.272088050842285, 0.43149426579475403, 0.8237332701683044, 0.3677985668182373, 0.5113157033920288, 0.18931281566619873, 0.15055766701698303, -0.7961019146623751, 0.22387724268794926, 0.5500644707117691,0.11631703872828719,0.94281005859375,1.0130462646484375,0.5183563232421875
20220118-1838,2022-01-18 18:38:37Z,u01, 145,40,movements,el-ex, rt, d,212034.40730000002, 2.1741447623061716, -0.9025372173335323, 2.0478901700660495, -0.7178604602813721, -1.9341330528259277, 2.9487721920013428, 0.5102207064628601, 0.7849015593528748, 0.3515745997428894, 0.47719085216522217, 0.15931248664855957, 0.10785225033760071, -0.7859392880924444, 0.24101191214055165, 0.5474016960181631,0.15672970615189943,0.96923828125,0.9685821533203125,0.4639434814453125
20220118-1838,2022-01-18 18:38:37Z,u01, 146,40,movements,el-ex, rt, d,212034.43224400003, 2.091585018005584, -0.8336094003382585, 2.003822949735869, -0.08550195395946503, -1.965257167816162, 2.9405581951141357, 0.5830913186073303, 0.7403624653816223, 0.33446675539016724, 0.20952647924423218, 0.24479073286056519, 0.15703412890434265, -0.7759286194256529, 0.25528054389341337, 0.5420294564994457,0.19741003050932465,0.7926177978515625,0.9851531982421875,0.4915008544921875
20220118-1838,2022-01-18 18:38:37Z,u01, 147,40,movements,el-ex, rt, d,212034.457189, 2.003482736871782, -0.772934812870685, 1.9477348279437252, 0.4718915820121765, -1.8227819204330444, 2.828822612762451, 0.6498921513557434, 0.6982391476631165, 0.3001699149608612, 0.09157806634902954, 0.2359800934791565, 0.12768644094467163, -0.759504762340325, 0.27062423374974065, 0.5431540426420401,0.23430457660281018,0.7569732666015625,0.912628173828125,0.409515380859375
20220118-1838,2022-01-18 18:38:37Z,u01, 148,40,movements,el-ex, rt, d,212034.482133, 1.9266858530607056, -0.7121577950266588, 1.9005957381098648, 0.153498113155365, -1.7878773212432861, 2.730271339416504, 0.709520697593689, 0.653468668460846, 0.26374107599258423, 0.2161690592765808, 0.16876643896102905, 0.08135175704956055, -0.7418273329619324, 0.285591912607555, 0.5439360068741732,0.2688181038096456,0.925689697265625,0.822235107421875,0.3450927734375
20220118-1838,2022-01-18 18:38:37Z,u01, 149,40,movements,el-ex, rt, d,212034.50707566668, 1.8669688872034742, -0.6487605960567249, 1.875995933905536, -0.3057190179824829, -1.7849065065383911, 2.551382064819336, 0.7621397376060486, 0.6041992902755737, 0.2325650453567505, 0.24204128980636597, 0.19835203886032104, 0.1540164053440094, -0.7264445065552447, 0.2975918383941802, 0.5401125207521242,0.3033085121702254,1.0214385986328125,0.813201904296875,0.3936004638671875
20220118-1838,2022-01-18 18:38:37Z,u01, 150,40,movements,el-ex, rt, d,212034.53202066667, 1.8167460618035773, -0.5862424483388804, 1.8657717175351936, -0.26866400241851807, -1.7275904417037964, 2.392904281616211, 0.8079569339752197, 0.5532348155975342, 0.20282305777072906, 0.16944491863250732, 0.3226502537727356, 0.21841111779212952, -0.712248273723414, 0.3067799340556948, 0.5336657844058676,0.3373269310503139,0.9774017333984375,0.875885009765625,0.421234130859375
20220118-1838,2022-01-18 18:38:37Z,u01, 151,40,movements,el-ex, rt, d,212034.55696466667, 1.769772292980636, -0.5314022829038223, 1.8559236596302169, -0.1501147747039795, -1.5127218961715698, 2.027973175048828, 0.8450875878334045, 0.5067427158355713, 0.17040696740150452, 0.08430987596511841, 0.39142000675201416, 0.20842300355434418, -0.6973495526529535, 0.31449496818568917, 0.5290062716893085,0.3673537795951154,0.9219207763671875,0.89483642578125,0.3807525634765625
20220118-1838,2022-01-18 18:38:37Z,u01, 152,40,movements,el-ex, rt, d,212034.58190866667, 1.7340037160125135, -0.4857389951983516, 1.853833306460136, -0.3805905878543854, -1.2475075721740723, 1.5810800790786743, 0.8725783824920654, 0.4668619930744171, 0.1436893194913864, 0.03933250904083252, 0.4025989770889282, 0.2613552510738373, -0.6852673799466311, 0.3197706600688233, 0.5237001552200234,0.3922925008337358,0.9119110107421875,0.8694610595703125,0.4050445556640625
20220118-1838,2022-01-18 18:38:37Z,u01, 153,40,movements,el-ex, rt, d,212034.6068536667, 1.7092463263940727, -0.45036180610080095, 1.859942115350881, -0.3975742757320404, -0.9513004422187805, 1.1571226119995117, 0.8916747570037842, 0.4352912902832031, 0.12424726039171219, -0.0075653791427612305, 0.454677551984787, 0.2801259756088257, -0.677039501565483, 0.3220887195712428, 0.5175976864413552,0.41227284634963457,0.8712158203125,0.8956146240234375,0.3974761962890625
20220118-1838,2022-01-18 18:38:37Z,u01, 154,40,movements,el-ex, rt, d,212034.6317976667, 1.6902513844831146, -0.42649719964071137, 1.8629617371119762, -0.03846989572048187, -0.6825683116912842, 0.6733248233795166, 0.9039324522018433, 0.41368433833122253, 0.10849585384130478, -0.10600465536117554, 0.5330166816711426, 0.255090594291687, -0.6705176839166284, 0.3235026486702282, 0.5140363825750759,0.4260500563941275,0.7979278564453125,0.9467010498046875,0.36358642578125
20220118-1838,2022-01-18 18:38:37Z,u01, 155,40,movements,el-ex, rt, d,212034.65674166667, 1.6767118630249247, -0.41583093473470456, 1.8611341173451126, -0.03912995755672455, -0.3352668285369873, 0.20713448524475098, 0.9096548557281494, 0.40395018458366394, 0.09670848399400711, -0.15944117307662964, 0.5500903725624084, 0.28402888774871826, -0.6659067829120787, 0.32391726914734126, 0.5139434053992278,0.43302199828929366,0.7418060302734375,0.93865966796875,0.392486572265625
20220118-1838,2022-01-18 18:38:37Z,u01, 156,40,movements,el-ex, rt, d,212034.68168666668, 1.6740873983494098, -0.4164651367081398, 1.8663152415761077, -0.3515264689922333, -0.0460539273917675, -0.2924015522003174, 0.909650444984436, 0.40453025698661804, 0.09429435431957245, -0.17727434635162354, 0.49161842465400696, 0.34003186225891113, -0.6662577350850131, 0.3213219674938692, 0.5134012552123245,0.43505405105859196,0.7323760986328125,0.896148681640625,0.434326171875
20220118-1838,2022-01-18 18:38:37Z,u01, 157,40,movements,el-ex, rt, d,212034.70663066668, 1.6827089621922462, -0.4283564018587821, 1.8794411958474126, -0.453351229429245, 0.2918391823768616, -0.757921040058136, 0.9039593935012817, 0.4153762757778168, 0.10158894956111908, -0.1444225311279297, 0.5222611427307129, 0.3363230228424072, -0.6717715588056843, 0.3154638582401538, 0.5121733273735023,0.4323010010139611,0.77587890625,0.9398345947265625,0.4340972900390625
20220118-1838,2022-01-18 18:38:37Z,u01, 158,40,movements,el-ex, rt, d,212034.7315746667, 1.69971733062748, -0.4507966837456888, 1.894595972313906, -0.3895900249481201, 0.5315307378768921, -1.1465200185775757, 0.8926305770874023, 0.4356827735900879, 0.11572065949440002, -0.041647911071777344, 0.4708724021911621, 0.30885517597198486, -0.6805560011091037, 0.30773992296416225, 0.5119602200682181,0.4243070416562243,0.850982666015625,0.90655517578125,0.4245758056640625
20220118-1838,2022-01-18 18:38:37Z,u01, 159,40,movements,el-ex, rt, d,212034.7565186667, 1.723703639861818, -0.4822653455691621, 1.9112297199907018, -0.4505296051502228, 0.8056071996688843, -1.5175468921661377, 0.8756095767021179, 0.46378734707832336, 0.13494041562080383, -0.02587825059890747, 0.419467568397522, 0.28783485293388367, -0.6916791973838157, 0.2984126279427793, 0.5128771556038081,0.41168763771553146,0.8504486083984375,0.865631103515625,0.4182891845703125
20220118-1838,2022-01-18 18:38:37Z,u01, 160,40,movements,el-ex, rt, d,212034.78146366667, 1.7566423881922326, -0.5212574715313648, 1.933522871488583, -0.5600073933601379, 0.9310859441757202, -1.7834011316299438, 0.8522610068321228, 0.4979709982872009, 0.16023842990398407, 0.06074875593185425, 0.32548487186431885, 0.23092056810855865, -0.7055239824257896, 0.2869758232635206, 0.5136089069638222,0.3950782294049778,0.9130096435546875,0.823455810546875,0.3911590576171875
20220118-1838,2022-01-18 18:38:37Z,u01, 161,40,movements,el-ex, rt, d,212034.80640766668, 1.7934301854230807, -0.5643354309649031, 1.959895379179954, -0.5380194783210754, 0.954010009765625, -1.9612886905670166, 0.8240904211997986, 0.5348544120788574, 0.18656304478645325, 0.08180862665176392, 0.25471168756484985, 0.21056222915649414, -0.7199859275956599, 0.2736819141743055, 0.5146176564870999,0.3766791308816474,0.8925323486328125,0.798736572265625,0.4130096435546875
20220118-1838,2022-01-18 18:38:37Z,u01, 162,40,movements,el-ex, rt, d,212034.83135166668, 1.8373600451799292, -0.6102303227025179, 1.991728422572765, -0.622689962387085, 1.1917444467544556, -2.1449968814849854, 0.7905721664428711, 0.5730562210083008, 0.21587534248828888, 0.03820890188217163, 0.22133153676986694, 0.2387298196554184, -0.7353460412291354, 0.25923709369463604, 0.5151352631005328,0.3559466003809929,0.8287811279296875,0.7943878173828125,0.4546051025390625
20220118-1838,2022-01-18 18:38:37Z,u01, 163,40,movements,el-ex, rt, d,212034.85629666667, 1.8967075286546344, -0.6599824238469136, 2.0325595905733684, -0.6974299550056458, 1.6312453746795654, -2.4469239711761475, 0.7484167814254761, 0.6131029725074768, 0.2529369592666626, 0.0757257342338562, 0.2529401183128357, 0.2508319616317749, -0.752918997625077, 0.24409315007123655, 0.5142319953714797,0.3302983105062196,0.8322601318359375,0.88525390625,0.51678466796875
20220118-1838,2022-01-18 18:38:37Z,u01, 164,40,movements,el-ex, rt, d,212034.88124066667, 1.971745703205529, -0.714825689394147, 2.0793456510137878, -0.4148346185684204, 2.0000803470611572, -2.659512996673584, 0.6953126788139343, 0.6554858088493347, 0.294751912355423, 0.1822812557220459, 0.3085492253303528, 0.2518636882305145, -0.7713034561277691, 0.22905662075155664, 0.5134917507421355,0.2982453370163781,0.877593994140625,0.9640350341796875,0.5466156005859375
20220118-1838,2022-01-18 18:38:37Z,u01, 165,40,movements,el-ex, rt, d,212034.90618466667, 2.0588489799639422, -0.7730458778543634, 2.1284511050984256, -0.24502317607402802, 2.301665782928467, -2.8171451091766357, 0.632217526435852, 0.6983186602592468, 0.33563756942749023, 0.2685394883155823, 0.254974365234375, 0.267924040555954, -0.7883398406605405, 0.21526513047564774, 0.5140667201605247,0.26060857596063225,0.9090576171875,0.96112060546875,0.622222900390625
20220118-1838,2022-01-18 18:38:37Z,u01, 166,40,movements,el-ex, rt, d,212034.9311296667, 2.164127271686313, -0.8305448335549419, 2.190448466626867, -0.34161245822906494, 2.5659902095794678, -2.8992116451263428, 0.5591943860054016, 0.7382989525794983, 0.37711548805236816, 0.3768712282180786, 0.20734918117523193, 0.25505608320236206, -0.8049593834522483, 0.2014897881897615, 0.5133720743566884,0.21884081862822172,0.936065673828125,0.945648193359375,0.632171630859375
20220118-1838,2022-01-18 18:38:37Z,u01, 167,40,movements,el-ex, rt, d,212034.9560736667, 2.2868773611174666, -0.8860827347819961, 2.2642651857508667, 0.03315882012248039, 2.794637441635132, -2.956388235092163, 0.4771113693714142, 0.7746002078056335, 0.41516226530075073, 0.4310155510902405, 0.2535371780395508, 0.19834798574447632, -0.8198185949480633, 0.18835764573368569, 0.512237538991087,0.173296658083079,0.8970947265625,1.0368499755859375,0.620880126953125
20220118-1838,2022-01-18 18:38:37Z,u01, 168,40,movements,el-ex, rt, d,212034.98101766667, 2.4227756931916176, -0.9413827708440708, 2.345571328143042, 0.23954331874847412, 2.9183907508850098, -3.019470453262329, 0.3876367211341858, 0.8083728551864624, 0.44302505254745483, 0.4593329131603241, 0.2039257287979126, 0.23849356174468994, -0.8309158602665091, 0.17632740712723768, 0.51283989752383,0.12442971910099937,0.8469696044921875,1.012298583984375,0.6815185546875
20220118-1838,2022-01-18 18:38:38Z,u01, 169,40,movements,el-ex, rt, d,212035.00596266668, 2.5816529866372613, -0.991599191452228, 2.4485752540340853, 0.11458926647901535, 3.017774820327759, -3.1229074001312256, 0.2907182276248932, 0.836902379989624, 0.4637649357318878, 0.5045546889305115, 0.1624264121055603, 0.21200120449066162, -0.8397426471054874, 0.16344647977640164, 0.5125819500486407,0.07333127604748324,0.781524658203125,0.9719696044921875,0.67864990234375
20220118-1838,2022-01-18 18:38:38Z,u01, 170,40,movements,el-ex, rt, d,212035.03090666668, 2.772359126281602, -1.0260787179206292, 2.584395770258073, -0.30012941360473633, 3.052090883255005, -3.2725093364715576, 0.1870102733373642, 0.8552736639976501, 0.4832535982131958, 0.4850630760192871, 0.12136507034301758, 0.20349866151809692, -0.8482065310030092, 0.14890425704285998, 0.5078668455573556,0.021081657896041106,0.6720733642578125,0.9766387939453125,0.6867523193359375
20220118-1838,2022-01-18 18:38:38Z,u01, 171,40,movements,el-ex, rt, d,212035.0558506667, 2.984800418913714, -1.0362076668480564, 2.7437181124633176, -0.5399695634841919, 3.005276918411255, -3.2941901683807373, 0.07955669611692429, 0.8604782819747925, 0.503237247467041, 0.5287501811981201, 0.06574535369873047, 0.09751653671264648, -0.8566745638000481, 0.13314391703080924, 0.49742138475547737,-0.030875533381565595,0.5870513916015625,0.925323486328125,0.5987701416015625
20220118-1838,2022-01-18 18:38:38Z,u01, 172,40,movements,el-ex, rt, d,212035.08079566667, -3.0846256896731052, -1.0268561312801225, 2.9051070044711507, -0.4744073748588562, 3.0473225116729736, -3.329014539718628, -0.029465146362781525, 0.8556762337684631, 0.5166724920272827, 0.5056461691856384, 0.1383730173110962, 0.12677550315856934, -0.86298274209385, 0.11660637894977613, 0.4846121934038983,-0.08255257303988081,0.4761810302734375,0.994049072265625,0.6434478759765625
20220118-1838,2022-01-18 18:38:38Z,u01, 173,40,movements,el-ex, rt, d,212035.10573966667, -2.8770945376947656, -0.9997309751174054, 3.059986360745351, -0.7127155065536499, 3.0576794147491455, -3.4769248962402344, -0.1413077414035797, 0.841325581073761, 0.5217314958572388, 0.5887564420700073, 0.17704612016677856, 0.1419801115989685, -0.8666810907229442, 0.09863897223954948, 0.4700057329855542,-0.1350147734212762,0.440032958984375,1.0186920166015625,0.6616668701171875
20220118-1838,2022-01-18 18:38:38Z,u01, 174,40,movements,el-ex, rt, d,212035.13068366668, -2.6897510057359986, -0.9464851283844565, -3.090463928184299, -1.2491483688354492, 3.1714015007019043, -3.610909938812256, -0.2552231252193451, 0.8113659620285034, 0.5258771181106567, 0.5970199704170227, 0.20403027534484863, 0.17341798543930054, -0.869802545955853, 0.07988792015299598, 0.4491442457367548,-0.18796537750152753,0.341796875,1.0153961181640625,0.6992950439453125
20220118-1838,2022-01-18 18:38:38Z,u01, 175,40,movements,el-ex, rt, d,212035.1556286667, -2.532401770512491, -0.8675782421525466, -2.99607696831524, -1.668381929397583, 3.470228672027588, -3.6067941188812256, -0.3700304329395294, 0.762765109539032, 0.5303459763526917, 0.6285753846168518, 0.25224947929382324, 0.25271981954574585, -0.872484707663266, 0.06279664475634225, 0.4196856232884562,-0.24226220102090223,0.246734619140625,1.0267181396484375,0.7322235107421875
20220118-1838,2022-01-18 18:38:38Z,u01, 176,40,movements,el-ex, rt, d,212035.1805726667, -2.3899479865355153, -0.7885994712404318, -2.924066269063311, -0.6151331663131714, 3.6613988876342773, -3.4251036643981934, -0.4812934100627899, 0.7093667984008789, 0.5149322748184204, 0.6476142406463623, 0.3407124876976013, -0.06441658735275269, -0.8690583541269261, 0.04694387766163888, 0.3920223903347618,-0.29808097673801354,0.16632080078125,1.050079345703125,0.4505157470703125
20220118-1838,2022-01-18 18:38:38Z,u01, 177,40,movements,el-ex, rt, d,212035.20551666667, -2.244699574775507, -0.7243796909154857, -2.8441487112750425, 0.38955259323120117, 3.6435492038726807, -3.467435359954834, -0.5851929187774658, 0.6626710295677185, 0.46735090017318726, 0.639788806438446, 0.31364744901657104, 0.026057422161102295, -0.856120833865162, 0.027066040361695964, 0.3758389384742016,-0.3536520867717953,0.0190582275390625,0.9141998291015625,0.5008697509765625
20220118-1838,2022-01-18 18:38:38Z,u01, 178,40,movements,el-ex, rt, d,212035.23046066667, -2.103649396031734, -0.6568683270417212, -2.7672090237998748, 0.3171568810939789, 3.685119867324829, -3.6406471729278564, -0.6821193099021912, 0.6106398701667786, 0.4022839367389679, 0.5909632444381714, 0.05925154685974121, 0.08109927177429199, -0.8373315075496357, 0.004232458658878002, 0.36256633460006954,-0.4091500215189845,-0.091156005859375,0.669891357421875,0.4833831787109375
20220118-1838,2022-01-18 18:38:38Z,u01, 179,40,movements,el-ex, rt, d,212035.25540566668, -1.9785316806088928, -0.579333026842283, -2.707666975247488, 0.26412975788116455, 3.57519793510437, -3.5953919887542725, -0.7682256698608398, 0.5474659204483032, 0.3318284749984741, 0.6503516435623169, -0.072673499584198, -0.06060352921485901, -0.8158105922471394, -0.019165488938605202, 0.34640490324826456,-0.46269786818790204,-0.1316070556640625,0.458251953125,0.2752685546875
20220118-1838,2022-01-18 18:38:38Z,u01, 180,40,movements,el-ex, rt, d,212035.2803496667, -1.8738417546134472, -0.4992759838968385, -2.6699550542063215, 0.09417516738176346, 3.2184863090515137, -3.3474338054656982, -0.8379239439964294, 0.4787900149822235, 0.2619989216327667, 0.6705809235572815, -0.20162945985794067, -0.3102013170719147, -0.7933397406831844, -0.04014365962922323, 0.32763933962992203,-0.5115202346118477,-0.1673431396484375,0.27716064453125,-0.0482025146484375
20220118-1838,2022-01-18 18:38:38Z,u01, 181,40,movements,el-ex, rt, d,212035.3052936667, -1.7874207325313767, -0.42703055620954783, -2.6391790914233817, 0.6513392329216003, 2.5613410472869873, -2.783398389816284, -0.8889269232749939, 0.4141698479652405, 0.19563297927379608, 0.6655382513999939, -0.416840136051178, -0.5648651123046875, -0.7707958605507779, -0.060747300118405734, 0.3121696361830999,-0.5520268455683698,-0.2441864013671875,-0.0865631103515625,-0.41552734375
20220118-1838,2022-01-18 18:38:38Z,u01, 182,40,movements,el-ex, rt, d,212035.33023866668, -1.7260539753086053, -0.37337593012972964, -2.6148896639325296, 0.15746302902698517, 1.570266604423523, -1.6615383625030518, -0.9199019074440002, 0.3647608458995819, 0.14398054778575897, 0.6463269591331482, -0.9839929342269897, -0.7982163429260254, -0.7522832512909248, -0.07784720525084787, 0.30246603552204615,-0.5801070674742809,-0.2735748291015625,-0.619232177734375,-0.65423583984375
20220118-1838,2022-01-18 18:38:38Z,u01, 183,40,movements,el-ex, rt, d,212035.35518266668, -1.703138601025509, -0.34624307669354176, -2.617678652510383, -0.7732487320899963, 0.34350648522377014, -0.4602644741535187, -0.9324288964271545, 0.33936625719070435, 0.12412527203559875, 0.5924477577209473, -1.2867844104766846, -0.9294841289520264, -0.745177055338231, -0.08230305692017595, 0.29323216604262947,-0.5932557251659646,-0.36181640625,-0.95159912109375,-0.800933837890625
20220118-1838,2022-01-18 18:38:38Z,u01, 184,40,movements,el-ex, rt, d,212035.38012666669, -1.7195213043151047, -0.3482850140238533, -2.6414215533514778, -0.7275835871696472, -0.9924835562705994, 0.8491741418838501, -0.9295831322669983, 0.341286301612854, 0.13928067684173584, 0.5848870277404785, -0.8367544412612915, -0.9123061895370483, -0.7509971697715139, -0.07512381256365197, 0.28626735998160246,-0.5902633153657311,-0.344696044921875,-0.4954681396484375,-0.7730255126953125
20220118-1838,2022-01-18 18:38:38Z,u01, 185,40,movements,el-ex, rt, d,212035.40507166667, -1.759279815256001, -0.3783804322505387, -2.654543562507976, 0.11840251088142395, -1.7556875944137573, 1.604964256286621, -0.9128064513206482, 0.36941593885421753, 0.17411573231220245, 0.500056266784668, -0.538651168346405, -0.732114315032959, -0.7633375378107436, -0.0661337095132701, 0.2915865364284505,-0.5726425282578111,-0.423187255859375,-0.1060943603515625,-0.471954345703125
20220118-1838,2022-01-18 18:38:38Z,u01, 186,40,movements,el-ex, rt, d,212035.43001566667, -1.8100959451231327, -0.42537995384273086, -2.659269887841644, 0.30197814106941223, -2.1215431690216064, 2.120680093765259, -0.8849256634712219, 0.412666916847229, 0.2158993035554886, 0.4128187894821167, -0.3897329568862915, -0.4164302349090576, -0.7776256881070178, -0.0569907157917349, 0.30539776786104517,-0.5466100333432787,-0.47210693359375,0.0229339599609375,-0.200531005859375
20220118-1838,2022-01-18 18:38:38Z,u01, 187,40,movements,el-ex, rt, d,212035.45495966668, -1.8687118281779387, -0.4839640026937664, -2.666881906854127, 0.44891130924224854, -2.314817190170288, 2.566636800765991, -0.8461668491363525, 0.4652915894985199, 0.2598187029361725, 0.3533536195755005, -0.39229345321655273, -0.2893596589565277, -0.7923823138305399, -0.04516214200363286, 0.32298578475158946,-0.5155297809826653,-0.4936676025390625,0.1090545654296875,-0.006988525390625
20220118-1838,2022-01-18 18:38:38Z,u01, 188,40,movements,el-ex, rt, d,212035.4799046667, -1.9309346317955267, -0.555892490365159, -2.671797117978104, 1.194881558418274, -2.438352346420288, 2.9439849853515625, -0.7949373722076416, 0.5277016162872314, 0.29934224486351013, 0.3140413761138916, -0.20137715339660645, -0.23427867889404297, -0.8053783841712119, -0.03219897675377181, 0.3467875025642354,-0.47965342154618185,-0.48089599609375,0.326324462890625,0.0650634765625
20220118-1838,2022-01-18 18:38:38Z,u01, 189,40,movements,el-ex, rt, d,212035.5048486667, -1.98910813516008, -0.6367294251697742, -2.6706714643196303, 0.9022037386894226, -2.291926622390747, 3.0462613105773926, -0.7347168922424316, 0.5945689082145691, 0.3266178071498871, 0.27496951818466187, 0.0038808584213256836, 0.058834582567214966, -0.8141936447984421, -0.01994017940961168, 0.37595201525961686,-0.44198562456153767,-0.448944091796875,0.6414947509765625,0.37042236328125
20220118-1838,2022-01-18 18:38:38Z,u01, 190,40,movements,el-ex, rt, d,212035.529794375, -2.065630194569522, -0.7098658895364295, -2.7031489423528288, -0.09964606165885925, -2.2203433513641357, 3.1401147842407227, -0.667471706867218, 0.6517320871353149, 0.3601766526699066, 0.29442471265792847, -0.1793656349182129, -0.12569472193717957, -0.8246736547885306, -0.0012987463585166226, 0.3957817818092515,-0.4040650826621193,-0.373046875,0.4723663330078125,0.2344818115234375
20220118-1838,2022-01-18 18:38:38Z,u01, 191,40,movements,el-ex, rt, d,212035.55473937502, -2.1651318719876707, -0.777768926050188, -2.765271715560579, 0.1509304642677307, -2.418628215789795, 3.4089505672454834, -0.5903053283691406, 0.7016915678977966, 0.3989597260951996, 0.34888070821762085, -0.23410117626190186, -0.21675437688827515, -0.8360637431772782, 0.02184659211543899, 0.41013527088862894,-0.363743457735323,-0.22021484375,0.523223876953125,0.15850830078125
20220118-1838,2022-01-18 18:38:38Z,u01, 192,40,movements,el-ex, rt, d,212035.57968337502, -2.262952959088997, -0.8598905792671458, -2.8168909555760866, 1.1580818891525269, -2.320833206176758, 3.5176565647125244, -0.5023568272590637, 0.7577711939811707, 0.41643786430358887, 0.342704176902771, 0.054377853870391846, -0.060694366693496704, -0.8405098737527491, 0.04197717487135205, 0.43477136919149717,-0.32055409867735263,-0.1596527099609375,0.8121490478515625,0.355743408203125
20220118-1838,2022-01-18 18:38:38Z,u01, 193,40,movements,el-ex, rt, d,212035.60462737503, -2.385087759006386, -0.9273852626083041, -2.8997085465614085, -0.8079990148544312, -2.3574864864349365, 3.316795825958252, -0.4117812514305115, 0.8000540137290955, 0.4362916648387909, 0.3824384808540344, 0.019770383834838867, 0.13592836260795593, -0.8450386456563332, 0.0636829354523901, 0.4524520677235242,-0.27774362317349033,0.0200958251953125,0.768951416015625,0.578948974609375
20220118-1838,2022-01-18 18:38:38Z,u01, 194,40,movements,el-ex, rt, d,212035.629572375, -2.5758123905485277, -0.9380354831168461, -3.0579029181543183, -2.7140755653381348, -2.7319374084472656, 3.2126874923706055, -0.3170202374458313, 0.8063979148864746, 0.49921995401382446, 0.4686773717403412, -0.17619472742080688, -0.056333571672439575, -0.861085872537779, 0.09022804651442551, 0.4440800777058128,-0.23061416895710918,0.1516571044921875,0.6302032470703125,0.4428863525390625
20220118-1838,2022-01-18 18:38:38Z,u01, 195,40,movements,el-ex, rt, d,212035.654516375, -2.776253660966055, -0.9289884824630685, 3.0682252657899682, -0.6953237056732178, -3.1497745513916016, 3.1895315647125244, -0.21387538313865662, 0.8010148406028748, 0.5591358542442322, 0.36966758966445923, 0.06371617317199707, -0.3034289479255676, -0.8755973810944258, 0.1135656068552045, 0.4342646515293179,-0.1784555610380378,0.1597137451171875,0.93426513671875,0.2887725830078125
20220118-1838,2022-01-18 18:38:38Z,u01, 196,40,movements,el-ex, rt, d,212035.67946037502, -2.953090576821859, -0.9708529926055859, 2.9473718267865396, 1.7635325193405151, -3.012646436691284, 3.0589535236358643, -0.10579835623502731, 0.8253676295280457, 0.5545947551727295, 0.361703485250473, 0.45699644088745117, 0.2907574772834778, -0.8721442540636152, 0.12908051919870908, 0.4542554300441728,-0.12788561485724964,0.2559051513671875,1.2823638916015625,0.8453521728515625
20220118-1838,2022-01-18 18:38:38Z,u01, 197,40,movements,el-ex, rt, d,212035.704405375, -3.132773420300574, -1.0043688130108488, 2.81700386141783, -0.006839762907475233, -2.6938750743865967, 2.909414529800415, -0.004732521716505289, 0.8438234329223633, 0.5365998148918152, 0.47481003403663635, 0.18582427501678467, 0.30946946144104004, -0.8646633786539248, 0.1437259802353348, 0.47438702893988055,-0.08159013482514774,0.5238494873046875,0.8964996337890625,0.7859039306640625
20220118-1838,2022-01-18 18:38:38Z,u01, 198,40,movements,el-ex, rt, d,212035.729349375, 2.976802201445469, -0.9798685286433948, 2.6912695591565043, -1.2449232339859009, -2.824556350708008, 2.9352428913116455, 0.0913950502872467, 0.8304241299629211, 0.5495842695236206, 0.6136983633041382, -0.03602105379104614, 0.0663214921951294, -0.8658200545185787, 0.15858051372139387, 0.4733471705310565,-0.03391710797744184,0.7050933837890625,0.794403076171875,0.61590576171875
20220118-1838,2022-01-18 18:38:38Z,u01, 199,40,movements,el-ex, rt, d,212035.754293375, 2.801408894581924, -0.9480406893670497, 2.5674758956696926, 0.620220422744751, -3.0294933319091797, 3.0854525566101074, 0.19461603462696075, 0.8122742176055908, 0.549850344657898, 0.3839820325374603, 0.18917548656463623, -0.07723981142044067, -0.8628956500556881, 0.17417307941270177, 0.4741133857940317,0.017070692389731357,0.5374298095703125,1.0060272216796875,0.4430389404296875
20220118-1838,2022-01-18 18:38:38Z,u01, 200,40,movements,el-ex, rt, d,212035.779237375, 2.608081313931106, -0.9465517048767218, 2.419172505801807, 1.7372485399246216, -2.806633472442627, 3.2848129272460938, 0.29724544286727905, 0.8114048838615417, 0.5032569169998169, 0.33416324853897095, 0.11826741695404053, 0.10517215728759766, -0.8456557180456286, 0.19103629255844154, 0.4942294406252008,0.06410050912749199,0.63140869140625,0.9296722412109375,0.608428955078125
20220118-1838,2022-01-18 18:38:38Z,u01, 201,40,movements,el-ex, rt, d,212035.80418237502, 2.4270296496549775, -0.9217708885711193, 2.2781901329280965, 0.4128238558769226, -2.6130189895629883, 3.252126932144165, 0.396062433719635, 0.7966732382774353, 0.4565592408180237, 0.4478248655796051, -0.004162311553955078, 0.2973317503929138, -0.8271961643585168, 0.20982404488842704, 0.5094941718355703,0.11016382200061833,0.892791748046875,0.7755584716796875,0.7162628173828125
20220118-1838,2022-01-18 18:38:38Z,u01, 202,40,movements,el-ex, rt, d,212035.829126375, 2.2976665281032287, -0.8640478126243776, 2.1958340383192088, -0.5883183479309082, -2.6322474479675293, 3.0143933296203613, 0.48524266481399536, 0.7604773044586182, 0.43152478337287903, 0.5855885744094849, 0.14481127262115479, 0.12050765752792358, -0.81565297604791, 0.22466111539832423, 0.5094572806978808,0.15713311680172268,1.070831298828125,0.9052886962890625,0.552032470703125
20220118-1838,2022-01-18 18:38:38Z,u01, 203,40,movements,el-ex, rt, d,212035.854070375, 2.1879776511490894, -0.7998501423438352, 2.138895215652413, -0.11887462437152863, -2.733447790145874, 2.931995153427124, 0.5682612061500549, 0.7172516584396362, 0.4032735228538513, 0.4556036591529846, 0.26730650663375854, 0.07870596647262573, -0.803525149232297, 0.23660958700084894, 0.5065197841500727,0.20445303064955486,0.999908447265625,0.9651336669921875,0.482177734375
20220118-1838,2022-01-18 18:38:38Z,u01, 204,40,movements,el-ex, rt, d,212035.87901537502, 2.085311346415988, -0.7382406938132696, 2.0880449145584192, -0.25774475932121277, -2.672367811203003, 2.77960205078125, 0.6438919901847839, 0.672987699508667, 0.3639930784702301, 0.3446792960166931, 0.10159426927566528, 0.19540944695472717, -0.7877669076076252, 0.2478302507311137, 0.5056721665439893,0.24959810385860234,0.9885711669921875,0.7745819091796875,0.5594024658203125
20220118-1838,2022-01-18 18:38:38Z,u01, 205,40,movements,el-ex, rt, d,212035.90395937502, 2.004851049325355, -0.6709642151789779, 2.0653767674733023, -0.9179542660713196, -2.6009302139282227, 2.589895009994507, 0.7105929851531982, 0.6217414736747742, 0.3293866813182831, 0.34224826097488403, 0.1321648359298706, 0.21834293007850647, -0.7741550466799849, 0.2556898683412822, 0.4987380533450751,0.29422302086966706,1.06378173828125,0.761016845703125,0.5445556640625
20220118-1838,2022-01-18 18:38:38Z,u01, 206,40,movements,el-ex, rt, d,212035.92890337502, 1.9425860483546205, -0.6028635927507872, 2.0689306304321464, -1.3872137069702148, -2.537301778793335, 2.349802255630493, 0.7674379944801331, 0.567003607749939, 0.29924216866493225, 0.32902806997299194, 0.26908648014068604, 0.22164714336395264, -0.763289460037024, 0.2588634372314562, 0.4860137065963582,0.33788993350683694,1.096466064453125,0.836090087890625,0.5208892822265625
20220118-1838,2022-01-18 18:38:38Z,u01, 207,40,movements,el-ex, rt, d,212035.953848375, 1.891404544916858, -0.5388914979415228, 2.0880082143094074, -1.4809752702713013, -2.3090131282806396, 1.9963065385818481, 0.8145434260368347, 0.5131849050521851, 0.2704809904098511, 0.20181387662887573, 0.3489670753479004, 0.25127798318862915, -0.7539928784794507, 0.25833164737405034, 0.4701842132809203,0.37905962090888934,0.989410400390625,0.868072509765625,0.5431060791015625
20220118-1838,2022-01-18 18:38:38Z,u01, 208,40,movements,el-ex, rt, d,212035.978792375, 1.8448184509550951, -0.4871513932037061, 2.1043852574818724, -0.7939387559890747, -2.001732587814331, 1.5912418365478516, 0.8507002592086792, 0.4681105613708496, 0.2391260415315628, 0.06711584329605103, 0.5070786476135254, 0.27358415722846985, -0.7440130030766519, 0.256919585894275, 0.4574529819658695,0.41373134376801807,0.917816162109375,0.975189208984375,0.5127105712890625
20220118-1838,2022-01-18 18:38:39Z,u01, 209,40,movements,el-ex, rt, d,212036.00373637502, 1.801619213656511, -0.4483943566278322, 2.108783125194183, -0.33361583948135376, -1.634385347366333, 1.310275912284851, 0.8772445321083069, 0.433519184589386, 0.20616257190704346, 0.014875710010528564, 0.4923535883426666, 0.28999218344688416, -0.7327264316885113, 0.2572805160784985, 0.4504773171521389,0.440441625042131,0.877685546875,0.917755126953125,0.500091552734375
20220118-1838,2022-01-18 18:38:39Z,u01, 210,40,movements,el-ex, rt, d,212036.028681375, 1.7642505570526041, -0.4196378423757408, 2.1060159624004293, 0.07088715583086014, -1.26292884349823, 0.9802843332290649, 0.8962010741233826, 0.4074297547340393, 0.1755695790052414, -0.08728688955307007, 0.5120954513549805, 0.3198680877685547, -0.7216849721470657, 0.2587577863337858, 0.4473873303616116,0.46049953756683687,0.8089141845703125,0.919525146484375,0.4954376220703125
20220118-1838,2022-01-18 18:38:39Z,u01, 211,40,movements,el-ex, rt, d,212036.053625375, 1.7320720214171064, -0.40172644289839377, 2.0954931819205345, 0.35917598009109497, -0.982570230960846, 0.5802116394042969, 0.9084435105323792, 0.3910079300403595, 0.14779344201087952, -0.12200570106506348, 0.5360245108604431, 0.3205598294734955, -0.7112172690761275, 0.26089599442918676, 0.4487748729667853,0.47402981276929335,0.7867279052734375,0.9143829345703125,0.4728851318359375
20220118-1838,2022-01-18 18:38:39Z,u01, 212,40,movements,el-ex, rt, d,212036.078569375, 1.706135163225839, -0.39298047527971397, 2.083855562115026, 0.36949071288108826, -0.7395201921463013, 0.24028638005256653, 0.9153244495391846, 0.38294339179992676, 0.12464087456464767, -0.13691270351409912, 0.41683074831962585, 0.4220815598964691, -0.702652961054273, 0.2619145909894393, 0.4524227631340163,0.4826936070894784,0.778411865234375,0.799774169921875,0.546722412109375
20220118-1838,2022-01-18 18:38:39Z,u01, 213,40,movements,el-ex, rt, d,212036.10351437502, 1.6880425861005708, -0.39169252080186695, 2.075250524743008, 0.23938153684139252, -0.4228673279285431, -0.0636531338095665, 0.9179187417030334, 0.3817532956600189, 0.10811841487884521, -0.15880924463272095, 0.3510042726993561, 0.4641472101211548, -0.6970094473322732, 0.26122220354001086, 0.4565093468765894,0.48738077015595466,0.7582550048828125,0.7136383056640625,0.575347900390625
20220118-1838,2022-01-18 18:38:39Z,u01, 214,40,movements,el-ex, rt, d,212036.12845837502, 1.6807109134119151, -0.3969146710214692, 2.0713404029604057, 0.1430155336856842, -0.04654195159673691, -0.307106077671051, 0.9166926145553589, 0.38657471537590027, 0.10116561502218246, -0.10718345642089844, 0.30782219767570496, 0.4711458683013916, -0.6952528241111042, 0.2592418158361624, 0.4598874211746231,0.4877711157770868,0.80950927734375,0.69439697265625,0.5723114013671875
20220118-1838,2022-01-18 18:38:39Z,u01, 215,40,movements,el-ex, rt, d,212036.153402375, 1.6829110432593177, -0.40897928129802863, 2.0674577656889013, 0.20803755521774292, 0.3537396788597107, -0.6343374848365784, 0.9117668867111206, 0.39767301082611084, 0.10265295207500458, -0.07985758781433105, 0.28021401166915894, 0.4815298318862915, -0.6965250567580226, 0.25725341931094303, 0.4639214502712531,0.4831672043591609,0.835174560546875,0.672515869140625,0.586456298828125
20220118-1838,2022-01-18 18:38:39Z,u01, 216,40,movements,el-ex, rt, d,212036.178347375, 1.6960750399313747, -0.4291204453600985, 2.065240590777582, 0.1829090267419815, 0.7636805772781372, -0.9408659338951111, 0.9022055864334106, 0.4160711467266083, 0.11362220346927643, -0.051650166511535645, 0.24890688061714172, 0.45635461807250977, -0.7013919594218243, 0.25467709336433336, 0.46838152476904804,0.47308321177543156,0.850555419921875,0.66497802734375,0.569976806640625
20220118-1838,2022-01-18 18:38:39Z,u01, 217,40,movements,el-ex, rt, d,212036.20329137502, 1.717516569100632, -0.4574665707447277, 2.0604376131565947, 0.4844840466976166, 1.1215980052947998, -1.2442876100540161, 0.887535035610199, 0.4416765868663788, 0.1311618685722351, -0.0524214506149292, 0.2672620117664337, 0.4076411724090576, -0.7084243778260155, 0.2524199645115736, 0.47466772308683924,0.4572850926339693,0.833770751953125,0.7204132080078125,0.53466796875
20220118-1838,2022-01-18 18:38:39Z,u01, 218,40,movements,el-ex, rt, d,212036.22823537502, 1.746784653179179, -0.4940740719851996, 2.0520562144589514, 0.4413868486881256, 1.5240050554275513, -1.5880414247512817, 0.8668093085289001, 0.47421666979789734, 0.15414299070835114, -0.008349895477294922, 0.24164938926696777, 0.42193734645843506, -0.7170397444800899, 0.2508495511194084, 0.4830172090233311,0.4354570522966723,0.85845947265625,0.7158660888671875,0.576080322265625
20220118-1838,2022-01-18 18:38:39Z,u01, 219,40,movements,el-ex, rt, d,212036.25317937502, 1.7920967278128916, -0.5383190636926897, 2.0582942024337467, -0.14811334013938904, 1.8572534322738647, -1.9598554372787476, 0.8376336097717285, 0.5126935243606567, 0.18845520913600922, 0.054135799407958984, 0.19973933696746826, 0.44316720962524414, -0.7306441185521376, 0.24573720670030594, 0.4883938749891935,0.4089545799420525,0.899139404296875,0.727447509765625,0.6297607421875
20220118-1838,2022-01-18 18:38:39Z,u01, 220,40,movements,el-ex, rt, d,212036.278124375, 1.8534844339770609, -0.5879768490227005, 2.0801593398430107, -0.21995799243450165, 2.1396660804748535, -2.2238194942474365, 0.7990391254425049, 0.554678738117218, 0.23209446668624878, 0.12007397413253784, 0.32732492685317993, 0.311515212059021, -0.7481455841017551, 0.23732976960735297, 0.4907223081391219,0.3783442107259676,0.9191131591796875,0.8820037841796875,0.543609619140625
20220118-1838,2022-01-18 18:38:39Z,u01, 221,40,movements,el-ex, rt, d,212036.303068375, 1.9246235876869293, -0.6422072108372808, 2.104314163400833, 0.1258162260055542, 2.4316885471343994, -2.4226701259613037, 0.7511703372001648, 0.5989643931388855, 0.27746114134788513, 0.17284077405929565, 0.357258141040802, 0.2793472707271576, -0.7656200392764797, 0.2292521000095385, 0.493781363997877,0.34270882342416936,0.9278106689453125,0.97064208984375,0.5654449462890625
20220118-1838,2022-01-18 18:38:39Z,u01, 222,40,movements,el-ex, rt, d,212036.32801237502, 2.0036686447410346, -0.7019756279456449, 2.1286782899104058, 0.2744995951652527, 2.6780707836151123, -2.579773426055908, 0.6931400895118713, 0.6457274556159973, 0.32030147314071655, 0.27176469564437866, 0.3256317973136902, 0.2507129907608032, -0.7816470481694264, 0.22176255530276753, 0.4987069253182329,0.30189523957511366,0.96490478515625,0.9713592529296875,0.571014404296875
20220118-1838,2022-01-18 18:38:39Z,u01, 223,40,movements,el-ex, rt, d,212036.352957375, 2.093720903195339, -0.7656374301757488, 2.159255158298822, 0.545236349105835, 2.8876349925994873, -2.772845506668091, 0.624596118927002, 0.6929966807365417, 0.3600494861602783, 0.3315196633338928, 0.295101523399353, 0.24932566285133362, -0.7963737087001206, 0.21404124114220613, 0.5040799472770581,0.2566686328348563,0.9514007568359375,1.0129241943359375,0.608062744140625
20220118-1838,2022-01-18 18:38:39Z,u01, 224,40,movements,el-ex, rt, d,212036.377901375, 2.1912032750902157, -0.8355892383640914, 2.191499511815548, 1.0767916440963745, 3.0691967010498047, -2.926028251647949, 0.5457429885864258, 0.7416918873786926, 0.38994622230529785, 0.36719048023223877, 0.34574103355407715, 0.22165662050247192, -0.8076333855633072, 0.20664321853993345, 0.5120983782832884,0.20683869506633942,0.912933349609375,1.087432861328125,0.611602783203125
20220118-1838,2022-01-18 18:38:39Z,u01, 225,40,movements,el-ex, rt, d,212036.402845375, 2.2944892017804337, -0.9145462591786296, 2.2249391324947605, 1.5120255947113037, 3.101438283920288, -3.0989582538604736, 0.4572252929210663, 0.7922857999801636, 0.4040146768093109, 0.43329280614852905, 0.3113975524902344, 0.18761426210403442, -0.8138394295464383, 0.1991801344160002, 0.5241139158101187,0.15263400207476574,0.8887939453125,1.0796966552734375,0.5910491943359375
20220118-1838,2022-01-18 18:38:39Z,u01, 226,40,movements,el-ex, rt, d,212036.42779037502, 2.411923227524491, -0.9962086945963134, 2.2771809825111045, 1.068435788154602, 2.895209550857544, -3.261964797973633, 0.36230239272117615, 0.83941650390625, 0.4051138460636139, 0.49543997645378113, 0.00903332233428955, 0.22631019353866577, -0.8166070652682508, 0.1889704331667864, 0.5365671091930904,0.09766737863849492,0.8577423095703125,0.84844970703125,0.6314239501953125
20220118-1838,2022-01-18 18:38:39Z,u01, 227,40,movements,el-ex, rt, d,212036.45273437502, 2.582642631776578, -1.0528078680403818, 2.393103760232053, -0.23315991461277008, 2.8632073402404785, -3.377037286758423, 0.2625676393508911, 0.8688169121742249, 0.41978058218955994, 0.5243738889694214, -0.0481991171836853, 0.210529625415802, -0.8242152864341308, 0.17481260781713992, 0.5366972418082012,0.045452166754990836,0.769683837890625,0.879486083984375,0.6278533935546875
20220118-1838,2022-01-18 18:38:39Z,u01, 228,40,movements,el-ex, rt, d,212036.477678375, 2.799725214744794, -1.0826395275705796, 2.5592993149762915, -0.25519993901252747, 2.819260358810425, -3.447723388671875, 0.15723033249378204, 0.8831987977027893, 0.44185757637023926, 0.5488700866699219, 0.16981005668640137, 0.16680017113685608, -0.8341566565956953, 0.1584659832049159, 0.5282365167640399,-0.006104792451520874,0.7061004638671875,1.053009033203125,0.6086578369140625
20220118-1838,2022-01-18 18:38:39Z,u01, 229,40,movements,el-ex, rt, d,212036.502623375, 3.0357291757418063, -1.0948056960691046, 2.74669199639162, -0.4072440266609192, 2.7882936000823975, -3.5148472785949707, 0.048418134450912476, 0.8888392448425293, 0.4556540548801422, 0.5875682234764099, 0.1978611946105957, 0.10666286945343018, -0.8415174259071024, 0.14026920148140304, 0.5185059411971864,-0.05765934983464702,0.6199951171875,1.0578765869140625,0.53759765625
20220118-1838,2022-01-18 18:38:39Z,u01, 230,40,movements,el-ex, rt, d,212036.52756675, -3.0104388287855506, -1.0787304112348821, 2.936265459114033, -0.8065120577812195, 2.7555224895477295, -3.569244146347046, -0.06178583577275276, 0.8813586831092834, 0.46839019656181335, 0.5874053239822388, 0.07530635595321655, 0.07628750801086426, -0.8482334060517783, 0.12122368458669583, 0.5040267872899432,-0.10845234615954502,0.5256195068359375,0.9566650390625,0.544677734375
20220118-1838,2022-01-18 18:38:39Z,u01, 231,40,movements,el-ex, rt, d,212036.55251075, -2.7950032674062504, -1.0337487050954515, 3.1030198674140235, -1.0953980684280396, 2.855698585510254, -3.652254343032837, -0.1737869679927826, 0.8592228889465332, 0.4811801314353943, 0.59489905834198, 0.1064143180847168, 0.125066876411438, -0.854544153120487, 0.10170720264306479, 0.4837821373072703,-0.15926340760364827,0.4043121337890625,0.9755859375,0.584625244140625
20220118-1838,2022-01-18 18:38:39Z,u01, 232,40,movements,el-ex, rt, d,212036.57745575003, -2.6112284299135626, -0.9738454914227119, -3.047809068972933, -0.8054404258728027, 2.8939850330352783, -3.493501663208008, -0.2843489348888397, 0.8270534873008728, 0.4849008023738861, 0.6324476003646851, 0.1680944561958313, -0.07024312019348145, -0.8576952357350399, 0.08251838887329918, 0.46191354894770775,-0.21020383049257207,0.3480987548828125,0.995147705078125,0.4146575927734375
20220118-1838,2022-01-18 18:38:39Z,u01, 233,40,movements,el-ex, rt, d,212036.60239975, -2.453641208577368, -0.9111877208428263, -2.942532795384415, -0.4882502853870392, 2.8792951107025146, -3.491126775741577, -0.38910597562789917, 0.7902321219444275, 0.47342371940612793, 0.6328803896903992, 0.132207453250885, 0.012004256248474121, -0.8559564287054515, 0.0636431478091164, 0.4422627011983503,-0.2601767658727588,0.2271728515625,0.901214599609375,0.4655914306640625
20220118-1838,2022-01-18 18:38:39Z,u01, 234,40,movements,el-ex, rt, d,212036.62734375, -2.3181501823225115, -0.8400211051780113, -2.8626510088578048, -0.7618864178657532, 2.993183135986328, -3.3685410022735596, -0.48956602811813354, 0.7446572184562683, 0.4536641538143158, 0.6458464860916138, 0.09289777278900146, 0.008234679698944092, -0.8513416445716597, 0.045271257398056985, 0.4208636603087747,-0.3099061846748494,0.156280517578125,0.837554931640625,0.4618988037109375
20220118-1838,2022-01-18 18:38:39Z,u01, 235,40,movements,el-ex, rt, d,212036.65228875002, -2.1946004922485973, -0.7697042546496707, -2.79715380931039, 0.13951794803142548, 3.2219748497009277, -3.28651762008667, -0.5828680396080017, 0.6959229111671448, 0.4194713234901428, 0.6197485327720642, 0.09963983297348022, -0.08066511154174805, -0.8420156298731185, 0.02730084563215368, 0.4016038600968589,-0.35913603685520845,0.0020599365234375,0.8278350830078125,0.3448028564453125
20220118-1838,2022-01-18 18:38:39Z,u01, 236,40,movements,el-ex, rt, d,212036.67723275002, -2.0576271942735245, -0.7100086100151384, -2.713554498358602, 1.2742962837219238, 3.147747039794922, -3.3978192806243896, -0.6702502965927124, 0.651840329170227, 0.3547797203063965, 0.5873798727989197, 0.26190173625946045, -0.007810026407241821, -0.8230240923716599, 0.004605384437331161, 0.3937123494285581,-0.4093906239549371,-0.0828704833984375,0.9137420654296875,0.3469696044921875
20220118-1838,2022-01-18 18:38:39Z,u01, 237,40,movements,el-ex, rt, d,212036.70217675003, -1.9338521916011808, -0.642537801616824, -2.636616499651308, 0.6095284223556519, 2.902679920196533, -3.4374570846557617, -0.7483930587768555, 0.599229097366333, 0.28431129455566406, 0.6311138272285461, 0.11360067129135132, 0.06534391641616821, -0.8010578920644569, -0.0214919719288299, 0.38627832837348386,-0.45676429853155287,-0.134063720703125,0.631500244140625,0.36480712890625
20220118-1838,2022-01-18 18:38:39Z,u01, 238,40,movements,el-ex, rt, d,212036.72712175, -1.8417859836091288, -0.5612458834761642, -2.599880419817293, -0.31878185272216797, 2.759592294692993, -3.4354941844940186, -0.8156975507736206, 0.5322413444519043, 0.22662025690078735, 0.5286338925361633, -0.0451807975769043, 0.08392667770385742, -0.781948621447869, -0.04320282737952619, 0.36802412035509013,-0.5012465993445125,-0.2870635986328125,0.487060546875,0.310546875
20220118-1838,2022-01-18 18:38:39Z,u01, 239,40,movements,el-ex, rt, d,212036.75206575, -1.7663269668541213, -0.4825212366434587, -2.5821506881784626, -0.09521443396806717, 2.5663459300994873, -2.9799516201019287, -0.8689483404159546, 0.4640140235424042, 0.17210495471954346, 0.5086729526519775, -0.167627215385437, -0.1348886340856552, -0.7630733587404384, -0.06141274978964134, 0.34761498914152045,-0.5413977167528344,-0.3707733154296875,0.2297210693359375,-0.0413055419921875
20220118-1838,2022-01-18 18:38:39Z,u01, 240,40,movements,el-ex, rt, d,212036.77700975002, -1.7082701860767588, -0.4173715709986148, -2.5806353246431297, -0.5848374962806702, 1.952646017074585, -2.087846517562866, -0.905532956123352, 0.40535905957221985, 0.1252773106098175, 0.5672454833984375, -1.0007874965667725, -0.6141688823699951, -0.7464903139975825, -0.07342253043854816, 0.327993043695224,-0.5742665229125089,-0.338287353515625,-0.595428466796875,-0.4888916015625
20220118-1838,2022-01-18 18:38:39Z,u01, 241,40,movements,el-ex, rt, d,212036.80195375002, -1.681044724087375, -0.3775242675755829, -2.6007925814693755, -1.222096562385559, 0.7837538123130798, -0.8421293497085571, -0.9239364266395569, 0.36862021684646606, 0.1022772267460823, 0.5487533211708069, -1.2803481817245483, -0.9747747182846069, -0.7386050097808201, -0.07484152882891215, 0.3097347375579398,-0.5940755703293361,-0.3829345703125,-0.9052734375,-0.927032470703125
20220118-1838,2022-01-18 18:38:39Z,u01, 242,40,movements,el-ex, rt, d,212036.82689875, -1.6870768811210273, -0.37061056157618294, -2.630424854125445, -0.788454532623291, -0.42820343375205994, 0.4689341187477112, -0.9258118867874146, 0.3621846139431, 0.10814175754785538, 0.49084484577178955, -0.9805774688720703, -1.0944088697433472, -0.7413285067228517, -0.06710383390717356, 0.29835830846046546,-0.5974206398464058,-0.434967041015625,-0.6183929443359375,-0.98626708984375
20220118-1838,2022-01-18 18:38:39Z,u01, 243,40,movements,el-ex, rt, d,212036.85184275, -1.7118349592982716, -0.3934897339378693, -2.638812150557664, 0.3850179612636566, -1.2850502729415894, 1.3174546957015991, -0.9144059419631958, 0.38341379165649414, 0.1298285573720932, 0.4084703326225281, -0.6488862037658691, -0.9281378984451294, -0.7492000728932338, -0.06011263629760788, 0.30289638498865007,-0.5859517371687106,-0.5080718994140625,-0.1880950927734375,-0.7240447998046875
20220118-1838,2022-01-18 18:38:39Z,u01, 244,40,movements,el-ex, rt, d,212036.87678675, -1.7483248608883177, -0.43435525211261283, -2.6335765792085013, 0.36257725954055786, -1.7781869173049927, 1.8580117225646973, -0.8928840756416321, 0.4208256006240845, 0.16019891202449799, 0.34632962942123413, -0.45039719343185425, -0.4854094088077545, -0.7596981343241491, -0.05438933029270604, 0.31741436333445894,-0.5649323834463278,-0.5465545654296875,-0.029571533203125,-0.3252105712890625
20220118-1838,2022-01-18 18:38:39Z,u01, 245,40,movements,el-ex, rt, d,212036.90173175003, -1.8003844108054912, -0.4866766010716352, -2.641246977345808, 0.03083554282784462, -2.1511988639831543, 2.3873860836029053, -0.8606990575790405, 0.46769094467163086, 0.20115303993225098, 0.294750452041626, -0.4938597083091736, -0.3720972239971161, -0.773765427377141, -0.04316924181408677, 0.33221313317724904,-0.5376411714436768,-0.5579833984375,-0.001983642578125,-0.162872314453125
20220118-1838,2022-01-18 18:38:39Z,u01, 246,40,movements,el-ex, rt, d,212036.92667575, -1.8629384390806984, -0.5518347319746875, -2.653049557129701, 0.6202217936515808, -2.364476442337036, 2.8165977001190186, -0.815482497215271, 0.5242505073547363, 0.2452540248632431, 0.30742597579956055, -0.2568097710609436, -0.27506962418556213, -0.7885333115885526, -0.029021240927573355, 0.3509768184162709,-0.5041707830265109,-0.508056640625,0.2674407958984375,-0.029815673828125
20220118-1838,2022-01-18 18:38:39Z,u01, 247,40,movements,el-ex, rt, d,212036.95161975, -1.9244149027641981, -0.6268270200655065, -2.6569054256758764, 0.8687832355499268, -2.3673582077026367, 2.9451324939727783, -0.7597814798355103, 0.5865779519081116, 0.28046169877052307, 0.2941594123840332, -0.0677180290222168, -0.1905873715877533, -0.7999804860903581, -0.016188478797284606, 0.37607576783395946,-0.4672647080227773,-0.4456939697265625,0.55364990234375,0.1199798583984375
20220118-1838,2022-01-18 18:38:39Z,u01, 248,40,movements,el-ex, rt, d,212036.97656475002, -1.9965479446597252, -0.7009710780938271, -2.676233580734384, 0.20158033072948456, -2.4271867275238037, 3.021663188934326, -0.6959936618804932, 0.6449601054191589, 0.31562548875808716, 0.3767797350883484, -0.07684487104415894, -0.029660463333129883, -0.8110559009970459, -0.0010324046238636142, 0.39815073031864745,-0.42855956568583087,-0.3192138671875,0.568115234375,0.2859649658203125
20220118-1838,2022-01-18 18:38:40Z,u01, 249,40,movements,el-ex, rt, d,212037.00150875002, -2.08877385458516, -0.7706013487144112, -2.7210932642450305, 0.18949389457702637, -2.5329973697662354, 3.178109884262085, -0.6233730316162109, 0.6965668201446533, 0.35524749755859375, 0.36740684509277344, -0.09256285429000854, -0.06476593017578125, -0.8229939618420613, 0.017455125975714525, 0.41497161508404024,-0.3875239946724278,-0.24273681640625,0.6334991455078125,0.2784881591796875
20220118-1838,2022-01-18 18:38:40Z,u01, 250,40,movements,el-ex, rt, d,212037.02645275003, -2.183488118514416, -0.8468267742995041, -2.7642161330671073, 1.010245442390442, -2.552722692489624, 3.2394461631774902, -0.5418819189071655, 0.7491823434829712, 0.38090673089027405, 0.3750728368759155, 0.01976907253265381, -0.09526216983795166, -0.8302282502257441, 0.034269778774117354, 0.43697533387922216,-0.3443823959245288,-0.16680908203125,0.768951416015625,0.28564453125
20220118-1838,2022-01-18 18:38:40Z,u01, 251,40,movements,el-ex, rt, d,212037.05139775, -2.2851222623779077, -0.9261239364535754, -2.81408243388966, 0.7609773278236389, -2.492006778717041, 3.2780582904815674, -0.4540286064147949, 0.7992966771125793, 0.3936785161495209, 0.3883090019226074, -0.010417282581329346, -0.03288447856903076, -0.8332504560058271, 0.050328334917843554, 0.4614864966859831,-0.30031805058556793,-0.041595458984375,0.7549591064453125,0.3968353271484375
20220118-1838,2022-01-18 18:38:40Z,u01, 252,40,movements,el-ex, rt, d,212037.07634175, -2.4215240348173728, -0.988520790009679, -2.90641173405164, -0.13294586539268494, -2.4149973392486572, 3.2659223079681396, -0.36264094710350037, 0.8352134227752686, 0.4134124219417572, 0.4235846698284149, -0.024865031242370605, 0.1988617479801178, -0.837795611754259, 0.06931612675083379, 0.4772855208287979,-0.2559145222726791,0.060943603515625,0.8103485107421875,0.612274169921875
20220118-1838,2022-01-18 18:38:40Z,u01, 253,40,movements,el-ex, rt, d,212037.10128575002, -2.589443166382786, -1.035464536374665, -3.031631889706886, -0.039235785603523254, -2.5041511058807373, 3.272573709487915, -0.26757097244262695, 0.8600994348526001, 0.43432149291038513, 0.4195637106895447, 0.12172752618789673, 0.030507057905197144, -0.8421893860420087, 0.08875692133249474, 0.4884663759916187,-0.21033304443317108,0.1698760986328125,1.0057220458984375,0.429473876953125
20220118-1838,2022-01-18 18:38:40Z,u01, 254,40,movements,el-ex, rt, d,212037.12623075, -2.778159213544022, -1.074156861848635, 3.1064924769116953, 0.19809074699878693, -2.504747152328491, 3.231372356414795, -0.16937944293022156, 0.8791887164115906, 0.44535115361213684, 0.41680073738098145, 0.08956116437911987, -0.02762657403945923, -0.8433073915243496, 0.10727640384360931, 0.5004015312452664,-0.16408132876868128,0.2474212646484375,0.96875,0.417724609375
20220118-1838,2022-01-18 18:38:40Z,u01, 255,40,movements,el-ex, rt, d,212037.15117475, -2.9844222844248103, -1.1003690744723356, 2.941695412977129, 0.218595489859581, -2.335740566253662, 3.2167677879333496, -0.07094722986221313, 0.8913747072219849, 0.44768026471138, 0.37775570154190063, 0.07778722047805786, 0.146222323179245, -0.8414605602499287, 0.12563543234775815, 0.5119522528974646,-0.11859493163264664,0.324249267578125,0.9882049560546875,0.6505584716796875
