SessionID,LoggingTime,UID,RecNo,Hertz,Activity,MoveType,Wrist,Side,TimeStamp,DMRoll,DMPitch,DMYaw,DMRotX,DMRotY,DMRotZ,DMGrvX,DMGrvY,DMGrvZ,DMUAccelX,DMUAccelY,DMUAccelZ,DMQuatX,DMQuatY,DMQuatW,DMQuatZ,AccelroX,AceelroY,AceelroZ
20220118-1316,2022-01-18 13:17:04Z,u01, 1,40,movements,el-ex, rt, d,203542.7785607917, -2.01479606180428, -0.5979067771660486, -2.757039681103168, -0.17550989985466003, 3.049410104751587, -2.700477361679077, -0.7463776469230652, 0.5629135966300964, 0.35503390431404114, 0.4260498285293579, -0.027238547801971436, -0.10204291343688965, -0.8231141818565608, 0.0, 0.34194139689041964,-0.4533864457053985,-0.3022308349609375,0.5487518310546875,0.2681427001953125
20220118-1316,2022-01-18 13:17:04Z,u01, 2,40,movements,el-ex, rt, d,203542.80350379169, -1.9262146727809741, -0.5359954576468087, -2.7296304109098255, -0.17882192134857178, 2.8488552570343018, -2.5301809310913086, -0.8060266971588135, 0.5106971263885498, 0.29918181896209717, 0.42069631814956665, -0.07722538709640503, -0.21379348635673523, -0.805851825116962, -0.013919252788602676, 0.3254090468592412,-0.4944877856787478,-0.3892669677734375,0.411712646484375,0.055419921875
20220118-1316,2022-01-18 13:17:04Z,u01, 3,40,movements,el-ex, rt, d,203542.8284477917, -1.852254966477354, -0.47954529489082665, -2.7161795437574874, -0.24027395248413086, 2.305276393890381, -1.8944051265716553, -0.8522946834564209, 0.46137580275535583, 0.24642758071422577, 0.6691737771034241, -0.46750974655151367, -0.5006541013717651, -0.789061268532698, -0.024415189217186606, 0.30877262597906413,-0.5305146923453711,-0.7315216064453125,0.091949462890625,-0.0995941162109375
20220118-1316,2022-01-18 13:17:04Z,u01, 4,40,movements,el-ex, rt, d,203542.8533907917, -1.7947906437657168, -0.43542026610978735, -2.7101226509071092, -0.17686106264591217, 1.8681732416152954, -1.4534181356430054, -0.884041965007782, 0.4217914938926697, 0.2014000117778778, 0.377297580242157, -0.5516589879989624, -0.5987691879272461, -0.7743955746872655, -0.0318040961102839, 0.29528018677336276,-0.5586678026053815,-0.5257568359375,-0.1485137939453125,-0.4277801513671875
20220118-1316,2022-01-18 13:17:04Z,u01, 5,40,movements,el-ex, rt, d,203542.8783347917, -1.752535553634307, -0.41182087008175117, -2.7011144912699327, 0.41488584876060486, 1.1853278875350952, -0.4290634095668793, -0.9013012051582336, 0.40027862787246704, 0.1656293421983719, 0.3180950880050659, -0.8292337656021118, -0.8118693828582764, -0.7625444859819577, -0.036613940731225314, 0.2901698108269435,-0.5770500733305868,-0.5842742919921875,-0.4001922607421875,-0.6375732421875
20220118-1316,2022-01-18 13:17:04Z,u01, 6,40,movements,el-ex, rt, d,203542.9032777917, -1.7295792032508233, -0.41518438022192883, -2.6869474581444015, 0.6794736981391907, 0.2613787353038788, 0.4064149558544159, -0.9035313129425049, 0.4033586382865906, 0.14468327164649963, 0.3230106234550476, -1.0136338472366333, -0.9167625904083252, -0.7556009382464973, -0.03753473503481264, 0.2958827079036936,-0.5831911492619731,-0.5858001708984375,-0.61090087890625,-0.7548980712890625
20220118-1316,2022-01-18 13:17:04Z,u01, 7,40,movements,el-ex, rt, d,203542.9282217917, -1.7313768447725728, -0.43306219892446857, -2.678935284625769, 0.26786476373672485, -0.6794240474700928, 0.9023832678794861, -0.8960071802139282, 0.4196522831916809, 0.14513090252876282, 0.3225514888763428, -0.6477407217025757, -0.5330702066421509, -0.7558712073201141, -0.034988143598963184, 0.3043780419190866,-0.5786091283999454,-0.5692901611328125,-0.27587890625,-0.4164581298828125
20220118-1316,2022-01-18 13:17:04Z,u01, 8,40,movements,el-ex, rt, d,203542.9531647917, -1.7572575943767266, -0.45937669150987026, -2.6780771554169274, 0.061975955963134766, -1.4087916612625122, 1.160141110420227, -0.880792498588562, 0.44338950514793396, 0.1661638766527176, 0.299493670463562, -0.3519740700721741, -0.41485142707824707, -0.7629779507626233, -0.030766673890962937, 0.3133311500421747,-0.5645721410965661,-0.5814971923828125,0.1241302490234375,-0.2500457763671875
20220118-1316,2022-01-18 13:17:04Z,u01, 9,40,movements,el-ex, rt, d,203542.9781087917, -1.8029770634524156, -0.4901430845357271, -2.685887896911114, -0.03282928094267845, -1.9074896574020386, 1.3963509798049927, -0.8585919737815857, 0.47075212001800537, 0.20300963521003723, 0.24534106254577637, -0.21031498908996582, -0.46497222781181335, -0.7751574698943814, -0.025213383657779087, 0.3213233116548304,-0.5433661620398479,-0.609619140625,0.26202392578125,-0.266693115234375
20220118-1316,2022-01-18 13:17:04Z,u01, 10,40,movements,el-ex, rt, d,203543.0030517917, -1.8583240268129186, -0.5286306973210053, -2.6943902282412333, 0.29422450065612793, -2.171602725982666, 1.7391070127487183, -0.8280503153800964, 0.5043514370918274, 0.24487294256687164, 0.2165083885192871, -0.31967419385910034, -0.425002783536911, -0.7887174473711586, -0.01900682430822137, 0.3321860084912732,-0.516929535796506,-0.6079864501953125,0.17498779296875,-0.1583251953125
20220118-1316,2022-01-18 13:17:04Z,u01, 11,40,movements,el-ex, rt, d,203543.02799579166, -1.9177748039460563, -0.5754118511173123, -2.7023363247252457, 0.2974265515804291, -2.2911911010742188, 1.9919097423553467, -0.7889697551727295, 0.5441803932189941, 0.28529787063598633, 0.23849356174468994, -0.2253478765487671, -0.17850133776664734, -0.8015651894572504, -0.011924208417380788, 0.34669307859897264,-0.4869857694791255,-0.5595703125,0.29913330078125,0.09185791015625
20220118-1316,2022-01-18 13:17:04Z,u01, 12,40,movements,el-ex, rt, d,203543.0529387917, -1.9867718862771755, -0.6265297354888864, -2.719083134538077, 0.1578020602464676, -2.4579596519470215, 2.251976251602173, -0.7409868240356445, 0.586337149143219, 0.3273340165615082, 0.25542163848876953, -0.09025859832763672, -0.20247113704681396, -0.8146532361740508, -0.002667055356783743, 0.36135418899099153,-0.4536036337710227,-0.4773101806640625,0.511077880859375,0.1155242919921875
20220118-1316,2022-01-18 13:17:04Z,u01, 13,40,movements,el-ex, rt, d,203543.07788279167, -2.0644793656644773, -0.6829676479446688, -2.745410640481921, 0.3958001732826233, -2.5186877250671387, 2.5389485359191895, -0.6830793023109436, 0.6310977935791016, 0.36758434772491455, 0.3565870523452759, -0.11155128479003906, -0.2594452202320099, -0.8268659086875416, 0.009216637448121068, 0.3769694871280565,-0.41725514563577437,-0.34515380859375,0.519683837890625,0.100250244140625
20220118-1316,2022-01-18 13:17:04Z,u01, 14,40,movements,el-ex, rt, d,203543.10282679167, -2.148493773946264, -0.7468090971973311, -2.775808187104589, 0.5929685831069946, -2.6165881156921387, 2.7937886714935303, -0.6147709488868713, 0.6793005466461182, 0.40075841546058655, 0.4109746813774109, -0.11948615312576294, -0.15344387292861938, -0.8365975575806439, 0.021993975097907792, 0.3960568174106008,-0.3778355994934861,-0.1926116943359375,0.5684661865234375,0.2682647705078125
20220118-1316,2022-01-18 13:17:04Z,u01, 15,40,movements,el-ex, rt, d,203543.12776979167, -2.2398386724687334, -0.8151619347637367, -2.8116255208819467, 0.9862251877784729, -2.639141082763672, 2.8156750202178955, -0.5379139184951782, 0.7278366684913635, 0.42532670497894287, 0.41341739892959595, 0.0030899643898010254, 0.08881837129592896, -0.8434817058925022, 0.03466937311508034, 0.41763601446823256,-0.3360311573103112,-0.132720947265625,0.7042236328125,0.48919677734375
20220118-1316,2022-01-18 13:17:04Z,u01, 16,40,movements,el-ex, rt, d,203543.15271379167, -2.339122724485199, -0.883070961096655, -2.856417723932636, 0.6178777813911438, -2.585651397705078, 2.8353958129882812, -0.4564553499221802, 0.7726919054985046, 0.44113048911094666, 0.4250375032424927, 0.19325053691864014, 0.11786019802093506, -0.8475629289569404, 0.046928870372177744, 0.43957441346614246,-0.29361406845743193,-0.021514892578125,0.9858245849609375,0.567169189453125
20220118-1316,2022-01-18 13:17:04Z,u01, 17,40,movements,el-ex, rt, d,203543.17765679167, -2.4629524999970145, -0.9350363553748267, -2.9317533589528604, 0.16287867724895477, -2.5758893489837646, 2.6989433765411377, -0.37274232506752014, 0.8046206831932068, 0.462221622467041, 0.4328009784221649, 0.10721403360366821, 0.05059593915939331, -0.8528699867431017, 0.0610212587098225, 0.4537558487593726,-0.2509877482644994,0.05670166015625,0.9234619140625,0.5210418701171875
20220118-1316,2022-01-18 13:17:04Z,u01, 18,40,movements,el-ex, rt, d,203543.20260079167, -2.601860567976992, -0.9793446318230323, -3.0220495786921506, 0.5210934281349182, -2.6487696170806885, 2.8278839588165283, -0.2865369915962219, 0.8301321268081665, 0.4783066213130951, 0.3670576810836792, 0.03897792100906372, -0.05832353234291077, -0.8565184158138922, 0.0743607181665909, 0.4665583945834824,-0.20777383576931996,0.080078125,0.855621337890625,0.4065093994140625
20220118-1316,2022-01-18 13:17:04Z,u01, 19,40,movements,el-ex, rt, d,203543.22754379167, -2.754886525817376, -1.0336612081544279, -3.125006518813513, 1.2056703567504883, -2.5672590732574463, 3.0245840549468994, -0.19297365844249725, 0.8591781258583069, 0.4738926291465759, 0.2662769556045532, -0.08537441492080688, 0.12364169955253601, -0.8539470185552045, 0.08786807408536662, 0.4862880392641624,-0.16302653637041414,0.06591796875,0.756744384765625,0.5564117431640625
20220118-1316,2022-01-18 13:17:04Z,u01, 20,40,movements,el-ex, rt, d,203543.25248779167, -2.9346916265123246, -1.0765141229184205, 3.0221747639924934, 0.4007646143436432, -2.4251818656921387, 3.108046770095825, -0.09745511412620544, 0.8803094625473022, 0.46428242325782776, 0.35664093494415283, 0.06698685884475708, 0.13583070039749146, -0.8493323990801245, 0.10380598059117935, 0.5036999115470723,-0.11893414169878003,0.296295166015625,0.9565582275390625,0.5644378662109375
20220118-1316,2022-01-18 13:17:04Z,u01, 21,40,movements,el-ex, rt, d,203543.27743079167, -3.14084016271099, -1.0871578371553534, 2.856783745056496, 0.041394446045160294, -2.3654701709747314, 3.141653537750244, -0.00034991095890291035, 0.8853088617324829, 0.46500352025032043, 0.4896688163280487, 0.055090248584747314, -0.06682518124580383, -0.8471721424169814, 0.12165985386617328, 0.5119212604675378,-0.073721995918334,0.490814208984375,0.9413299560546875,0.3896636962890625
20220118-1316,2022-01-18 13:17:04Z,u01, 22,40,movements,el-ex, rt, d,203543.30237479167, 2.9280090236280873, -1.0889892881392593, 2.682336817177743, 0.8927229046821594, -2.3982255458831787, 3.311189889907837, 0.09821998327970505, 0.8861590027809143, 0.4528525471687317, 0.298798531293869, -0.0013017654418945312, 0.04331767559051514, -0.8407582047601673, 0.13982817618964427, 0.5222686826682225,-0.02844799364924605,0.3851318359375,0.87005615234375,0.50592041015625
20220118-1316,2022-01-18 13:17:04Z,u01, 23,40,movements,el-ex, rt, d,203543.32731779167, 2.6983035842532757, -1.0853894821780157, 2.4897036405167228, 0.8839737176895142, -2.2852110862731934, 3.4801690578460693, 0.20011743903160095, 0.8844851851463318, 0.42147305607795715, 0.3231523633003235, 0.004873514175415039, 0.17023247480392456, -0.8277423729959452, 0.15993465188536504, 0.5375631904594094,0.017014637580336722,0.4991912841796875,0.868896484375,0.567596435546875
20220118-1316,2022-01-18 13:17:04Z,u01, 24,40,movements,el-ex, rt, d,203543.35226179168, 2.5063499399826923, -1.047013669604423, 2.336336896413081, -0.5576801896095276, -2.3617124557495117, 3.1743245124816895, 0.2967810332775116, 0.8659334778785706, 0.40259212255477905, 0.48381292819976807, 0.18008702993392944, 0.19572040438652039, -0.8181367999924218, 0.17874071869424507, 0.5429225313689914,0.06276229818329743,0.814453125,1.05670166015625,0.569122314453125
20220118-1316,2022-01-18 13:17:04Z,u01, 25,40,movements,el-ex, rt, d,203543.37720479167, 2.381432283307515, -0.9804845284904804, 2.25773810185172, -1.0536729097366333, -2.2552058696746826, 2.827033758163452, 0.3835325837135315, 0.8307671546936035, 0.40339717268943787, 0.47923004627227783, 0.3164345622062683, 0.13542136549949646, -0.8152594567580674, 0.19248532439454563, 0.5352121269383416,0.10885590774222209,0.87957763671875,1.1508331298828125,0.5286712646484375
20220118-1316,2022-01-18 13:17:04Z,u01, 26,40,movements,el-ex, rt, d,203543.40214879168, 2.271755138325984, -0.9210217570026671, 2.1902642775134806, 0.09892991185188293, -2.154372453689575, 2.805596351623535, 0.46236130595207214, 0.7962201833724976, 0.3901999890804291, 0.24332740902900696, 0.25074654817581177, 0.19645485281944275, -0.8079841575376364, 0.20557626288514957, 0.5311349610854474,0.15098305041282886,0.6912689208984375,1.04364013671875,0.5841522216796875
20220118-1316,2022-01-18 13:17:04Z,u01, 27,40,movements,el-ex, rt, d,203543.42709279168, 2.155979036840602, -0.8692336854567968, 2.1093003724249324, 0.4497842490673065, -2.088742256164551, 2.932460308074951, 0.5380229353904724, 0.7638345956802368, 0.35649457573890686, 0.22114777565002441, 0.14172875881195068, 0.028973102569580078, -0.7933155053513423, 0.2211284712274123, 0.5344171681730191,0.19013444654386172,0.747802734375,0.919464111328125,0.398223876953125
20220118-1316,2022-01-18 13:17:04Z,u01, 28,40,movements,el-ex, rt, d,203543.45203579168, 2.0566992624499023, -0.810438676962762, 2.0462261899111205, -0.07067640125751495, -2.1181910037994385, 2.818678140640259, 0.6094105243682861, 0.7245895862579346, 0.3218521773815155, 0.23781853914260864, 0.10825031995773315, 0.05134734511375427, -0.7779340640673572, 0.23610312194602168, 0.5352842361517195,0.2292263437272597,0.8601837158203125,0.833953857421875,0.3791351318359375
20220118-1316,2022-01-18 13:17:04Z,u01, 29,40,movements,el-ex, rt, d,203543.47697979168, 1.9837628334179798, -0.7428638618900384, 2.019477509301128, -0.7639427781105042, -2.179666757583618, 2.707750082015991, 0.6746172308921814, 0.6764000058174133, 0.2955920696258545, 0.30757588148117065, 0.12393862009048462, 0.13392767310142517, -0.7660593206899502, 0.24687881923538535, 0.5284929196009039,0.26999853374323285,0.9813385009765625,0.803314208984375,0.4212493896484375
20220118-1316,2022-01-18 13:17:04Z,u01, 30,40,movements,el-ex, rt, d,203543.50192279168, 1.9212962937282745, -0.6770760986697516, 2.0084256909488363, -0.4946637451648712, -2.2065415382385254, 2.463960647583008, 0.7320209741592407, 0.6265168190002441, 0.2676233649253845, 0.27350282669067383, 0.26575613021850586, 0.15237486362457275, -0.7543904075392053, 0.25437529182557295, 0.5197492722770587,0.3099179484300886,1.0059356689453125,0.905242919921875,0.4145050048828125
20220118-1316,2022-01-18 13:17:04Z,u01, 31,40,movements,el-ex, rt, d,203543.52686679168, 1.8587617236732856, -0.6186024354752323, 1.992639180693, -0.12453772872686386, -2.015495777130127, 2.2764389514923096, 0.7811439633369446, 0.5798971652984619, 0.23137354850769043, 0.19081050157546997, 0.2630288600921631, 0.15119493007659912, -0.7396791070864663, 0.2618426902685612, 0.5144455495270998,0.3459178169871774,0.9763641357421875,0.8495635986328125,0.382049560546875
20220118-1316,2022-01-18 13:17:04Z,u01, 32,40,movements,el-ex, rt, d,203543.55180979168, 1.8043925533801157, -0.5655962380302816, 1.9785863543586504, -0.09507700800895691, -1.7216265201568604, 2.05936861038208, 0.8213393092155457, 0.5359193086624146, 0.19542944431304932, 0.13814884424209595, 0.27479541301727295, 0.21654275059700012, -0.7246831059527008, 0.26934943175778225, 0.5099413779737659,0.37715414008299336,0.96270751953125,0.8114013671875,0.415771484375
20220118-1316,2022-01-18 13:17:04Z,u01, 33,40,movements,el-ex, rt, d,203543.57675379168, 1.7596437410411905, -0.5173971923492473, 1.9708356687530917, -0.20024290680885315, -1.5201448202133179, 1.813285231590271, 0.8536579012870789, 0.4946196973323822, 0.16315527260303497, 0.09488952159881592, 0.3358398377895355, 0.2400277704000473, -0.7110226698656594, 0.2757252207756984, 0.5047140673947837,0.4045814087974854,0.95703125,0.824127197265625,0.404876708984375
20220118-1316,2022-01-18 13:17:04Z,u01, 34,40,movements,el-ex, rt, d,203543.60169679168, 1.7231360042598374, -0.475919534757258, 1.9678596593041233, -0.1028977483510971, -1.2782484292984009, 1.4650415182113647, 0.8785778284072876, 0.4581559896469116, 0.13488733768463135, 0.01552647352218628, 0.37913960218429565, 0.2470555603504181, -0.6990934994291256, 0.28055650264784177, 0.4994192636263491,0.42794504820731366,0.88726806640625,0.835968017578125,0.3795623779296875
20220118-1316,2022-01-18 13:17:04Z,u01, 35,40,movements,el-ex, rt, d,203543.62664079168, 1.6910340016230188, -0.44482252172282544, 1.9633031120193514, -0.007420694921165705, -1.0955301523208618, 1.0663996934890747, 0.8961700797080994, 0.4302976727485657, 0.10827568918466568, -0.059271037578582764, 0.4166261553764343, 0.28155601024627686, -0.6881394945241194, 0.2839047051721875, 0.49674618585156854,0.446212503923107,0.84161376953125,0.8504180908203125,0.38165283203125
20220118-1316,2022-01-18 13:17:04Z,u01, 36,40,movements,el-ex, rt, d,203543.65158379168, 1.6654753685980836, -0.42131899710615744, 1.9634353389368935, -0.23086486756801605, -0.9031802415847778, 0.7793103456497192, 0.9084633588790894, 0.40896445512771606, 0.08627037703990936, -0.1077735424041748, 0.38759005069732666, 0.3569211959838867, -0.6796619268350444, 0.28494710513227733, 0.49418781245543125,0.4611326404995078,0.7958526611328125,0.7964019775390625,0.4483795166015625
20220118-1316,2022-01-18 13:17:04Z,u01, 37,40,movements,el-ex, rt, d,203543.6765277917, 1.6493820620438615, -0.4060650880744198, 1.9705407223215312, -0.3652523159980774, -0.6007270216941833, 0.38425132632255554, 0.9158470630645752, 0.3949974477291107, 0.0721210390329361, -0.11779701709747314, 0.424048513174057, 0.36725592613220215, -0.6750818868846195, 0.28341659640471917, 0.49082320737238627,0.4722628378455475,0.7923583984375,0.82415771484375,0.4442901611328125
20220118-1316,2022-01-18 13:17:05Z,u01, 38,40,movements,el-ex, rt, d,203543.70147079168, 1.6426839113827694, -0.40145257411681895, 1.9801490160522122, -0.40202051401138306, -0.20385143160820007, -0.08383345603942871, 0.918117105960846, 0.390755832195282, 0.06611514836549759, -0.0940966010093689, 0.40929293632507324, 0.40185678005218506, -0.67428092927285, 0.28000500646538684, 0.4882742689429494,0.47804897958409154,0.81787109375,0.8035888671875,0.4781951904296875
20220118-1316,2022-01-18 13:17:05Z,u01, 39,40,movements,el-ex, rt, d,203543.726414375, 1.6477956895437726, -0.40806658974626725, 1.9896919755586862, -0.25123071670532227, 0.32079771161079407, -0.4979534149169922, 0.9151703119277954, 0.39683541655540466, 0.07060712575912476, -0.1323484182357788, 0.41035452485084534, 0.45130455493927, -0.6776244166494201, 0.27591432141911454, 0.48702642066890406,0.4769715717775982,0.7804107666015625,0.8108978271484375,0.5231475830078125
20220118-1316,2022-01-18 13:17:05Z,u01, 40,40,movements,el-ex, rt, d,203543.751358375, 1.664011863107688, -0.4243966758435478, 1.9963240133343731, -0.09640543162822723, 0.7500447034835815, -0.830697238445282, 0.9073312878608704, 0.4117710590362549, 0.08482319861650467, -0.09661632776260376, 0.3766200542449951, 0.4069218635559082, -0.6842603854062103, 0.27239552629997055, 0.4875555831737966,0.4689116794786421,0.8102264404296875,0.7894287109375,0.4852142333984375
20220118-1316,2022-01-18 13:17:05Z,u01, 41,40,movements,el-ex, rt, d,203543.776301375, 1.6874619182652362, -0.44896358301902095, 1.9979451290484203, 0.17115025222301483, 1.0672096014022827, -1.1337332725524902, 0.8947733640670776, 0.43403205275535583, 0.10486546903848648, -0.08376872539520264, 0.3782847225666046, 0.36391520500183105, -0.6925782557752109, 0.2697556174314566, 0.4905314980188989,0.4549133006732895,0.8088226318359375,0.8118743896484375,0.469451904296875
20220118-1316,2022-01-18 13:17:05Z,u01, 42,40,movements,el-ex, rt, d,203543.801245375, 1.7166662095955578, -0.4816685839834333, 1.9963819065707413, 0.22230301797389984, 1.3219952583312988, -1.446630597114563, 0.8768114447593689, 0.4632585644721985, 0.12881532311439514, -0.025340378284454346, 0.3258496820926666, 0.34417665004730225, -0.7021679696997549, 0.2671475351568894, 0.4956730510477967,0.4357759133011289,0.85650634765625,0.7884368896484375,0.4753570556640625
20220118-1316,2022-01-18 13:17:05Z,u01, 43,40,movements,el-ex, rt, d,203543.826188375, 1.7535979349642612, -0.5215530805558442, 1.9987918405902656, 0.16121655702590942, 1.538615107536316, -1.7400128841400146, 0.8526000380516052, 0.4982273280620575, 0.1576162427663803, 0.018280208110809326, 0.32371777296066284, 0.33287763595581055, -0.7139093210974841, 0.26294790253025224, 0.5009246635527859,0.41263352877881165,0.8717041015625,0.8178558349609375,0.4933319091796875
20220118-1316,2022-01-18 13:17:05Z,u01, 44,40,movements,el-ex, rt, d,203543.851132375, 1.7974495561443082, -0.5694963382753916, 2.0039881240177584, 0.2905791401863098, 1.7570971250534058, -2.087355375289917, 0.8206332921981812, 0.539207935333252, 0.18925105035305023, 0.03500336408615112, 0.32085365056991577, 0.3099708557128906, -0.7269773178336723, 0.2571565827569668, 0.5070613137666121,0.38504983731354936,0.85650634765625,0.8640594482421875,0.50189208984375
20220118-1316,2022-01-18 13:17:05Z,u01, 45,40,movements,el-ex, rt, d,203543.876075375, 1.8478150787737395, -0.6247538877822044, 2.0125505237692383, 0.16434267163276672, 1.8610590696334839, -2.319312810897827, 0.7801837921142578, 0.5848976969718933, 0.2218291312456131, 0.10462772846221924, 0.2404654622077942, 0.32142961025238037, -0.7406269153508637, 0.24977257205017966, 0.5140321624299632,0.35335033179154923,0.8851165771484375,0.84063720703125,0.5394287109375
20220118-1316,2022-01-18 13:17:05Z,u01, 46,40,movements,el-ex, rt, d,203543.90101937501, 1.913956021017838, -0.6813709332413573, 2.042600317342106, -0.6266602873802185, 2.023420810699463, -2.579014539718628, 0.7314250469207764, 0.6298584342002869, 0.26133519411087036, 0.13463348150253296, 0.14302974939346313, 0.3068716824054718, -0.7575620842816257, 0.23825886005782232, 0.5164569792605072,0.32031971064243625,0.8657684326171875,0.7796478271484375,0.5661163330078125
20220118-1316,2022-01-18 13:17:05Z,u01, 47,40,movements,el-ex, rt, d,203543.925962375, 2.003602122669982, -0.7367150147807456, 2.09766845620053, -0.5834527015686035, 2.2500743865966797, -2.8260817527770996, 0.6723835468292236, 0.6718584299087524, 0.31065553426742554, 0.23687255382537842, 0.35615670680999756, 0.2107832431793213, -0.7780079450859967, 0.2236770206067572, 0.5135658511527692,0.28446866192979964,0.9019775390625,1.001495361328125,0.5224456787109375
20220118-1316,2022-01-18 13:17:05Z,u01, 48,40,movements,el-ex, rt, d,203543.95090637502, 2.1018742456080153, -0.7980186593352576, 2.154673137343974, -0.039010047912597656, 2.4755024909973145, -3.0303964614868164, 0.601967990398407, 0.7159742712974548, 0.3535754680633545, 0.33156484365463257, 0.4977250099182129, 0.19029363989830017, -0.795723170614734, 0.2088357368882362, 0.5137724223543375,0.2434137300757333,0.9342498779296875,1.215484619140625,0.54534912109375
20220118-1316,2022-01-18 13:17:05Z,u01, 49,40,movements,el-ex, rt, d,203543.975849375, 2.2103386852557017, -0.8660488789866526, 2.2141482596319, 0.158512681722641, 2.6825757026672363, -3.2856905460357666, 0.5198081731796265, 0.7617751955986023, 0.38665032386779785, 0.42823582887649536, 0.3089951276779175, 0.1880873441696167, -0.8096817594306184, 0.1942694142666732, 0.5176346863511394,0.1967976730339424,0.9518890380859375,1.077117919921875,0.565643310546875
20220118-1316,2022-01-18 13:17:05Z,u01, 50,40,movements,el-ex, rt, d,203544.00079337502, 2.3503992420901456, -0.9286898310270721, 2.3047182795270857, -0.2762218117713928, 2.8433337211608887, -3.4498956203460693, 0.4259219765663147, 0.8008359670639038, 0.4210137128829956, 0.47506389021873474, 0.2663942575454712, 0.23117756843566895, -0.8240019650232556, 0.17756017196420903, 0.5176003602081288,0.14691199516590145,0.897552490234375,1.06640625,0.6486663818359375
20220118-1316,2022-01-18 13:17:05Z,u01, 51,40,movements,el-ex, rt, d,203544.025736375, 2.52129402147549, -0.9812315639080343, 2.42571690092431, 0.003943611867725849, 2.9118435382843018, -3.4989421367645264, 0.3231904208660126, 0.8311827778816223, 0.45241957902908325, 0.5297149419784546, 0.26488661766052246, 0.10037600994110107, -0.8371032159293841, 0.159586964251695, 0.5145639308677008,0.09494351073234333,0.858001708984375,1.088470458984375,0.5612945556640625
20220118-1316,2022-01-18 13:17:05Z,u01, 52,40,movements,el-ex, rt, d,203544.05068037502, 2.7075405858961425, -1.0310841673223259, 2.5597640733181635, 0.5085523128509521, 2.932173252105713, -3.508793830871582, 0.21611665189266205, 0.8578566312789917, 0.4662363529205322, 0.5821012854576111, 0.2710803151130676, 0.042888760566711426, -0.8443665761087281, 0.14199737907049903, 0.5149466328991615,0.04137687495082598,0.7888031005859375,1.1242523193359375,0.5193023681640625
20220118-1316,2022-01-18 13:17:05Z,u01, 53,40,movements,el-ex, rt, d,203544.075623375, 2.922504628214646, -1.0673446196406675, 2.7238106148041705, -0.02646942064166069, 2.9272875785827637, -3.6296498775482178, 0.10485603660345078, 0.8759225010871887, 0.4709201455116272, 0.6168695092201233, 0.057671546936035156, 0.12827754020690918, -0.8487139207899514, 0.12306400588727195, 0.5141758580326594,-0.01278230714714551,0.7321319580078125,0.9538116455078125,0.59332275390625
20220118-1316,2022-01-18 13:17:05Z,u01, 54,40,movements,el-ex, rt, d,203544.10056737502, -3.1239591215937494, -1.0695258913188332, 2.91111287633791, -0.3890689015388489, 2.872495412826538, -3.5523629188537598, -0.008473179303109646, 0.8769727945327759, 0.4804653823375702, 0.62590491771698, 0.012156784534454346, 0.09959760308265686, -0.8541328226427648, 0.10339151940738811, 0.5053648613541656,-0.06613377829547054,0.6009521484375,0.8961944580078125,0.560394287109375
20220118-1316,2022-01-18 13:17:05Z,u01, 55,40,movements,el-ex, rt, d,203544.12551137502, -2.90061598928731, -1.0535706726619767, 3.08433830864598, -0.01590922102332115, 2.89582896232605, -3.3584866523742676, -0.11800606548786163, 0.8691943287849426, 0.48018333315849304, 0.5631812810897827, 0.01688361167907715, 0.004024028778076172, -0.8560794495305895, 0.08496851394728716, 0.4959335800655297,-0.11814531102837028,0.4570770263671875,0.8930816650390625,0.4805755615234375
20220118-1316,2022-01-18 13:17:05Z,u01, 56,40,movements,el-ex, rt, d,203544.15045437502, -2.6953503276649156, -1.0247010112732722, -3.0439493188789357, -0.12097615748643875, 2.8305001258850098, -3.3221776485443115, -0.22414261102676392, 0.8545589447021484, 0.4684971868991852, 0.6227480173110962, -0.016729116439819336, 0.019891083240509033, -0.8542703235856137, 0.06686413191230595, 0.4869176790114652,-0.16930078573552645,0.3911590576171875,0.8269195556640625,0.4864044189453125
20220118-1316,2022-01-18 13:17:05Z,u01, 57,40,movements,el-ex, rt, d,203544.17539837502, -2.5232031254056917, -0.976120522453117, -2.9229594486363695, -0.5566157102584839, 2.7661609649658203, -3.1450865268707275, -0.3247844874858856, 0.8283301591873169, 0.45649105310440063, 0.598740816116333, -0.10687947273254395, 0.061544954776763916, -0.8519044529166144, 0.05004326613824267, 0.47333272872885146,-0.21842750161114646,0.2876739501953125,0.73284912109375,0.520965576171875
20220118-1316,2022-01-18 13:17:05Z,u01, 58,40,movements,el-ex, rt, d,203544.20034137502, -2.389079121189302, -0.9129392921216776, -2.8405896373816915, -0.8775838613510132, 2.635741949081421, -3.0101723670959473, -0.417892724275589, 0.7913042902946472, 0.44632235169410706, 0.6127932071685791, -0.01127481460571289, 0.07555896043777466, -0.8496698206912139, 0.03496247273352554, 0.4547650257087613,-0.2646275786397361,0.1850433349609375,0.789794921875,0.5250396728515625
20220118-1316,2022-01-18 13:17:05Z,u01, 59,40,movements,el-ex, rt, d,203544.22528537503, -2.2805889261357732, -0.8457574685760181, -2.784498750470483, -0.631600558757782, 2.5648837089538574, -2.927048921585083, -0.5030084848403931, 0.7484736442565918, 0.4321688413619995, 0.5488306283950806, 0.05038505792617798, -0.07433485984802246, -0.8459479638105178, 0.02136510422854121, 0.43460164204042995,-0.3082808464766569,0.0605010986328125,0.8115234375,0.3691558837890625
20220118-1316,2022-01-18 13:17:05Z,u01, 60,40,movements,el-ex, rt, d,203544.25022837502, -2.1769170771181083, -0.7833970115377449, -2.7322701411590318, -0.13755495846271515, 2.65791392326355, -2.8537988662719727, -0.5823074579238892, 0.705690324306488, 0.40363237261772156, 0.4866654872894287, 0.08297538757324219, -0.03247743844985962, -0.8377156955400384, 0.006971343670756358, 0.4182779042991462,-0.351037576932604,-0.110198974609375,0.779296875,0.3640594482421875
20220118-1316,2022-01-18 13:17:05Z,u01, 61,40,movements,el-ex, rt, d,203544.27517237503, -2.076056422964066, -0.7223803510512318, -2.682502269672694, -0.15325100719928741, 2.713063955307007, -2.8331046104431152, -0.6564913988113403, 0.6611723899841309, 0.36313965916633606, 0.42031586170196533, 0.06062948703765869, 0.14868605136871338, -0.8255279583069901, -0.00856831795172952, 0.40453764053795904,-0.3934203399890922,-0.224212646484375,0.7158203125,0.49749755859375
20220118-1316,2022-01-18 13:17:05Z,u01, 62,40,movements,el-ex, rt, d,203544.30011537502, -1.9931146156885096, -0.6529452238883834, -2.6586683541759117, -1.0118929147720337, 2.7216176986694336, -2.7662925720214844, -0.7245120406150818, 0.6075284481048584, 0.32556384801864624, 0.4159945845603943, 0.08752471208572388, 0.14782500267028809, -0.8138429787296485, -0.021012756184334846, 0.38448297430849754,-0.43519078202477823,-0.3220672607421875,0.679351806640625,0.460845947265625
20220118-1316,2022-01-18 13:17:05Z,u01, 63,40,movements,el-ex, rt, d,203544.325059375, -1.9265910209177182, -0.578470280046107, -2.662625476797594, -1.42384934425354, 2.7617223262786865, -2.6399922370910645, -0.7848600149154663, 0.5467437505722046, 0.29166126251220703, 0.3495115041732788, 0.00019234418869018555, -0.14682459831237793, -0.8031300545447516, -0.02850883970781648, 0.3572777073732331,-0.4759433742964755,-0.4289398193359375,0.5542449951171875,0.1900634765625
20220118-1316,2022-01-18 13:17:05Z,u01, 64,40,movements,el-ex, rt, d,203544.35000237502, -1.8608546019253083, -0.5095939106423613, -2.6703756353157733, -0.5610432028770447, 2.80495548248291, -2.4340076446533203, -0.8364774584770203, 0.4878228008747101, 0.2496686577796936, 0.36597275733947754, -0.05390861630439758, -0.31648674607276917, -0.7897023756785446, -0.03470573328645843, 0.33150017824789585,-0.5150469220966772,-0.470458984375,0.4281158447265625,-0.0796356201171875
20220118-1316,2022-01-18 13:17:05Z,u01, 65,40,movements,el-ex, rt, d,203544.374946375, -1.7885385571151362, -0.45311149348478386, -2.656236467445717, 0.29096513986587524, 2.4249629974365234, -2.1777827739715576, -0.8778600096702576, 0.4377651512622833, 0.19422647356987, 0.39366793632507324, -0.19431105256080627, -0.4473848044872284, -0.7713561215341498, -0.0460757181937439, 0.3166240853469887,-0.5501237479715614,-0.482269287109375,0.278411865234375,-0.232086181640625
20220118-1316,2022-01-18 13:17:05Z,u01, 66,40,movements,el-ex, rt, d,203544.39988937502, -1.7298191647024699, -0.4095794951070502, -2.6412246780403263, -0.10055646300315857, 1.7633932828903198, -1.3697457313537598, -0.9057145714759827, 0.3982236385345459, 0.14525578916072845, 0.4164109230041504, -0.5918728709220886, -0.562049388885498, -0.7545970932542077, -0.056666755511759204, 0.30719976146948846,-0.5770619347750072,-0.4942626953125,-0.2594146728515625,-0.431671142578125
20220118-1316,2022-01-18 13:17:05Z,u01, 67,40,movements,el-ex, rt, d,203544.424833375, -1.7003224594756707, -0.38817591732093953, -2.6494889341741685, -0.868371307849884, 0.794776439666748, -0.3704732656478882, -0.9178473949432373, 0.37850067019462585, 0.1195545643568039, 0.42764365673065186, -1.1233737468719482, -0.7722795009613037, -0.746072819087756, -0.05614829012714129, 0.2982656115387766,-0.5926721736112339,-0.4892425537109375,-0.7639007568359375,-0.632080078125
20220118-1316,2022-01-18 13:17:05Z,u01, 68,40,movements,el-ex, rt, d,203544.44977637503, -1.704193987375895, -0.38606720957320795, -2.678088418917995, -0.5842209458351135, -0.15148542821407318, 0.5480968356132507, -0.9181668758392334, 0.37654802203178406, 0.1232130378484726, 0.40327417850494385, -0.7599555253982544, -0.9447612762451172, -0.7479455369071215, -0.04673318904827217, 0.28894453607779824,-0.5957387311838424,-0.5222015380859375,-0.3382110595703125,-0.8251953125
20220118-1316,2022-01-18 13:17:05Z,u01, 69,40,movements,el-ex, rt, d,203544.474720375, -1.7148796914265705, -0.40973248530667805, -2.6716193687579164, 1.0550267696380615, -0.8646551370620728, 1.172674536705017, -0.9077231287956238, 0.39836397767066956, 0.13170042634010315, 0.3141409754753113, -0.4455746114253998, -0.6830003261566162, -0.7510051655962166, -0.04291220343331953, 0.2987767689797102,-0.5872667827172388,-0.589630126953125,-0.043304443359375,-0.5894622802734375
20220118-1316,2022-01-18 13:17:05Z,u01, 70,40,movements,el-ex, rt, d,203544.499663375, -1.7336748249011933, -0.44853574810732993, -2.648145209366358, 0.8686997294425964, -1.4244375228881836, 1.6481491327285767, -0.8891568779945374, 0.4336465895175934, 0.14611898362636566, 0.29575788974761963, -0.49286597967147827, -0.44644224643707275, -0.7558449809546859, -0.0419267761754053, 0.3185088848410579,-0.5705196230065852,-0.59912109375,-0.0547943115234375,-0.2833099365234375
20220118-1316,2022-01-18 13:17:05Z,u01, 71,40,movements,el-ex, rt, d,203544.524607375, -1.7705912049208408, -0.49717147081997104, -2.641654835164352, 0.35235151648521423, -1.7347582578659058, 2.1092896461486816, -0.861450731754303, 0.4769413471221924, 0.17444075644016266, 0.22718870639801025, -0.4370090961456299, -0.3730947971343994, -0.7655173190801221, -0.03469313139451552, 0.3363245782541514,-0.5474170427157496,-0.6342315673828125,0.026153564453125,-0.20477294921875
20220118-1316,2022-01-18 13:17:05Z,u01, 72,40,movements,el-ex, rt, d,203544.549551375, -1.8186894134593927, -0.5550754377577721, -2.6442028819389116, 0.6458189487457275, -1.9961061477661133, 2.4427132606506348, -0.8238818645477295, 0.5270074009895325, 0.20852354168891907, 0.247206449508667, -0.35636836290359497, -0.32830488681793213, -0.7769822097242824, -0.023673175335398255, 0.3549614615079719,-0.5193656495813529,-0.5670623779296875,0.1951141357421875,-0.0962066650390625
20220118-1316,2022-01-18 13:17:05Z,u01, 73,40,movements,el-ex, rt, d,203544.574494375, -1.868928664368128, -0.6210788776297248, -2.6417602297534555, 0.7587451338768005, -2.1572024822235107, 2.594064712524414, -0.7773759961128235, 0.5819128751754761, 0.2388806790113449, 0.27134883403778076, -0.01128000020980835, -0.07066754996776581, -0.7869302572763348, -0.013457716096829553, 0.3780723832809446,-0.48746377627753146,-0.50653076171875,0.54351806640625,0.1573028564453125
20220118-1316,2022-01-18 13:17:05Z,u01, 74,40,movements,el-ex, rt, d,203544.599438375, -1.9315716560518545, -0.6859917145106126, -2.6538998242481817, 0.16661149263381958, -2.257430076599121, 2.6138548851013184, -0.7239772081375122, 0.6334406733512878, 0.2731481194496155, 0.2445002794265747, 0.020489990711212158, -0.10913124680519104, -0.7978547043201116, -0.0013895268391458382, 0.39775390036040176,-0.4530096909138872,-0.473785400390625,0.6415252685546875,0.157135009765625
20220118-1316,2022-01-18 13:17:05Z,u01, 75,40,movements,el-ex, rt, d,203544.624381375, -2.0117338083105665, -0.746466769360562, -2.6889217968331844, -0.13138341903686523, -2.32281756401062, 2.694613218307495, -0.663878321647644, 0.6790493130683899, 0.31330162286758423, 0.31596267223358154, -0.08420062065124512, -0.1501392126083374, -0.8102235190920375, 0.01373564256716503, 0.41198677486907503,-0.41667275556017463,-0.35845947265625,0.5892181396484375,0.1525726318359375
20220118-1316,2022-01-18 13:17:05Z,u01, 76,40,movements,el-ex, rt, d,203544.649325375, -2.0927480229605955, -0.8089866201443816, -2.7227237393894383, 0.7776434421539307, -2.280179977416992, 2.5935521125793457, -0.5983261466026306, 0.7235880494117737, 0.3441310226917267, 0.2830643653869629, 0.06025588512420654, 0.12268131971359253, -0.8193410871558539, 0.0273072818422756, 0.42892157006058357,-0.37942164752382024,-0.313079833984375,0.8247222900390625,0.501068115234375
20220118-1316,2022-01-18 13:17:05Z,u01, 77,40,movements,el-ex, rt, d,203544.674268375, -2.168805563124703, -0.8718720951734884, -2.7503169903460907, 0.43730801343917847, -2.1412625312805176, 2.4726932048797607, -0.5317386388778687, 0.7655347585678101, 0.3622300624847412, 0.2640842795372009, 0.26203781366348267, 0.153196781873703, -0.8244289794626654, 0.037840348731782714, 0.44853500939485924,-0.34307629782998345,-0.27423095703125,1.0478057861328125,0.5281219482421875
20220118-1316,2022-01-18 13:17:06Z,u01, 78,40,movements,el-ex, rt, d,203544.699212375, -2.264800796908744, -0.9226838857617574, -2.8050825157427437, -0.12422247231006622, -2.1157681941986084, 2.461057424545288, -0.4640454351902008, 0.7972247004508972, 0.38612788915634155, 0.2746838927268982, -0.04484432935714722, 0.024562567472457886, -0.8309704480930307, 0.050517884947919034, 0.46101632012089255,-0.30724592425771646,-0.184600830078125,0.7313995361328125,0.4049835205078125
20220118-1316,2022-01-18 13:17:06Z,u01, 79,40,movements,el-ex, rt, d,203544.724154375, -2.3773484658903588, -0.967822773703664, -2.876961159983858, 0.26956331729888916, -2.228477954864502, 2.5498650074005127, -0.39242446422576904, 0.823652982711792, 0.40938854217529297, 0.23127642273902893, -0.10853457450866699, -0.10305288434028625, -0.8370472299047946, 0.06360974046094608, 0.47146291367166426,-0.27023787682293565,-0.1634521484375,0.71209716796875,0.30615234375
20220118-1316,2022-01-18 13:17:06Z,u01, 80,40,movements,el-ex, rt, d,203544.749098375, -2.4954833891643644, -1.0247404929780464, -2.9504095254085327, 1.0939157009124756, -2.2569591999053955, 2.774265766143799, -0.3126753270626068, 0.8545794486999512, 0.4146430194377899, 0.20082834362983704, -0.15636754035949707, -0.05079689621925354, -0.8375796126537598, 0.07603877271353282, 0.48917138378484515,-0.23106300464796026,-0.10467529296875,0.7210845947265625,0.40948486328125
20220118-1316,2022-01-18 13:17:06Z,u01, 81,40,movements,el-ex, rt, d,203544.774041375, -2.6308639118637185, -1.0781759304917178, -3.0426850667535095, 0.18987566232681274, -2.1110177040100098, 2.600619316101074, -0.23117759823799133, 0.881096601486206, 0.41258442401885986, 0.3383095860481262, 0.19753199815750122, 0.2190685272216797, -0.8357427257182702, 0.08846641905227365, 0.5068147523317338,-0.19195486657264896,0.08099365234375,1.0501861572265625,0.62994384765625
20220118-1316,2022-01-18 13:17:06Z,u01, 82,40,movements,el-ex, rt, d,203544.798985375, -2.797508979563842, -1.0921817768492623, 3.1105910995816366, -0.8211011290550232, -2.0944066047668457, 2.2484166622161865, -0.1553593873977661, 0.8876338601112366, 0.43355515599250793, 0.4488316774368286, 0.29548704624176025, 0.09421604871749878, -0.8404664599804806, 0.10194954679665313, 0.5093544185567673,-0.15420977427582863,0.3030853271484375,1.179351806640625,0.5107421875
20220118-1316,2022-01-18 13:17:06Z,u01, 83,40,movements,el-ex, rt, d,203544.823928375, -2.9591710635539332, -1.0975460696750021, 2.9886491775270185, 0.19135478138923645, -2.1555886268615723, 2.2724251747131348, -0.08268414437770844, 0.890091598033905, 0.44821956753730774, 0.1900603175163269, 0.1931452751159668, -0.028465330600738525, -0.8435059638307998, 0.11228302933901968, 0.5120173376786207,-0.11716921470277894,0.136077880859375,1.1083526611328125,0.4251861572265625
20220118-1316,2022-01-18 13:17:06Z,u01, 84,40,movements,el-ex, rt, d,203544.848872375, -3.1282046604106624, -1.1193941729912846, 2.857789556453182, 1.0095617771148682, -1.96391761302948, 2.580630302429199, -0.005840040743350983, 0.8998363018035889, 0.4361887276172638, 0.00010281847789883614, -0.06527215242385864, -0.013550668954849243, -0.8383770932979537, 0.12336211145962311, 0.5247790310587259,-0.0807009997564627,-0.0041961669921875,0.8044891357421875,0.4312896728515625
20220118-1316,2022-01-18 13:17:06Z,u01, 85,40,movements,el-ex, rt, d,203544.873815375, 2.9658661143019143, -1.1351840414358063, 2.7005330529287304, 0.3639686405658722, -1.7930949926376343, 2.6817896366119385, 0.07376958429813385, 0.9066118597984314, 0.41546759009361267, 0.1773291528224945, -0.02643907070159912, 0.11984133720397949, -0.8299227062835823, 0.13770294032492386, 0.5387449697732672,-0.044946325240978746,0.216064453125,0.8538360595703125,0.53375244140625
20220118-1316,2022-01-18 13:17:06Z,u01, 86,40,movements,el-ex, rt, d,203544.898759375, 2.790037024793669, -1.1160978878959888, 2.5561363795322816, -0.31808042526245117, -1.8492002487182617, 2.522608757019043, 0.15123949944972992, 0.8983935117721558, 0.4123299717903137, 0.36954307556152344, 0.12130558490753174, 0.034829020500183105, -0.8264100298318684, 0.15235301904114273, 0.5420002585860988,-0.008416677117306814,0.5387115478515625,1.0430145263671875,0.4388427734375
20220118-1316,2022-01-18 13:17:06Z,u01, 87,40,movements,el-ex, rt, d,203544.923702375, 2.634769203373333, -1.0918919832047604, 2.434491920834549, 0.3391355276107788, -1.8609884977340698, 2.361448049545288, 0.2236771136522293, 0.8875003457069397, 0.4028798043727875, 0.33970803022384644, 0.20766890048980713, 0.054426372051239014, -0.82124060553047, 0.1643282261045163, 0.5457401152018964,0.026981194777380646,0.5723419189453125,1.123992919921875,0.439422607421875
20220118-1316,2022-01-18 13:17:06Z,u01, 88,40,movements,el-ex, rt, d,203544.948646375, 2.4863365593089206, -1.0640412671511073, 2.318395191932209, 0.19401705265045166, -1.8301546573638916, 2.523843288421631, 0.295749694108963, 0.8743240237236023, 0.3848244845867157, 0.17371758818626404, -0.06051170825958252, 0.14106976985931396, -0.8131068127012935, 0.1768319855084246, 0.5511289197725716,0.062006153884364285,0.4668731689453125,0.7866973876953125,0.5128631591796875
20220118-1316,2022-01-18 13:17:06Z,u01, 89,40,movements,el-ex, rt, d,203544.973590375, 2.3541302057918547, -1.0231293054723163, 2.218291679912174, -0.0988146960735321, -1.8149808645248413, 2.6360671520233154, 0.3689477741718292, 0.8537416458129883, 0.36742767691612244, 0.21795117855072021, 0.0071593523025512695, 0.07411602139472961, -0.8046175382851898, 0.1905372880525889, 0.5537651444360678,0.09813479537817155,0.5714569091796875,0.832000732421875,0.4365081787109375
20220118-1316,2022-01-18 13:17:06Z,u01, 90,40,movements,el-ex, rt, d,203544.998533375, 2.2483495394700106, -0.9719054008975501, 2.1477492994164074, -0.32333657145500183, -1.87488853931427, 2.4251556396484375, 0.43920499086380005, 0.8259613513946533, 0.3533942401409149, 0.26520198583602905, 0.115139901638031, 0.09213206171989441, -0.7972123011848808, 0.20285379399200953, 0.5523600736221614,0.13491281613983033,0.718048095703125,0.9571990966796875,0.4452972412109375
20220118-1316,2022-01-18 13:17:06Z,u01, 91,40,movements,el-ex, rt, d,203545.023477375, 2.167568399644395, -0.9197696986184326, 2.1038628986576065, -0.35200902819633484, -1.7574479579925537, 2.200042724609375, 0.5012584924697876, 0.7954620718955994, 0.3405592739582062, 0.27811485528945923, 0.24134224653244019, 0.13423338532447815, -0.7906922859929469, 0.21233309497200742, 0.5485766348874838,0.1696592546084471,0.7808074951171875,1.0421295166015625,0.4737548828125
20220118-1316,2022-01-18 13:17:06Z,u01, 92,40,movements,el-ex, rt, d,203545.048420375, 2.095512106872276, -0.871438551788079, 2.065669895695975, -0.11307205259799957, -1.6345510482788086, 2.1192283630371094, 0.557123601436615, 0.7652557492256165, 0.3224857449531555, 0.15439385175704956, 0.203066885471344, 0.15201696753501892, -0.782459226705247, 0.22136040246481764, 0.5460221715737903,0.20153651928811947,0.7032012939453125,0.9627532958984375,0.46630859375
20220118-1316,2022-01-18 13:17:06Z,u01, 93,40,movements,el-ex, rt, d,203545.073364375, 2.0287419507896085, -0.8241720883685605, 2.0296095899232562, -0.02723514474928379, -1.5687123537063599, 2.1161909103393555, 0.6091856360435486, 0.7339857220649719, 0.3002631664276123, 0.10283535718917847, 0.1419755220413208, 0.047774672508239746, -0.7725163882467548, 0.23097621720477707, 0.5442924433577074,0.23154747470729223,0.7064361572265625,0.887451171875,0.3536376953125
20220118-1316,2022-01-18 13:17:06Z,u01, 94,40,movements,el-ex, rt, d,203545.098307375, 1.9689672821493593, -0.7750928974424218, 2.000726303055836, -0.10544665902853012, -1.5438172817230225, 2.1204469203948975, 0.658473551273346, 0.6997824311256409, 0.27697959542274475, 0.06763136386871338, 0.1362161636352539, 0.047742873430252075, -0.7620163861973078, 0.24045960064855898, 0.5415763751040328,0.2611617582752688,0.727203369140625,0.8322296142578125,0.330291748046875
20220118-1316,2022-01-18 13:17:06Z,u01, 95,40,movements,el-ex, rt, d,203545.12325137501, 1.9137648447494082, -0.7265482181832622, 1.9780138073702036, -0.14710350334644318, -1.6312673091888428, 1.9929027557373047, 0.7039395570755005, 0.6642934679985046, 0.25136300921440125, 0.1304110884666443, 0.1499001383781433, 0.07924923300743103, -0.7508392533499922, 0.24884114615066505, 0.5385701479942245,0.29027700999843437,0.8220672607421875,0.8177032470703125,0.3312835693359375
20220118-1316,2022-01-18 13:17:06Z,u01, 96,40,movements,el-ex, rt, d,203545.148194375, 1.8652844632927477, -0.6784203809414664, 1.968103642180509, -0.4831216037273407, -1.7161550521850586, 1.8424570560455322, 0.7450486421585083, 0.6275639533996582, 0.22597859799861908, 0.13999176025390625, 0.1248469352722168, 0.11467397212982178, -0.7404916183853929, 0.2542861842084054, 0.5335830778693145,0.3198436102475092,0.8862457275390625,0.7455596923828125,0.3430023193359375
20220118-1316,2022-01-18 13:17:06Z,u01, 97,40,movements,el-ex, rt, d,203545.17313837502, 1.8244197966166826, -0.6315143916095757, 1.971140308788265, -0.6462991237640381, -1.6617140769958496, 1.76352858543396, 0.7813140153884888, 0.5903677344322205, 0.20252066850662231, 0.10075098276138306, 0.12822961807250977, 0.05874037742614746, -0.7316371713538692, 0.2568411703313742, 0.5260687874642422,0.34927267886554736,0.8834075927734375,0.720367431640625,0.2707672119140625
20220118-1316,2022-01-18 13:17:06Z,u01, 98,40,movements,el-ex, rt, d,203545.198081375, 1.7840967193985224, -0.5869336102509557, 1.968728752501, 0.03529054671525955, -1.5054665803909302, 1.6971702575683594, 0.813772976398468, 0.5538104176521301, 0.1762593388557434, 0.06360733509063721, 0.15492963790893555, 0.13131208717823029, -0.7210961687226887, 0.2610555170734327, 0.5201153222088822,0.3759658313516806,0.878326416015625,0.713623046875,0.3199310302734375
20220118-1316,2022-01-18 13:17:06Z,u01, 99,40,movements,el-ex, rt, d,203545.22302537502, 1.7427384465198652, -0.5476717068138862, 1.9557028178273115, 0.06912591308355331, -1.2691282033920288, 1.52854323387146, 0.8411502838134766, 0.5207008719444275, 0.14607149362564087, 0.05354887247085571, 0.17267364263534546, 0.3000955581665039, -0.708229426018298, 0.26729539383088563, 0.5179530979696378,0.39835771306837003,0.8932342529296875,0.698150634765625,0.444610595703125
20220118-1316,2022-01-18 13:17:06Z,u01, 100,40,movements,el-ex, rt, d,203545.247968375, 1.7138602054340077, -0.5130741414614489, 1.95447629485408, -0.36469215154647827, -0.938998281955719, 1.2184311151504517, 0.8623390793800354, 0.490857869386673, 0.12421820312738419, 0.025386929512023926, 0.20358482003211975, 0.3397711515426636, -0.6989714770036832, 0.2711972982087938, 0.5132096964807107,0.41774015561128147,0.88189697265625,0.7040863037109375,0.4638671875
20220118-1316,2022-01-18 13:17:06Z,u01, 101,40,movements,el-ex, rt, d,203545.27291237502, 1.6965777772663324, -0.4860574057623901, 1.9550239232206055, 0.16895036399364471, -0.45851314067840576, 0.8682600259780884, 0.8771964907646179, 0.46714356541633606, 0.11092062294483185, -0.07302767038345337, 0.40137138962745667, 0.3230546712875366, -0.6926463650972364, 0.27513873908591757, 0.5085116063915731,0.431225848664771,0.8106536865234375,0.85498046875,0.4359130859375
20220118-1316,2022-01-18 13:17:06Z,u01, 102,40,movements,el-ex, rt, d,203545.297855375, 1.6853762356238207, -0.4715969119058943, 1.9435618081211976, 0.344837486743927, -0.06090272590517998, 0.3645223081111908, 0.8850027918815613, 0.45430946350097656, 0.10184963792562485, -0.09627574682235718, 0.42349815368652344, 0.3659391403198242, -0.6870700113509549, 0.2808195505698, 0.5088430120754454,0.4360666562186173,0.788543701171875,0.8764495849609375,0.478973388671875
20220118-1316,2022-01-18 13:17:06Z,u01, 103,40,movements,el-ex, rt, d,203545.32279937502, 1.68661373322676, -0.4690437014586667, 1.942657668991347, -0.3346412777900696, 0.20553462207317352, -0.15275938808918, 0.8860253691673279, 0.45203346014022827, 0.1030784621834755, -0.14525669813156128, 0.47615867853164673, 0.47980737686157227, -0.6869301527812822, 0.2822520076985303, 0.5082121401110605,0.43609789552818234,0.749237060546875,0.9189605712890625,0.5796966552734375
20220118-1316,2022-01-18 13:17:06Z,u01, 104,40,movements,el-ex, rt, d,203545.34774237502, 1.7037209773772126, -0.4780842775168205, 1.9592275531853809, -0.6252795457839966, 0.5851606726646423, -0.6975895762443542, 0.8800455331802368, 0.4600791037082672, 0.11767362058162689, -0.19495642185211182, 0.5491218566894531, 0.42614972591400146, -0.6939362649016644, 0.27800947676115195, 0.5045538811990794,0.4319589771146799,0.6834564208984375,1.020172119140625,0.536407470703125
20220118-1316,2022-01-18 13:17:06Z,u01, 105,40,movements,el-ex, rt, d,203545.37268637502, 1.7316835429613613, -0.49863838367061697, 1.9757374369242366, -0.1862870156764984, 1.0198150873184204, -1.074601173400879, 0.8668926358222961, 0.47823017835617065, 0.14068792760372162, -0.15391045808792114, 0.6060287952423096, 0.33642399311065674, -0.7042139306543813, 0.27281258510893636, 0.5025700297219379,0.42080805808107363,0.707672119140625,1.084014892578125,0.482879638671875
20220118-1316,2022-01-18 13:17:06Z,u01, 106,40,movements,el-ex, rt, d,203545.39763037502, 1.763012655485532, -0.529849512990615, 1.9785821420987353, 0.4143883287906647, 1.365293025970459, -1.4285086393356323, 0.8469918370246887, 0.5054035186767578, 0.16484081745147705, -0.09557265043258667, 0.5647258758544922, 0.3107147216796875, -0.7138307594508494, 0.2699371284778883, 0.5059979882283135,0.4019275959432041,0.75616455078125,1.0672149658203125,0.478759765625
20220118-1316,2022-01-18 13:17:06Z,u01, 107,40,movements,el-ex, rt, d,203545.42257337502, 1.7985020115596122, -0.5731714807734007, 1.9750621001194144, 0.3819378614425659, 1.6163071393966675, -1.9300987720489502, 0.8184977769851685, 0.5422993898391724, 0.1896660327911377, 0.020766377449035645, 0.47596538066864014, 0.37219324707984924, -0.7236466059799969, 0.2667744529127495, 0.513410822811561,0.376266530550259,0.8292236328125,1.0333709716796875,0.5547027587890625
20220118-1316,2022-01-18 13:17:06Z,u01, 108,40,movements,el-ex, rt, d,203545.44751737503, 1.850127834455518, -0.6250380857639808, 1.989719762635604, -0.2432367205619812, 1.860777497291565, -2.3254780769348145, 0.7795088887214661, 0.5851281881332397, 0.2235870659351349, 0.13400447368621826, 0.37191832065582275, 0.3666534423828125, -0.738143833650696, 0.25872227619317334, 0.5178095333941437,0.34652537874417827,0.9200897216796875,0.95703125,0.5857086181640625
20220118-1316,2022-01-18 13:17:06Z,u01, 109,40,movements,el-ex, rt, d,203545.47246037502, 1.9181191469477683, -0.6820365871551994, 2.019508876112413, -0.001466432586312294, 2.1375086307525635, -2.5825843811035156, 0.7299361228942871, 0.630375325679779, 0.26423507928848267, 0.20754867792129517, 0.3829607367515564, 0.24382156133651733, -0.7554321806737221, 0.24787044637335137, 0.51978891904728,0.31257304362416255,0.9398651123046875,1.0079193115234375,0.5079193115234375
20220118-1316,2022-01-18 13:17:06Z,u01, 110,40,movements,el-ex, rt, d,203545.49740437503, 1.9916578837660583, -0.7467200930022594, 2.047118481476409, 0.2536981701850891, 2.2795095443725586, -2.8278205394744873, 0.6698768734931946, 0.6792352199554443, 0.29984110593795776, 0.27456599473953247, 0.3116552233695984, 0.24604210257530212, -0.770492020421127, 0.2371974001163848, 0.5248628954968038,0.27312719090139115,0.9449310302734375,0.9758453369140625,0.549652099609375
20220118-1316,2022-01-18 13:17:06Z,u01, 111,40,movements,el-ex, rt, d,203545.52234737502, 2.0816460973180453, -0.8112289595359161, 2.0914101304192667, -0.1811179518699646, 2.429748058319092, -2.9158105850219727, 0.6006928086280823, 0.725134015083313, 0.33667322993278503, 0.3317718505859375, 0.06684285402297974, 0.27802714705467224, -0.7859931288787503, 0.2248364184621096, 0.5274347810274905,0.2312486461918416,0.932708740234375,0.799102783203125,0.6099090576171875
20220118-1316,2022-01-18 13:17:06Z,u01, 112,40,movements,el-ex, rt, d,203545.547291375, 2.195538805804479, -0.8683190818891405, 2.16126153733259, -0.4119439721107483, 2.5066118240356445, -2.950061082839966, 0.52406907081604, 0.7632439732551575, 0.3779025077819824, 0.38668233156204224, 0.002075791358947754, 0.24313026666641235, -0.8027319908765329, 0.21112224792925255, 0.5249449636334259,0.1883654498328032,0.907318115234375,0.7701873779296875,0.6090545654296875
20220118-1316,2022-01-18 13:17:06Z,u01, 113,40,movements,el-ex, rt, d,203545.57223437502, 2.329668452878365, -0.9155681677682163, 2.251162380569712, -0.640958309173584, 2.6005818843841553, -2.8590006828308105, 0.4421452581882477, 0.7929089069366455, 0.4192894399166107, 0.47171905636787415, 0.04603469371795654, 0.14781898260116577, -0.8189508822917009, 0.19739344042962487, 0.5190132569186056,0.14484728302914898,0.9132537841796875,0.838775634765625,0.5703887939453125
20220118-1316,2022-01-18 13:17:06Z,u01, 114,40,movements,el-ex, rt, d,203545.597178375, 2.4826444712126485, -0.9531348485679854, 2.3585211838608107, -0.5113402605056763, 2.755444049835205, -2.941329002380371, 0.35459309816360474, 0.8152350187301636, 0.4578815996646881, 0.4895842373371124, 0.12659835815429688, 0.09999504685401917, -0.8337923771652072, 0.183660218971334, 0.5109203411105501,0.10009782832207642,0.831085205078125,0.949493408203125,0.5646820068359375
20220118-1316,2022-01-18 13:17:06Z,u01, 115,40,movements,el-ex, rt, d,203545.62212137503, 2.649284662690881, -0.9855755393618185, 2.4761913607278143, -0.27144360542297363, 2.8411834239959717, -2.947655439376831, 0.26109009981155396, 0.8335901498794556, 0.4867846667766571, 0.4273712933063507, 0.08044165372848511, 0.09680309891700745, -0.8452550534196153, 0.17010653237199536, 0.5037780024612118,0.05305986086749567,0.7024383544921875,0.91619873046875,0.58062744140625
20220118-1316,2022-01-18 13:17:06Z,u01, 116,40,movements,el-ex, rt, d,203545.647065375, 2.82814758012324, -1.0096384452501768, 2.604284157988685, -0.18547940254211426, 2.8616838455200195, -2.927805185317993, 0.1640872210264206, 0.8466395139694214, 0.5062384605407715, 0.42763346433639526, 0.05881720781326294, 0.07457226514816284, -0.8535605006321946, 0.15669623313984582, 0.49684687452585896,0.004908354790676417,0.587310791015625,0.9161529541015625,0.5775299072265625
20220118-1316,2022-01-18 13:17:06Z,u01, 117,40,movements,el-ex, rt, d,203545.67200837503, 3.0164703324696873, -1.020688337890142, 2.74041142049358, -0.12628746032714844, 2.9404501914978027, -2.8993048667907715, 0.06524084508419037, 0.8524680733680725, 0.518692672252655, 0.4815426766872406, 0.11034631729125977, 0.025481700897216797, -0.859492731472412, 0.1435917069163552, 0.4886164086052446,-0.04367790309058636,0.5524444580078125,0.960205078125,0.544219970703125
20220118-1316,2022-01-18 13:17:07Z,u01, 118,40,movements,el-ex, rt, d,203545.696952375, -3.072818548124421, -1.0229224847684455, 2.880091045215808, 0.08033063262701035, 3.010495185852051, -2.91774582862854, -0.035794418305158615, 0.8536338806152344, 0.5196427702903748, 0.5139285922050476, 0.13043612241744995, 0.05466783046722412, -0.8618819402603314, 0.13031078300133514, 0.48107836393559344,-0.09350109749208779,0.4700927734375,0.984222412109375,0.5715484619140625
20220118-1316,2022-01-18 13:17:07Z,u01, 119,40,movements,el-ex, rt, d,203545.7218965, -2.880805905418155, -1.015570347267541, 3.0173507073828, 0.19523710012435913, 3.0038092136383057, -2.939032793045044, -0.13591694831848145, 0.849781334400177, 0.5093113780021667, 0.4878915250301361, 0.14469486474990845, 0.13131368160247803, -0.8608093318001967, 0.1168887426016893, 0.47413182099339585,-0.1433292351223451,0.3555145263671875,0.981292724609375,0.6451873779296875
20220118-1316,2022-01-18 13:17:07Z,u01, 120,40,movements,el-ex, rt, d,203545.7468405, -2.6966935066890434, -0.990697074988299, -3.1365831759978575, -0.044248949736356735, 2.9962642192840576, -2.9708058834075928, -0.2358873188495636, 0.836408257484436, 0.494751513004303, 0.5368363857269287, 0.11976873874664307, 0.048843204975128174, -0.8583848290352827, 0.10271921511316001, 0.4641105857140809,-0.1929399569621335,0.291107177734375,0.9437713623046875,0.533905029296875
20220118-1316,2022-01-18 13:17:07Z,u01, 121,40,movements,el-ex, rt, d,203545.7717835, -2.5286097153286473, -0.9523678802202611, -3.0231407266270036, 0.03315526247024536, 2.885052442550659, -2.9620325565338135, -0.3335389792919159, 0.8147906064987183, 0.4742025136947632, 0.49027732014656067, 0.10070621967315674, 0.003046691417694092, -0.854033792514679, 0.08790637771551657, 0.45213495829702116,-0.24181131001139528,0.16650390625,0.922149658203125,0.509552001953125
20220118-1316,2022-01-18 13:17:07Z,u01, 122,40,movements,el-ex, rt, d,203545.7967275, -2.3778837558409527, -0.9050143306220496, -2.9274188671149832, -0.19393478333950043, 3.0367088317871094, -3.0459535121917725, -0.4271869361400604, 0.78643399477005, 0.44613152742385864, 0.49130433797836304, 0.14055287837982178, 0.13063567876815796, -0.8472113422627997, 0.07279221789019807, 0.4392269397209921,-0.28985183853140667,0.0569305419921875,0.9366302490234375,0.61102294921875
20220118-1316,2022-01-18 13:17:07Z,u01, 123,40,movements,el-ex, rt, d,203545.8216705, -2.2549010802255287, -0.8360919616071086, -2.8652970178692088, -1.194570779800415, 3.004558801651001, -3.161259889602661, -0.5195252299308777, 0.7420289516448975, 0.4236588180065155, 0.47458815574645996, 0.12982779741287231, 0.1418168544769287, -0.8416478861531854, 0.0588068655095248, 0.41721756117439657,-0.3377872012751284,-0.0309906005859375,0.895538330078125,0.5929412841796875
20220118-1316,2022-01-18 13:17:07Z,u01, 124,40,movements,el-ex, rt, d,203545.8466145, -2.1588533526228377, -0.7553982343843846, -2.834855361043335, -1.0356183052062988, 2.9211788177490234, -3.020082473754883, -0.605709433555603, 0.6855786442756653, 0.4038538932800293, 0.4389615058898926, 0.04968130588531494, -0.08032160997390747, -0.8365047991250639, 0.04676185364604685, 0.3883350857790116,-0.3837562931675597,-0.1786651611328125,0.73736572265625,0.28656005859375
20220118-1316,2022-01-18 13:17:07Z,u01, 125,40,movements,el-ex, rt, d,203545.87155850002, -2.0662324162042065, -0.6834657011422274, -2.8060111552644327, -0.579190731048584, 2.9317872524261475, -2.87975811958313, -0.6821573376655579, 0.6314840912818909, 0.3686318099498749, 0.47915440797805786, 0.035111427307128906, -0.10120606422424316, -0.8265318260487916, 0.03407406267364321, 0.3643769022079808,-0.4276840219983024,-0.198944091796875,0.685211181640625,0.273651123046875
20220118-1316,2022-01-18 13:17:07Z,u01, 126,40,movements,el-ex, rt, d,203545.8965015, -1.9802295721079117, -0.6119619844346901, -2.7863586884949423, -0.9645584225654602, 2.955984592437744, -2.8753535747528076, -0.7508687973022461, 0.5744745135307312, 0.3258451819419861, 0.48527443408966064, -0.0240289568901062, 0.06488677859306335, -0.813908956416907, 0.021789924277603345, 0.3403176841207174,-0.47038416935179955,-0.2708892822265625,0.5529937744140625,0.3940887451171875
20220118-1316,2022-01-18 13:17:07Z,u01, 127,40,movements,el-ex, rt, d,203545.92144550002, -1.9091777646154016, -0.5375162219033748, -2.788565153457688, -1.1076492071151733, 2.8574371337890625, -2.6126492023468018, -0.8102728128433228, 0.5120040774345398, 0.28514865040779114, 0.4603736400604248, -0.09568333625793457, -0.18816357851028442, -0.8015031747707675, 0.012922037005220877, 0.3111721748774867,-0.5104875408473803,-0.348907470703125,0.4269561767578125,0.1135406494140625
20220118-1316,2022-01-18 13:17:07Z,u01, 128,40,movements,el-ex, rt, d,203545.94638850002, -1.8430830350248095, -0.4740276253758716, -2.7917380179671096, -0.4269115626811981, 2.5064616203308105, -2.1241796016693115, -0.8569578528404236, 0.4564734995365143, 0.23928110301494598, 0.5137417912483215, -0.2168494462966919, -0.44020867347717285, -0.7871563553565771, 0.005041971145316737, 0.28645257695189535,-0.5461725542531671,-0.342437744140625,0.2006378173828125,-0.2563629150390625
20220118-1316,2022-01-18 13:17:07Z,u01, 129,40,movements,el-ex, rt, d,203545.97133250002, -1.7828422110322957, -0.4320536860303903, -2.780017699266927, 0.26514920592308044, 1.8586803674697876, -1.3510513305664062, -0.8877683281898499, 0.41873666644096375, 0.19112072885036469, 0.46207863092422485, -0.7249958515167236, -0.7297099828720093, -0.7717144306323143, -0.004147196478674842, 0.27438601344971564,-0.5737176949780239,-0.4248046875,-0.266204833984375,-0.5054168701171875
20220118-1316,2022-01-18 13:17:07Z,u01, 130,40,movements,el-ex, rt, d,203545.99627550002, -1.74349362657757, -0.41406360982916457, -2.7656898081192125, 0.32028913497924805, 0.8102111220359802, -0.2724134027957916, -0.9018755555152893, 0.4023328423500061, 0.15731856226921082, 0.44043445587158203, -0.9936718940734863, -0.9066317081451416, -0.7606305204861866, -0.010024615471232956, 0.27223930290577114,-0.5892593858868579,-0.4599609375,-0.60650634765625,-0.769561767578125
20220118-1316,2022-01-18 13:17:07Z,u01, 131,40,movements,el-ex, rt, d,203546.02121950002, -1.7406710022431402, -0.4204080118191083, -2.769684459933567, -0.3463602662086487, -0.46960288286209106, 0.7193613052368164, -0.899782121181488, 0.40813297033309937, 0.15433765947818756, 0.4790513515472412, -0.9217742085456848, -1.0292153358459473, -0.7596920783415531, -0.006064065495774484, 0.2733270642836073,-0.590020084884468,-0.420867919921875,-0.5512847900390625,-0.8772125244140625
20220118-1316,2022-01-18 13:17:07Z,u01, 132,40,movements,el-ex, rt, d,203546.04616250002, -1.7671966452343577, -0.4472740725828618, -2.777729378901656, 0.27671992778778076, -1.3158890008926392, 1.4431021213531494, -0.8842960000038147, 0.4325093626976013, 0.17594408988952637, 0.3897128701210022, -0.6463154554367065, -0.9043374061584473, -0.7667907781131722, 0.0019874258594290706, 0.2805292558794153,-0.5773485470435631,-0.5009307861328125,-0.1893157958984375,-0.698028564453125
20220118-1316,2022-01-18 13:17:07Z,u01, 133,40,movements,el-ex, rt, d,203546.07110650002, -1.8070270579976377, -0.4917086430979619, -2.7736659518913083, 0.595026433467865, -1.9914276599884033, 1.9762437343597412, -0.8570449948310852, 0.4721328020095825, 0.20631247758865356, 0.36468952894210815, -0.44677257537841797, -0.5629559755325317, -0.7765825132725688, 0.008708428765928311, 0.29775581631139747,-0.5551444648824092,-0.4929046630859375,0.014739990234375,-0.3813629150390625
20220118-1316,2022-01-18 13:17:07Z,u01, 134,40,movements,el-ex, rt, d,203546.09604950002, -1.8632940584941209, -0.5475740865735701, -2.7763646431069438, 0.33818700909614563, -2.3624298572540283, 2.369263172149658, -0.8175268173217773, 0.5206175446510315, 0.24618592858314514, 0.32364559173583984, -0.3698606491088867, -0.4187016487121582, -0.7891507245362837, 0.018278331366544442, 0.31769150620760256,-0.525337276775975,-0.4930267333984375,0.1711578369140625,-0.1536102294921875
20220118-1316,2022-01-18 13:17:07Z,u01, 135,40,movements,el-ex, rt, d,203546.12099350002, -1.931827337780368, -0.6093190981119014, -2.7893822512510553, 0.45838645100593567, -2.5453238487243652, 2.582690715789795, -0.7671728134155273, 0.5723092555999756, 0.2896694242954254, 0.30892080068588257, -0.16608965396881104, -0.17097115516662598, -0.8024377607188542, 0.03046876829448053, 0.337968568120067,-0.4908591181274384,-0.4630126953125,0.3862762451171875,0.1020965576171875
20220118-1316,2022-01-18 13:17:07Z,u01, 136,40,movements,el-ex, rt, d,203546.14593650002, -2.0073842156966264, -0.6757293233363331, -2.805823009619936, 0.6323323845863342, -2.734905958175659, 2.7361948490142822, -0.7070633172988892, 0.625466525554657, 0.32992908358573914, 0.31686562299728394, -0.05217856168746948, -0.2106051743030548, -0.8143406439002414, 0.04258938370762316, 0.36034209551660074,-0.4529780281671928,-0.3790283203125,0.5941925048828125,0.1026458740234375
20220118-1316,2022-01-18 13:17:07Z,u01, 137,40,movements,el-ex, rt, d,203546.17088050002, -2.0909463053694974, -0.7493545131084576, -2.823674501864565, 1.120712161064148, -2.9873032569885254, 3.01153302192688, -0.6353008151054382, 0.6811663508415222, 0.36387550830841064, 0.4064342975616455, 0.08311587572097778, -0.3944235146045685, -0.8240426661681302, 0.05377216408964414, 0.38650786260330605,-0.4106993277812044,-0.2376861572265625,0.7552642822265625,-0.04498291015625
20220118-1316,2022-01-18 13:17:07Z,u01, 138,40,movements,el-ex, rt, d,203546.19582350002, -2.1748179819886544, -0.8342763646631206, -2.8356198613897665, 1.9993093013763428, -3.116914749145508, 3.081406831741333, -0.5528600811958313, 0.7408106327056885, 0.38150501251220703, 0.35426682233810425, -0.035442352294921875, -0.09065690636634827, -0.8287434159725928, 0.06274437459465787, 0.41929132905292366,-0.36529787279155695,-0.198486328125,0.6859283447265625,0.349945068359375
20220118-1316,2022-01-18 13:17:07Z,u01, 139,40,movements,el-ex, rt, d,203546.22076750002, -2.2634005661567103, -0.9314874219768816, -2.8415722122972653, 2.056469202041626, -3.5025036334991455, 3.370722532272339, -0.4591664969921112, 0.8025082945823669, 0.38098132610321045, 0.3649282455444336, 0.002774357795715332, -0.0518949031829834, -0.8281780955652116, 0.06790958028936478, 0.4586868498084432,-0.31482657929595964,-0.11175537109375,0.783966064453125,0.36883544921875
20220118-1316,2022-01-18 13:17:07Z,u01, 140,40,movements,el-ex, rt, d,203546.24571050002, -2.401749311256222, -1.0138672313073203, -2.905464916432552, 0.3310621976852417, -3.2206058502197266, 3.2413876056671143, -0.35635536909103394, 0.8488823175430298, 0.3903970718383789, 0.4223038852214813, -0.037328362464904785, -0.08119276165962219, -0.8301013675160436, 0.07829599159053718, 0.4867366297718284,-0.26055517484417445,0.09173583984375,0.847991943359375,0.3178863525390625
20220118-1316,2022-01-18 13:17:07Z,u01, 141,40,movements,el-ex, rt, d,203546.27065450003, -2.5761882017687614, -1.0588069032414584, -3.020161566916597, 0.2326124757528305, -2.854435920715332, 2.8570597171783447, -0.2624741494655609, 0.8717715740203857, 0.41366827487945557, 0.5198442935943604, 0.2716609239578247, 0.1687445044517517, -0.8358683307856921, 0.09032314944243247, 0.49868755149405875,-0.2108945914213788,0.263336181640625,1.144805908203125,0.5297698974609375
20220118-1316,2022-01-18 13:17:07Z,u01, 142,40,movements,el-ex, rt, d,203546.29559750002, -2.7507288444805176, -1.1113002835664418, -3.1360466251911574, 1.1498262882232666, -2.836127758026123, 3.0021119117736816, -0.16896651685237885, 0.8962761163711548, 0.4100481867790222, 0.4078276753425598, 0.20170056819915771, 0.23443743586540222, -0.8336662683685259, 0.10012314507598424, 0.5179097519214626,-0.16354027776265392,0.2433929443359375,1.074188232421875,0.6118011474609375
20220118-1316,2022-01-18 13:17:07Z,u01, 143,40,movements,el-ex, rt, d,203546.32054150003, -2.9608875878294616, -1.1525882647303818, 2.989374312002572, 0.3495057225227356, -2.6338634490966797, 3.0391194820404053, -0.07298994064331055, 0.9138181805610657, 0.3995113670825958, 0.4060436189174652, -0.17959558963775635, 0.04335993528366089, -0.8289118093639034, 0.11252064826042374, 0.5353738470089608,-0.1167019002655007,0.3125,0.7463531494140625,0.457977294921875
20220118-1316,2022-01-18 13:17:07Z,u01, 144,40,movements,el-ex, rt, d,203546.34548450002, 3.072766760127862, -1.1561390735011734, 2.7892298794535813, -0.163716122508049, -2.6018643379211426, 3.404381275177002, 0.027706461027264595, 0.9152544736862183, 0.4019228518009186, 0.4586065113544464, -0.2572343945503235, -0.007467746734619141, -0.8273613660338125, 0.12819746407045657, 0.5426818479622553,-0.06734325355954726,0.488800048828125,0.6678924560546875,0.4340362548828125
20220118-1316,2022-01-18 13:17:07Z,u01, 145,40,movements,el-ex, rt, d,203546.3704285, 2.8242395357050243, -1.1386850259977113, 2.589853136491988, 0.0032944343984127045, -2.671844482421875, 3.3592941761016846, 0.13068446516990662, 0.9080835580825806, 0.3978770077228546, 0.5822978019714355, 0.12121331691741943, 0.09431064128875732, -0.8234297568197461, 0.14457504588278358, 0.5484293312959041,-0.01693764971583467,0.6892547607421875,1.0240936279296875,0.499053955078125
20220118-1316,2022-01-18 13:17:07Z,u01, 146,40,movements,el-ex, rt, d,203546.39537150002, 2.609410837289182, -1.0973534276852626, 2.4249718335548183, -0.7328422665596008, -2.7057597637176514, 3.2837636470794678, 0.23135747015476227, 0.8900037407875061, 0.39289605617523193, 0.561229944229126, -0.0061841607093811035, 0.09399676322937012, -0.8190050417907295, 0.16024597476613306, 0.5499273751124012,0.033644590204547575,0.8019256591796875,0.868560791015625,0.4775238037109375
20220118-1316,2022-01-18 13:17:07Z,u01, 147,40,movements,el-ex, rt, d,203546.4203155, 2.4439588611011693, -1.028719449286279, 2.3118884321162683, -1.0288352966308594, -2.5886011123657227, 3.4742250442504883, 0.3314279615879059, 0.85663902759552, 0.3953801095485687, 0.47060462832450867, -0.08619213104248047, 0.03868681192398071, -0.8165508947233303, 0.17588259837118342, 0.5430647751149474,0.08596933829724612,0.80010986328125,0.778564453125,0.4226226806640625
20220118-1316,2022-01-18 13:17:07Z,u01, 148,40,movements,el-ex, rt, d,203546.44525850003, 2.300207045251107, -0.957380110158161, 2.2155822234945557, -0.09148074686527252, -2.599022388458252, 3.393653154373169, 0.4291963577270508, 0.8176862001419067, 0.3836401104927063, 0.4520445168018341, 0.01774764060974121, 0.22102004289627075, -0.8089212902350957, 0.19356241325966045, 0.5380879380739405,0.13653316757193168,0.9062652587890625,0.8772430419921875,0.59918212890625
20220118-1316,2022-01-18 13:17:07Z,u01, 149,40,movements,el-ex, rt, d,203546.4702025, 2.1642713207494406, -0.8894587869050518, 2.1288704149372415, -0.2264840304851532, -2.762321949005127, 3.3808395862579346, 0.5221326947212219, 0.776731014251709, 0.35223084688186646, 0.6384966969490051, 0.12748956680297852, 0.08294987678527832, -0.7950041418311429, 0.20996151847636885, 0.5377278046800391,0.18636909434363572,1.1465911865234375,0.9202117919921875,0.4399871826171875
20220118-1316,2022-01-18 13:17:07Z,u01, 150,40,movements,el-ex, rt, d,203546.4951465, 2.0726981038059695, -0.8057274615482123, 2.1041260775588544, -2.127739667892456, -3.001375913619995, 3.096008539199829, 0.6071696281433105, 0.7213346362113953, 0.3331991732120514, 0.668739914894104, 0.06727010011672974, 0.11856797337532043, -0.7865191898581756, 0.2190596899257385, 0.5253153217486627,0.2396755391291693,1.2707366943359375,0.779266357421875,0.4648895263671875
20220118-1316,2022-01-18 13:17:07Z,u01, 151,40,movements,el-ex, rt, d,203546.5200895, 2.01794153821098, -0.7146354353303414, 2.128698889415387, -2.037371873855591, -2.7404935359954834, 2.8019659519195557, 0.6810719966888428, 0.6553421020507812, 0.3266005516052246, 0.3414195775985718, 0.31175994873046875, 0.22579824924468994, -0.7836935784382886, 0.2216408254973078, 0.5009350715734537,0.2928546771674629,1.0337677001953125,0.95880126953125,0.558624267578125
20220118-1316,2022-01-18 13:17:07Z,u01, 152,40,movements,el-ex, rt, d,203546.5450335, 1.9550871538879764, -0.6380776520004112, 2.131351565426384, -0.5521796941757202, -2.498936891555786, 2.718329429626465, 0.7446574568748474, 0.5956524610519409, 0.30113697052001953, 0.32858479022979736, 0.4111223816871643, 0.18984517455101013, -0.7738222179709755, 0.227525080721163, 0.48446654531529637,0.3387088603078269,1.0797882080078125,1.0102691650390625,0.485748291015625
20220118-1316,2022-01-18 13:17:07Z,u01, 153,40,movements,el-ex, rt, d,203546.5699765, 1.8808956686635852, -0.576606537705425, 2.105436197942814, 0.2318219095468521, -2.243614435195923, 2.4763994216918945, 0.7983326315879822, 0.5451822876930237, 0.2558153569698334, 0.24730652570724487, 0.39059340953826904, 0.2138044834136963, -0.7558402508622808, 0.23793526768145729, 0.47938751771110466,0.377200241629109,1.0450286865234375,0.950531005859375,0.472259521484375
20220118-1316,2022-01-18 13:17:07Z,u01, 154,40,movements,el-ex, rt, d,203546.5949205, 1.8147384159350866, -0.5213630717681862, 2.082210031143204, 0.016809944063425064, -2.106168031692505, 2.212641954421997, 0.8414682745933533, 0.4980625808238983, 0.20944054424762726, 0.20731431245803833, 0.3575435280799866, 0.2396714985370636, -0.7371420624834517, 0.24767287652414788, 0.4758826238680566,0.4108718420526629,1.046142578125,0.857757568359375,0.4469757080078125
20220118-1316,2022-01-18 13:17:07Z,u01, 155,40,movements,el-ex, rt, d,203546.6198635, 1.7569512396261153, -0.47028826718832956, 2.070465480134527, -0.014450274407863617, -2.0318238735198975, 1.923011064529419, 0.8760365843772888, 0.45314326882362366, 0.16498875617980957, 0.09365957975387573, 0.46578672528266907, 0.29433131217956543, -0.7196627192200842, 0.2541258507911228, 0.4710207424328586,0.44231796858632694,0.9735870361328125,0.9183349609375,0.4609375
20220118-1316,2022-01-18 13:17:07Z,u01, 156,40,movements,el-ex, rt, d,203546.6448075, 1.7038007051428423, -0.42678493316200533, 2.0603990661200937, 0.12155959755182266, -1.8461989164352417, 1.6343696117401123, 0.9022614359855652, 0.413946270942688, 0.12071739882230759, 0.010870218276977539, 0.45844435691833496, 0.3269908130168915, -0.7023644652408066, 0.25892635849784756, 0.46787925451677925,0.4698194090804984,0.907257080078125,0.8655242919921875,0.4433746337890625
20220118-1316,2022-01-18 13:17:07Z,u01, 157,40,movements,el-ex, rt, d,203546.6697505, 1.65822772581639, -0.38979729991364986, 2.051517119510463, 0.14251847565174103, -1.5197988748550415, 1.3501718044281006, 0.9214529395103455, 0.38000091910362244, 0.08076982945203781, -0.05069488286972046, 0.4294929802417755, 0.46259570121765137, -0.6863898640006363, 0.26316130010046485, 0.4657046466504771,0.4926806675052389,0.8717193603515625,0.8119659423828125,0.5298309326171875
20220118-1316,2022-01-18 13:17:07Z,u01, 158,40,movements,el-ex, rt, d,203546.6946945, 1.6244278744551743, -0.3611214894438344, 2.0530550071166904, -0.4405243992805481, -1.2147769927978516, 0.9057294726371765, 0.9341563582420349, 0.3533236086368561, 0.05014834180474281, -0.08231896162033081, 0.38990145921707153, 0.5306012630462646, -0.6748063625401751, 0.26402754283943064, 0.46190428869601285,0.5114396266389702,0.8465728759765625,0.7303619384765625,0.577056884765625
20220118-1316,2022-01-18 13:17:08Z,u01, 159,40,movements,el-ex, rt, d,203546.7196375, 1.605065017365028, -0.34572514602297694, 2.067425396905478, -0.649061918258667, -0.7415358424186707, 0.2995488941669464, 0.9402777552604675, 0.3388790190219879, 0.03223470598459244, -0.1640019416809082, 0.4235110580921173, 0.516578197479248, -0.6698127957692948, 0.2597463601087397, 0.4565039427684039,0.5248684887538514,0.7801055908203125,0.7485198974609375,0.556549072265625
20220118-1316,2022-01-18 13:17:08Z,u01, 160,40,movements,el-ex, rt, d,203546.7445815417, 1.5963184019458412, -0.3412287878047441, 2.0801961847407404, -0.22257910668849945, -0.2839007079601288, 0.0796167254447937, 0.9420374631881714, 0.33464527130126953, 0.0240479726344347, -0.17758715152740479, 0.4240826964378357, 0.45800769329071045, -0.6685978706639805, 0.254952688859853, 0.4530238040505797,0.5317382946484848,0.7680816650390625,0.752532958984375,0.4795074462890625
20220118-1316,2022-01-18 13:17:08Z,u01, 161,40,movements,el-ex, rt, d,203546.76952454168, 1.5965599592426174, -0.3418519584237538, 2.0814117990360987, 0.03670405596494675, 0.2677050530910492, -0.18018782138824463, 0.9418230056762695, 0.3352324664592743, 0.024270152673125267, -0.1282547116279602, 0.3292419910430908, 0.5287389755249023, -0.6688925927556538, 0.2543968856860427, 0.4528408369587741,0.531789728183374,0.806793212890625,0.6756591796875,0.5475616455078125
20220118-1316,2022-01-18 13:17:08Z,u01, 162,40,movements,el-ex, rt, d,203546.7944685417, 1.610488850013878, -0.35283242629303646, 2.0824990030246515, -0.17067739367485046, 0.8004929423332214, -0.7309871315956116, 0.9376587867736816, 0.3455571234226227, 0.03723759949207306, -0.06905198097229004, 0.26729682087898254, 0.5417267084121704, -0.6740223768225736, 0.2535993606750305, 0.45380431993638376,0.5248266390858621,0.8755645751953125,0.6165924072265625,0.57843017578125
20220118-1316,2022-01-18 13:17:08Z,u01, 163,40,movements,el-ex, rt, d,203546.81941154168, 1.6403496723940771, -0.3769868582270203, 2.0946668788600693, -0.6321391463279724, 1.222676157951355, -1.2001430988311768, 0.92753005027771, 0.36812058091163635, 0.06461704522371292, -0.014535605907440186, 0.279111385345459, 0.4724924564361572, -0.6860158383100954, 0.24837631522026152, 0.4536025862121068,0.51179703871992,0.9144744873046875,0.6480712890625,0.5439300537109375
20220118-1316,2022-01-18 13:17:08Z,u01, 164,40,movements,el-ex, rt, d,203546.8443555417, 1.6842522915953617, -0.40756078022168357, 2.117409367712411, -0.7065597772598267, 1.6054586172103882, -1.3623102903366089, 0.9121878147125244, 0.39637109637260437, 0.10393951088190079, -0.039125680923461914, 0.24082058668136597, 0.353763222694397, -0.7029307062640069, 0.24053726927521463, 0.4511448043746766,0.4944680454673689,0.869140625,0.6408233642578125,0.4469146728515625
20220118-1316,2022-01-18 13:17:08Z,u01, 165,40,movements,el-ex, rt, d,203546.8692985417, 1.7360980718783914, -0.4410552447602023, 2.135786399621199, -0.19805222749710083, 1.9109301567077637, -1.4988633394241333, 0.8919750452041626, 0.426893949508667, 0.14880283176898956, 0.011757373809814453, 0.31924551725387573, 0.2579202651977539, -0.7205399328468053, 0.23499707220810018, 0.45021273965410896,0.4721304612844323,0.8970184326171875,0.7336273193359375,0.4011077880859375
20220118-1316,2022-01-18 13:17:08Z,u01, 166,40,movements,el-ex, rt, d,203546.8942425417, 1.7887544220113796, -0.48076520643877196, 2.1415023815511502, 0.3799533247947693, 2.0748801231384277, -1.7067960500717163, 0.8656644225120544, 0.4624577760696411, 0.19172422587871552, 0.08096045255661011, 0.3514459729194641, 0.23901617527008057, -0.7361195323010469, 0.23235780458127336, 0.4544407797892069,0.4445464924670168,0.951690673828125,0.811859130859375,0.4261932373046875
20220118-1316,2022-01-18 13:17:08Z,u01, 167,40,movements,el-ex, rt, d,203546.9191855417, 1.8419644664033878, -0.5276899654964129, 2.1416091885998942, 0.396862268447876, 2.187716484069824, -1.9123764038085938, 0.8324019312858582, 0.5035389065742493, 0.23142118752002716, 0.13860642910003662, 0.22085678577423096, 0.19991432130336761, -0.7501988146669478, 0.23002680667970016, 0.46225372449134366,0.41305079845640047,0.96929931640625,0.733154296875,0.4329681396484375
20220118-1316,2022-01-18 13:17:08Z,u01, 168,40,movements,el-ex, rt, d,203546.9441295417, 1.9029124935089685, -0.5781088423178584, 2.1497952439926307, 0.3462854325771332, 2.33683443069458, -2.108085870742798, 0.7917320728302002, 0.5464410781860352, 0.27306127548217773, 0.1685492992401123, 0.2004154920578003, 0.18436679244041443, -0.765199147250784, 0.22583380580843238, 0.4688981719704006,0.3789509880826216,0.95672607421875,0.75445556640625,0.468841552734375
20220118-1316,2022-01-18 13:17:08Z,u01, 169,40,movements,el-ex, rt, d,203546.9690725417, 1.9694520107177096, -0.6343558826238137, 2.1614299440233173, 0.5001094341278076, 2.4511866569519043, -2.359239101409912, 0.742293119430542, 0.5926588177680969, 0.31266090273857117, 0.19957107305526733, 0.2802812457084656, 0.22096958756446838, -0.7795887935077388, 0.22039003895883952, 0.4766076187407609,0.3413427552809887,0.9379730224609375,0.865631103515625,0.536865234375
20220118-1316,2022-01-18 13:17:08Z,u01, 170,40,movements,el-ex, rt, d,203546.9940165417, 2.046594671310616, -0.6930695329794712, 2.183781984108348, 0.1959265023469925, 2.618075132369995, -2.5118300914764404, 0.6838417649269104, 0.6389015316963196, 0.35237136483192444, 0.28666311502456665, 0.21310341358184814, 0.2101287841796875, -0.7941989767447408, 0.21315175328269959, 0.4829864354142837,0.30089623648814134,0.97637939453125,0.8383636474609375,0.5679473876953125
20220118-1316,2022-01-18 13:17:08Z,u01, 171,40,movements,el-ex, rt, d,203547.0189595417, 2.1418655343104103, -0.7480782962204973, 2.2271436697418534, -0.2036404311656952, 2.7117769718170166, -2.551980972290039, 0.6166881918907166, 0.6802313923835754, 0.39620864391326904, 0.3792073726654053, 0.18095940351486206, 0.20535403490066528, -0.8103607060303031, 0.20351866339416647, 0.48469859427576234,0.25877228010620146,1.0022735595703125,0.855133056640625,0.6058502197265625
20220118-1316,2022-01-18 13:17:08Z,u01, 172,40,movements,el-ex, rt, d,203547.0439035417, 2.249820771091011, -0.798900024542881, 2.282454162593364, 0.14742770791053772, 2.8529205322265625, -2.651113510131836, 0.5427809953689575, 0.7165892720222473, 0.43805092573165894, 0.36526960134506226, 0.20160824060440063, 0.13313144445419312, -0.8255347652395028, 0.1936951710024159, 0.48447757795938884,0.215072141308124,0.899444580078125,0.9252777099609375,0.57421875
20220118-1316,2022-01-18 13:17:08Z,u01, 173,40,movements,el-ex, rt, d,203547.06884754167, 2.3639797041840676, -0.8557619377778792, 2.3407150500489617, 0.48077479004859924, 2.820082902908325, -2.852530002593994, 0.45998647809028625, 0.755070686340332, 0.4672050178050995, 0.43190497159957886, 0.23043328523635864, 0.14865505695343018, -0.836650880880463, 0.1833515959689685, 0.488050281112811,0.16794154466437125,0.89239501953125,0.9887847900390625,0.61248779296875
20220118-1316,2022-01-18 13:17:08Z,u01, 174,40,movements,el-ex, rt, d,203547.09379054166, 2.4961336815630966, -0.9079050921328394, 2.4208873791574117, -0.07427673041820526, 2.8429808616638184, -2.9687867164611816, 0.3702024221420288, 0.7882162928581238, 0.49159514904022217, 0.48384740948677063, 0.11814069747924805, 0.13206225633621216, -0.8466205013657838, 0.17038572435243393, 0.4896752768250705,0.12008632029215738,0.8448944091796875,0.88873291015625,0.620269775390625
20220118-1316,2022-01-18 13:17:08Z,u01, 175,40,movements,el-ex, rt, d,203547.11873454167, 2.6574171594923186, -0.9421478559967267, 2.532143124897846, -0.2762884199619293, 2.9543886184692383, -2.9624998569488525, 0.2737259566783905, 0.8088229894638062, 0.5204612016677856, 0.43934786319732666, 0.0557858943939209, 0.12080484628677368, -0.8578850994187922, 0.1557682557397384, 0.4844023881125835,0.07158122569077718,0.72247314453125,0.8617095947265625,0.6378021240234375
20220118-1316,2022-01-18 13:17:08Z,u01, 176,40,movements,el-ex, rt, d,203547.14367754167, 2.8268136964491175, -0.9702067917846708, 2.65040484718036, 0.09404784440994263, 2.848267078399658, -2.88592529296875, 0.17496755719184875, 0.8250026106834412, 0.5373615026473999, 0.4965413212776184, 0.1251775026321411, 0.07761359214782715, -0.8652459374524866, 0.14152815343583708, 0.4804289553721721,0.0225248778654063,0.6731719970703125,0.9488677978515625,0.60760498046875
20220118-1316,2022-01-18 13:17:08Z,u01, 177,40,movements,el-ex, rt, d,203547.16862154167, 2.9986957386090674, -0.9894087784785889, 2.7736932811616035, 0.07980668544769287, 2.6471076011657715, -2.814948320388794, 0.07820986956357956, 0.8357014060020447, 0.5435863137245178, 0.5476751923561096, 0.009024977684020996, 0.03223466873168945, -0.8692525196588563, 0.12725251924214126, 0.47706304732426646,-0.02485185929507261,0.63775634765625,0.85028076171875,0.5670013427734375
20220118-1316,2022-01-18 13:17:08Z,u01, 178,40,movements,el-ex, rt, d,203547.19356454167, -3.1083487916342403, -0.9987403687738189, 2.902973951520752, 0.450035959482193, 2.7507259845733643, -2.8426566123962402, -0.017993653193116188, 0.8407897353172302, 0.5410630106925964, 0.524554967880249, 0.02705395221710205, 0.06980752944946289, -0.8705758230119347, 0.11237993591288231, 0.47366595502884246,-0.07147841102035227,0.49871826171875,0.8809814453125,0.6215057373046875
20220118-1316,2022-01-18 13:17:08Z,u01, 179,40,movements,el-ex, rt, d,203547.21850854167, -2.928018169397664, -1.0084932527265211, 3.0343556178009057, 0.9446535706520081, 2.753417491912842, -2.6803643703460693, -0.11300064623355865, 0.84602952003479, 0.5210232138633728, 0.5729769468307495, 0.059900104999542236, 0.14686942100524902, -0.8665404986960807, 0.09807735454886995, 0.4747041467220279,-0.11893045032623095,0.4700775146484375,0.909393310546875,0.669342041015625
20220118-1316,2022-01-18 13:17:08Z,u01, 180,40,movements,el-ex, rt, d,203547.24345154167, -2.7404064827015553, -1.0103354620739584, -3.112141126147465, 0.7795706987380981, 2.957343578338623, -2.870086193084717, -0.20758633315563202, 0.8470101952552795, 0.4893686771392822, 0.4873410761356354, -0.031321167945861816, 0.1624564528465271, -0.8588734211276496, 0.08379012704806366, 0.47676635532859085,-0.16736049756165355,0.256378173828125,0.8145599365234375,0.656982421875
20220118-1316,2022-01-18 13:17:08Z,u01, 181,40,movements,el-ex, rt, d,203547.26839554167, -2.5599220714194613, -0.9843773964528579, -2.9861337190746062, -0.05441656708717346, 2.956127166748047, -2.9097280502319336, -0.3040393888950348, 0.8329277038574219, 0.46237602829933167, 0.44821980595588684, -0.07770919799804688, 0.06647846102714539, -0.8522632121681613, 0.06953729308052986, 0.47096749083962725,-0.2167986409433264,0.1456146240234375,0.7557220458984375,0.5563201904296875
20220118-1316,2022-01-18 13:17:08Z,u01, 182,40,movements,el-ex, rt, d,203547.29333854167, -2.4135325283505016, -0.933490074434011, -2.8959488461247758, -0.544599711894989, 2.801682472229004, -2.8569955825805664, -0.3959484398365021, 0.8037015199661255, 0.4441721737384796, 0.49952515959739685, 0.012536883354187012, -0.03581622242927551, -0.8478582677157473, 0.05676661116801063, 0.45628101149261086,-0.2640485580194417,0.0986785888671875,0.825164794921875,0.3939361572265625
20220118-1316,2022-01-18 13:17:08Z,u01, 183,40,movements,el-ex, rt, d,203547.31828254167, -2.2941276869913705, -0.8724082486446092, -2.8318178843924193, -0.5992881059646606, 2.802938938140869, -2.9012320041656494, -0.48198407888412476, 0.7658796310424805, 0.4255819320678711, 0.37517255544662476, 0.0710650086402893, -0.006026029586791992, -0.8431126719047769, 0.04418124222864406, 0.43801632876298463,-0.30878927142414997,-0.085205078125,0.8294525146484375,0.4002838134765625
20220118-1316,2022-01-18 13:17:08Z,u01, 184,40,movements,el-ex, rt, d,203547.34322554167, -2.1907383826152818, -0.8050695992792907, -2.7841481229116116, -0.6828714609146118, 2.680079698562622, -2.907721757888794, -0.5640910267829895, 0.7208788990974426, 0.4026603102684021, 0.3889200687408447, 0.044486820697784424, -0.119792640209198, -0.8368794156321837, 0.031032213732422098, 0.41762335494133984,-0.3525063182558752,-0.1843109130859375,0.760528564453125,0.285369873046875
20220118-1316,2022-01-18 13:17:08Z,u01, 185,40,movements,el-ex, rt, d,203547.36816954167, -2.1011815162702527, -0.7350967483855412, -2.7520833856606037, -0.8372855186462402, 2.5961015224456787, -2.771282434463501, -0.6398565173149109, 0.6706589460372925, 0.3752339780330658, 0.4186345934867859, 0.07816624641418457, -0.06282544136047363, -0.8290198894818178, 0.018520722698542713, 0.3956701080680481,-0.39475092687886315,-0.219482421875,0.75396728515625,0.34039306640625
20220118-1316,2022-01-18 13:17:08Z,u01, 186,40,movements,el-ex, rt, d,203547.39311254167, -2.0247938176148788, -0.6663613705917834, -2.7345095687583565, -0.8875305652618408, 2.618212938308716, -2.571681261062622, -0.7064474821090698, 0.6181298494338989, 0.3447427749633789, 0.4402884840965271, 0.019595980644226074, -0.05091932415962219, -0.819946432428284, 0.0076966491844815965, 0.3728564975441432,-0.4342887314575323,-0.2705535888671875,0.6312103271484375,0.29925537109375
20220118-1316,2022-01-18 13:17:08Z,u01, 187,40,movements,el-ex, rt, d,203547.41805654168, -1.9536497522576288, -0.6017542337792463, -2.724191355166103, -0.5075188279151917, 2.633261203765869, -2.4099292755126953, -0.764663577079773, 0.5660894513130188, 0.3079492449760437, 0.3659971356391907, -0.04135489463806152, -0.07873153686523438, -0.8086851225595104, -0.001729392679437336, 0.3510155403931661,-0.4720313539750009,-0.386749267578125,0.5292510986328125,0.22674560546875
20220118-1316,2022-01-18 13:17:08Z,u01, 188,40,movements,el-ex, rt, d,203547.44299954167, -1.882795931628087, -0.5425675094981127, -2.712774805935997, -0.47941356897354126, 2.5571517944335938, -2.283501386642456, -0.8150411248207092, 0.5163364410400391, 0.2628782391548157, 0.36109209060668945, -0.03501313924789429, -0.10278284549713135, -0.7945470688221621, -0.011578956928264716, 0.3323289162083093,-0.5080536523224085,-0.4538421630859375,0.4627532958984375,0.13311767578125
20220118-1316,2022-01-18 13:17:08Z,u01, 189,40,movements,el-ex, rt, d,203547.46794354168, -1.8247088776598477, -0.4870613708685459, -2.7160608091095617, -0.9814257621765137, 2.1954939365386963, -1.9407175779342651, -0.8553777933120728, 0.46803101897239685, 0.22198230028152466, 0.3741613030433655, -0.3044567406177521, -0.33526337146759033, -0.781454839665222, -0.01787413767214069, 0.31181649520341037,-0.5401661348557175,-0.47216796875,0.1969146728515625,-0.089630126953125
20220118-1316,2022-01-18 13:17:08Z,u01, 190,40,movements,el-ex, rt, d,203547.49288654167, -1.7838812897581546, -0.44058291934791044, -2.7350576937122195, -1.0912021398544312, 1.7122362852096558, -1.3446263074874878, -0.884046196937561, 0.42646679282188416, 0.191280797123909, 0.3383309841156006, -0.44560131430625916, -0.48106029629707336, -0.7715450783806242, -0.0189365490122147, 0.29025829730190295,-0.5657823807122659,-0.5560150146484375,-0.041900634765625,-0.316619873046875
20220118-1316,2022-01-18 13:17:08Z,u01, 191,40,movements,el-ex, rt, d,203547.51783054168, -1.7555188673962916, -0.4116566580722288, -2.748049923316304, -0.2369605451822281, 0.9713786840438843, -0.6914785504341125, -0.900867760181427, 0.4001281261444092, 0.16832955181598663, 0.2971232533454895, -0.5793578624725342, -0.8447972536087036, -0.7640661428382413, -0.019175711979364574, 0.2764623563782746,-0.5825837567549501,-0.601776123046875,-0.17742919921875,-0.6430511474609375
20220118-1316,2022-01-18 13:17:08Z,u01, 192,40,movements,el-ex, rt, d,203547.54277354167, -1.7381084584609516, -0.4062430887484955, -2.7374183041397435, 0.993155300617218, 0.04830439016222954, 0.16757214069366455, -0.9057843089103699, 0.395160973072052, 0.1529788374900818, 0.33563971519470215, -0.6283916234970093, -1.092721700668335, -0.7589336795964718, -0.02256299703793596, 0.2778352697196172,-0.5884879921479023,-0.56170654296875,-0.24139404296875,-0.9562225341796875
20220118-1316,2022-01-18 13:17:08Z,u01, 193,40,movements,el-ex, rt, d,203547.56771754168, -1.736994120850983, -0.4255870396302029, -2.705131939241617, 1.3904826641082764, -0.9058627486228943, 0.9887307286262512, -0.8982466459274292, 0.4128555357456207, 0.15067648887634277, 0.3898237943649292, -0.6309951543807983, -0.8053698539733887, -0.7579804491131048, -0.02835282079468865, 0.2940915604548807,-0.581525554003692,-0.5009918212890625,-0.2222442626953125,-0.694305419921875
20220118-1316,2022-01-18 13:17:08Z,u01, 194,40,movements,el-ex, rt, d,203547.59266054168, -1.7585557229169164, -0.462603566250273, -2.680912830548753, 0.8715484738349915, -1.6705281734466553, 1.659485101699829, -0.8791660666465759, 0.44627952575683594, 0.16703923046588898, 0.3955385684967041, -0.6502131819725037, -0.522217869758606, -0.7633396526147198, -0.028847682396103136, 0.3136353578751257,-0.5640154744745358,-0.4800262451171875,-0.196136474609375,-0.3451690673828125
20220118-1316,2022-01-18 13:17:08Z,u01, 195,40,movements,el-ex, rt, d,203547.61760454168, -1.803457399126661, -0.5159940987347507, -2.6708197976512333, 0.8246726989746094, -2.2575199604034424, 2.3805675506591797, -0.8463671803474426, 0.4933997690677643, 0.200548455119133, 0.3911362886428833, -0.4984961152076721, -0.5908070802688599, -0.7744324463046957, -0.022991657559314926, 0.3344839315836165,-0.5365132176718614,-0.4589385986328125,-0.025054931640625,-0.393157958984375
20220118-1316,2022-01-18 13:17:08Z,u01, 196,40,movements,el-ex, rt, d,203547.64254754168, -1.8559195540587576, -0.586862100459135, -2.6577115072799358, 1.5219553709030151, -2.439258337020874, 2.832571029663086, -0.7990646958351135, 0.5537508726119995, 0.23421338200569153, 0.37587738037109375, -0.3501070737838745, -0.47017502784729004, -0.7854137465201283, -0.015229426894211862, 0.3622492336931453,-0.501666148894439,-0.4214324951171875,0.2344512939453125,-0.199493408203125
20220118-1316,2022-01-18 13:17:08Z,u01, 197,40,movements,el-ex, rt, d,203547.66749154168, -1.9045606264143307, -0.6699218970466849, -2.634696111010484, 1.7404403686523438, -2.5082194805145264, 3.0585262775421143, -0.7406129837036133, 0.6209247708320618, 0.2567973732948303, 0.33044153451919556, -0.16921883821487427, -0.09300938248634338, -0.7926713199345145, -0.00841839883082679, 0.3965826449223734,-0.46295091433062696,-0.4129791259765625,0.4320526123046875,0.1504974365234375
20220118-1316,2022-01-18 13:17:08Z,u01, 198,40,movements,el-ex, rt, d,203547.69243454168, -1.9663018678030477, -0.7566500954240655, -2.629963566968665, 0.8544020056724548, -2.7088584899902344, 3.343801975250244, -0.6710059642791748, 0.686489462852478, 0.28014859557151794, 0.3894203305244446, -0.12296712398529053, -0.17023935914039612, -0.8000427785407951, 0.0024177905781118114, 0.4277617326028454,-0.4206490223987314,-0.2613983154296875,0.565673828125,0.10302734375
20220118-1316,2022-01-18 13:17:09Z,u01, 199,40,movements,el-ex, rt, d,203547.71737854168, -2.0576111253526013, -0.8396008808711881, -2.662902500095318, 0.6161086559295654, -2.7159583568573, 3.4193012714385986, -0.5901848077774048, 0.7443766593933105, 0.31238695979118347, 0.4440056085586548, -0.10343116521835327, -0.04842495918273926, -0.8098396083507082, 0.01879616982401272, 0.4508826311447011,-0.374848620283229,-0.152374267578125,0.62127685546875,0.2476654052734375
20220118-1316,2022-01-18 13:17:09Z,u01, 200,40,movements,el-ex, rt, d,203547.742322, -2.1437216901172658, -0.9308489151316772, -2.6861657998993564, 2.0044729709625244, -2.6869914531707764, 3.5023064613342285, -0.5017995834350586, 0.8021271824836731, 0.32371267676353455, 0.4108113646507263, 0.04331684112548828, 0.06405922770500183, -0.8129135991432077, 0.03205967534553139, 0.4804460621113801,-0.32759045395016245,-0.080291748046875,0.8814239501953125,0.41009521484375
20220118-1316,2022-01-18 13:17:09Z,u01, 201,40,movements,el-ex, rt, d,203547.767266, -2.235719914081591, -1.0233320756717021, -2.719055656711154, 0.4088508188724518, -2.551516056060791, 3.429981231689453, -0.4096338748931885, 0.8538472056388855, 0.32116299867630005, 0.4900018572807312, 0.1276898980140686, 0.35127678513526917, -0.8115096712659098, 0.04509485903647131, 0.5104842270194749,-0.2807571566849437,0.060150146484375,0.9990997314453125,0.6499176025390625
20220118-1316,2022-01-18 13:17:09Z,u01, 202,40,movements,el-ex, rt, d,203547.79221, -2.440479347572402, -1.0543050002549963, -2.880585269294978, -3.360508441925049, -2.686323881149292, 2.887892246246338, -0.31855589151382446, 0.8695572018623352, 0.37734946608543396, 0.5019055604934692, 0.09823155403137207, 0.4121251106262207, -0.8272618549936193, 0.0656700430923206, 0.5070840497869104,-0.23278986673706434,0.1852874755859375,0.9784698486328125,0.7907867431640625
20220118-1316,2022-01-18 13:17:09Z,u01, 203,40,movements,el-ex, rt, d,203547.817153, -2.677190653668255, -1.022971550971445, -3.078470319473177, -1.8856459856033325, -2.6273999214172363, 2.4818572998046875, -0.23327434062957764, 0.853659451007843, 0.465670108795166, 0.1986827552318573, 0.4782191514968872, 0.1688820719718933, -0.8517469986114008, 0.08580269053121142, 0.48243211138805886,-0.1855376570596391,-0.0023193359375,1.283111572265625,0.67449951171875
20220118-1316,2022-01-18 13:17:09Z,u01, 204,40,movements,el-ex, rt, d,203547.84209700002, -2.828809342061681, -1.0529062002732252, 3.100357120013293, 2.1439647674560547, -2.3569278717041016, 2.459825038909912, -0.15233033895492554, 0.8688656091690063, 0.4710288643836975, 0.0884571522474289, 0.5121311545372009, -0.17140725255012512, -0.8522480211750438, 0.09585274099109053, 0.4934557853322118,-0.14486893169367995,-0.041229248046875,1.3459014892578125,0.2788238525390625
20220118-1316,2022-01-18 13:17:09Z,u01, 205,40,movements,el-ex, rt, d,203547.86704, -2.9866489996326684, -1.1296968281598436, 2.985368041629748, 2.156421422958374, -2.1035544872283936, 3.0356650352478027, -0.06588641554117203, 0.904282808303833, 0.42181989550590515, 0.2663869857788086, -0.34452933073043823, 0.08741188049316406, -0.8363357330670774, 0.10701629681592556, 0.5269535889301556,-0.10681814395470257,0.17584228515625,0.6111907958984375,0.440185546875
20220118-1316,2022-01-18 13:17:09Z,u01, 206,40,movements,el-ex, rt, d,203547.89198400002, 3.0894058095580497, -1.1429659157539855, 2.81151855653904, -1.5479375123977661, -1.908457636833191, 2.8770790100097656, 0.021642399951815605, 0.909868061542511, 0.4143333435058594, 0.3842872381210327, -0.3163011074066162, 0.4357186555862427, -0.8317072677229027, 0.12421630365465475, 0.5369541864154351,-0.06718381126223846,0.44189453125,0.636322021484375,0.86297607421875
20220118-1316,2022-01-18 13:17:09Z,u01, 207,40,movements,el-ex, rt, d,203547.916927, 2.9131380849595865, -1.0812652549047772, 2.6743840226618683, -1.745085597038269, -2.3132410049438477, 2.6540465354919434, 0.1064901202917099, 0.8825534582138062, 0.45799484848976135, 0.5055246949195862, 0.3842769265174866, 0.05393761396408081, -0.8422391876784726, 0.14010913713766904, 0.5200576298705444,-0.02329476855546564,0.61700439453125,1.2065887451171875,0.576263427734375
20220118-1316,2022-01-18 13:17:09Z,u01, 208,40,movements,el-ex, rt, d,203547.94187100002, 2.7549835458501666, -1.044704134996875, 2.5567494432520435, 0.398721307516098, -2.1973068714141846, 2.4792308807373047, 0.18933866918087006, 0.8647760152816772, 0.4650952219963074, 0.2660142183303833, 0.5278784036636353, -0.19855454564094543, -0.8420305616009155, 0.15340189395398218, 0.516835170714255,0.018272307710085423,0.4426422119140625,1.339630126953125,0.257476806640625
20220118-1316,2022-01-18 13:17:09Z,u01, 209,40,movements,el-ex, rt, d,203547.966814, 2.584586514171722, -1.0369628477631516, 2.4213942206059684, 1.1595906019210815, -2.0608906745910645, 2.7633252143859863, 0.26899540424346924, 0.8608627915382385, 0.43192219734191895, 0.14981263875961304, -0.0602799654006958, -0.07276076078414917, -0.8295487206765864, 0.16676337052734685, 0.5300470926268949,0.05557872519251936,0.4146270751953125,0.8262939453125,0.3441009521484375
20220118-1316,2022-01-18 13:17:09Z,u01, 210,40,movements,el-ex, rt, d,203547.99175800002, 2.4076528290815666, -1.0182113420774015, 2.2726988304409983, 1.1773890256881714, -1.9454060792922974, 2.979414701461792, 0.3515709340572357, 0.851170539855957, 0.3897518813610077, 0.18205949664115906, -0.11754339933395386, 0.14238327741622925, -0.8129335314280357, 0.1844315853743998, 0.5445474609994687,0.09269357038589707,0.55645751953125,0.7569580078125,0.564361572265625
20220118-1316,2022-01-18 13:17:09Z,u01, 211,40,movements,el-ex, rt, d,203548.01670100002, 2.262405245197965, -0.9766941421152864, 2.160144880964779, -0.014983306638896465, -2.0941593647003174, 2.836973190307617, 0.4311426877975464, 0.8286513686180115, 0.35700538754463196, 0.4314825236797333, 0.09642785787582397, 0.10086521506309509, -0.7989363928896978, 0.2005076809964949, 0.5515727450881728,0.13139566560979854,0.8454742431640625,0.918060302734375,0.4795379638671875
20220118-1316,2022-01-18 13:17:09Z,u01, 212,40,movements,el-ex, rt, d,203548.04164500002, 2.1645903840541423, -0.9158184650836914, 2.1042920135651415, -0.5576474666595459, -2.0892066955566406, 2.6499176025390625, 0.5048715472221375, 0.7930614352226257, 0.34082093834877014, 0.3702964186668396, 0.1853017807006836, 0.040008097887039185, -0.7907432325870334, 0.21245141365707032, 0.5477007466156021,0.1720861792093353,0.867156982421875,0.98455810546875,0.377593994140625
20220118-1316,2022-01-18 13:17:09Z,u01, 213,40,movements,el-ex, rt, d,203548.06658800002, 2.079839087374922, -0.8556559978832029, 2.060129002105538, 0.02072865143418312, -1.9513574838638306, 2.639596700668335, 0.5725851655006409, 0.7550012469291687, 0.31956130266189575, 0.2593240737915039, 0.15436148643493652, 0.06970569491386414, -0.7808251453430624, 0.22381407828759559, 0.5438751269514739,0.21075867774711257,0.8285675048828125,0.926544189453125,0.3798370361328125
20220118-1316,2022-01-18 13:17:09Z,u01, 214,40,movements,el-ex, rt, d,203548.09153200002, 1.9906641477880918, -0.7992777705616801, 2.0061807936588547, 0.44211545586586, -2.016387701034546, 2.6806716918945312, 0.6366657614707947, 0.7168527245521545, 0.2842165231704712, 0.2385479211807251, 0.12822479009628296, 0.10915517807006836, -0.7654613027966031, 0.237017424458128, 0.5447865577144839,0.24718295488266892,0.878387451171875,0.84344482421875,0.3821563720703125
20220118-1316,2022-01-18 13:17:09Z,u01, 215,40,movements,el-ex, rt, d,203548.11647500002, 1.9128954188024618, -0.7399683210442266, 1.965445603187407, -0.11889592558145523, -1.9531364440917969, 2.590777635574341, 0.6956965923309326, 0.6742644906044006, 0.2477378398180008, 0.2438787817955017, 0.09982913732528687, 0.11887004971504211, -0.7495036888182318, 0.2492250749349244, 0.5439834920491365,0.283219396270559,0.9308624267578125,0.7821197509765625,0.3704986572265625
20220118-1316,2022-01-18 13:17:09Z,u01, 216,40,movements,el-ex, rt, d,203548.14141900002, 1.8551095847282275, -0.677453837036831, 1.952016102243706, -0.5880446434020996, -1.9547457695007324, 2.4214532375335693, 0.7478911876678467, 0.626811146736145, 0.21855629980564117, 0.23652970790863037, 0.1382949948310852, 0.11327672004699707, -0.7367607402896379, 0.2578017845818796, 0.5372074690155652,0.3195780516100063,0.9854278564453125,0.77386474609375,0.332305908203125
20220118-1316,2022-01-18 13:17:09Z,u01, 217,40,movements,el-ex, rt, d,203548.16636200002, 1.8059679263471122, -0.6175185238270519, 1.9496896775108743, -0.37723270058631897, -1.8500372171401978, 2.225877285003662, 0.7928757071495056, 0.5790137648582458, 0.18997710943222046, 0.21067965030670166, 0.2646141052246094, 0.11693821847438812, -0.7247215414786873, 0.2641348888573174, 0.5286235160541221,0.3543567189421946,1.0081024169921875,0.843109130859375,0.2977294921875
20220118-1316,2022-01-18 13:17:09Z,u01, 218,40,movements,el-ex, rt, d,203548.19130600002, 1.7573680103163978, -0.5656754741421461, 1.9425673545383986, -0.047448039054870605, -1.683077096939087, 1.9394162893295288, 0.8295760750770569, 0.5359861850738525, 0.15659663081169128, 0.13412338495254517, 0.3095947504043579, 0.22000561654567719, -0.7108731533090814, 0.27010677890487045, 0.5231662454793756,0.3847061642027103,0.9590606689453125,0.83984375,0.381256103515625
20220118-1316,2022-01-18 13:17:09Z,u01, 219,40,movements,el-ex, rt, d,203548.21624900002, 1.7119508627550462, -0.519556726382393, 1.931404821109447, 0.1889246106147766, -1.4037203788757324, 1.7909334897994995, 0.8594061136245728, 0.49649539589881897, 0.12212122231721878, 0.011199474334716797, 0.30085256695747375, 0.17565417289733887, -0.6960576731581977, 0.2767025984286067, 0.5198986826522682,0.4106638828976671,0.876617431640625,0.8014678955078125,0.293792724609375
20220118-1316,2022-01-18 13:17:09Z,u01, 220,40,movements,el-ex, rt, d,203548.24119300002, 1.6756564398194498, -0.4781979714172871, 1.9206480264658654, 0.10080774128437042, -1.1305683851242065, 1.5718333721160889, 0.8829491138458252, 0.46018004417419434, 0.092926986515522, -0.0048667192459106445, 0.3026067912578583, 0.22297585010528564, -0.6824664771225115, 0.2840827389657831, 0.5168579903973772,0.4317341986659162,0.8794097900390625,0.7589569091796875,0.314666748046875
20220118-1316,2022-01-18 13:17:09Z,u01, 221,40,movements,el-ex, rt, d,203548.26613600002, 1.6474593062902072, -0.4433284080676069, 1.9152837487997145, 0.08519625663757324, -0.9775549173355103, 1.2376677989959717, 0.9006759524345398, 0.4289484918117523, 0.0691840872168541, -0.03492254018783569, 0.3411625921726227, 0.27720582485198975, -0.6713190693807815, 0.28969423964067087, 0.5133652218476851,0.4492930950041832,0.8640594482421875,0.7633514404296875,0.3452301025390625
20220118-1316,2022-01-18 13:17:09Z,u01, 222,40,movements,el-ex, rt, d,203548.29108000002, 1.6209218303904234, -0.41732238825178947, 1.9071314099928658, 0.3182912766933441, -0.8628739714622498, 0.8481870293617249, 0.9130293130874634, 0.4053140878677368, 0.04580442234873772, -0.052998125553131104, 0.42087292671203613, 0.32541143894195557, -0.6607136576802237, 0.2938701642726766, 0.5126279987347031,0.4629366581878757,0.859039306640625,0.83026123046875,0.379974365234375
20220118-1316,2022-01-18 13:17:09Z,u01, 223,40,movements,el-ex, rt, d,203548.31602300002, 1.6007901264571285, -0.401771023616312, 1.9058187120798311, -0.3839717209339142, -0.6553288698196411, 0.3917258679866791, 0.9199560880661011, 0.39104893803596497, 0.02760125696659088, -0.10092520713806152, 0.39424458146095276, 0.42714130878448486, -0.6536841149493314, 0.29410492392089116, 0.5120528095007684,0.47328793401658303,0.8254852294921875,0.789154052734375,0.4472198486328125
20220118-1316,2022-01-18 13:17:09Z,u01, 224,40,movements,el-ex, rt, d,203548.34096700003, 1.5968837680765335, -0.39782721012863836, 1.9229714294162423, -0.6940837502479553, -0.15369810163974762, -0.0816497951745987, 0.9215914011001587, 0.38741615414619446, 0.02404741756618023, -0.15608835220336914, 0.43657365441322327, 0.4375615119934082, -0.6547063530814572, 0.2887616657583957, 0.5075586084220813,0.4799590305768467,0.760833740234375,0.8355865478515625,0.460113525390625
20220118-1316,2022-01-18 13:17:09Z,u01, 225,40,movements,el-ex, rt, d,203548.36591000002, 1.6061684074221023, -0.406926503350904, 1.9376804180064646, -0.4398684501647949, 0.42876458168029785, -0.7149097919464111, 0.917767345905304, 0.39578866958618164, 0.03247688710689545, -0.1424986720085144, 0.5719694495201111, 0.4827820062637329, -0.6602645574310939, 0.2833534141974269, 0.5049776460986335,0.47828787038872195,0.7715301513671875,0.9647979736328125,0.5105438232421875
20220118-1316,2022-01-18 13:17:09Z,u01, 226,40,movements,el-ex, rt, d,203548.39085400003, 1.629771943241541, -0.43221936043355164, 1.953193140531633, -0.6408957839012146, 0.9374082088470459, -1.330320119857788, 0.9064598083496094, 0.41888710856437683, 0.053521089255809784, -0.11022555828094482, 0.5144777297973633, 0.4583045244216919, -0.6712490876505008, 0.2760166797209827, 0.5043806033856968,0.4678031473151439,0.8001556396484375,0.9292449951171875,0.5075225830078125
20220118-1316,2022-01-18 13:17:09Z,u01, 227,40,movements,el-ex, rt, d,203548.41579700002, 1.6682276333821415, -0.4686908775998402, 1.9741775667923342, -0.544951856136322, 1.3777586221694946, -1.6571869850158691, 0.8879291415214539, 0.4517187178134918, 0.08678688853979111, -0.08395886421203613, 0.47798389196395874, 0.3431600332260132, -0.6871434031076828, 0.2668845971344906, 0.5036591440437618,0.4504819563478305,0.8023223876953125,0.9278106689453125,0.4368743896484375
20220118-1316,2022-01-18 13:17:09Z,u01, 228,40,movements,el-ex, rt, d,203548.440741, 1.713243525266329, -0.5117066350913756, 1.9894742614849492, -0.09527142345905304, 1.6250615119934082, -1.9025068283081055, 0.8630791902542114, 0.4896659851074219, 0.12378156930208206, -0.039211273193359375, 0.47456738352775574, 0.2933328151702881, -0.703352109264672, 0.259203771335799, 0.505543957735464,0.42724074813383234,0.8270111083984375,0.9672088623046875,0.4194488525390625
20220118-1316,2022-01-18 13:17:09Z,u01, 229,40,movements,el-ex, rt, d,203548.46568400002, 1.7604307456118493, -0.5622169413831074, 1.9981075132769157, 0.11768438667058945, 1.8130580186843872, -2.2036855220794678, 0.8309081792831421, 0.5330632328987122, 0.15948516130447388, 0.02453017234802246, 0.39432018995285034, 0.3468930721282959, -0.7184487275248359, 0.25213885639166084, 0.5109878511761815,0.39893481679015386,0.8524322509765625,0.929840087890625,0.498199462890625
20220118-1316,2022-01-18 13:17:09Z,u01, 230,40,movements,el-ex, rt, d,203548.490628, 1.8157421508365663, -0.6200283511076753, 2.010477653352441, 0.18885578215122223, 2.0795400142669678, -2.4880480766296387, 0.7895686030387878, 0.5810582637786865, 0.19736459851264954, 0.13589221239089966, 0.3270685076713562, 0.3369220197200775, -0.7343543859989392, 0.24373332623012856, 0.5170913204163055,0.36597031337316055,0.9336090087890625,0.90509033203125,0.5320281982421875
20220118-1316,2022-01-18 13:17:09Z,u01, 231,40,movements,el-ex, rt, d,203548.51557100003, 1.8749595528016432, -0.6860064317396755, 2.016491671789166, 0.8947787284851074, 2.312993288040161, -2.7026240825653076, 0.7382639050483704, 0.6334521174430847, 0.23174381256103516, 0.2661154866218567, 0.3489697575569153, 0.3391791582107544, -0.7482900999009607, 0.23650334905182402, 0.5265768796749508,0.32687156765435676,0.997222900390625,0.97576904296875,0.5643157958984375
20220118-1316,2022-01-18 13:17:09Z,u01, 232,40,movements,el-ex, rt, d,203548.540515, 1.9350886940193475, -0.7588924262531737, 2.019823869082472, 0.6435785889625549, 2.254531145095825, -2.8974857330322266, 0.6779822111129761, 0.6881182193756104, 0.25852230191230774, 0.371959924697876, 0.23865485191345215, 0.3618544340133667, -0.7595035211980363, 0.2289444148592628, 0.5386066274227177,0.28397514487190817,1.0543365478515625,0.918304443359375,0.60772705078125
20220118-1316,2022-01-18 13:17:09Z,u01, 233,40,movements,el-ex, rt, d,203548.56545800003, 2.0162924429407303, -0.8292691709940093, 2.0523230067316045, 0.021269407123327255, 2.456409454345703, -3.011171817779541, 0.6094924211502075, 0.7374379634857178, 0.2910400927066803, 0.43057721853256226, 0.18649691343307495, 0.21030279994010925, -0.7734993223725846, 0.21729898431006817, 0.5444058956207646,0.2410439877224419,1.0475006103515625,0.9163818359375,0.50250244140625
20220118-1316,2022-01-18 13:17:09Z,u01, 234,40,movements,el-ex, rt, d,203548.590402, 2.1227513377423413, -0.8988661886068494, 2.1081758583501564, 0.14553682506084442, 2.6033620834350586, -3.292402505874634, 0.5300578474998474, 0.7826216220855713, 0.3264087438583374, 0.4680960178375244, 0.29117000102996826, 0.18213632702827454, -0.7883434992548781, 0.2042520646389392, 0.5467696705798883,0.19452193323789915,0.994598388671875,1.0923614501953125,0.501922607421875
20220118-1316,2022-01-18 13:17:09Z,u01, 235,40,movements,el-ex, rt, d,203548.615345, 2.2510194432240955, -0.9700324715899369, 2.185385377465207, 0.14741912484169006, 2.677175998687744, -3.4976577758789062, 0.43946143984794617, 0.8249040842056274, 0.35553768277168274, 0.4487222731113434, 0.24177676439285278, 0.1321180760860443, -0.8012674317039421, 0.18904854260430687, 0.5488953294804365,0.14472429150262486,0.899444580078125,1.07586669921875,0.49090576171875
20220118-1316,2022-01-18 13:17:09Z,u01, 236,40,movements,el-ex, rt, d,203548.640289, 2.4124677336097133, -1.035978742453835, 2.296803348487258, -0.0188802108168602, 2.743450880050659, -3.6296465396881104, 0.3395603895187378, 0.860361635684967, 0.38010087609291077, 0.44443628191947937, 0.16501367092132568, 0.1181444525718689, -0.8127457228996242, 0.17174056968736529, 0.5489247478217956,0.09290426857046633,0.772430419921875,1.01806640625,0.505340576171875
20220118-1316,2022-01-18 13:17:09Z,u01, 237,40,movements,el-ex, rt, d,203548.665232, 2.6238952919376306, -1.0848444303465539, 2.4586759840619323, -0.4432913064956665, 2.85115909576416, -3.7705955505371094, 0.23113450407981873, 0.8842307925224304, 0.4058491885662079, 0.4989224076271057, 0.15103256702423096, 0.09714183211326599, -0.8243762593229997, 0.15273630046745873, 0.5436155499369675,0.039469139974548095,0.7241668701171875,1.0253143310546875,0.510650634765625
20220118-1316,2022-01-18 13:17:09Z,u01, 238,40,movements,el-ex, rt, d,203548.690176, 2.8751050555316624, -1.1085819071524332, 2.6614185787469586, -0.5074635744094849, 2.820462465286255, -3.7795724868774414, 0.11743366718292236, 0.8950672149658203, 0.43019089102745056, 0.6461924910545349, 0.19390684366226196, 0.0265505313873291, -0.8351923333498098, 0.13247346382969716, 0.5335722085279389,-0.014328825350531649,0.7599334716796875,1.0854644775390625,0.4521636962890625
20220118-1316,2022-01-18 13:17:10Z,u01, 239,40,movements,el-ex, rt, d,203548.715119, 3.13649089294922, -1.1128388282491182, 2.8733242961004266, -0.24182207882404327, 2.9084346294403076, -3.7566239833831787, 0.0022555654868483543, 0.8969573974609375, 0.4421112835407257, 0.6143369078636169, 0.12452685832977295, 0.08187571167945862, -0.8417015653443372, 0.11222350894784816, 0.5236929896627927,-0.0684837530677102,0.630096435546875,1.0275421142578125,0.518798828125
20220118-1316,2022-01-18 13:17:10Z,u01, 240,40,movements,el-ex, rt, d,203548.740062875, -2.8922193271044767, -1.0923576541387112, 3.0767768679897674, -0.6109777092933655, 2.917722702026367, -3.702852725982666, -0.11362382024526596, 0.8877148032188416, 0.44615310430526733, 0.6659462451934814, 0.03647971153259277, 0.10258370637893677, -0.8453435524245336, 0.09203714371918292, 0.5116791495587003,-0.12291499341443313,0.54742431640625,0.9102020263671875,0.5456085205078125
20220118-1316,2022-01-18 13:17:10Z,u01, 241,40,movements,el-ex, rt, d,203548.765005875, -2.6819465896515116, -1.0406082902166496, -3.048906684236552, -0.9884504079818726, 2.8635973930358887, -3.4723517894744873, -0.2243422567844391, 0.862712025642395, 0.4532093405723572, 0.6584243774414062, -0.016245901584625244, -0.0029680728912353516, -0.8491937036094284, 0.07399136339126183, 0.4927096102992785,-0.17502177123853807,0.45208740234375,0.85223388671875,0.459014892578125
20220118-1316,2022-01-18 13:17:10Z,u01, 242,40,movements,el-ex, rt, d,203548.789949875, -2.511101148898009, -0.977740162297792, -2.933054030573939, -0.7546197175979614, 2.8933231830596924, -3.3742868900299072, -0.329493910074234, 0.8292364478111267, 0.45144325494766235, 0.6283373236656189, 0.037844300270080566, 0.05934476852416992, -0.8499531367193756, 0.05745693356668152, 0.47255062956682325,-0.22577510723188152,0.288818359375,0.8609466552734375,0.5130157470703125
20220118-1316,2022-01-18 13:17:10Z,u01, 243,40,movements,el-ex, rt, d,203548.814892875, -2.371848161720191, -0.9101950910232821, -2.8488865404002564, -0.8640000224113464, 2.8408632278442383, -3.1258389949798584, -0.42703020572662354, 0.7896234393119812, 0.44061312079429626, 0.5848672389984131, -0.08260756731033325, -0.007019251585006714, -0.8476760779313609, 0.04185481900969962, 0.45221832174752963,-0.2742116057224077,0.1734771728515625,0.714019775390625,0.435699462890625
20220118-1316,2022-01-18 13:17:10Z,u01, 244,40,movements,el-ex, rt, d,203548.839836875, -2.2629825122966207, -0.8361648878984893, -2.7998933403492132, -1.3055108785629272, 2.902479887008667, -2.9310288429260254, -0.5160428285598755, 0.7420778274536133, 0.42780888080596924, 0.5641385912895203, -0.049389779567718506, 0.06952095031738281, -0.8444120044440606, 0.029543307247934636, 0.4281902466183439,-0.3205444525049104,0.0398101806640625,0.69049072265625,0.4961395263671875
20220118-1316,2022-01-18 13:17:10Z,u01, 245,40,movements,el-ex, rt, d,203548.864779875, -2.173251156813794, -0.757640447046209, -2.778558674362769, -1.4176429510116577, 2.979904890060425, -2.81199312210083, -0.5985641479492188, 0.6872092485427856, 0.41166049242019653, 0.540412962436676, 0.0852820873260498, 0.04656115174293518, -0.8398777668232003, 0.020870549432207564, 0.400010771164378,-0.3662800932659358,-0.057220458984375,0.7754974365234375,0.496734619140625
20220118-1316,2022-01-18 13:17:10Z,u01, 246,40,movements,el-ex, rt, d,203548.889723875, -2.085839030172261, -0.6862848851624318, -2.760826023669414, -0.6319848895072937, 3.0823450088500977, -2.6391024589538574, -0.6732470393180847, 0.633667528629303, 0.38105645775794983, 0.4981067180633545, 0.07533210515975952, -0.013060122728347778, -0.8308868440003405, 0.012460978835551362, 0.3751596810014663,-0.41076395299778823,-0.18438720703125,0.7139434814453125,0.36962890625
20220118-1316,2022-01-18 13:17:10Z,u01, 247,40,movements,el-ex, rt, d,203548.914666875, -1.9970691461862975, -0.6235429106981121, -2.7372296182272393, -0.35380104184150696, 2.8687098026275635, -2.6253981590270996, -0.7391682267189026, 0.5839149951934814, 0.33566927909851074, 0.4269123673439026, 0.10146403312683105, -0.04807141423225403, -0.8172089195785817, 0.0020538385870308984, 0.3561229033705727,-0.4531467007140163,-0.2946319580078125,0.6988372802734375,0.278961181640625
20220118-1316,2022-01-18 13:17:10Z,u01, 248,40,movements,el-ex, rt, d,203548.939610875, -1.9178900122673816, -0.5566763751887566, -2.724654293202018, -0.9144695401191711, 2.894625663757324, -2.673250913619995, -0.7983853220939636, 0.5283673405647278, 0.28880661725997925, 0.3764033317565918, 0.020430386066436768, -0.050982922315597534, -0.8027023882071103, -0.008496577015978668, 0.33434437269222617,-0.49377188845130554,-0.4376373291015625,0.529144287109375,0.248077392578125
20220118-1316,2022-01-18 13:17:10Z,u01, 249,40,movements,el-ex, rt, d,203548.964553875, -1.8485833864740953, -0.4867903054284045, -2.7291185960992963, -1.0733215808868408, 2.7484543323516846, -2.487574338912964, -0.8499565720558167, 0.46779143810272217, 0.2423735409975052, 0.3740808367729187, -0.11030861735343933, -0.22590915858745575, -0.7879805900897343, -0.016533683568582036, 0.30801001569345093,-0.5328630472367434,-0.478057861328125,0.3713836669921875,0.0687255859375
20220118-1316,2022-01-18 13:17:10Z,u01, 250,40,movements,el-ex, rt, d,203548.989497875, -1.7875039059562943, -0.4258303798698748, -2.7391216312316646, -0.7654093503952026, 2.4581339359283447, -1.9985135793685913, -0.8893957138061523, 0.41307714581489563, 0.19581370055675507, 0.396017849445343, -0.23821130394935608, -0.456158846616745, -0.7729151516128968, -0.02256150156539488, 0.28377303825209166,-0.5670680643147452,-0.4946746826171875,0.1474761962890625,-0.2982330322265625
20220118-1316,2022-01-18 13:17:10Z,u01, 251,40,movements,el-ex, rt, d,203549.014440875, -1.736086442078181, -0.38359065276565324, -2.7459109538852706, -0.39243751764297485, 1.860472321510315, -1.139105200767517, -0.9146881103515625, 0.374252587556839, 0.15258099138736725, 0.3727416396141052, -0.6701814532279968, -0.778221607208252, -0.7586776557874262, -0.026433093096043858, 0.2673262114073413,-0.5935034408383751,-0.53814697265625,-0.2410125732421875,-0.621917724609375
20220118-1316,2022-01-18 13:17:10Z,u01, 252,40,movements,el-ex, rt, d,203549.039384875, -1.697961310299125, -0.3683688914337788, -2.7461354139584975, 0.23314212262630463, 1.0501315593719482, -0.12405217438936234, -0.9253832101821899, 0.36009421944618225, 0.11831478029489517, 0.39518600702285767, -0.9951039552688599, -0.7680186033248901, -0.7473055374117188, -0.026302549889742288, 0.26239512401895676,-0.6099110921777083,-0.5243682861328125,-0.6476593017578125,-0.6549072265625
20220118-1316,2022-01-18 13:17:10Z,u01, 253,40,movements,el-ex, rt, d,203549.064327875, -1.6834853289135745, -0.37631197983531967, -2.734376731091009, 0.8825543522834778, -0.18264727294445038, 0.6861477494239807, -0.924127459526062, 0.36749303340911865, 0.10458206385374069, 0.460504412651062, -0.6176761388778687, -0.9433422088623047, -0.7427039533943218, -0.026112665532209978, 0.26894330421653945,-0.6126814166105874,-0.462493896484375,-0.2940216064453125,-0.824951171875
20220118-1316,2022-01-18 13:17:10Z,u01, 254,40,movements,el-ex, rt, d,203549.089271875, -1.685284016503296, -0.40483323769601476, -2.7012526380721957, 1.609108805656433, -0.839044988155365, 1.234985113143921, -0.9131508469581604, 0.3938654959201813, 0.1050037071108818, 0.3432044982910156, -0.4245814085006714, -0.8107987642288208, -0.7427339022786184, -0.02912394998914697, 0.2888060958622367,-0.6033981296655322,-0.5826873779296875,-0.01568603515625,-0.6614227294921875
