SessionID,LoggingTime,UID,RecNo,Hertz,Activity,MoveType,Wrist,Side,TimeStamp,DMRoll,DMPitch,DMYaw,DMRotX,DMRotY,DMRotZ,DMGrvX,DMGrvY,DMGrvZ,DMUAccelX,DMUAccelY,DMUAccelZ,DMQuatX,DMQuatY,DMQuatW,DMQuatZ,AccelroX,AceelroY,AceelroZ
20220118-1319,2022-01-18 13:19:31Z,u01, 1,40,movements,el-ex, rt, d,203689.8215679167, -2.2704299518473197, -0.8583643766029169, -2.721905590664498, -0.35237765312194824, 2.314295530319214, -2.6584644317626953, -0.5001132488250732, 0.7567744255065918, 0.4209264814853668, 0.4125126004219055, 0.022781789302825928, 0.00923389196395874, -0.842889814134538, 0.0, 0.44891656950788456,-0.29666586785140125,-0.071563720703125,0.7849884033203125,0.375
20220118-1319,2022-01-18 13:19:31Z,u01, 2,40,movements,el-ex, rt, d,203689.8465109167, -2.186150437019711, -0.7953189479619118, -2.6834185697328317, -1.0106744766235352, 2.0734570026397705, -2.4938533306121826, -0.5716450214385986, 0.7140869498252869, 0.40410637855529785, 0.45595288276672363, -0.05896604061126709, 0.02112555503845215, -0.8377923792423281, -0.012534464481081531, 0.43117947496913445,-0.33471048651952323,-0.115692138671875,0.655120849609375,0.42523193359375
20220118-1319,2022-01-18 13:19:31Z,u01, 3,40,movements,el-ex, rt, d,203689.87145391668, -2.116493977790444, -0.7326705693615847, -2.6617462475509175, -0.4290463924407959, 2.3494973182678223, -2.4282193183898926, -0.6354245543479919, 0.6688572764396667, 0.38583052158355713, 0.700259268283844, -0.0405614972114563, 0.08302611112594604, -0.8321051238377286, -0.0227226655451242, 0.412025940848905,-0.37056608753053805,-0.6084442138671875,0.6464080810546875,0.5983123779296875
20220118-1319,2022-01-18 13:19:31Z,u01, 4,40,movements,el-ex, rt, d,203689.89639741668, -2.032653334290871, -0.691586936413002, -2.614066877060642, 1.3004333972930908, 2.4152474403381348, -2.1208748817443848, -0.6895349025726318, 0.6377602815628052, 0.34322547912597656, 0.30829399824142456, 0.2831229567527771, -0.030054181814193726, -0.8187174923693541, -0.036254825175560335, 0.407336284896468,-0.4030688980792653,-0.3812408447265625,0.9208831787109375,0.31317138671875
20220118-1319,2022-01-18 13:19:31Z,u01, 5,40,movements,el-ex, rt, d,203689.92134041668, -1.921165879374025, -0.6562034680027572, -2.5422020668369867, 0.8581634163856506, 2.845813035964966, -2.2619409561157227, -0.7441778779029846, 0.6101132035255432, 0.2719578146934509, 0.1388922929763794, -0.2305813431739807, 0.27123960852622986, -0.7957455376254351, -0.05261134633478581, 0.41247205854547675,-0.44032697717751035,-0.5971832275390625,0.4932098388671875,0.493499755859375
20220118-1319,2022-01-18 13:19:31Z,u01, 6,40,movements,el-ex, rt, d,203689.94628341668, -1.8482203036368492, -0.6054749528542391, -2.527417703137279, -1.2416552305221558, 2.3612122535705566, -1.938350796699524, -0.7907931804656982, 0.5691526532173157, 0.2251920849084854, 0.24964022636413574, -0.5116117000579834, 0.08353888988494873, -0.7804550842237484, -0.059041568529918265, 0.4006618747245857,-0.4763129940050214,-0.5411529541015625,0.0575408935546875,0.3087310791015625
20220118-1319,2022-01-18 13:19:31Z,u01, 7,40,movements,el-ex, rt, d,203689.97122741668, -1.8174992432301194, -0.5485709658168049, -2.5679102741038333, -1.9503653049468994, 1.882196068763733, -1.7688161134719849, -0.8274358510971069, 0.5214684009552002, 0.2083754986524582, 0.22642284631729126, -0.1135399341583252, -0.47114720940589905, -0.7753392184245065, -0.05510759807431426, 0.372328726834727,-0.5071326016171582,-0.5924224853515625,0.3609619140625,-0.1667022705078125
20220118-1319,2022-01-18 13:19:31Z,u01, 8,40,movements,el-ex, rt, d,203689.99617041668, -1.7865285346332074, -0.5027619675545352, -2.589513072614243, -0.22775252163410187, 1.4421042203903198, -1.4010006189346313, -0.8559433221817017, 0.4818475544452667, 0.18757352232933044, 0.21891945600509644, -0.09792116284370422, -0.7089512348175049, -0.7685636702507346, -0.05564750326879814, 0.35194590529577796,-0.5313635696863092,-0.63702392578125,0.3839263916015625,-0.5213775634765625
20220118-1319,2022-01-18 13:19:31Z,u01, 9,40,movements,el-ex, rt, d,203690.02111341667, -1.7524076998764642, -0.47820970382383854, -2.5781928532112484, 0.2437988519668579, 0.8284431099891663, -0.6012539267539978, -0.8732191920280457, 0.46019044518470764, 0.1603533923625946, 0.30763691663742065, -0.7047430276870728, -0.7515246868133545, -0.7591746514606252, -0.06189138998641058, 0.34766104922414864,-0.5467679674340475,-0.587005615234375,-0.12982177734375,-0.60052490234375
20220118-1319,2022-01-18 13:19:31Z,u01, 10,40,movements,el-ex, rt, d,203690.04605741668, -1.7410782984216944, -0.4759439730446536, -2.576976357421454, -0.18553650379180908, -0.02410263381898403, 0.3532227575778961, -0.8760050535202026, 0.45817771553993225, 0.150626540184021, 0.39504802227020264, -1.0362569093704224, -0.712409496307373, -0.7560275919122186, -0.06111915374389765, 0.34758078717263813,-0.5512479743742955,-0.48095703125,-0.5780792236328125,-0.5617828369140625
20220118-1319,2022-01-18 13:19:31Z,u01, 11,40,movements,el-ex, rt, d,203690.07100041668, -1.7579902324819887, -0.49354965357479547, -2.587125400988978, -0.10949286818504333, -0.8894930481910706, 1.1089130640029907, -0.865272045135498, 0.4737548828125, 0.1638924926519394, 0.45934247970581055, -0.5756377577781677, -0.6335581541061401, -0.7609042395890204, -0.054506722698420995, 0.3502430450083436,-0.5434920694502345,-0.394012451171875,-0.1839447021484375,-0.5037078857421875
20220118-1319,2022-01-18 13:19:31Z,u01, 12,40,movements,el-ex, rt, d,203690.09594341667, -1.7923552408610235, -0.5263511717093965, -2.596155728271998, -0.060110971331596375, -1.4888678789138794, 1.5774966478347778, -0.843510627746582, 0.5023817420005798, 0.1900065541267395, 0.38467884063720703, -0.36415231227874756, -0.48320436477661133, -0.7699543166543276, -0.0466221780331571, 0.3580965970181784,-0.5260832435572135,-0.458831787109375,0.1382293701171875,-0.2931976318359375
20220118-1319,2022-01-18 13:19:31Z,u01, 13,40,movements,el-ex, rt, d,203690.12088741668, -1.8395987202900796, -0.5694989500356433, -2.6069019573927448, 0.2981971800327301, -1.8103892803192139, 1.9186902046203613, -0.8119285702705383, 0.5392101407051086, 0.22366134822368622, 0.2906273603439331, -0.24494433403015137, -0.3276042938232422, -0.781296684884166, -0.03749881836221436, 0.3691621590179504,-0.5018850877754157,-0.5077362060546875,0.2536163330078125,-0.1395416259765625
20220118-1319,2022-01-18 13:19:31Z,u01, 14,40,movements,el-ex, rt, d,203690.14583041667, -1.8867047546905333, -0.6238743555171676, -2.60787536138556, 0.8355897068977356, -1.8898495435714722, 2.3027358055114746, -0.7714575529098511, 0.5841840505599976, 0.25215446949005127, 0.22862625122070312, -0.16775649785995483, -0.3256409764289856, -0.7907049714443881, -0.029374882574459804, 0.3869959466187991,-0.47345196154062913,-0.5428314208984375,0.4164276123046875,-0.073486328125
20220118-1319,2022-01-18 13:19:31Z,u01, 15,40,movements,el-ex, rt, d,203690.17077441668, -1.9325013855896571, -0.6900371449953385, -2.604196588399158, 0.9007459878921509, -1.9705942869186401, 2.590858221054077, -0.7213202118873596, 0.6365658044815063, 0.27291202545166016, 0.2462989091873169, -0.22499048709869385, -0.1492091715335846, -0.7975258409326096, -0.0202126023561785, 0.41028558454257313,-0.44182539295253515,-0.491302490234375,0.3790740966796875,0.0689239501953125
20220118-1319,2022-01-18 13:19:31Z,u01, 16,40,movements,el-ex, rt, d,203690.19571741667, -1.998099958607495, -0.754858865734185, -2.625326830174967, -0.186374694108963, -2.1853907108306885, 2.685285806655884, -0.6628783345222473, 0.6851858496665955, 0.3018493056297302, 0.25993943214416504, -0.1667073369026184, -0.03376767039299011, -0.8067706930004168, -0.006759761584891721, 0.4280593680685888,-0.4072353892771573,-0.4029388427734375,0.5184783935546875,0.2680816650390625
20220118-1319,2022-01-18 13:19:31Z,u01, 17,40,movements,el-ex, rt, d,203690.22066041667, -2.0977159376401637, -0.8100754624995113, -2.683805091435437, -0.4021871089935303, -2.457477569580078, 2.8011887073516846, -0.5959278345108032, 0.7243391871452332, 0.34670281410217285, 0.3438678979873657, -0.057835280895233154, -0.1772235631942749, -0.8205119555674687, 0.010560850787675824, 0.4366482871881413,-0.3687640185309869,-0.269317626953125,0.6507415771484375,0.179779052734375
20220118-1319,2022-01-18 13:19:31Z,u01, 18,40,movements,el-ex, rt, d,203690.24560441668, -2.1984653118869706, -0.872577888782309, -2.7355285818726305, 0.8530634045600891, -2.49739670753479, 2.887033224105835, -0.5203248858451843, 0.7659887075424194, 0.3775220513343811, 0.2787325978279114, -0.04314941167831421, -0.2066238522529602, -0.829532980067141, 0.025220120420680447, 0.45174610890875266,-0.32735955343151857,-0.2415924072265625,0.72283935546875,0.1708984375
20220118-1319,2022-01-18 13:19:31Z,u01, 19,40,movements,el-ex, rt, d,203690.27054741667, -2.2939159887497396, -0.9461131491776611, -2.7793969511928744, 0.7872856855392456, -2.4167580604553223, 3.0607120990753174, -0.4384811222553253, 0.811148464679718, 0.387004554271698, 0.3482559323310852, -0.09493136405944824, -0.03602194786071777, -0.8318927433308465, 0.038167190320513245, 0.47444179001444087,-0.2853116254926972,-0.130645751953125,0.703399658203125,0.2879791259765625
20220118-1319,2022-01-18 13:19:31Z,u01, 20,40,movements,el-ex, rt, d,203690.29549041667, -2.427396777357613, -1.0023418487047315, -2.8682915131471134, -0.288560688495636, -2.3826472759246826, 2.9369282722473145, -0.35261180996894836, 0.8427339792251587, 0.40677329897880554, 0.37426403164863586, -0.0034546256065368652, 0.2074233889579773, -0.8369124808757653, 0.05444406403410923, 0.4877096843905442,-0.2423894976806066,0.0216522216796875,0.8392791748046875,0.61419677734375
20220118-1319,2022-01-18 13:19:31Z,u01, 21,40,movements,el-ex, rt, d,203690.32043441667, -2.591010414002538, -1.0374706035782348, -2.989482806341592, -0.2580989599227905, -2.471165180206299, 2.8732502460479736, -0.2659864127635956, 0.8611210584640503, 0.4332685172557831, 0.3946637809276581, 0.14670664072036743, 0.019734203815460205, -0.8435702931241631, 0.0708760916676337, 0.49367166032096693,-0.19913304377951363,0.119354248046875,1.005126953125,0.4946441650390625
20220118-1319,2022-01-18 13:19:31Z,u01, 22,40,movements,el-ex, rt, d,203690.34537741667, -2.7700424811435993, -1.0722059404840056, -3.121429753007713, 0.34489285945892334, -2.638566493988037, 3.0690560340881348, -0.17361101508140564, 0.8782575130462646, 0.445559024810791, 0.32384902238845825, -0.02193427085876465, -0.16855111718177795, -0.8458212970405442, 0.08582449122091818, 0.5035759916014868,-0.15372592054304302,0.150238037109375,0.8563232421875,0.277008056640625
20220118-1319,2022-01-18 13:19:31Z,u01, 23,40,movements,el-ex, rt, d,203690.37032041667, -2.972289815598732, -1.1041930272209848, 3.0024080735819867, 0.5483452677726746, -2.228022813796997, 3.28020977973938, -0.07579849660396576, 0.8931014537811279, 0.44342368841171265, 0.26477858424186707, -0.14575642347335815, 0.21644258499145508, -0.843241017639248, 0.1032300181092215, 0.5163245583617198,-0.1081534682067497,0.166107177734375,0.6651153564453125,0.49359130859375
20220118-1319,2022-01-18 13:19:31Z,u01, 24,40,movements,el-ex, rt, d,203690.39526441667, 3.0980624535812695, -1.12229954611484, 2.825948751293578, 0.05952341854572296, -2.1250736713409424, 3.0241036415100098, 0.018869245424866676, 0.9010999202728271, 0.43320098519325256, 0.4069119691848755, 0.2929919958114624, 0.34386807680130005, -0.8377439602585237, 0.12159583003466795, 0.5283177028623665,-0.06542166782925102,0.42578125,1.194091796875,0.777069091796875
20220118-1319,2022-01-18 13:19:31Z,u01, 25,40,movements,el-ex, rt, d,203690.42020741667, 2.9022912028171772, -1.1042463704773675, 2.669658232760124, -0.5768814086914062, -2.3095667362213135, 2.723482608795166, 0.10661528259515762, 0.8931254744529724, 0.43699008226394653, 0.5344980359077454, 0.19186615943908691, 0.10468155145645142, -0.8365369605357628, 0.1367514233703529, 0.5300748136181263,-0.022928864112225833,0.675567626953125,1.1277008056640625,0.544921875
20220118-1319,2022-01-18 13:19:31Z,u01, 26,40,movements,el-ex, rt, d,203690.44515041666, 2.726334262977006, -1.0716302958812558, 2.5353167969769164, -0.03454921767115593, -2.2351388931274414, 2.834050178527832, 0.19311746954917908, 0.8779820799827576, 0.4380100965499878, 0.21894609928131104, 0.11608219146728516, 0.08948606252670288, -0.8344385975045961, 0.15072248790454557, 0.5297106687816419,0.020036732492788867,0.4120635986328125,0.9940643310546875,0.527496337890625
20220118-1319,2022-01-18 13:19:31Z,u01, 27,40,movements,el-ex, rt, d,203690.47009441667, 2.546076491570456, -1.0475193194604262, 2.3897942069246767, 0.9450845718383789, -2.0615437030792236, 3.070425271987915, 0.2803117334842682, 0.866186261177063, 0.41369879245758057, 0.14072397351264954, 0.008600175380706787, 0.025571078062057495, -0.8239046818017144, 0.16742302814263488, 0.5380110271152503,0.06078424618918302,0.36663818359375,0.860382080078125,0.4860382080078125
20220118-1319,2022-01-18 13:19:31Z,u01, 28,40,movements,el-ex, rt, d,203690.49503741667, 2.374514125893273, -1.0129296661604517, 2.249886696644722, 0.29334187507629395, -2.072341203689575, 3.0630552768707275, 0.3674066364765167, 0.8483864068984985, 0.3811209201812744, 0.3023626506328583, 0.013857483863830566, 0.02821129560470581, -0.8099350280748949, 0.18591855480587477, 0.5469800282940303,0.10125451596453425,0.669769287109375,0.86224365234375,0.409332275390625
20220118-1319,2022-01-18 13:19:31Z,u01, 29,40,movements,el-ex, rt, d,203690.5199804167, 2.2612484640245323, -0.9504113851209182, 2.178407579749072, -1.2024099826812744, -2.1617591381073, 2.7940869331359863, 0.448195219039917, 0.8136547207832336, 0.37025249004364014, 0.4380199611186981, 0.12981146574020386, 0.12703129649162292, -0.8032386067420451, 0.19983490906311197, 0.5423262806917657,0.14406912374425235,0.8627471923828125,0.9219970703125,0.5203857421875
20220118-1319,2022-01-18 13:19:31Z,u01, 30,40,movements,el-ex, rt, d,203690.54492441667, 2.1796623095740406, -0.8808625070864183, 2.144283978727583, -0.6120690107345581, -2.150028944015503, 2.652993679046631, 0.522107720375061, 0.7712881565093994, 0.3640303611755371, 0.3286154866218567, 0.26701146364212036, 0.13279566168785095, -0.7986149429212293, 0.21030774310711242, 0.5320743315559825,0.186766505041277,0.8507232666015625,1.038299560546875,0.496826171875
20220118-1319,2022-01-18 13:19:31Z,u01, 31,40,movements,el-ex, rt, d,203690.5698674167, 2.0885591924488525, -0.8244780711072354, 2.093699571153124, 0.20693400502204895, -2.074568033218384, 2.5748703479766846, 0.589950442314148, 0.7341935038566589, 0.3360328674316406, 0.19113165140151978, 0.26040488481521606, 0.08524689078330994, -0.7866030312552676, 0.2219732045145718, 0.5302803952446435,0.2253578514583045,0.77783203125,1.0228424072265625,0.4422149658203125
20220118-1319,2022-01-18 13:19:31Z,u01, 32,40,movements,el-ex, rt, d,203690.5948104167, 2.005868693858203, -0.7691476377363977, 2.0495151905043856, -0.11904509365558624, -2.0345253944396973, 2.49874210357666, 0.6515675187110901, 0.6955230832099915, 0.30283206701278687, 0.20666295289993286, 0.15983885526657104, 0.07569262385368347, -0.7726221915457043, 0.2333901887684276, 0.5291902473995135,0.2618044746573189,0.8582305908203125,0.8553619384765625,0.3785247802734375
20220118-1319,2022-01-18 13:19:31Z,u01, 33,40,movements,el-ex, rt, d,203690.6197544167, 1.941161386040117, -0.7090221261654808, 2.029751391783047, -0.6583884954452515, -2.0372936725616455, 2.4132540225982666, 0.7075351476669312, 0.6510918736457825, 0.27472400665283203, 0.2313075065612793, 0.15123051404953003, 0.11483272910118103, -0.7608310489670422, 0.24186385700971863, 0.522856784049632,0.29876202974792687,0.930267333984375,0.79669189453125,0.3777313232421875
20220118-1319,2022-01-18 13:19:31Z,u01, 34,40,movements,el-ex, rt, d,203690.6446974167, 1.885998605940039, -0.6493791096915811, 2.0209870107526116, -0.22782793641090393, -1.9449406862258911, 2.220069408416748, 0.7572209239006042, 0.6046919822692871, 0.24690945446491241, 0.17316848039627075, 0.23986679315567017, 0.186501145362854, -0.7493322400055012, 0.248909462233809, 0.5145479185673405,0.33434381908441396,0.930389404296875,0.8445587158203125,0.43341064453125
20220118-1319,2022-01-18 13:19:31Z,u01, 35,40,movements,el-ex, rt, d,203690.6696404167, 1.8270098727838358, -0.6005726880839911, 2.001078616486205, 0.19801418483257294, -1.8153504133224487, 1.9654178619384766, 0.7980808019638062, 0.5651150345802307, 0.20907418429851532, 0.15933185815811157, 0.35138893127441406, 0.1475999355316162, -0.7341245468492194, 0.2561215302939436, 0.5121856958993692,0.3648680822484108,0.951080322265625,0.9538726806640625,0.3533782958984375
20220118-1319,2022-01-18 13:19:31Z,u01, 36,40,movements,el-ex, rt, d,203690.6945844167, 1.776362874376058, -0.5566249751580943, 1.9875694174466172, -0.1492253988981247, -1.630930781364441, 1.6601413488388062, 0.8311668038368225, 0.5283236503601074, 0.17330819368362427, 0.09392768144607544, 0.2963376045227051, 0.2318277209997177, -0.7198210903228599, 0.2617473908418702, 0.5095458051781447,0.3920573237731683,0.9250946044921875,0.8246612548828125,0.4051361083984375
20220118-1319,2022-01-18 13:19:32Z,u01, 37,40,movements,el-ex, rt, d,203690.7195274167, 1.7395479786585248, -0.5177780470234203, 1.988955111538515, -0.515710175037384, -1.3545271158218384, 1.3681379556655884, 0.8565782904624939, 0.49495065212249756, 0.14593693614006042, 0.012669205665588379, 0.3311450481414795, 0.29810893535614014, -0.709378015647234, 0.26410470592294233, 0.5038091226791118,0.41618261060461137,0.874664306640625,0.8292388916015625,0.4421844482421875
20220118-1319,2022-01-18 13:19:32Z,u01, 38,40,movements,el-ex, rt, d,203690.74447041668, 1.7143998057804022, -0.4864873132253895, 1.9987375086509924, -0.42361918091773987, -1.0310050249099731, 0.9784044623374939, 0.8748815655708313, 0.46752363443374634, 0.12650683522224426, -0.0375707745552063, 0.3844967186450958, 0.3372534513473511, -0.7024480431877688, 0.2642350592509431, 0.49674393570098985,0.4358808020865324,0.837310791015625,0.852020263671875,0.4637603759765625
20220118-1319,2022-01-18 13:19:32Z,u01, 39,40,movements,el-ex, rt, d,203690.7694144167, 1.6927331356886273, -0.46701630034124775, 2.000163234601054, 0.04971519857645035, -0.6859511137008667, 0.5592164993286133, 0.8862857222557068, 0.4502241015434265, 0.10860967636108398, -0.10740077495574951, 0.5078907012939453, 0.3122735023498535, -0.6959309756099581, 0.2645466225413423, 0.4941223241433607,0.44893024623266997,0.7817840576171875,0.959320068359375,0.4251708984375
20220118-1319,2022-01-18 13:19:32Z,u01, 40,40,movements,el-ex, rt, d,203690.7943574167, 1.6776104729246284, -0.45800665404855717, 1.9944187636428607, 0.1894499510526657, -0.32588526606559753, 0.18895485997200012, 0.891823947429657, 0.44216108322143555, 0.09562335163354874, -0.11644858121871948, 0.4404989182949066, 0.3526186943054199, -0.6908194533212302, 0.2656692666255422, 0.49504575327695693,0.4551023022619669,0.7753753662109375,0.882659912109375,0.4482421875
20220118-1319,2022-01-18 13:19:32Z,u01, 41,40,movements,el-ex, rt, d,203690.81930041668, 1.6731434213932908, -0.4583674946858144, 1.9926436178590086, -0.08137308061122894, 0.046165138483047485, -0.19362033903598785, 0.8920832276344299, 0.44248470664024353, 0.0916222631931305, -0.13446921110153198, 0.38968390226364136, 0.39224910736083984, -0.6896046089897221, 0.2650596445246889, 0.49613751694581426,0.4561100419803194,0.7562408447265625,0.842864990234375,0.47998046875
20220118-1319,2022-01-18 13:19:32Z,u01, 42,40,movements,el-ex, rt, d,203690.8442444167, 1.6808686032866023, -0.4680437882709175, 1.9974585742775859, -0.11113660782575607, 0.38395431637763977, -0.6284818649291992, 0.8870514035224915, 0.4511413276195526, 0.0980360209941864, -0.13639545440673828, 0.4024658501148224, 0.41890108585357666, -0.6930071379303165, 0.2622195956262139, 0.4965651471857763,0.4521116332354058,0.7506561279296875,0.853607177734375,0.516937255859375
20220118-1319,2022-01-18 13:19:32Z,u01, 43,40,movements,el-ex, rt, d,203690.86918741668, 1.6978110518730747, -0.4881417861805085, 2.002924868344084, -0.04616459459066391, 0.7599155306816101, -1.0126160383224487, 0.8760914206504822, 0.46898552775382996, 0.11187879741191864, -0.12024712562561035, 0.42263150215148926, 0.3799119293689728, -0.6995114047555345, 0.258114690231309, 0.49842913159146385,0.44229991392353873,0.7501220703125,0.899322509765625,0.4943389892578125
20220118-1319,2022-01-18 13:19:32Z,u01, 44,40,movements,el-ex, rt, d,203690.89413025, 1.723335846623301, -0.5178094835853218, 2.006506621829083, 0.12950164079666138, 1.1414223909378052, -1.3633825778961182, 0.8588161468505859, 0.4949779808521271, 0.13202902674674988, -0.07239347696304321, 0.4023151695728302, 0.34001684188842773, -0.7082384802327435, 0.25379670124293274, 0.5022195864362154,0.42633433988819736,0.7864227294921875,0.8972930908203125,0.4720458984375
20220118-1319,2022-01-18 13:19:32Z,u01, 45,40,movements,el-ex, rt, d,203690.91907425, 1.7574961117173016, -0.5566648269086999, 2.0087389672952427, 0.22267316281795502, 1.4889576435089111, -1.7554179430007935, 0.8342675566673279, 0.5283575057983398, 0.15759290754795074, -0.018166720867156982, 0.3929223418235779, 0.3821103274822235, -0.7187730748777997, 0.24932252520974632, 0.5077526349570098,0.4042160627473485,0.8141021728515625,0.91094970703125,0.5249176025390625
20220118-1319,2022-01-18 13:19:32Z,u01, 46,40,movements,el-ex, rt, d,203690.94401725, 1.8027667772503204, -0.6044344382164099, 2.0158152075965825, 0.15233397483825684, 1.823129653930664, -2.0651893615722656, 0.8007843494415283, 0.5682967901229858, 0.18916352093219757, 0.041485369205474854, 0.3865829110145569, 0.363067090511322, -0.7317000531868987, 0.24330390583834954, 0.5135179070590334,0.3764537803362391,0.8422698974609375,0.9548797607421875,0.5522308349609375
20220118-1319,2022-01-18 13:19:32Z,u01, 47,40,movements,el-ex, rt, d,203690.96896025, 1.8588412310563465, -0.6589500329795245, 2.0282875385536157, 0.20233187079429626, 2.0705952644348145, -2.339263916015625, 0.7580623626708984, 0.6122870445251465, 0.22460238635540009, 0.13218122720718384, 0.34042608737945557, 0.29708030819892883, -0.7459879593194194, 0.23622691792743095, 0.5192162905222155,0.34367623104044703,0.880126953125,0.94818115234375,0.5246734619140625
20220118-1319,2022-01-18 13:19:32Z,u01, 48,40,movements,el-ex, rt, d,203690.99390425, 1.9237953135141466, -0.7191595897895288, 2.0459867162810412, 0.2589419186115265, 2.231473922729492, -2.5783610343933105, 0.7059692144393921, 0.6587526202201843, 0.2601008117198944, 0.20304256677627563, 0.31449878215789795, 0.25874364376068115, -0.760283828885517, 0.228076534566448, 0.5252389039245583,0.3067143145613799,0.9090118408203125,0.9732513427734375,0.5188446044921875
20220118-1319,2022-01-18 13:19:32Z,u01, 49,40,movements,el-ex, rt, d,203691.01884725, 2.0011198405866084, -0.7846814888589535, 2.073923062683162, 0.22305306792259216, 2.4251585006713867, -2.9214284420013428, 0.6431005597114563, 0.7065998315811157, 0.29519128799438477, 0.2563285827636719, 0.3287394642829895, 0.2915852665901184, -0.7746164790505783, 0.21809392025346752, 0.5308869852490019,0.26563734612393475,0.8953399658203125,1.021270751953125,0.5864410400390625
20220118-1319,2022-01-18 13:19:32Z,u01, 50,40,movements,el-ex, rt, d,203691.04379025, 2.0972422712334278, -0.8541860933523002, 2.1200334058970514, 0.1046227216720581, 2.5365376472473145, -3.198915719985962, 0.5678961873054504, 0.754036545753479, 0.33003440499305725, 0.3831688165664673, 0.3170846700668335, 0.2716042697429657, -0.7891899456759841, 0.20541771669743586, 0.5351245044983509,0.22050968404947935,0.9510650634765625,1.0711212158203125,0.6016387939453125
20220118-1319,2022-01-18 13:19:32Z,u01, 51,40,movements,el-ex, rt, d,203691.06873425, 2.2199296504386865, -0.9229742232135023, 2.1940351275230907, -0.15735220909118652, 2.671691417694092, -3.387345552444458, 0.4807141423225403, 0.7973999381065369, 0.3647840619087219, 0.4285265803337097, 0.2688690423965454, 0.2115861177444458, -0.8039922724084277, 0.1897062216633969, 0.536566834507285,0.17234868147064025,0.9165496826171875,1.0786590576171875,0.5860748291015625
20220118-1319,2022-01-18 13:19:32Z,u01, 52,40,movements,el-ex, rt, d,203691.09367725, 2.3688201927230237, -0.9856471004930977, 2.294258590005426, 0.14426952600479126, 2.7201321125030518, -3.4608840942382812, 0.3855898976325989, 0.8336296677589417, 0.3954516351222992, 0.46241727471351624, 0.20862197875976562, 0.10050463676452637, -0.8171976918552759, 0.1729559091661188, 0.5359772299297945,0.12248507912390155,0.8480072021484375,1.0422515869140625,0.4959564208984375
20220118-1319,2022-01-18 13:19:32Z,u01, 53,40,movements,el-ex, rt, d,203691.11862025002, 2.5375016255036336, -1.0482476239377623, 2.4124220455761494, 0.475647509098053, 2.7047510147094727, -3.566770315170288, 0.2834903299808502, 0.8665499687194824, 0.4107605814933777, 0.4597499966621399, 0.2156948447227478, 0.11673563718795776, -0.8253227603724466, 0.1556362100206255, 0.53822369136342,0.07024895655384028,0.7522430419921875,1.085845947265625,0.537322998046875
20220118-1319,2022-01-18 13:19:32Z,u01, 54,40,movements,el-ex, rt, d,203691.14356425, 2.7420433232762758, -1.0999222823440582, 2.5683866801742465, 0.17175687849521637, 2.673543930053711, -3.6156489849090576, 0.1764773428440094, 0.8911721110343933, 0.4179331958293915, 0.534704327583313, 0.09698712825775146, 0.09529614448547363, -0.8308261223635469, 0.13672801169208215, 0.5391921608827072,0.017471765544483098,0.711181640625,0.9881591796875,0.5132293701171875
20220118-1319,2022-01-18 13:19:32Z,u01, 55,40,movements,el-ex, rt, d,203691.16850725003, 2.9838034142997785, -1.1227711105574008, 2.766135437138525, -0.3448133170604706, 2.538174867630005, -3.5689826011657715, 0.06806890666484833, 0.901304304599762, 0.42780518531799316, 0.583618700504303, 0.008363723754882812, 0.048329949378967285, -0.8368889977061694, 0.11627292726708188, 0.5338306958830557,-0.033499788122001384,0.673004150390625,0.9069671630859375,0.4748992919921875
20220118-1319,2022-01-18 13:19:32Z,u01, 56,40,movements,el-ex, rt, d,203691.19345025002, -3.053698298263114, -1.115202533863958, 2.9696595021765324, -0.36746516823768616, 2.5306642055511475, -3.5249059200286865, -0.03862334042787552, 0.8979999423027039, 0.43829694390296936, 0.5832552909851074, 0.023783504962921143, 0.02164861559867859, -0.8425810371920477, 0.09594619311273683, 0.5234885191762879,-0.0825302224842861,0.5446319580078125,0.921783447265625,0.4599456787109375
20220118-1319,2022-01-18 13:19:32Z,u01, 57,40,movements,el-ex, rt, d,203691.21839425, -2.8247509432175386, -1.0897531210408418, -3.1266928062993995, -0.35669785737991333, 2.5052096843719482, -3.4912309646606445, -0.14416345953941345, 0.8865126967430115, 0.43967294692993164, 0.5800307393074036, 0.12563347816467285, 0.038369596004486084, -0.8450680514318627, 0.0754749490018558, 0.5128128815233555,-0.13109743504662416,0.4561767578125,0.999176025390625,0.4720611572265625
20220118-1319,2022-01-18 13:19:32Z,u01, 58,40,movements,el-ex, rt, d,203691.24333725002, -2.627048258322384, -1.0469811653131358, -2.9714239565765834, -0.3265537619590759, 2.4498112201690674, -3.3963475227355957, -0.24616150557994843, 0.8659172058105469, 0.435421884059906, 0.6337347030639648, 0.04721468687057495, -0.007687509059906006, -0.8453544326291499, 0.05555919999387787, 0.5004315510065165,-0.17848646875017984,0.3875732421875,0.9131317138671875,0.427734375
20220118-1319,2022-01-18 13:19:32Z,u01, 59,40,movements,el-ex, rt, d,203691.26828025002, -2.459306942132406, -0.9939877793532076, -2.84669301881507, -0.19037839770317078, 2.4003782272338867, -3.3020994663238525, -0.3438815474510193, 0.8382073640823364, 0.4232654869556427, 0.5553225874900818, 0.024585485458374023, -0.026949137449264526, -0.8428111663112081, 0.036084361167957935, 0.4876404298961371,-0.22488662756494185,0.2336883544921875,0.8881988525390625,0.4337158203125
20220118-1319,2022-01-18 13:19:32Z,u01, 60,40,movements,el-ex, rt, d,203691.29322425002, -2.3190258047269867, -0.9369499896668154, -2.748566032050169, -0.2361992448568344, 2.292720079421997, -3.089170217514038, -0.43405553698539734, 0.8057554960250854, 0.40293148159980774, 0.5327494144439697, -0.01716601848602295, 0.01084098219871521, -0.8373557214209559, 0.01735335027924062, 0.4755554042177398,-0.26903768284551566,0.09869384765625,0.7885894775390625,0.4137725830078125
20220118-1319,2022-01-18 13:19:32Z,u01, 61,40,movements,el-ex, rt, d,203691.31816725002, -2.205748819601822, -0.8745672678003279, -2.678010923831446, -0.38501664996147156, 2.3888957500457764, -2.976719379425049, -0.516333818435669, 0.767266035079956, 0.38039734959602356, 0.46684956550598145, -0.06282877922058105, -0.0023609399795532227, -0.8307819499382229, 0.00015971406980064273, 0.46171366582176415,-0.31084046423010886,-0.0236053466796875,0.685028076171875,0.3360748291015625
20220118-1319,2022-01-18 13:19:32Z,u01, 62,40,movements,el-ex, rt, d,203691.34311025002, -2.1158155191928594, -0.8080092760164646, -2.6338189176286315, -0.5824676156044006, 2.2257535457611084, -2.778475522994995, -0.5908337831497192, 0.7229131460189819, 0.35820651054382324, 0.4831525683403015, -0.06533563137054443, -0.04605761170387268, -0.8239492760858309, -0.0145207617971434, 0.44486836371296357,-0.35069762765318924,-0.1076812744140625,0.6575775146484375,0.3121490478515625
20220118-1319,2022-01-18 13:19:32Z,u01, 63,40,movements,el-ex, rt, d,203691.36805425002, -2.0414229366781806, -0.743805628096826, -2.605155569547264, -0.5059279203414917, 2.095025062561035, -2.526719093322754, -0.6558936834335327, 0.6770933866500854, 0.3336888253688812, 0.4369453191757202, -0.0369718074798584, -0.044977396726608276, -0.8161488884656314, -0.027302195738279245, 0.42777319194484853,-0.3875122662161141,-0.204071044921875,0.6344451904296875,0.3016204833984375
20220118-1319,2022-01-18 13:19:32Z,u01, 64,40,movements,el-ex, rt, d,203691.39299725002, -1.9771471663646139, -0.682614973811702, -2.586508094778092, -0.5828198790550232, 2.1335256099700928, -2.4336771965026855, -0.7127416133880615, 0.6308242082595825, 0.3066923916339874, 0.371509313583374, -0.042903006076812744, -0.02876889705657959, -0.8073743628779968, -0.038637209086470004, 0.4108462248397693,-0.421733539826848,-0.3412322998046875,0.587921142578125,0.277923583984375
20220118-1319,2022-01-18 13:19:32Z,u01, 65,40,movements,el-ex, rt, d,203691.41794025002, -1.9202299848095075, -0.6195312005702626, -2.581830704534283, -0.8898412585258484, 2.176398277282715, -2.42441987991333, -0.7649492025375366, 0.5806535482406616, 0.2787373960018158, 0.26911473274230957, 0.01431727409362793, 0.006617099046707153, -0.7981906979360428, -0.04754271799717119, 0.3908855922357471,-0.455894595836295,-0.476287841796875,0.605560302734375,0.3209991455078125
20220118-1319,2022-01-18 13:19:32Z,u01, 66,40,movements,el-ex, rt, d,203691.44288425002, -1.86697647966395, -0.5580096058383378, -2.584494959171546, -0.6148657202720642, 2.222515821456909, -2.2222375869750977, -0.8113738298416138, 0.5294987559318542, 0.2475954294204712, 0.24449455738067627, -0.008548438549041748, -0.15500521659851074, -0.7878993266483579, -0.05488503756050833, 0.37009113632804236,-0.4891163547734575,-0.5668792724609375,0.5209503173828125,0.09259033203125
20220118-1319,2022-01-18 13:19:32Z,u01, 67,40,movements,el-ex, rt, d,203691.46782725002, -1.8084866030443159, -0.5068034072707936, -2.573991976147319, 0.21433404088020325, 1.9552310705184937, -1.8961068391799927, -0.8497191667556763, 0.4853849411010742, 0.20586149394512177, 0.26181328296661377, -0.17470070719718933, -0.43155431747436523, -0.7738239814572889, -0.06424322096746277, 0.3567501012268464,-0.5194214867132609,-0.5926513671875,0.3710479736328125,-0.1436920166015625
20220118-1319,2022-01-18 13:19:32Z,u01, 68,40,movements,el-ex, rt, d,203691.49277025, -1.7546647000661442, -0.47028445599946833, -2.5505293714648887, 0.5649972558021545, 1.4884376525878906, -1.235518455505371, -0.876413106918335, 0.45313987135887146, 0.16298551857471466, 0.27816176414489746, -0.4908595681190491, -0.5860049724578857, -0.75882479925543, -0.07535040158125522, 0.35244794529356416,-0.5424828664060312,-0.5982513427734375,-0.0377197265625,-0.4230194091796875
20220118-1319,2022-01-18 13:19:32Z,u01, 69,40,movements,el-ex, rt, d,203691.51771425002, -1.7233668728849234, -0.4512259696974293, -2.5427638774937615, -0.24550412595272064, 0.6296255588531494, -0.3427784740924835, -0.889459490776062, 0.436069130897522, 0.1367681920528412, 0.373041033744812, -1.0172457695007324, -0.7075386047363281, -0.7497622482704633, -0.0789978914778906, 0.3494235655045279,-0.5563443952673154,-0.5350189208984375,-0.49664306640625,-0.54052734375
20220118-1319,2022-01-18 13:19:32Z,u01, 70,40,movements,el-ex, rt, d,203691.54265725001, -1.726536338346775, -0.4514052570806126, -2.5536221745311525, -0.3614652454853058, -0.45422324538230896, 0.5190781950950623, -0.8889443278312683, 0.43623045086860657, 0.13957448303699493, 0.4227883219718933, -0.8958403468132019, -0.7415947914123535, -0.7510656627768388, -0.07541626798580897, 0.3463385596355923,-0.5570120216236177,-0.466156005859375,-0.4596099853515625,-0.602020263671875
20220118-1319,2022-01-18 13:19:32Z,u01, 71,40,movements,el-ex, rt, d,203691.56760125002, -1.7489599619598974, -0.47333489738420476, -2.5589425495152116, 0.2686026394367218, -1.05374276638031, 1.1529215574264526, -0.8759642839431763, 0.4558570384979248, 0.15773750841617584, 0.365695059299469, -0.5645757913589478, -0.5670546293258667, -0.757591624568221, -0.07016897419168433, 0.3513913960177452,-0.5455780691756107,-0.4959564208984375,-0.137359619140625,-0.47845458984375
20220118-1319,2022-01-18 13:19:32Z,u01, 72,40,movements,el-ex, rt, d,203691.59254425002, -1.7811125322712886, -0.5082588901835314, -2.558554716675141, 0.15929977595806122, -1.54423987865448, 1.5921374559402466, -0.8543433547019958, 0.48665696382522583, 0.18237926065921783, 0.3576241135597229, -0.39879682660102844, -0.3508058786392212, -0.7661527023811635, -0.06480486026332205, 0.3621673352996858,-0.5269203679708744,-0.4967193603515625,0.087860107421875,-0.168426513671875
20220118-1319,2022-01-18 13:19:32Z,u01, 73,40,movements,el-ex, rt, d,203691.61748725, -1.8286396940095067, -0.5518373630139031, -2.5684658568482557, 0.02272622287273407, -1.8419005870819092, 1.9757518768310547, -0.8234117031097412, 0.5242527723312378, 0.21714486181735992, 0.29089534282684326, -0.40833181142807007, -0.32326990365982056, -0.7781019169308137, -0.055944982930780096, 0.37299406886888753,-0.5022975630071164,-0.5301513671875,0.110504150390625,-0.120635986328125
20220118-1319,2022-01-18 13:19:32Z,u01, 74,40,movements,el-ex, rt, d,203691.64243125002, -1.8848664111579647, -0.6044489818511278, -2.5817656681384245, 0.3398295044898987, -2.077665090560913, 2.3337104320526123, -0.7825667262077332, 0.5683087706565857, 0.2541942000389099, 0.2541700005531311, -0.31801873445510864, -0.2494792640209198, -0.7906024654982882, -0.04521988750377226, 0.38645841489356625,-0.47281381335546446,-0.5283966064453125,0.2502899169921875,0.0047149658203125
20220118-1319,2022-01-18 13:19:32Z,u01, 75,40,movements,el-ex, rt, d,203691.66737425, -1.9425832818763524, -0.6675789980098875, -2.591276635059595, 0.6427069306373596, -2.0649449825286865, 2.6085710525512695, -0.7316692471504211, 0.6190865635871887, 0.28529274463653564, 0.22500121593475342, -0.13628315925598145, -0.1174919605255127, -0.8009294744327367, -0.03403460769233008, 0.40515806844556523,-0.439545869223703,-0.51300048828125,0.438873291015625,0.13116455078125
20220118-1319,2022-01-18 13:19:32Z,u01, 76,40,movements,el-ex, rt, d,203691.69231725, -2.010589799111711, -0.7332160209146198, -2.6141217448926644, 0.2247634083032608, -2.19490122795105, 2.8123347759246826, -0.6723191738128662, 0.669262707233429, 0.3163451850414276, 0.25793635845184326, -0.13737183809280396, -0.1990509331226349, -0.811030630090799, -0.02004759710465137, 0.42258742289821405,-0.4040386722283749,-0.4143829345703125,0.531890869140625,0.1172943115234375
20220118-1319,2022-01-18 13:19:33Z,u01, 77,40,movements,el-ex, rt, d,203691.71726125, -2.096240792810195, -0.800431306379414, -2.6562120759211343, 0.325786292552948, -2.3473904132843018, 3.0821194648742676, -0.6024537682533264, 0.7176564931869507, 0.3493110239505768, 0.33528774976730347, -0.18610143661499023, -0.19493800401687622, -0.8213687660337889, -0.0029774004708026935, 0.43818984806254213,-0.3651492953792445,-0.2847442626953125,0.5194091796875,0.1541290283203125
20220118-1319,2022-01-18 13:19:33Z,u01, 78,40,movements,el-ex, rt, d,203691.74220425, -2.1831774472817744, -0.8792852577101666, -2.693362503964124, 1.291711449623108, -2.362562417984009, 3.255476236343384, -0.5218194127082825, 0.7702832818031311, 0.36656197905540466, 0.3185266852378845, -0.12753742933273315, -0.15585359930992126, -0.8265078130930374, 0.012877411412428985, 0.460956381924659,-0.3228591765653698,-0.2032928466796875,0.6427459716796875,0.2107086181640625
20220118-1319,2022-01-18 13:19:33Z,u01, 79,40,movements,el-ex, rt, d,203691.76714725, -2.280514598536433, -0.9614277430100744, -2.7420418310535473, 0.5826658606529236, -2.3552157878875732, 3.3459813594818115, -0.43415340781211853, 0.8200095891952515, 0.37295466661453247, 0.39681512117385864, -0.00931006669998169, 0.020676136016845703, -0.8280226669243886, 0.02925408117434608, 0.48529333503837113,-0.2793081946076602,-0.06463623046875,0.8155670166015625,0.384521484375
20220118-1319,2022-01-18 13:19:33Z,u01, 80,40,movements,el-ex, rt, d,203691.79209125, -2.4310726141945223, -1.0222494854096027, -2.8487732974663103, -0.29016777873039246, -2.476794958114624, 3.323690891265869, -0.3401029109954834, 0.853283166885376, 0.39526933431625366, 0.4724576771259308, -0.11481881141662598, -0.051473647356033325, -0.833805017706124, 0.049029150627713514, 0.4979661034830666,-0.2332275530001557,0.132354736328125,0.73846435546875,0.3437957763671875
20220118-1319,2022-01-18 13:19:33Z,u01, 81,40,movements,el-ex, rt, d,203691.81703425, -2.608822437566687, -1.0736805681829575, -2.9808284090977017, 0.7442772388458252, -2.6347227096557617, 3.360018253326416, -0.24222414195537567, 0.8789616823196411, 0.4107970595359802, 0.4610961675643921, 0.1265164017677307, 0.0036316514015197754, -0.837152847986663, 0.06762870963923817, 0.5099556778524852,-0.18586775298735117,0.206573486328125,0.9459075927734375,0.4455108642578125
20220118-1319,2022-01-18 13:19:33Z,u01, 82,40,movements,el-ex, rt, d,203691.84197725, -2.801574795859056, -1.1341570381037736, -3.126960725108742, 1.1742762327194214, -2.4241604804992676, 3.4355859756469727, -0.14103743433952332, 0.9061779975891113, 0.3986845314502716, 0.3603825569152832, 0.13260966539382935, 0.07076707482337952, -0.8319562491924256, 0.08480018157851726, 0.5304558934618465,-0.13883118757063348,0.2193450927734375,1.038787841796875,0.469451904296875
20220118-1319,2022-01-18 13:19:33Z,u01, 83,40,movements,el-ex, rt, d,203691.86692125, -3.0386846532745024, -1.1677925890191678, 2.960027304605997, 0.051776014268398285, -2.2251782417297363, 3.401784658432007, -0.04028758034110069, 0.919887125492096, 0.39010828733444214, 0.4499402642250061, -0.006999552249908447, 0.1826913058757782, -0.8272152651594984, 0.10377401772000167, 0.5443920313796812,-0.09264521754129576,0.3616943359375,0.9152679443359375,0.5594482421875
20220118-1319,2022-01-18 13:19:33Z,u01, 84,40,movements,el-ex, rt, d,203691.89186429168, 2.99145006003129, -1.1597511307945418, 2.747018927357183, -0.2675777077674866, -2.344989538192749, 3.432077646255493, 0.0597669817507267, 0.9167037010192871, 0.39507243037223816, 0.5149552822113037, 0.10116434097290039, 0.0917896032333374, -0.8260482924085117, 0.12320893173877778, 0.5480757309303865,-0.045571589738804597,0.5747222900390625,1.0178680419921875,0.4868621826171875
20220118-1319,2022-01-18 13:19:33Z,u01, 85,40,movements,el-ex, rt, d,203691.91680729168, 2.7446984148112556, -1.1393917988328492, 2.5428063262676477, 0.49442872405052185, -2.407829523086548, 3.496431827545166, 0.16163727641105652, 0.9083793759346008, 0.38564300537109375, 0.3833913803100586, 0.11753010749816895, -0.00217437744140625, -0.8201780066382633, 0.14187860052704993, 0.5542305146952698,0.0026642880172824124,0.5592803955078125,1.0358123779296875,0.3936614990234375
20220118-1319,2022-01-18 13:19:33Z,u01, 86,40,movements,el-ex, rt, d,203691.94175129168, 2.5066625868703807, -1.1099846119099135, 2.3451533577864114, 0.6651142239570618, -2.261929750442505, 3.5828747749328613, 0.2637462913990021, 0.8956918716430664, 0.3580138385295868, 0.34018129110336304, 0.0952749252319336, -0.017987042665481567, -0.8080399821102804, 0.16148780553946052, 0.5643142964269774,0.05042233635517018,0.6039276123046875,0.990966796875,0.34002685546875
20220118-1319,2022-01-18 13:19:33Z,u01, 87,40,movements,el-ex, rt, d,203691.96669429168, 2.3236359315061814, -1.0572767444356368, 2.1989793940818134, -0.23555390536785126, -2.045459270477295, 3.2805449962615967, 0.35848674178123474, 0.8710209131240845, 0.3358714282512665, 0.465289443731308, 0.18268996477127075, 0.2273302972316742, -0.7969709630150915, 0.1810331523144233, 0.5682256150802576,0.09583246286281596,0.770050048828125,1.0342864990234375,0.5758209228515625
20220118-1319,2022-01-18 13:19:33Z,u01, 88,40,movements,el-ex, rt, d,203691.99163729168, 2.205617073683217, -0.9879356805559243, 2.123017550062411, -0.7270270586013794, -2.2382755279541016, 3.034034013748169, 0.4431820213794708, 0.8348914980888367, 0.3264143466949463, 0.5503177642822266, 0.29207706451416016, 0.1992814838886261, -0.7903416602441005, 0.19638540351125605, 0.5630850143559006,0.1404573921787015,0.993499755859375,1.1269683837890625,0.52569580078125
20220118-1319,2022-01-18 13:19:33Z,u01, 89,40,movements,el-ex, rt, d,203692.01658129168, 2.1113087331303575, -0.9171212111639595, 2.075596259125244, -0.5724522471427917, -2.1705148220062256, 2.931896209716797, 0.5214192271232605, 0.793854296207428, 0.31291744112968445, 0.25893038511276245, 0.22662299871444702, 0.11358091235160828, -0.7828902803009168, 0.20866606170578106, 0.5562446620262332,0.18475160912464203,0.8213348388671875,1.0511932373046875,0.43206787109375
20220118-1319,2022-01-18 13:19:33Z,u01, 90,40,movements,el-ex, rt, d,203692.04152429168, 2.032196277902897, -0.8468467552815657, 2.0395380573810575, -0.5231004357337952, -1.9829291105270386, 2.9309918880462646, 0.593087375164032, 0.7491955757141113, 0.2948792278766632, 0.20857900381088257, 0.167491614818573, 0.0955016016960144, -0.7735831221494387, 0.22137924473610077, 0.5489796088504854,0.22623424903905323,0.801666259765625,0.91668701171875,0.390380859375
20220118-1319,2022-01-18 13:19:33Z,u01, 91,40,movements,el-ex, rt, d,203692.06646729168, 1.9615821759151828, -0.775821163144079, 2.0131199953106655, -0.5768400430679321, -2.1114699840545654, 2.846997022628784, 0.6600291728973389, 0.7003024816513062, 0.2719147503376007, 0.3218737840652466, 0.17472797632217407, 0.11716896295547485, -0.7625135190256943, 0.23351768344534318, 0.5410100016085287,0.267115498230813,0.9777069091796875,0.8791351318359375,0.3836822509765625
20220118-1319,2022-01-18 13:19:33Z,u01, 92,40,movements,el-ex, rt, d,203692.09141129168, 1.89937780219808, -0.7052834327241979, 2.000865871844451, -0.7036924362182617, -2.13742995262146, 2.6927390098571777, 0.7206923961639404, 0.6482496857643127, 0.24571336805820465, 0.26314860582351685, 0.2081499695777893, 0.09522894024848938, -0.7509025919397487, 0.24290323186189317, 0.5312866438012835,0.30802259298835555,0.9838409423828125,0.8563995361328125,0.3409423828125
20220118-1319,2022-01-18 13:19:33Z,u01, 93,40,movements,el-ex, rt, d,203692.11635429168, 1.8410133082113083, -0.6400412988888798, 1.9931816523559496, -0.33305975794792175, -2.152122974395752, 2.472254991531372, 0.7729665040969849, 0.5972285866737366, 0.21410533785820007, 0.2308788299560547, 0.296448290348053, 0.05582264065742493, -0.7377849288245788, 0.25045173064789394, 0.5223739726208201,0.3465153174506866,1.00189208984375,0.8911590576171875,0.28497314453125
20220118-1319,2022-01-18 13:19:33Z,u01, 94,40,movements,el-ex, rt, d,203692.14129729167, 1.781883064105609, -0.5818053392712466, 1.9813789234609671, -0.12530632317066193, -2.0754432678222656, 2.226417303085327, 0.8169276118278503, 0.5495331287384033, 0.1750502735376358, 0.15110516548156738, 0.28486329317092896, 0.20829617977142334, -0.7219470087827367, 0.2575221485356251, 0.5166679005011272,0.38148281604086076,0.9680328369140625,0.8343963623046875,0.3833465576171875
20220118-1319,2022-01-18 13:19:33Z,u01, 95,40,movements,el-ex, rt, d,203692.16624129168, 1.7313148554865345, -0.5285279424334581, 1.9799898296211895, -0.5634093880653381, -1.880629301071167, 2.0078465938568115, 0.8524491190910339, 0.5042626857757568, 0.1380213499069214, 0.09812778234481812, 0.23763501644134521, 0.25922584533691406, -0.7074386195173124, 0.2618038829026723, 0.5095769002283305,0.4139091884630895,0.949920654296875,0.756866455078125,0.40814208984375
20220118-1319,2022-01-18 13:19:33Z,u01, 96,40,movements,el-ex, rt, d,203692.19118429167, 1.692309263502051, -0.48122312671649564, 1.9898006572780365, -0.5367687344551086, -1.6032413244247437, 1.6201916933059692, 0.8798930644989014, 0.4628637433052063, 0.10744774341583252, 0.0810442566871643, 0.3637964129447937, 0.28047630190849304, -0.695901302856923, 0.263524666414616, 0.5002321805270588,0.44276825857674895,0.9609375,0.82666015625,0.3879241943359375
20220118-1319,2022-01-18 13:19:33Z,u01, 97,40,movements,el-ex, rt, d,203692.21612729167, 1.6588857029946473, -0.4446169707506822, 1.995940364887822, -0.2839451730251312, -1.2528108358383179, 1.2002662420272827, 0.8992752432823181, 0.4301121234893799, 0.07942213118076324, 0.0045334696769714355, 0.47111788392066956, 0.3488919734954834, -0.6852669714674673, 0.264802273674413, 0.4936639177684437,0.46538692783225644,0.917236328125,0.9054412841796875,0.4205780029296875
20220118-1319,2022-01-18 13:19:33Z,u01, 98,40,movements,el-ex, rt, d,203692.24107129168, 1.6340992636553087, -0.4196386717423226, 1.9998808145497684, -0.16739660501480103, -0.8572472333908081, 0.7854669094085693, 0.9114068746566772, 0.407430499792099, 0.057771921157836914, -0.06730610132217407, 0.4786779284477234, 0.38654863834381104, -0.6770867533999085, 0.26540438913757114, 0.4894790403797975,0.4811695990285686,0.8441009521484375,0.8861083984375,0.4443206787109375
20220118-1319,2022-01-18 13:19:33Z,u01, 99,40,movements,el-ex, rt, d,203692.26601429167, 1.6183730179246196, -0.4051048244825517, 2.0010891170667238, -0.009198089130222797, -0.42236506938934326, 0.3685745596885681, 0.9180211424827576, 0.3941150903701782, 0.04370938986539841, -0.16219228506088257, 0.5036510825157166, 0.39784932136535645, -0.6716967154358278, 0.2658537536250255, 0.48747782205508744,0.49041888190375044,0.765380859375,0.8944091796875,0.4393768310546875
20220118-1319,2022-01-18 13:19:33Z,u01, 100,40,movements,el-ex, rt, d,203692.29095729167, 1.6138471395071552, -0.4016627762142933, 2.002693208066592, -0.17206493020057678, -0.008952507749199867, -0.11179237812757492, 0.9195593595504761, 0.3909493088722229, 0.03961225226521492, -0.16301345825195312, 0.4957389831542969, 0.4395136833190918, -0.6703781731789737, 0.26532853505945725, 0.4867865207580746,0.4931862971131121,0.7565460205078125,0.886688232421875,0.4791259765625
20220118-1319,2022-01-18 13:19:33Z,u01, 101,40,movements,el-ex, rt, d,203692.31590129167, 1.6212243313852746, -0.4104306600091808, 2.012163722282563, -0.48785853385925293, 0.30336129665374756, -0.5968260765075684, 0.9157835245132446, 0.3990042507648468, 0.0462203212082386, -0.12481361627578735, 0.43401893973350525, 0.44187772274017334, -0.6744924122154551, 0.2610941323944893, 0.4857782175242954,0.4908252492296129,0.7946929931640625,0.832489013671875,0.4940948486328125
20220118-1319,2022-01-18 13:19:33Z,u01, 102,40,movements,el-ex, rt, d,203692.34084429167, 1.639138494365547, -0.428832754312838, 2.026460682568274, -0.3723796308040619, 0.6567292213439941, -0.9105406403541565, 0.907328724861145, 0.4158095419406891, 0.062105532735586166, -0.12700951099395752, 0.4108049273490906, 0.3850226402282715, -0.6828033154888633, 0.25462207036335743, 0.484831336300013,0.48361745521896804,0.7803192138671875,0.8266143798828125,0.4471282958984375
20220118-1319,2022-01-18 13:19:33Z,u01, 103,40,movements,el-ex, rt, d,203692.36578729167, 1.6631941552594083, -0.4535743828945314, 2.0340742145306123, 0.018320955336093903, 1.0052462816238403, -1.1124576330184937, 0.8950522541999817, 0.4381812810897827, 0.08293703943490982, -0.08555829524993896, 0.34332820773124695, 0.3285771608352661, -0.6921322031535198, 0.24984301990161623, 0.48654901093277103,0.4709580969605699,0.8051605224609375,0.7862396240234375,0.410125732421875
20220118-1319,2022-01-18 13:19:33Z,u01, 104,40,movements,el-ex, rt, d,203692.39073129167, 1.690562035839554, -0.4850397083247058, 2.0313766910194118, 0.4268537759780884, 1.2777916193008423, -1.3715142011642456, 0.8783194422721863, 0.4662434756755829, 0.10569840669631958, -0.052773118019104004, 0.35684627294540405, 0.31371986865997314, -0.701190303766595, 0.247348666658468, 0.4921564103038872,0.45269521899482196,0.8255462646484375,0.823089599609375,0.4194183349609375
20220118-1319,2022-01-18 13:19:33Z,u01, 105,40,movements,el-ex, rt, d,203692.41567429167, 1.7229355602438685, -0.5243889016246577, 2.0255105453720317, 0.2923860549926758, 1.5479199886322021, -1.6960539817810059, 0.8556312918663025, 0.5006841421127319, 0.13118883967399597, 0.017522335052490234, 0.26297253370285034, 0.36423349380493164, -0.7110825456365206, 0.24485920408424872, 0.4999491784944165,0.42948386765151664,0.8643798828125,0.786163330078125,0.4757080078125
20220118-1319,2022-01-18 13:19:33Z,u01, 106,40,movements,el-ex, rt, d,203692.4406172917, 1.768353120188282, -0.5696236761145379, 2.032673184704574, -0.1262272447347641, 1.804178237915039, -1.9468215703964233, 0.8257243037223816, 0.5393151640892029, 0.16528332233428955, 0.06897473335266113, 0.2026435136795044, 0.3476560115814209, -0.7248152067462571, 0.23934196904373606, 0.5050568504706052,0.4028348823888229,0.8946990966796875,0.7419586181640625,0.512939453125
20220118-1319,2022-01-18 13:19:33Z,u01, 107,40,movements,el-ex, rt, d,203692.46556129167, 1.8257991710752817, -0.6185717562540054, 2.0493301606091094, -0.002223868854343891, 2.0577993392944336, -2.141083240509033, 0.7883620262145996, 0.5798721313476562, 0.20550848543643951, 0.14509445428848267, 0.2564774751663208, 0.2551847994327545, -0.7407612215827664, 0.23243720929653544, 0.5083261381834799,0.3726262916228665,0.92388916015625,0.818756103515625,0.47100830078125
20220118-1319,2022-01-18 13:19:33Z,u01, 108,40,movements,el-ex, rt, d,203692.49050429167, 1.8882720382091687, -0.6733164821586453, 2.063340026393673, 0.39707106351852417, 2.2448956966400146, -2.3410634994506836, 0.7426906228065491, 0.623582124710083, 0.24404087662696838, 0.21003758907318115, 0.25540047883987427, 0.22563980519771576, -0.755533786420931, 0.2262501644604557, 0.513786342066905,0.3376434742381471,0.952728271484375,0.8789825439453125,0.4696807861328125
20220118-1319,2022-01-18 13:19:33Z,u01, 109,40,movements,el-ex, rt, d,203692.51544829167, 1.954996190366949, -0.7355930684850425, 2.0770432267326466, 0.4910271167755127, 2.4175326824188232, -2.6143510341644287, 0.6873814463615417, 0.6710270047187805, 0.2779020071029663, 0.23360854387283325, 0.30256009101867676, 0.19405221939086914, -0.7686428683074525, 0.21940633615869298, 0.5216330828205431,0.29824139570772673,0.932037353515625,0.9688262939453125,0.456268310546875
20220118-1319,2022-01-18 13:19:33Z,u01, 110,40,movements,el-ex, rt, d,203692.54039129167, 2.034060563516374, -0.8034019995954067, 2.1025223751713327, 0.31482231616973877, 2.4606995582580566, -2.9365079402923584, 0.6210862398147583, 0.7197221517562866, 0.310245543718338, 0.2845076322555542, 0.2576034665107727, 0.2202414572238922, -0.7816314996676017, 0.21017842220241117, 0.5289820817030558,0.25505944767304467,0.9055938720703125,0.977325439453125,0.530487060546875
20220118-1319,2022-01-18 13:19:33Z,u01, 111,40,movements,el-ex, rt, d,203692.5653342917, 2.1347259165674877, -0.8692082011631054, 2.1546198839850224, -0.048832982778549194, 2.529846429824829, -3.0802884101867676, 0.5454939007759094, 0.7638181447982788, 0.34499067068099976, 0.3582689166069031, 0.2416142225265503, 0.19475844502449036, -0.7959299785136281, 0.19746090373386055, 0.5320925095387226,0.21067115875368955,0.926605224609375,0.990814208984375,0.527984619140625
20220118-1319,2022-01-18 13:19:33Z,u01, 112,40,movements,el-ex, rt, d,203692.59027829167, 2.2590816125045707, -0.9327439678479661, 2.2310558781941965, -0.012845920398831367, 2.6252784729003906, -3.2464048862457275, 0.4600285291671753, 0.8032573461532593, 0.37835389375686646, 0.4049311876296997, 0.27227383852005005, 0.14296263456344604, -0.809823923275254, 0.18265311201027484, 0.5328984623098783,0.16383648775819304,0.864959716796875,1.075531005859375,0.5213165283203125
20220118-1319,2022-01-18 13:19:33Z,u01, 113,40,movements,el-ex, rt, d,203692.6152212917, 2.407448460211616, -0.9922198447229803, 2.330534254942864, 0.08874069154262543, 2.693894624710083, -3.343841552734375, 0.366351455450058, 0.8372419476509094, 0.4059707224369049, 0.44994792342185974, 0.21192175149917603, 0.11742085218429565, -0.8216719451118317, 0.16685496202005606, 0.5327747889947808,0.11474117955691035,0.833526611328125,1.0620574951171875,0.5116119384765625
20220118-1319,2022-01-18 13:19:33Z,u01, 114,40,movements,el-ex, rt, d,203692.6401642917, 2.580070956775395, -1.0474436652416406, 2.4543049525256113, 0.24379025399684906, 2.684569835662842, -3.4290859699249268, 0.26612389087677, 0.8661484122276306, 0.4230424463748932, 0.4994857609272003, 0.21415859460830688, 0.08438846468925476, -0.8300972798653785, 0.1498657189296888, 0.5332731336680522,0.0640197135345425,0.7656097412109375,1.0803070068359375,0.5074310302734375
20220118-1319,2022-01-18 13:19:33Z,u01, 115,40,movements,el-ex, rt, d,203692.66510829167, 2.7818837211666763, -1.0912557459935615, 2.608343653204784, 0.24828863143920898, 2.6356165409088135, -3.488363742828369, 0.16240373253822327, 0.8872069716453552, 0.43184372782707214, 0.5193894505500793, 0.1112215518951416, 0.0874890685081482, -0.8357565172171553, 0.1320337529584451, 0.5328317394595683,0.012982355673397283,0.7005615234375,1.00531005859375,0.5177154541015625
20220118-1319,2022-01-18 13:19:33Z,u01, 116,40,movements,el-ex, rt, d,203692.6900512917, 3.014745723505887, -1.1159451393637445, 2.795901487806533, -0.045753270387649536, 2.61901593208313, -3.542924642562866, 0.05557809770107269, 0.8983263969421387, 0.43579840660095215, 0.5603886842727661, 0.09242665767669678, 0.06604757905006409, -0.8397808033393853, 0.11254959828241584, 0.529776716158344,-0.03791121117441934,0.615966796875,0.990753173828125,0.5018463134765625
20220118-1319,2022-01-18 13:19:34Z,u01, 117,40,movements,el-ex, rt, d,203692.7149942917, -3.026096506349976, -1.1113783412858105, 2.994392688464139, -0.28049227595329285, 2.476675510406494, -3.475100517272949, -0.051100265234708786, 0.8963107466697693, 0.440472275018692, 0.5756363868713379, 0.05008518695831299, 0.05008244514465332, -0.8435859906736172, 0.09272976545727563, 0.5216182754767759,-0.08762553509324605,0.5413055419921875,0.945709228515625,0.5153350830078125
20220118-1319,2022-01-18 13:19:34Z,u01, 118,40,movements,el-ex, rt, d,203692.7399382917, -2.8030270118874085, -1.0881462821320125, -3.108105620109196, -0.048102810978889465, 2.459044933319092, -3.3183820247650146, -0.15415285527706146, 0.8857680559158325, 0.4377802014350891, 0.5957726836204529, 0.07710719108581543, 0.010415971279144287, -0.8447190166079437, 0.07307449080296258, 0.5125682613525517,-0.1355860207979022,0.441619873046875,0.9628753662109375,0.4481964111328125
20220118-1319,2022-01-18 13:19:34Z,u01, 119,40,movements,el-ex, rt, d,203692.7648812917, -2.6057459170199038, -1.055736114807748, -2.9510573732428727, 0.17494894564151764, 2.3001749515533447, -3.2072019577026367, -0.25150012969970703, 0.8702630400657654, 0.42354491353034973, 0.57945716381073, 0.029654741287231445, -0.08951479196548462, -0.841968447288552, 0.05349380411765353, 0.5052740796398691,-0.1814546559140189,0.351104736328125,0.9250335693359375,0.3426513671875
20220118-1319,2022-01-18 13:19:34Z,u01, 120,40,movements,el-ex, rt, d,203692.78982429169, -2.4358935616365938, -1.014174919661679, -2.8209859086935682, 0.15815259516239166, 2.299346923828125, -3.0934154987335205, -0.3426506519317627, 0.849044919013977, 0.4021354019641876, 0.5498345494270325, -0.10054045915603638, -0.02789849042892456, -0.8365770762922311, 0.034734690106484, 0.4980900282874854,-0.22547393690505202,0.207183837890625,0.748504638671875,0.374237060546875
20220118-1319,2022-01-18 13:19:34Z,u01, 121,40,movements,el-ex, rt, d,203692.8147682917, -2.3010329576324904, -0.9617734889842839, -2.724117185016879, -0.13227882981300354, 2.0947272777557373, -2.8446779251098633, -0.4261990487575531, 0.820207417011261, 0.3815946578979492, 0.5044002532958984, -0.14566195011138916, -0.1117735505104065, -0.8309702834550234, 0.016903029342564824, 0.48810548772516793,-0.2663753252390873,0.09515380859375,0.6877899169921875,0.2983551025390625
20220118-1319,2022-01-18 13:19:34Z,u01, 122,40,movements,el-ex, rt, d,203692.8397112917, -2.1916694492887316, -0.907613094668107, -2.6519214687611057, 0.13342058658599854, 2.0454983711242676, -2.7424211502075195, -0.5007344484329224, 0.7880365252494812, 0.3581392765045166, 0.4795094132423401, -0.10383224487304688, -0.06501802802085876, -0.8240564730246689, 0.0007513293861952652, 0.4778673355537567,-0.3042585860300902,-0.0212249755859375,0.6842041015625,0.293121337890625
20220118-1319,2022-01-18 13:19:34Z,u01, 123,40,movements,el-ex, rt, d,203692.86465429168, -2.091955088001436, -0.8548593106010899, -2.5876249967677283, 0.2530294954776764, 2.028057098388672, -2.5773112773895264, -0.5691928267478943, 0.7544785737991333, 0.3267744481563568, 0.436517596244812, -0.0923844575881958, -0.05223846435546875, -0.8143369465855881, -0.015574326288654905, 0.4697592609258582,-0.3404981528368962,-0.1123809814453125,0.7002105712890625,0.28924560546875
20220118-1319,2022-01-18 13:19:34Z,u01, 124,40,movements,el-ex, rt, d,203692.8895981667, -2.0079267191665355, -0.8015328593444465, -2.5387901919824496, 0.0727054625749588, 1.8743765354156494, -2.4584720134735107, -0.63019859790802, 0.7184231877326965, 0.2944789528846741, 0.4053298234939575, -0.14028292894363403, -0.0339505672454834, -0.8039317436425337, -0.03054887731824557, 0.461046561763342,-0.3744283506510732,-0.2248687744140625,0.5781402587890625,0.260528564453125
20220118-1319,2022-01-18 13:19:34Z,u01, 125,40,movements,el-ex, rt, d,203692.91454116668, -1.9448137987803817, -0.7443819518634727, -2.5124276498624463, -0.4095650613307953, 1.7623562812805176, -2.3487861156463623, -0.6846588850021362, 0.6775173544883728, 0.2687233090400696, 0.2846192717552185, -0.0749782919883728, -0.049622565507888794, -0.7952875165043184, -0.043352236997878324, 0.4480902911181454,-0.40602135823402635,-0.3701171875,0.6111602783203125,0.2455291748046875
20220118-1319,2022-01-18 13:19:34Z,u01, 126,40,movements,el-ex, rt, d,203692.93948416668, -1.89482944405307, -0.6859026176111718, -2.5026947792620713, -0.5845293402671814, 1.740792155265808, -2.276492118835449, -0.7335760593414307, 0.6333717703819275, 0.24638725817203522, 0.2401220202445984, 0.0036827921867370605, -0.045947879552841187, -0.7875941484987099, -0.05375019781807311, 0.4318639709615286,-0.4362338827622371,-0.4934539794921875,0.637054443359375,0.200439453125
20220118-1319,2022-01-18 13:19:34Z,u01, 127,40,movements,el-ex, rt, d,203692.96442816668, -1.8489835128676348, -0.6291292827998219, -2.497597491788681, -0.44391828775405884, 1.7665200233459473, -2.220982074737549, -0.7774556279182434, 0.5884409546852112, 0.22203560173511505, 0.16344207525253296, 0.05490010976791382, -0.016835466027259827, -0.7790942641326289, -0.06348174310855742, 0.4155404490662252,-0.4650895408804248,-0.584320068359375,0.64361572265625,0.1723785400390625
20220118-1319,2022-01-18 13:19:34Z,u01, 128,40,movements,el-ex, rt, d,203692.98937116668, -1.8020124803755506, -0.5728727751150602, -2.4933319408663124, -0.3853059709072113, 1.8186933994293213, -2.1789093017578125, -0.817984402179718, 0.5420483946800232, 0.19257524609565735, 0.13980746269226074, 0.04369080066680908, -0.05932033061981201, -0.7687161256955817, -0.07323347112602241, 0.39962693482547407,-0.4939744503494923,-0.6781768798828125,0.5857391357421875,0.1332550048828125
20220118-1319,2022-01-18 13:19:34Z,u01, 129,40,movements,el-ex, rt, d,203693.01431416668, -1.7580375955094683, -0.5202457422026597, -2.4934901072497913, -0.5633578300476074, 1.6441510915756226, -1.9010423421859741, -0.8525310754776001, 0.4970933794975281, 0.1615210324525833, 0.1876598596572876, -0.2869187891483307, -0.27953267097473145, -0.7577132137863444, -0.08143218918689016, 0.38404616391942337,-0.5212946159493954,-0.6798858642578125,0.282379150390625,-0.0751495361328125
20220118-1319,2022-01-18 13:19:34Z,u01, 130,40,movements,el-ex, rt, d,203693.03925816668, -1.7278822802198561, -0.47850354634446973, -2.5052432499878865, -0.822044849395752, 1.171827793121338, -1.1959726810455322, -0.8767550587654114, 0.46045130491256714, 0.13887004554271698, 0.2758183479309082, -0.6513388156890869, -0.44944754242897034, -0.7498149401458918, -0.08492689667676845, 0.36853490333601724,-0.5429059837767581,-0.6009368896484375,-0.190887451171875,-0.310577392578125
20220118-1319,2022-01-18 13:19:34Z,u01, 131,40,movements,el-ex, rt, d,203693.06420116668, -1.718473793628449, -0.457092889252093, -2.523942866187308, -0.5462939143180847, 0.2167368084192276, -0.29387083649635315, -0.887572169303894, 0.4413413107395172, 0.13203564286231995, 0.3964681029319763, -0.9046438932418823, -0.7438979148864746, -0.7477211710607995, -0.08325187873135753, 0.35678407654376937,-0.5537935338002227,-0.4954986572265625,-0.51617431640625,-0.5766143798828125
20220118-1319,2022-01-18 13:19:34Z,u01, 132,40,movements,el-ex, rt, d,203693.08914416668, -1.722521840348823, -0.46260971148876795, -2.521157594424845, 0.7671979069709778, -0.6371291875839233, 0.6795336008071899, -0.8846102356910706, 0.44628503918647766, 0.13525743782520294, 0.40153223276138306, -0.664378821849823, -0.7614020109176636, -0.7488028306942874, -0.08320481812436054, 0.3591989912594396,-0.5507698586879416,-0.4830780029296875,-0.2180938720703125,-0.6261444091796875
20220118-1319,2022-01-18 13:19:34Z,u01, 133,40,movements,el-ex, rt, d,203693.11408816668, -1.738763148854402, -0.491122415718749, -2.5043296218937607, 0.49119049310684204, -1.1400948762893677, 1.2863695621490479, -0.8693941235542297, 0.4716159403324127, 0.14741834998130798, 0.360986590385437, -0.5746737718582153, -0.4130129814147949, -0.7528571092953328, -0.08315857105946295, 0.37245088918465913,-0.5362565917988241,-0.48016357421875,-0.1567535400390625,-0.348785400390625
20220118-1319,2022-01-18 13:19:34Z,u01, 134,40,movements,el-ex, rt, d,203693.13903116668, -1.772874160729559, -0.5276325848265143, -2.509018564067521, -0.16187278926372528, -1.3899517059326172, 1.624104380607605, -0.846420407295227, 0.5034893155097961, 0.17340967059135437, 0.2837831377983093, -0.38740044832229614, -0.23479582369327545, -0.7621879187506669, -0.07598957012201707, 0.381855201419017,-0.5171863615494504,-0.5626373291015625,0.1160888671875,-0.0613861083984375
20220118-1319,2022-01-18 13:19:34Z,u01, 135,40,movements,el-ex, rt, d,203693.16397416667, -1.8169722577785623, -0.5700420151613758, -2.524350277973038, 0.14424049854278564, -1.5369455814361572, 1.9325278997421265, -0.8164968490600586, 0.5396674275398254, 0.20516319572925568, 0.1805562973022461, -0.25739502906799316, -0.2289823293685913, -0.7735247058344832, -0.06512392029543851, 0.3905027661233207,-0.4948999801514453,-0.6317596435546875,0.2708892822265625,-0.021270751953125
20220118-1319,2022-01-18 13:19:34Z,u01, 136,40,movements,el-ex, rt, d,203693.18891816668, -1.8549823353088362, -0.6262199513996967, -2.519924233301003, 1.2887476682662964, -1.6911593675613403, 2.349794864654541, -0.7777498364448547, 0.5860861539840698, 0.22717447578907013, 0.1798800230026245, -0.21627414226531982, -0.2886826992034912, -0.7812479443325391, -0.05691122985082325, 0.4091849434868795,-0.4679535053833775,-0.597869873046875,0.36981201171875,-0.0615081787109375
20220118-1319,2022-01-18 13:19:34Z,u01, 137,40,movements,el-ex, rt, d,203693.21386116667, -1.886954695255831, -0.6946169838613644, -2.502674948551586, 0.966760516166687, -1.739277958869934, 2.539216995239258, -0.7302194833755493, 0.6400912404060364, 0.23887763917446136, 0.20051074028015137, -0.16204863786697388, -0.07574610412120819, -0.7854926649206049, -0.049397321283456586, 0.43495646577374975,-0.4374631065481328,-0.545745849609375,0.476043701171875,0.1497344970703125
20220118-1319,2022-01-18 13:19:34Z,u01, 138,40,movements,el-ex, rt, d,203693.23880416667, -1.947394568624069, -0.756726505046662, -2.5259798131426416, -0.5660016536712646, -1.907457709312439, 2.6221015453338623, -0.6761338710784912, 0.6865450143814087, 0.2673931121826172, 0.22731178998947144, -0.22810989618301392, -0.04145634174346924, -0.795285495654205, -0.03489312876612549, 0.4494199274827235,-0.4053704755575745,-0.448822021484375,0.45843505859375,0.2259368896484375
20220118-1319,2022-01-18 13:19:34Z,u01, 139,40,movements,el-ex, rt, d,203693.26374816668, -2.040782157113225, -0.8114689298745323, -2.5861401664221106, -0.31381601095199585, -2.140573263168335, 2.794358730316162, -0.6137900352478027, 0.7252992391586304, 0.31177347898483276, 0.292607843875885, -0.10151994228363037, -0.19981983304023743, -0.8097067158800436, -0.01617933073754252, 0.4552694287049849,-0.3699229181122582,-0.3250732421875,0.5984039306640625,0.1181182861328125
20220118-1319,2022-01-18 13:19:34Z,u01, 140,40,movements,el-ex, rt, d,203693.28869116667, -2.122293734094587, -0.8788429627299797, -2.623852174584686, 1.0099828243255615, -2.092709541320801, 2.8921735286712646, -0.5434468984603882, 0.7700011730194092, 0.3343107998371124, 0.23174035549163818, 0.0016663670539855957, -0.13663339614868164, -0.8167942568247211, -0.0015949218563024448, 0.47200343072441936,-0.33174894900649327,-0.31170654296875,0.77166748046875,0.1976776123046875
20220118-1319,2022-01-18 13:19:34Z,u01, 141,40,movements,el-ex, rt, d,203693.31363416667, -2.206483399509904, -0.9505331515741459, -2.664220561317507, 0.34575527906417847, -2.0261788368225098, 2.9248313903808594, -0.46771031618118286, 0.8137255311012268, 0.3451054096221924, 0.33769020438194275, 0.05407232046127319, 0.06810244917869568, -0.8199943912584181, 0.012724077898291608, 0.49163372009272743,-0.29281997575904417,-0.15289306640625,0.8674774169921875,0.362396240234375
20220118-1319,2022-01-18 13:19:34Z,u01, 142,40,movements,el-ex, rt, d,203693.33857816667, -2.322424218063189, -1.004624029181068, -2.7440441819924466, 0.007313376292586327, -2.003666877746582, 2.698173999786377, -0.3918863832950592, 0.8439603447914124, 0.3662734031677246, 0.33953338861465454, 0.04587137699127197, 0.13325348496437073, -0.8260051052424853, 0.02919351878708365, 0.5018578437758392,-0.2549550725839621,-0.0523529052734375,0.88983154296875,0.4995269775390625
20220118-1319,2022-01-18 13:19:34Z,u01, 143,40,movements,el-ex, rt, d,203693.36352116667, -2.4480966696457123, -1.0608663223717754, -2.830874842882751, 0.8883453011512756, -2.088592529296875, 3.020875930786133, -0.3120180666446686, 0.8727786540985107, 0.3753688931465149, 0.2870394289493561, 0.002572178840637207, -0.0993223786354065, -0.8280817502294544, 0.04432896146412313, 0.5154258357418929,-0.2159899394668921,-0.0188140869140625,0.9250640869140625,0.31585693359375
20220118-1319,2022-01-18 13:19:34Z,u01, 144,40,movements,el-ex, rt, d,203693.38846416667, -2.5970594722872016, -1.1293146147456201, -2.93896843090094, 0.9751265048980713, -1.9693081378936768, 3.3131494522094727, -0.22133879363536835, 0.9041195511817932, 0.3654816746711731, 0.22814421355724335, -0.1706448197364807, -0.1486544907093048, -0.8240359386194812, 0.06087368809195448, 0.5357474294225749,-0.17387872794237563,0.006805419921875,0.7334747314453125,0.216827392578125
20220118-1319,2022-01-18 13:19:34Z,u01, 145,40,movements,el-ex, rt, d,203693.41340816667, -2.7907272561613388, -1.1817636575253068, -3.101492031879251, 0.7232430577278137, -1.7286763191223145, 3.142134428024292, -0.1303672045469284, 0.9252763986587524, 0.35618531703948975, 0.3303946554660797, 0.035020291805267334, 0.2335972785949707, -0.8194882951032396, 0.08081823402182176, 0.5513384673126474,-0.1339150382430833,0.1575775146484375,0.9125518798828125,0.581451416015625
20220118-1319,2022-01-18 13:19:34Z,u01, 146,40,movements,el-ex, rt, d,203693.43835116667, -3.015214928346361, -1.2133320314545943, 2.9855028920851368, 0.3622245490550995, -1.7293708324432373, 3.0547678470611572, -0.04410194978117943, 0.9367870688438416, 0.34710952639579773, 0.39693090319633484, 0.23278385400772095, 0.18739044666290283, -0.8146110817753961, 0.09981754329969095, 0.5632170056168251,-0.09608255347485342,0.3528289794921875,1.1695709228515625,0.5345001220703125
20220118-1319,2022-01-18 13:19:34Z,u01, 147,40,movements,el-ex, rt, d,203693.4632941667, 3.012205488771845, -1.2147803186384651, 2.7642699567240903, -0.2925705313682556, -2.061211347579956, 3.1768503189086914, 0.044971317052841187, 0.9372928738594055, 0.3456299602985382, 0.3440209627151489, -0.02072775363922119, -0.08372816443443298, -0.811802768745902, 0.11743610701263685, 0.569382531696063,-0.05466895656879839,0.408111572265625,0.943023681640625,0.3102874755859375
20220118-1319,2022-01-18 13:19:34Z,u01, 148,40,movements,el-ex, rt, d,203693.48823816667, 2.7670066699047156, -1.1900599185649132, 2.554296298255707, 0.26440832018852234, -1.8000571727752686, 3.159907579421997, 0.1359652876853943, 0.9283912181854248, 0.34583696722984314, 0.1675625443458557, -0.043335676193237305, -0.05466890335083008, -0.8090303019138194, 0.13560404869938403, 0.5717884843760604,-0.011809435810745228,0.30352783203125,0.8850555419921875,0.291168212890625
20220118-1319,2022-01-18 13:19:34Z,u01, 149,40,movements,el-ex, rt, d,203693.51318116667, 2.5393120174806416, -1.1720619335633182, 2.3525592513538447, 0.7606884837150574, -1.3467358350753784, 2.9037792682647705, 0.21995395421981812, 0.9215531349182129, 0.3199376165866852, 0.2776808738708496, 0.4857040047645569, 0.36394593119621277, -0.7975817649759837, 0.154376609652649, 0.5825803338631874,0.025126200017033085,0.433197021484375,1.304718017578125,0.6627655029296875
20220118-1319,2022-01-18 13:19:34Z,u01, 150,40,movements,el-ex, rt, d,203693.5381241667, 2.386715065523687, -1.133054095803075, 2.2220138470740345, -0.7127736806869507, -1.39333975315094, 2.4064183235168457, 0.29045310616493225, 0.9057110548019409, 0.30874672532081604, 0.42892247438430786, 0.37784308195114136, 0.2673945426940918, -0.7906920899391892, 0.17081972570586268, 0.5851045559118595,0.05726522180235616,0.7193756103515625,1.2835540771484375,0.576141357421875
20220118-1319,2022-01-18 13:19:34Z,u01, 151,40,movements,el-ex, rt, d,203693.56306816667, 2.3160299498063694, -1.0725325888753259, 2.183724242139531, -1.1987576484680176, -1.4741357564926147, 2.0828917026519775, 0.3512236475944519, 0.8784136176109314, 0.3240855634212494, 0.1667359173297882, 0.3459059000015259, 0.08018064498901367, -0.7932802495774487, 0.18096746851063517, 0.5742742565540835,0.09036763437850515,0.59002685546875,1.210968017578125,0.4412841796875
20220118-1319,2022-01-18 13:19:34Z,u01, 152,40,movements,el-ex, rt, d,203693.5880111667, 2.237428769878918, -1.0242306613868732, 2.131232514661225, 0.38265857100486755, -1.2028818130493164, 2.220027446746826, 0.40848061442375183, 0.8543145656585693, 0.3213874399662018, -0.0728636384010315, 0.2805272340774536, 0.012627333402633667, -0.7897868393713489, 0.192173005097162, 0.5700261226234671,0.11990155880006748,0.3356170654296875,1.1348419189453125,0.334014892578125
20220118-1319,2022-01-18 13:19:34Z,u01, 153,40,movements,el-ex, rt, d,203693.6129541667, 2.131843813505015, -0.988607839251695, 2.0404311433527424, 0.781244695186615, -1.1224874258041382, 2.3449840545654297, 0.46555978059768677, 0.8352612853050232, 0.2925622761249542, -0.044585078954696655, 0.06380188465118408, -0.023962020874023438, -0.77666699067457, 0.20753199644411857, 0.5766363766785209,0.1456343494203525,0.375885009765625,0.950653076171875,0.27264404296875
20220118-1319,2022-01-18 13:19:34Z,u01, 154,40,movements,el-ex, rt, d,203693.6378981667, 2.0470673232675836, -0.9420683517366492, 1.9739482725943367, -0.04085858166217804, -1.35857355594635, 2.3468806743621826, 0.5226653814315796, 0.8087762594223022, 0.2696327865123749, 0.09536129236221313, -0.11279231309890747, 0.0015157461166381836, -0.7650771591016361, 0.22242602470895956, 0.5789316704194741,0.173267796146436,0.6180267333984375,0.69598388671875,0.271148681640625
20220118-1319,2022-01-18 13:19:34Z,u01, 155,40,movements,el-ex, rt, d,203693.6628411667, 1.9903233222190653, -0.8842128379496309, 1.9485627068674323, -0.6649729609489441, -1.6145893335342407, 2.3427064418792725, 0.5789280533790588, 0.7734162211418152, 0.25820499658584595, 0.20491594076156616, -0.07634884119033813, 0.060245782136917114, -0.7580896372360726, 0.2332436646708272, 0.573316862026724,0.20543944482834287,0.7610321044921875,0.6869659423828125,0.3154144287109375
20220118-1319,2022-01-18 13:19:34Z,u01, 156,40,movements,el-ex, rt, d,203693.6877841667, 1.9405990765150425, -0.8240949217177677, 1.9394158215648751, -0.7160640954971313, -1.7722450494766235, 2.3123679161071777, 0.6333050727844238, 0.7339333295822144, 0.24549201130867004, 0.22194993495941162, 0.04901033639907837, 0.05960734188556671, -0.7514682791760717, 0.2409178867055803, 0.565320480381071,0.2401388382429385,0.855255126953125,0.7829437255859375,0.3050994873046875
20220118-1319,2022-01-18 13:19:35Z,u01, 157,40,movements,el-ex, rt, d,203693.7127281667, 1.8941922253169299, -0.7654144804579069, 1.936226273115769, -0.7082778215408325, -1.7286003828048706, 2.170681953430176, 0.6837149262428284, 0.6928359270095825, 0.22915560007095337, 0.21310508251190186, 0.043034493923187256, 0.11920249462127686, -0.7439666855922424, 0.24716669286924708, 0.5568362644487228,0.2745097258572373,0.88812255859375,0.741485595703125,0.3417510986328125
20220118-1319,2022-01-18 13:19:35Z,u01, 158,40,movements,el-ex, rt, d,203693.7376711667, 1.8516635173838352, -0.7102540342317616, 1.934877334094918, -0.531607985496521, -1.5836621522903442, 2.0826659202575684, 0.7284867763519287, 0.6520264148712158, 0.2101636677980423, 0.20289450883865356, 0.11381232738494873, 0.10842445492744446, -0.7355723954164903, 0.2530120327493687, 0.5486270665013827,0.30647445784447164,0.9313812255859375,0.765838623046875,0.3185882568359375
20220118-1319,2022-01-18 13:19:35Z,u01, 159,40,movements,el-ex, rt, d,203693.76261416668, 1.812345342786116, -0.6581226372763713, 1.930667705779328, -0.25931599736213684, -1.3459428548812866, 1.985500693321228, 0.7681739330291748, 0.6116326451301575, 0.18924663960933685, 0.17546004056930542, 0.1919257640838623, 0.1175922155380249, -0.7259341634324621, 0.26008250845217784, 0.5413457804794087,0.3351438802676208,0.9480438232421875,0.78564453125,0.310150146484375
20220118-1319,2022-01-18 13:19:35Z,u01, 160,40,movements,el-ex, rt, d,203693.7875581667, 1.7749436462105352, -0.6117168830324157, 1.9205979767346952, 0.05315886437892914, -1.1854382753372192, 1.76261568069458, 0.8016632199287415, 0.5742738842964172, 0.16596949100494385, 0.1266511082649231, 0.2927001118659973, 0.1172640472650528, -0.7148962425142171, 0.26815686573724806, 0.5364786352731495,0.35945241546435863,0.928314208984375,0.866973876953125,0.283233642578125
20220118-1319,2022-01-18 13:19:35Z,u01, 161,40,movements,el-ex, rt, d,203693.81250116669, 1.739592085230157, -0.5719743670570302, 1.9089196591661544, 0.05455669388175011, -1.0896716117858887, 1.4892323017120361, 0.8288838267326355, 0.541293203830719, 0.141256183385849, 0.03490090370178223, 0.3582277297973633, 0.11902809143066406, -0.7034361080528158, 0.27532841530750646, 0.5336054023552276,0.38031199445065517,0.8780364990234375,0.902313232421875,0.2639617919921875
20220118-1319,2022-01-18 13:19:35Z,u01, 162,40,movements,el-ex, rt, d,203693.83744416668, 1.7115991499345733, -0.539289015231355, 1.9038133041771244, -0.10896755754947662, -0.9235637187957764, 1.1298162937164307, 0.8495823740959167, 0.5135260224342346, 0.120420441031456, -0.0514712929725647, 0.37278085947036743, 0.13296689093112946, -0.694137470219208, 0.2799703441285921, 0.530439742107643,0.39802458029247983,0.7981109619140625,0.8863067626953125,0.253387451171875
20220118-1319,2022-01-18 13:19:35Z,u01, 163,40,movements,el-ex, rt, d,203693.8623881667, 1.6905501201453221, -0.5145115340416191, 1.9043561484054656, -0.1462617665529251, -0.7711037993431091, 0.8209828734397888, 0.8642985224723816, 0.4921096861362457, 0.10400065779685974, -0.07525134086608887, 0.42268532514572144, 0.18042314052581787, -0.6873484166923484, 0.2820504992724533, 0.5271977301876438,0.41238602472150837,0.7909393310546875,0.9125518798828125,0.276458740234375
20220118-1319,2022-01-18 13:19:35Z,u01, 164,40,movements,el-ex, rt, d,203693.88733175, 1.6736451961945913, -0.4984638751036833, 1.905103716091576, -0.09986310452222824, -0.6049766540527344, 0.4499429762363434, 0.8736767768859863, 0.47807690501213074, 0.0901748463511467, -0.08954280614852905, 0.4229394495487213, 0.22893214225769043, -0.6821425738913823, 0.2824339410811523, 0.5254868775620181,0.4228193049870348,0.7841339111328125,0.9010162353515625,0.3191070556640625
20220118-1319,2022-01-18 13:19:35Z,u01, 165,40,movements,el-ex, rt, d,203693.91227575002, 1.663520119885173, -0.4913644698066246, 1.9097361908498514, -0.27910104393959045, -0.3728688061237335, 0.07451610267162323, 0.8779022693634033, 0.471829354763031, 0.08163652569055557, -0.08208024501800537, 0.399630606174469, 0.2855813503265381, -0.679824806426421, 0.28045765376113596, 0.5241832245148462,0.4294340853299088,0.7964630126953125,0.8687286376953125,0.3554840087890625
20220118-1319,2022-01-18 13:19:35Z,u01, 166,40,movements,el-ex, rt, d,203693.93721875, 1.6620959460559965, -0.49384679038828316, 1.9184833523725402, -0.2965826988220215, -0.03946980461478233, -0.33318430185317993, 0.8768488168716431, 0.47401654720306396, 0.080279141664505, -0.10093927383422852, 0.4086740016937256, 0.30793488025665283, -0.6810201454427753, 0.27631708832077007, 0.5231084261604957,0.4315299627872717,0.775909423828125,0.8826904296875,0.388214111328125
20220118-1319,2022-01-18 13:19:35Z,u01, 167,40,movements,el-ex, rt, d,203693.96216175, 1.6703113351616716, -0.5063897283264162, 1.9270932796104698, -0.17492523789405823, 0.35382741689682007, -0.7217557430267334, 0.8701747059822083, 0.48502323031425476, 0.08688244223594666, -0.11698567867279053, 0.411918967962265, 0.33905136585235596, -0.6853612801761304, 0.27151636380759453, 0.5232238521658861,0.4275460740775408,0.75555419921875,0.894073486328125,0.4262542724609375
20220118-1319,2022-01-18 13:19:35Z,u01, 168,40,movements,el-ex, rt, d,203693.98710575, 1.6864966630734666, -0.5285778529624365, 1.9323174589352807, 0.00841539353132248, 0.7287780046463013, -1.0717382431030273, 0.8577518463134766, 0.5043057799339294, 0.09968740493059158, -0.11063569784164429, 0.4135105013847351, 0.32728397846221924, -0.6918271657504713, 0.2668686451136092, 0.5254216121557627,0.41723915814584545,0.7471160888671875,0.917816162109375,0.426971435546875
20220118-1319,2022-01-18 13:19:35Z,u01, 169,40,movements,el-ex, rt, d,203694.01204875, 1.710757666919388, -0.5596308285498897, 1.9356776933131632, 0.06858502328395844, 1.04094398021698, -1.4162724018096924, 0.8391643762588501, 0.5308733582496643, 0.11822354793548584, -0.0560528039932251, 0.35837841033935547, 0.3325819969177246, -0.7002645624519899, 0.26218565041917574, 0.5292042633528187,0.401037593361347,0.775787353515625,0.89947509765625,0.4443511962890625
20220118-1319,2022-01-18 13:19:35Z,u01, 170,40,movements,el-ex, rt, d,203694.03699175, 1.743516097493085, -0.5990122189978686, 1.9425717636071436, -0.06273544579744339, 1.2950847148895264, -1.772404670715332, 0.8136045932769775, 0.5638269186019897, 0.14193987846374512, -0.02480149269104004, 0.34448307752609253, 0.30546295642852783, -0.7109653465536818, 0.25592618553941526, 0.5333767217526356,0.3801834189340297,0.7888031005859375,0.9083099365234375,0.4474029541015625
20220118-1319,2022-01-18 13:19:35Z,u01, 171,40,movements,el-ex, rt, d,203694.06193575, 1.7879742110120913, -0.6457701475749624, 1.957738177082126, -0.15060772001743317, 1.5420681238174438, -2.1030757427215576, 0.7798761129379272, 0.6018136739730835, 0.1720859408378601, 0.03422600030899048, 0.3273398280143738, 0.3026454448699951, -0.724395834567531, 0.24757553620147443, 0.5366753026641898,0.35487557720594515,0.8084716796875,0.9171905517578125,0.4728851318359375
20220118-1319,2022-01-18 13:19:35Z,u01, 172,40,movements,el-ex, rt, d,203694.08687875, 1.8419925970207942, -0.6991131474737546, 1.9785472787712417, -0.05096680670976639, 1.7475227117538452, -2.3540122509002686, 0.7374383807182312, 0.6435391306877136, 0.20504212379455566, 0.11275088787078857, 0.3126072287559509, 0.2593895494937897, -0.7389144009987924, 0.2377531733949098, 0.540104472700813,0.32521713985381073,0.850189208984375,0.956146240234375,0.4644317626953125
20220118-1319,2022-01-18 13:19:35Z,u01, 173,40,movements,el-ex, rt, d,203694.11182175, 1.9033837543361087, -0.7591113759173903, 2.0021785200870768, 0.12513458728790283, 1.8989026546478271, -2.6347038745880127, 0.6856938600540161, 0.6882770657539368, 0.2368512898683548, 0.1567590832710266, 0.34369009733200073, 0.23423312604427338, -0.7529369075095786, 0.22696180494702578, 0.544815308902986,0.29111955924375016,0.8437652587890625,1.0198822021484375,0.469573974609375
20220118-1319,2022-01-18 13:19:35Z,u01, 174,40,movements,el-ex, rt, d,203694.13676575, 1.9741728363644295, -0.8260171833192994, 2.033191115211404, 0.05893063172698021, 2.0026330947875977, -2.9806506633758545, 0.6234089732170105, 0.7352375984191895, 0.2660578489303589, 0.19328707456588745, 0.31926679611206055, 0.21761509776115417, -0.7662802867966376, 0.2141108343706985, 0.5504303812837203,0.252977114006936,0.8166961669921875,1.05450439453125,0.483673095703125
20220118-1319,2022-01-18 13:19:35Z,u01, 175,40,movements,el-ex, rt, d,203694.16170875, 2.0656787888701063, -0.8936458302311862, 2.0889031120609607, -0.32405099272727966, 1.9823945760726929, -3.158130407333374, 0.5514013171195984, 0.7793613076210022, 0.2975781261920929, 0.2627008557319641, 0.24058210849761963, 0.20561090111732483, -0.7808531264317324, 0.19762960261864315, 0.5529839975134716,0.21311903211853106,0.82366943359375,0.9956512451171875,0.4956512451171875
20220118-1319,2022-01-18 13:19:35Z,u01, 176,40,movements,el-ex, rt, d,203694.18665175, 2.1829703286871807, -0.9578950440621901, 2.171996221639174, -0.3462752401828766, 2.090384006500244, -3.3575851917266846, 0.4707793593406677, 0.8179824948310852, 0.3305623233318329, 0.3549652099609375, 0.31716465950012207, 0.14091885089874268, -0.7957755002890095, 0.17894836103297224, 0.5525300317612669,0.1715500619976986,0.82574462890625,1.1351470947265625,0.4714813232421875
20220118-1319,2022-01-18 13:19:35Z,u01, 177,40,movements,el-ex, rt, d,203694.21159575, 2.328722091552125, -1.0181707463724945, 2.280482877600751, -0.25142961740493774, 2.337841033935547, -3.441171169281006, 0.38123324513435364, 0.8511492013931274, 0.3608415424823761, 0.44097137451171875, 0.3090987801551819, 0.2023603618144989, -0.8092762147791792, 0.1596645925243655, 0.5508975519191024,0.1268513659972742,0.8530120849609375,1.1562957763671875,0.5284423828125
20220118-1319,2022-01-18 13:19:35Z,u01, 178,40,movements,el-ex, rt, d,203694.23653875, 2.5036992191400875, -1.0758461716928975, 2.411008115579079, 0.25459232926368713, 2.6104485988616943, -3.509895086288452, 0.28285741806030273, 0.8799923658370972, 0.38158249855041504, 0.43039941787719727, 0.2604496479034424, 0.22614449262619019, -0.8190488928541562, 0.1412450493143283, 0.5506070015899918,0.07772209914397143,0.7132568359375,1.14044189453125,0.60772705078125
20220118-1319,2022-01-18 13:19:35Z,u01, 179,40,movements,el-ex, rt, d,203694.26148175, 2.716087230825612, -1.126943021008231, 2.5739722624262846, 0.146474227309227, 2.757359027862549, -3.672980546951294, 0.17725756764411926, 0.9031036496162415, 0.39113107323646545, 0.48488229513168335, 0.22557371854782104, 0.206280916929245, -0.8248678640197082, 0.12312004661776188, 0.551181101583835,0.02517656811239871,0.6627960205078125,1.1421051025390625,0.5957489013671875
20220118-1319,2022-01-18 13:19:35Z,u01, 180,40,movements,el-ex, rt, d,203694.28642575, 2.9811273149504056, -1.1498311069619684, 2.7907298289658327, -0.47236302495002747, 2.7031733989715576, -3.7756965160369873, 0.06529175490140915, 0.9126949310302734, 0.4033917486667633, 0.6157690286636353, 0.13973426818847656, 0.13725757598876953, -0.8313049948563807, 0.10309158319179379, 0.5454349413107108,-0.02836969913084819,0.681060791015625,1.05242919921875,0.5406494140625
20220118-1319,2022-01-18 13:19:35Z,u01, 181,40,movements,el-ex, rt, d,203694.31136875, -3.030211061814363, -1.1355984491224147, 3.0168192516011323, -0.718419075012207, 2.6956098079681396, -3.696507453918457, -0.04686029255390167, 0.9067866206169128, 0.4189772307872772, 0.589783251285553, 0.05718731880187988, 0.08695825934410095, -0.838275542926374, 0.08235733802310197, 0.5329738583915034,-0.08031303667729162,0.5842742919921875,0.9736785888671875,0.488311767578125
20220118-1319,2022-01-18 13:19:35Z,u01, 182,40,movements,el-ex, rt, d,203694.33631175003, -2.7871170654573962, -1.1001858187607498, -3.070393670556669, -0.5744273662567139, 2.683609962463379, -3.629056930541992, -0.1573851853609085, 0.891291618347168, 0.42524033784866333, 0.5923827290534973, 0.05220520496368408, 0.10103517770767212, -0.841870359713331, 0.06224525121128127, 0.5196004500428382,-0.13189115197527376,0.43499755859375,0.9434967041015625,0.526275634765625
20220118-1319,2022-01-18 13:19:35Z,u01, 183,40,movements,el-ex, rt, d,203694.36125575, -2.5888491359219823, -1.0433342336806273, -2.921292584296168, -1.1497997045516968, 2.712979316711426, -3.466296911239624, -0.2642667293548584, 0.8640872836112976, 0.4283880293369293, 0.6300351619720459, -0.004330754280090332, 0.13138055801391602, -0.8439816037781389, 0.04346340138477589, 0.5025160026333133,-0.18243813036024065,0.368865966796875,0.86962890625,0.555084228515625
20220118-1319,2022-01-18 13:19:35Z,u01, 184,40,movements,el-ex, rt, d,203694.38619875, -2.446109416552879, -0.96431957899881, -2.8321891965459076, -1.6007366180419922, 2.6899771690368652, -3.382564067840576, -0.36521586775779724, 0.8216612935066223, 0.43759578466415405, 0.6786466836929321, 0.020196616649627686, 0.045909374952316284, -0.8473642192392115, 0.027780801128177712, 0.47725542095090473,-0.23114791727451925,0.3134307861328125,0.84185791015625,0.4835052490234375
20220118-1319,2022-01-18 13:19:35Z,u01, 185,40,movements,el-ex, rt, d,203694.41114175002, -2.3325943169624814, -0.8816049566483245, -2.7753223744047517, -1.1260371208190918, 2.766009569168091, -3.1620259284973145, -0.4601443111896515, 0.7717604637145996, 0.4389222264289856, 0.5779421925544739, 0.10114896297454834, -0.0463901162147522, -0.8480999475118147, 0.01369661680839529, 0.45049523233372224,-0.27855491874347366,0.15704345703125,0.8828582763671875,0.407745361328125
20220118-1319,2022-01-18 13:19:35Z,u01, 186,40,movements,el-ex, rt, d,203694.43608575, -2.222299936161584, -0.8133570026330689, -2.7190730189893006, -0.09816807508468628, 2.7224533557891846, -2.944211721420288, -0.5463340878486633, 0.7265977263450623, 0.4166232645511627, 0.5599907040596008, 0.07654869556427002, -0.18694806098937988, -0.841611904120114, -0.0010186697439911185, 0.43206253348600654,-0.324053060278502,0.0136566162109375,0.8031463623046875,0.22967529296875
20220118-1319,2022-01-18 13:19:35Z,u01, 187,40,movements,el-ex, rt, d,203694.46102875003, -2.1092439025318344, -0.7570216008745079, -2.6563840925378686, 0.22684893012046814, 2.7341842651367188, -2.844433069229126, -0.6240347027778625, 0.6867595314979553, 0.3727492392063141, 0.4891012907028198, 0.024757802486419678, 0.006431549787521362, -0.8283008546109312, -0.017097137680249896, 0.4221548313684473,-0.3679818732166673,-0.1175689697265625,0.704498291015625,0.3545379638671875
20220118-1319,2022-01-18 13:19:35Z,u01, 188,40,movements,el-ex, rt, d,203694.48597175002, -2.0148333236006577, -0.6962112480158997, -2.610374548829433, -0.07734458148479462, 2.414696216583252, -2.7400074005126953, -0.6928706765174866, 0.6413152813911438, 0.329613596200943, 0.5226130485534668, -0.05636948347091675, -0.12413880228996277, -0.8146954921890623, -0.03283380764309912, 0.4100636769836028,-0.4087065613184466,-0.170257568359375,0.5849456787109375,0.205474853515625
20220118-1319,2022-01-18 13:19:35Z,u01, 189,40,movements,el-ex, rt, d,203694.51091575003, -1.9366401868421328, -0.6365142809925899, -2.5778948610840664, 0.21839389204978943, 2.164933681488037, -2.460242986679077, -0.750954270362854, 0.5943959355354309, 0.2876826524734497, 0.4235159158706665, -0.10262036323547363, -0.24503445625305176, -0.8010001785780615, -0.04732912561036956, 0.3973442191268539,-0.4452822849126276,-0.2940673828125,0.492767333984375,0.051788330078125
20220118-1319,2022-01-18 13:19:35Z,u01, 190,40,movements,el-ex, rt, d,203694.53585875002, -1.863695001346882, -0.5842976236882768, -2.5421821191693, 0.6005268096923828, 2.0752112865448, -2.2121362686157227, -0.7985762357711792, 0.5516136884689331, 0.2408284991979599, 0.355155885219574, -0.1057518720626831, -0.2533864974975586, -0.7851520327796022, -0.06285326375961581, 0.3894927591280241,-0.47736897836047176,-0.44342041015625,0.44586181640625,-0.0125579833984375
20220118-1319,2022-01-18 13:19:35Z,u01, 191,40,movements,el-ex, rt, d,203694.56080175002, -1.7990908318826973, -0.5365053134902364, -2.5122687888777913, 0.18160179257392883, 1.8112685680389404, -1.9765028953552246, -0.8371994495391846, 0.511135458946228, 0.19451917707920074, 0.33134007453918457, -0.22785592079162598, -0.2021334171295166, -0.7689877719252829, -0.07692458911502476, 0.38296423587716,-0.5060423108752562,-0.4964141845703125,0.3017578125,-0.0236053466796875
20220118-1319,2022-01-18 13:19:35Z,u01, 192,40,movements,el-ex, rt, d,203694.58574575002, -1.7583233352191394, -0.4922935394956706, -2.5094274426914644, -0.5668738484382629, 1.3844622373580933, -1.5249615907669067, -0.8658015131950378, 0.4726483225822449, 0.16429154574871063, 0.3006616234779358, -0.3363872170448303, -0.2721102237701416, -0.7582927172122733, -0.08448625871051646, 0.3706581114900721,-0.5295913238914799,-0.5651397705078125,0.136260986328125,-0.107818603515625
20220118-1319,2022-01-18 13:19:35Z,u01, 193,40,movements,el-ex, rt, d,203694.61068875002, -1.7348950430796035, -0.4584817308627526, -2.521145426003286, -0.5661785006523132, 0.9163074493408203, -0.9620027542114258, -0.8846790790557861, 0.44258713722229004, 0.14649198949337006, 0.23949158191680908, -0.5480862855911255, -0.5329819917678833, -0.7521407356984224, -0.08677736872376685, 0.357314263697292,-0.5468826768265138,-0.6371307373046875,-0.058837890625,-0.338470458984375
20220118-1319,2022-01-18 13:19:35Z,u01, 194,40,movements,el-ex, rt, d,203694.63563175002, -1.721252725409336, -0.44472083149121333, -2.525508551934408, 0.12126634269952774, 0.2867509126663208, -0.03985148295760155, -0.892532467842102, 0.4302058815956116, 0.13530977070331573, 0.27326977252960205, -0.7424616813659668, -0.6971690654754639, -0.7483626178419742, -0.08722543798626348, 0.35215193681192714,-0.5552784245108459,-0.6192626953125,-0.312255859375,-0.561859130859375
20220118-1319,2022-01-18 13:19:35Z,u01, 195,40,movements,el-ex, rt, d,203694.66057575002, -1.7186125380665087, -0.45579852793837494, -2.5120732996172546, 0.9314126968383789, -0.5055997371673584, 0.7508164644241333, -0.888118326663971, 0.4401794672012329, 0.1322428435087204, 0.3296465277671814, -0.6782622337341309, -0.6858928203582764, -0.7472302128228274, -0.08813870002692964, 0.3596339672025623,-0.551853337562007,-0.561920166015625,-0.2981719970703125,-0.5937957763671875
20220118-1319,2022-01-18 13:19:35Z,u01, 196,40,movements,el-ex, rt, d,203694.68551875002, -1.726269260365837, -0.48556608748040947, -2.4880607711032794, 0.7944567203521729, -0.9949707984924316, 1.3042067289352417, -0.8737434148788452, 0.46670907735824585, 0.13694866001605988, 0.30518579483032227, -0.5924262404441833, -0.44358932971954346, -0.7487310444006983, -0.08874771195499526, 0.3755510902622209,-0.5389684411738868,-0.5685577392578125,-0.1257171630859375,-0.306640625
20220118-1319,2022-01-18 13:19:36Z,u01, 197,40,movements,el-ex, rt, d,203694.71046175002, -1.7570963861503472, -0.5242382430762476, -2.4871580641221653, -0.0917879045009613, -1.48502516746521, 1.7399859428405762, -0.8507256507873535, 0.5005536675453186, 0.16034966707229614, 0.285982608795166, -0.5212597846984863, -0.2960613965988159, -0.7572267262884431, -0.08235604220721393, 0.3870342220239513,-0.5196438458081375,-0.56292724609375,-0.0410003662109375,-0.123687744140625
20220118-1319,2022-01-18 13:19:36Z,u01, 198,40,movements,el-ex, rt, d,203694.73540575002, -1.8068404021121385, -0.5710203481396968, -2.503555912011783, -0.06811749935150146, -1.8019297122955322, 2.1603574752807617, -0.8180198669433594, 0.5404908061027527, 0.19675661623477936, 0.2619438171386719, -0.4354797601699829, -0.3364204168319702, -0.7702979249826012, -0.07084781153574587, 0.3963160563758489,-0.49452531022324653,-0.5560760498046875,0.105010986328125,-0.1396636962890625
20220118-1319,2022-01-18 13:19:36Z,u01, 199,40,movements,el-ex, rt, d,203694.76034875002, -1.8604266850603373, -0.6294251083510164, -2.5145759479784244, 0.531095027923584, -1.9500548839569092, 2.5386197566986084, -0.774697482585907, 0.5886801481246948, 0.23086780309677124, 0.26839542388916016, -0.278728187084198, -0.28251880407333374, -0.7822644946403392, -0.05912833517856575, 0.411344042995451,-0.4640714754074808,-0.5163726806640625,0.276092529296875,-0.08349609375
20220118-1319,2022-01-18 13:19:36Z,u01, 200,40,movements,el-ex, rt, d,203694.78529175, -1.9137691193181536, -0.6967090055216069, -2.5214045396464604, 0.5804303884506226, -2.0104215145111084, 2.7164082527160645, -0.7222897410392761, 0.641697108745575, 0.25791898369789124, 0.2611081600189209, -0.21651095151901245, -0.1268461048603058, -0.7916648404030195, -0.04718331146591326, 0.43094116319634584,-0.4304999096594342,-0.461181640625,0.4251861572265625,0.131072998046875
20220118-1319,2022-01-18 13:19:36Z,u01, 201,40,movements,el-ex, rt, d,203694.81023575002, -1.9843910076506197, -0.7644988789998602, -2.5488584443705937, -0.06073984131217003, -2.1837289333343506, 2.9283671379089355, -0.6608744859695435, 0.6921753883361816, 0.2900654971599579, 0.34010428190231323, -0.13892227411270142, -0.07905188202857971, -0.8025104672827659, -0.03177572927056016, 0.4468593134720118,-0.3940608402809823,-0.341461181640625,0.5419921875,0.2098236083984375
20220118-1319,2022-01-18 13:19:36Z,u01, 202,40,movements,el-ex, rt, d,203694.83517875, -2.0748012080811837, -0.8309928758409209, -2.596637407119201, 0.12794548273086548, -2.312896251678467, 3.067387342453003, -0.5903167724609375, 0.7386010885238647, 0.32556799054145813, 0.3436737656593323, -0.12391597032546997, -0.12761595845222473, -0.8139889566896247, -0.014351920437521815, 0.4599426802776343,-0.35449784738956824,-0.24664306640625,0.61468505859375,0.1979522705078125
20220118-1319,2022-01-18 13:19:36Z,u01, 203,40,movements,el-ex, rt, d,203694.86012175, -2.173029494116743, -0.9025968199061452, -2.6480875670089836, 0.6261123418807983, -2.367928981781006, 3.222615957260132, -0.5105737447738647, 0.7849384546279907, 0.35097870230674744, 0.35528504848480225, -0.05631601810455322, -0.12998583912849426, -0.8218781569184725, 0.0023753668658902938, 0.4766255682366754,-0.311991523951918,-0.1732940673828125,0.719329833984375,0.203125
20220118-1319,2022-01-18 13:19:36Z,u01, 204,40,movements,el-ex, rt, d,203694.885065375, -2.2821000700612504, -0.9777369998454855, -2.7105637131197526, 0.602293848991394, -2.3119583129882812, 3.306896686553955, -0.42337366938591003, 0.8292347192764282, 0.3648626506328583, 0.35632652044296265, -0.05623960494995117, -0.004434913396835327, -0.8258636974499148, 0.019505821875156037, 0.4957103833392611,-0.26802979309386676,-0.067047119140625,0.7729949951171875,0.3604278564453125
20220118-1319,2022-01-18 13:19:36Z,u01, 205,40,movements,el-ex, rt, d,203694.910008375, -2.4203725909119256, -1.0421512262956183, -2.8067308852128465, 0.09969733655452728, -2.2989962100982666, 3.2257821559906006, -0.3330322206020355, 0.8634912371635437, 0.3787776529788971, 0.42733150720596313, 0.08627688884735107, 0.11507296562194824, -0.8294263131056416, 0.03795811679392874, 0.5102788434861275,-0.2241131416249487,0.06292724609375,0.9216766357421875,0.515838623046875
20220118-1319,2022-01-18 13:19:36Z,u01, 206,40,movements,el-ex, rt, d,203694.934951375, -2.5955289123344043, -1.0908511246761918, -2.939184678448993, 0.09500966966152191, -2.4449009895324707, 3.2915802001953125, -0.23978935182094574, 0.8870202302932739, 0.3945835530757904, 0.43339288234710693, 0.07591617107391357, -0.08974361419677734, -0.8331599818106346, 0.056002011786089545, 0.5202994567279563,-0.1788762003534141,0.193603515625,0.9629364013671875,0.304840087890625
20220118-1319,2022-01-18 13:19:36Z,u01, 207,40,movements,el-ex, rt, d,203694.959895375, -2.807723503065573, -1.1340396834741384, -3.1077944665233703, 0.6212564706802368, -2.341198205947876, 3.5420143604278564, -0.13861845433712006, 0.9061283469200134, 0.39964526891708374, 0.35541534423828125, -0.13957256078720093, -0.06531000137329102, -0.8331690367048711, 0.07517974660291366, 0.5319467858908722,-0.131186883696065,0.2237091064453125,0.7855224609375,0.2421417236328125
20220118-1319,2022-01-18 13:19:36Z,u01, 208,40,movements,el-ex, rt, d,203694.984838375, -3.0446987362185007, -1.1785984188397232, 2.976952416580184, 1.2003765106201172, -2.0656330585479736, 3.4361231327056885, -0.036976929754018784, 0.924071192741394, 0.3804277777671814, 0.3038226068019867, 0.08790707588195801, 0.3271222710609436, -0.8253299486733505, 0.09510186578540608, 0.5499360989975017,-0.0857698348538544,0.266845703125,1.0119781494140625,0.707550048828125
20220118-1319,2022-01-18 13:19:36Z,u01, 209,40,movements,el-ex, rt, d,203695.009781375, 2.9882376509376005, -1.185123662119861, 2.760300092252723, -0.5849385857582092, -2.119678020477295, 3.105903387069702, 0.057463616132736206, 0.9265456199645996, 0.37176769971847534, 0.5944528579711914, 0.29575973749160767, 0.1513034999370575, -0.8201971670391708, 0.1147190142727017, 0.5587988761438711,-0.04312749458625992,0.5760650634765625,1.2825927734375,0.6077117919921875
20220118-1319,2022-01-18 13:19:36Z,u01, 210,40,movements,el-ex, rt, d,203695.034725375, 2.7842641353571143, -1.138941251379581, 2.5989730732996974, -1.228259801864624, -2.3922007083892822, 2.851914167404175, 0.14639946818351746, 0.9081908464431763, 0.3921177089214325, 0.5362787246704102, 0.20219117403030396, 0.001329958438873291, -0.8241438527215653, 0.129791238232069, 0.551304876555897,0.001996246654077438,0.68267822265625,1.110382080078125,0.3934478759765625
20220118-1319,2022-01-18 13:19:36Z,u01, 211,40,movements,el-ex, rt, d,203695.059668375, 2.60494599078906, -1.0924705339842231, 2.463027286745057, 0.2700407803058624, -2.1360971927642822, 3.023463249206543, 0.23532827198505402, 0.8877667784690857, 0.395589143037796, 0.09922066330909729, 0.09944641590118408, 0.10204565525054932, -0.8227767061881333, 0.14433662417376852, 0.5477259062278632,0.04692308966506484,0.376861572265625,1.040740966796875,0.436920166015625
20220118-1319,2022-01-18 13:19:36Z,u01, 212,40,movements,el-ex, rt, d,203695.084611375, 2.409746213217253, -1.0669953259890432, 2.3016047538817292, 1.0661566257476807, -1.9933290481567383, 3.1845099925994873, 0.32260048389434814, 0.8757539391517639, 0.359144002199173, 0.09465116262435913, 0.17763686180114746, 0.010133951902389526, -0.8083478788264877, 0.16169634497249097, 0.5592322428226568,0.08767812462185498,0.4172515869140625,1.0533905029296875,0.3692779541015625
20220118-1319,2022-01-18 13:19:36Z,u01, 213,40,movements,el-ex, rt, d,203695.109555375, 2.2639982714225417, -1.0143055345002028, 2.1909113141800924, -1.020377516746521, -2.0528573989868164, 2.864017963409424, 0.4063011407852173, 0.849113941192627, 0.33752793073654175, 0.4199164807796478, 0.010566294193267822, 0.275066614151001, -0.798023096224345, 0.17867038599827023, 0.5608903483196874,0.1289888401079899,0.7606353759765625,0.8722076416015625,0.567657470703125
20220118-1319,2022-01-18 13:19:36Z,u01, 214,40,movements,el-ex, rt, d,203695.134498375, 2.1975564319678784, -0.9370809021663233, 2.1742780813193976, -1.3783645629882812, -2.0456151962280273, 2.4906740188598633, 0.4795956015586853, 0.8058330416679382, 0.34730595350265503, 0.4648319482803345, 0.2741994857788086, 0.2527306377887726, -0.7989993092610317, 0.18775802791682672, 0.5447225611836283,0.17211750601176537,0.944427490234375,1.0800323486328125,0.60003662109375
20220118-1319,2022-01-18 13:19:36Z,u01, 215,40,movements,el-ex, rt, d,203695.159441375, 2.118480308216176, -0.8814981832081256, 2.134561851731667, 0.2964269816875458, -1.7225335836410522, 2.3750181198120117, 0.5429702401161194, 0.7716925740242004, 0.33117008209228516, 0.15382224321365356, 0.4483085870742798, 0.1686771810054779, -0.7915410812188781, 0.19760507021209828, 0.5394652823950474,0.20830761837354458,0.7285919189453125,1.2800445556640625,0.5205230712890625
20220118-1319,2022-01-18 13:19:36Z,u01, 216,40,movements,el-ex, rt, d,203695.184385375, 2.0372343561412944, -0.8348933262999384, 2.0781868910482566, 0.36062535643577576, -1.417384386062622, 2.3124077320098877, 0.5995501279830933, 0.7412248849868774, 0.3018692433834076, 0.03346061706542969, 0.18658572435379028, 0.13308236002922058, -0.7786495776261342, 0.21128052139391357, 0.5406285867954159,0.2382981884801153,0.6330108642578125,0.9278106689453125,0.4349517822265625
20220118-1319,2022-01-18 13:19:36Z,u01, 217,40,movements,el-ex, rt, d,203695.209328375, 1.969582996132628, -0.7850355205898689, 2.034242869419671, 0.1408931314945221, -1.533083200454712, 2.2959344387054443, 0.6518585681915283, 0.7068502902984619, 0.2746695578098297, 0.13270258903503418, 0.13364970684051514, 0.10658648610115051, -0.7660195573404455, 0.22483064804198832, 0.5397625908427066,0.2670612199677833,0.7579193115234375,0.8426513671875,0.37548828125
20220118-1319,2022-01-18 13:19:36Z,u01, 218,40,movements,el-ex, rt, d,203695.23427137503, 1.9127336147491218, -0.7327047703943288, 2.011489654098703, -0.49113041162490845, -1.7227272987365723, 2.0965235233306885, 0.70033198595047, 0.6688827276229858, 0.249260812997818, 0.12779295444488525, 0.16916048526763916, 0.13400934636592865, -0.7548743662477846, 0.23408352591321996, 0.5354034898345439,0.2978467210249079,0.828125,0.838043212890625,0.383270263671875
20220118-1319,2022-01-18 13:19:36Z,u01, 219,40,movements,el-ex, rt, d,203695.259215375, 1.8694040844994817, -0.6802721383761002, 2.0121084457156506, -0.7609646916389465, -1.7175877094268799, 1.9029619693756104, 0.742999255657196, 0.6290045976638794, 0.22870366275310516, 0.11282044649124146, 0.23256772756576538, 0.09137988090515137, -0.7466560321519993, 0.23844622480401761, 0.5264210288107861,0.32943751834767865,0.8565673828125,0.850830078125,0.3416748046875
20220118-1319,2022-01-18 13:19:36Z,u01, 220,40,movements,el-ex, rt, d,203695.28415837503, 1.8278641413785008, -0.6326208889818321, 2.0112038115795574, -0.16029590368270874, -1.5651930570602417, 1.7479665279388428, 0.7799796462059021, 0.5912604928016663, 0.20504438877105713, 0.06720370054244995, 0.30568182468414307, 0.09376838803291321, -0.7373104433760446, 0.2426839608134425, 0.5188448470979128,0.35815915780789653,0.8471832275390625,0.896942138671875,0.2988128662109375
20220118-1319,2022-01-18 13:19:36Z,u01, 221,40,movements,el-ex, rt, d,203695.30910137502, 1.7828118874120582, -0.5922987718836513, 1.9970290233818206, 0.14941908419132233, -1.3521065711975098, 1.5637603998184204, 0.8110825419425964, 0.5582696795463562, 0.17458590865135193, 0.06332242488861084, 0.26926034688949585, 0.19362391531467438, -0.7248350979325757, 0.24881124214875786, 0.5163180661119245,0.38226009421638996,0.864990234375,0.8402252197265625,0.3447418212890625
20220118-1319,2022-01-18 13:19:36Z,u01, 222,40,movements,el-ex, rt, d,203695.334045375, 1.7449200887806955, -0.5574433917861438, 1.9860405550077023, -0.03725249320268631, -1.1635000705718994, 1.2896662950515747, 0.8357781767845154, 0.5290183424949646, 0.1470176726579666, 0.04932296276092529, 0.2741585373878479, 0.2429206222295761, -0.7134405331971456, 0.2539910247194544, 0.5141187631869183,0.402707072763025,0.885101318359375,0.8031768798828125,0.3899383544921875
20220118-1319,2022-01-18 13:19:36Z,u01, 223,40,movements,el-ex, rt, d,203695.35898837502, 1.717899525629977, -0.5292089956203885, 1.98442366522744, -0.17047664523124695, -0.9431157112121582, 0.9500404596328735, 0.8538838028907776, 0.5048506855964661, 0.1265229880809784, -0.0024740099906921387, 0.30830544233322144, 0.21621988713741302, -0.7052784431978738, 0.256600484815747, 0.5105686439487322,0.4195927725990292,0.8600311279296875,0.8089599609375,0.34478759765625
20220118-1319,2022-01-18 13:19:36Z,u01, 224,40,movements,el-ex, rt, d,203695.38393137502, 1.6982267967437132, -0.5086238650970537, 1.9858484941090815, -0.11606361716985703, -0.6832758784294128, 0.6787635087966919, 0.8663336038589478, 0.486975759267807, 0.11099877208471298, -0.06189030408859253, 0.32024475932121277, 0.22635769844055176, -0.6993665924589118, 0.2576543332169182, 0.5074615868794415,0.43241576420563627,0.804443359375,0.807220458984375,0.3373565673828125
20220118-1319,2022-01-18 13:19:36Z,u01, 225,40,movements,el-ex, rt, d,203695.40887537503, 1.6849372321631857, -0.4952052552954337, 1.9857489938147304, 0.007462947629392147, -0.3973800241947174, 0.38863062858581543, 0.8741458654403687, 0.4752122461795807, 0.10021136701107025, -0.11253398656845093, 0.332847535610199, 0.272225022315979, -0.6951434922481223, 0.2586140166189723, 0.5057274444531258,0.4406064822093181,0.7647857666015625,0.807830810546875,0.3655548095703125
20220118-1319,2022-01-18 13:19:36Z,u01, 226,40,movements,el-ex, rt, d,203695.43381837502, 1.6776104922030468, -0.4903987398408577, 1.983684864111802, 0.019332755357027054, -0.09551875293254852, -0.009178855456411839, 0.8771176934242249, 0.47097766399383545, 0.09404653310775757, -0.10041481256484985, 0.3752901256084442, 0.29068851470947266, -0.6927720394653545, 0.25901769611787295, 0.5058917914310926,0.4439034622563183,0.776702880859375,0.8462677001953125,0.384735107421875
20220118-1319,2022-01-18 13:19:36Z,u01, 227,40,movements,el-ex, rt, d,203695.45876137502, 1.6815825760170229, -0.49597821404451453, 1.9887061519063023, -0.30518752336502075, 0.242392435669899, -0.46846628189086914, 0.8741118311882019, 0.47589221596717834, 0.0972377136349678, -0.06966853141784668, 0.3886556029319763, 0.35930514335632324, -0.6948608022109759, 0.2564903959216166, 0.5057064040636666,0.44231459973712406,0.8055877685546875,0.861358642578125,0.4546661376953125
20220118-1319,2022-01-18 13:19:36Z,u01, 228,40,movements,el-ex, rt, d,203695.48370537502, 1.6975260240356254, -0.5117945264740195, 1.9998071596077571, -0.2571466267108917, 0.6065118312835693, -0.8648998737335205, 0.8648751974105835, 0.489742636680603, 0.11019593477249146, -0.08933204412460327, 0.40831348299980164, 0.34404289722442627, -0.7012902617472616, 0.2515749138723312, 0.5053456062895691,0.43534802123524025,0.775543212890625,0.8980560302734375,0.4542388916015625
20220118-1319,2022-01-18 13:19:36Z,u01, 229,40,movements,el-ex, rt, d,203695.50864837502, 1.7211760939372733, -0.53754683305767, 2.0081981706124017, -0.06853514909744263, 0.956725001335144, -1.2413166761398315, 0.8492732048034668, 0.5120303630828857, 0.12868499755859375, -0.10638391971588135, 0.44973117113113403, 0.3308027982711792, -0.7096799732864116, 0.24636728220790974, 0.5073256153903869,0.4222299981401747,0.7444000244140625,0.9471893310546875,0.4606170654296875
20220118-1319,2022-01-18 13:19:36Z,u01, 230,40,movements,el-ex, rt, d,203695.53359137502, 1.7522573511413482, -0.5726918384965585, 2.0141811440585373, 0.10882765054702759, 1.2853875160217285, -1.6114206314086914, 0.826646089553833, 0.5418963432312012, 0.15167246758937836, -0.06483584642410278, 0.4244123101234436, 0.3024442195892334, -0.7195664916191067, 0.24095705287894717, 0.5115314254542681,0.4031120725559799,0.761810302734375,0.96630859375,0.4541168212890625
20220118-1319,2022-01-18 13:19:36Z,u01, 231,40,movements,el-ex, rt, d,203695.55853537502, 1.7909961821032838, -0.616227530544738, 2.020410919198228, 0.20012781023979187, 1.5234078168869019, -1.892188310623169, 0.7963595986366272, 0.577960729598999, 0.1782485991716385, 0.0017206668853759766, 0.3862879276275635, 0.27565452456474304, -0.7307202091329035, 0.23488779553711953, 0.5171936724594963,0.3786638528804016,0.793914794921875,0.9710693359375,0.4567413330078125
20220118-1319,2022-01-18 13:19:36Z,u01, 232,40,movements,el-ex, rt, d,203695.58347837502, 1.8369832170338503, -0.666562787381849, 2.029385880571331, 0.17842194437980652, 1.709328532218933, -2.160348415374756, 0.7582711577415466, 0.6182881593704224, 0.2067481428384781, 0.05274873971939087, 0.3242930769920349, 0.28812479972839355, -0.7426314280292019, 0.22775563636951424, 0.5236061498186161,0.3499465605843884,0.8110198974609375,0.9425811767578125,0.494873046875
20220118-1319,2022-01-18 13:19:36Z,u01, 233,40,movements,el-ex, rt, d,203695.60842137501, 1.8936696079522959, -0.7216580042297703, 2.048612753858428, -0.05494300648570061, 1.8409401178359985, -2.404529094696045, 0.7119203209877014, 0.6606302857398987, 0.23819521069526672, 0.15566378831863403, 0.2738790512084961, 0.2780247628688812, -0.7559158230576857, 0.2183778213811085, 0.5288733734724463,0.31811206779669154,0.860687255859375,0.9436187744140625,0.5137176513671875
20220118-1319,2022-01-18 13:19:36Z,u01, 234,40,movements,el-ex, rt, d,203695.63336537502, 1.9670040755151923, -0.7786207422158736, 2.084973779560142, -0.299974262714386, 2.054680109024048, -2.638712167739868, 0.6567341685295105, 0.7022982239723206, 0.27473175525665283, 0.20463967323303223, 0.23243999481201172, 0.2835566997528076, -0.7711632655109979, 0.20657466680882486, 0.5312892134547712,0.2834888561813651,0.8613739013671875,0.9347381591796875,0.55828857421875
20220118-1319,2022-01-18 13:19:36Z,u01, 235,40,movements,el-ex, rt, d,203695.65830837502, 2.0594437410577333, -0.8376091472633587, 2.13852024526276, -0.36983346939086914, 2.2505581378936768, -2.878793478012085, 0.5909188985824585, 0.7430452108383179, 0.3141632080078125, 0.27631431818008423, 0.2680479884147644, 0.26853927969932556, -0.7873385137811395, 0.19282031119051218, 0.5318740111797818,0.24500686277883044,0.8538818359375,1.0082550048828125,0.591888427734375
20220118-1319,2022-01-18 13:19:36Z,u01, 236,40,movements,el-ex, rt, d,203695.683251375, 2.171875314847915, -0.8952838042677362, 2.2101676564129495, -0.3958401679992676, 2.396069288253784, -3.0270376205444336, 0.5156987905502319, 0.7803865671157837, 0.353626012802124, 0.358767032623291, 0.2122434377670288, 0.21380242705345154, -0.8032213305692254, 0.17790025686536648, 0.5308453644482535,0.2034456457118895,0.8744659423828125,0.9926300048828125,0.5674285888671875
20220118-1319,2022-01-18 13:19:37Z,u01, 237,40,movements,el-ex, rt, d,203695.70819537502, 2.306945600549432, -0.9499306604332561, 2.3019180082835082, -0.34137463569641113, 2.5496103763580322, -3.119832992553711, 0.4311037063598633, 0.8133751749992371, 0.39060282707214355, 0.37141698598861694, 0.22344434261322021, 0.17801594734191895, -0.8179343530898366, 0.16212588236546172, 0.5286776009547389,0.1587407671386344,0.810577392578125,1.03643798828125,0.557159423828125
20220118-1319,2022-01-18 13:19:37Z,u01, 238,40,movements,el-ex, rt, d,203695.733138375, 2.462381005841684, -1.0003585484806647, 2.4120920396456, -0.1428348869085312, 2.603660821914673, -3.253828287124634, 0.3392174243927002, 0.8416646718978882, 0.42015722393989563, 0.40992802381515503, 0.1936289668083191, 0.14084729552268982, -0.8299360642976608, 0.14589291481457772, 0.5267144070961103,0.11177344980658227,0.7491455078125,1.0352935791015625,0.561004638671875
20220118-1319,2022-01-18 13:19:37Z,u01, 239,40,movements,el-ex, rt, d,203695.758081375, 2.643236671412269, -1.041008053810792, 2.5467266883882225, -0.2891494333744049, 2.6916699409484863, -3.2455615997314453, 0.24154862761497498, 0.8629140853881836, 0.4438847005367279, 0.45792949199676514, 0.13723856210708618, 0.14917850494384766, -0.839799796504672, 0.1291458726154303, 0.5234975320765644,0.06330885860075547,0.709228515625,1.018798828125,0.588134765625
20220118-1319,2022-01-18 13:19:37Z,u01, 240,40,movements,el-ex, rt, d,203695.783025375, 2.8497331022280834, -1.0645576728788693, 2.705514054533707, -0.3760669529438019, 2.7991669178009033, -3.277587890625, 0.13951954245567322, 0.8745745420455933, 0.4643855094909668, 0.5137244462966919, 0.12536460161209106, 0.11244243383407593, -0.8482737034878653, 0.11235873568229499, 0.5173192485894249,0.013715429109612515,0.6532440185546875,0.99993896484375,0.5768280029296875
20220118-1319,2022-01-18 13:19:37Z,u01, 241,40,movements,el-ex, rt, d,203695.807968375, 3.0683216345108715, -1.0707462583325125, 2.8749206179200057, -0.24981865286827087, 2.7962093353271484, -3.249451160430908, 0.0350998155772686, 0.8775585293769836, 0.4781833589076996, 0.5307418704032898, 0.10663354396820068, 0.03655654191970825, -0.8543564310914701, 0.0957432259615032, 0.5094823754921186,-0.036553336080224125,0.5849151611328125,0.9900665283203125,0.5300750732421875
20220118-1319,2022-01-18 13:19:37Z,u01, 242,40,movements,el-ex, rt, d,203695.832911375, -2.9988851835034365, -1.0650730426224209, 3.0420152485412966, -0.01975259557366371, 2.772372007369995, -3.188138008117676, -0.06889887899160385, 0.8748242855072021, 0.47951605916023254, 0.5450341105461121, 0.11119884252548218, 0.022101283073425293, -0.8564635209851127, 0.07891940363628186, 0.5027438835142315,-0.08654856338960104,0.47613525390625,0.98602294921875,0.501617431640625
20220118-1319,2022-01-18 13:19:37Z,u01, 243,40,movements,el-ex, rt, d,203695.857855375, -2.792361334271102, -1.0451427271315323, -3.084200895011025, -0.09511785954236984, 2.809871196746826, -3.1813385486602783, -0.17169632017612457, 0.8649961352348328, 0.47148898243904114, 0.5305982828140259, 0.03241896629333496, 0.06496411561965942, -0.8554980482610228, 0.062189905173194726, 0.49563724750662447,-0.13637879285376195,0.3676910400390625,0.91497802734375,0.5246124267578125
20220118-1319,2022-01-18 13:19:37Z,u01, 244,40,movements,el-ex, rt, d,203695.882799, -2.6126874928189805, -1.0056514236955734, -2.952656374564385, -0.4685751497745514, 2.5687263011932373, -3.0514707565307617, -0.27022626996040344, 0.8445110321044922, 0.4623620808124542, 0.607140302658081, -0.013944625854492188, -0.013845503330230713, -0.8538734539652184, 0.04561985785641548, 0.48468012883860645,-0.18413052534056704,0.3369140625,0.83056640625,0.448516845703125
20220118-1319,2022-01-18 13:19:37Z,u01, 245,40,movements,el-ex, rt, d,203695.907742, -2.4723166937920062, -0.9505308742834715, -2.8586575287021265, -0.8121461868286133, 2.4782824516296387, -2.943441152572632, -0.3606187701225281, 0.8137242197990417, 0.45585834980010986, 0.5167162418365479, -0.030109107494354248, 0.04873436689376831, -0.8526471987934452, 0.030363275129501766, 0.4690498124763208,-0.2281732336616882,0.1937103271484375,0.76806640625,0.45831298828125
20220118-1319,2022-01-18 13:19:37Z,u01, 246,40,movements,el-ex, rt, d,203695.93268600001, -2.35506783706964, -0.887894366299935, -2.7903307260266565, -0.6941622495651245, 2.627598285675049, -2.9072439670562744, -0.44671985507011414, 0.7757447361946106, 0.44571441411972046, 0.4738195538520813, 0.023586928844451904, 0.0808967649936676, -0.8500536292913707, 0.016310392483982472, 0.45108386022283287,-0.271414979678121,0.027099609375,0.7993316650390625,0.526611328125
20220118-1319,2022-01-18 13:19:37Z,u01, 247,40,movements,el-ex, rt, d,203695.957629, -2.2512335724374264, -0.8214875112725141, -2.739620162673071, -0.9530196189880371, 2.5125362873077393, -2.7934329509735107, -0.5294429659843445, 0.7321598529815674, 0.42852309346199036, 0.5047542452812195, 0.1631191372871399, 0.04524683952331543, -0.8451335519959855, 0.0032901090143119816, 0.43193625528479973,-0.314911884552431,-0.0195770263671875,0.9368133544921875,0.536865234375
20220118-1319,2022-01-18 13:19:37Z,u01, 248,40,movements,el-ex, rt, d,203695.982572, -2.1687365593115926, -0.7514314229630297, -2.711659350558471, -0.9747137427330017, 2.519265651702881, -2.616332530975342, -0.6039316654205322, 0.6826854348182678, 0.41134825348854065, 0.4884836673736572, 0.02042442560195923, -0.1760425567626953, -0.8400076020520764, -0.007833246844094421, 0.4096732902362267,-0.3556595903277118,-0.115447998046875,0.7031097412109375,0.2353057861328125
20220118-1319,2022-01-18 13:19:37Z,u01, 249,40,movements,el-ex, rt, d,203696.007516, -2.0896007795920073, -0.68900388187013, -2.6849887563196098, -0.18290823698043823, 2.4022059440612793, -2.4688775539398193, -0.6703100800514221, 0.6357685923576355, 0.3827306032180786, 0.3789892792701721, 0.03496205806732178, -0.21738648414611816, -0.8312651896170888, -0.019065253590119513, 0.39145148755848647,-0.3942086472351091,-0.2568817138671875,0.68157958984375,0.195831298828125
20220118-1319,2022-01-18 13:19:37Z,u01, 250,40,movements,el-ex, rt, d,203696.032459, -2.0020992492235905, -0.636707168728322, -2.644065130238334, 0.32428091764450073, 2.522850513458252, -2.406503915786743, -0.7304236888885498, 0.5945510268211365, 0.3361401855945587, 0.3589637279510498, 0.10347753763198853, -0.07440629601478577, -0.8166787651257736, -0.03325498996928844, 0.3815822945841043,-0.4316535919741319,-0.3714599609375,0.698028564453125,0.2617340087890625
20220118-1319,2022-01-18 13:19:37Z,u01, 251,40,movements,el-ex, rt, d,203696.057402, -1.9247944887579223, -0.5802634912280504, -2.616817491568777, -0.559345543384552, 2.385293483734131, -2.3589589595794678, -0.7844615578651428, 0.548244297504425, 0.28991034626960754, 0.3752514719963074, -0.03174954652786255, -0.010384708642959595, -0.8017705043042631, -0.046035127477219495, 0.3687689701096734,-0.4680322429686995,-0.4009857177734375,0.57208251953125,0.363800048828125
20220118-1319,2022-01-18 13:19:37Z,u01, 252,40,movements,el-ex, rt, d,203696.082346, -1.8645292748221016, -0.5237458734779323, -2.611840782233165, -0.2287755161523819, 2.2683815956115723, -2.0333306789398193, -0.8288628458976746, 0.500127375125885, 0.2507166862487793, 0.36630797386169434, -0.2115378975868225, -0.22674527764320374, -0.7889418384592221, -0.05412127082071683, 0.35134298434685807,-0.5011982727616757,-0.462554931640625,0.2885894775390625,0.0239715576171875
20220118-1319,2022-01-18 13:19:37Z,u01, 253,40,movements,el-ex, rt, d,203696.107289, -1.80112516889449, -0.4821160898881264, -2.587414812139331, 1.0683140754699707, 1.8717637062072754, -1.5721280574798584, -0.8626173138618469, 0.46365511417388916, 0.202275350689888, 0.2772596478462219, -0.3169417977333069, -0.45216870307922363, -0.7725551086096047, -0.06554602709915935, 0.3449627844980214,-0.529020786730339,-0.5653839111328125,0.204345703125,-0.1794281005859375
20220118-1319,2022-01-18 13:19:37Z,u01, 254,40,movements,el-ex, rt, d,203696.132232, -1.73973189400458, -0.45856592004056107, -2.545403207648138, 1.0368380546569824, 1.4321706295013428, -0.8630947470664978, -0.8839230537414551, 0.44266262650489807, 0.15076299011707306, 0.2767607569694519, -0.5996145009994507, -0.4760653078556061, -0.7544694369328786, -0.07846888697491688, 0.3504943164715247,-0.5493378493585861,-0.6071624755859375,-0.156951904296875,-0.3253021240234375
