SessionID,LoggingTime,UID,RecNo,Hertz,Activity,MoveType,Wrist,Side,TimeStamp,DMRoll,DMPitch,DMYaw,DMRotX,DMRotY,DMRotZ,DMGrvX,DMGrvY,DMGrvZ,DMUAccelX,DMUAccelY,DMUAccelZ,DMQuatX,DMQuatY,DMQuatW,DMQuatZ,AccelroX,AceelroY,AceelroZ
20220118-1314,2022-01-18 13:14:11Z,u01, 1,40,movements,el-ex, rt, d,203370.87842941668, -2.026152224054801, -0.5693827029073857, -2.7804831593319337, -1.183640480041504, 3.0554730892181396, -2.953472852706909, -0.7564144730567932, 0.5391122698783875, 0.37039944529533386, 0.6349543333053589, 0.0770835280418396, 0.0010302364826202393, -0.8277679195527654, -5.551115123125783e-17, 0.32564214569893235,-0.4569000811706414,-0.1385955810546875,0.53924560546875,0.248138427734375
20220118-1314,2022-01-18 13:14:11Z,u01, 2,40,movements,el-ex, rt, d,203370.9033734167, -1.9504805288055729, -0.49402990294842275, -2.78109326975499, -1.1825631856918335, 3.0189261436462402, -2.5863728523254395, -0.8177265524864197, 0.4741777777671814, 0.32631099224090576, 0.579521656036377, -0.10685300827026367, -0.1697860062122345, -0.81429424819557, -0.008965121847635649, 0.2966508259009916,-0.4988415009125948,-0.2707366943359375,0.345458984375,0.182281494140625
20220118-1314,2022-01-18 13:14:11Z,u01, 3,40,movements,el-ex, rt, d,203370.9283174167, -1.878195760221658, -0.4279755486036965, -2.7822182617854274, -0.5140965580940247, 2.3652255535125732, -2.0959033966064453, -0.8671594262123108, 0.4150297939777374, 0.2752905786037445, 0.5620751976966858, -0.06859424710273743, -0.21552172303199768, -0.7983338233252432, -0.017561325402916383, 0.2717504495418176,-0.537127974692888,-0.0708160400390625,0.25787353515625,-0.17352294921875
20220118-1314,2022-01-18 13:14:11Z,u01, 4,40,movements,el-ex, rt, d,203370.95326141667, -1.8061049815105523, -0.37693517164306584, -2.7652981098836746, 0.24047759175300598, 2.3946547508239746, -1.8386653661727905, -0.9041742086410522, 0.3680725395679474, 0.2167758345603943, 0.46322572231292725, -0.2211761772632599, -0.4842468798160553, -0.7794034580761415, -0.030301248506835854, 0.2582847264123762,-0.57000099780394,-0.4991912841796875,0.1015625,-0.328857421875
20220118-1314,2022-01-18 13:14:11Z,u01, 5,40,movements,el-ex, rt, d,203370.9782044167, -1.7521482419551673, -0.33908919143007277, -2.7562079514741002, -0.12392713129520416, 1.6693209409713745, -1.1655548810958862, -0.9275926947593689, 0.3326282799243927, 0.1700894832611084, 0.4022477865219116, -0.5410328507423401, -0.6513972282409668, -0.7638878034194626, -0.03898927884912928, 0.24806381550170573,-0.5944911361050808,-0.54449462890625,-0.4251251220703125,-0.513641357421875
20220118-1314,2022-01-18 13:14:11Z,u01, 6,40,movements,el-ex, rt, d,203371.00314841667, -1.7233140709253207, -0.32136889257607487, -2.7608121735888576, -0.39584943652153015, 0.7366723418235779, -0.1671891212463379, -0.9377898573875427, 0.3158656656742096, 0.144149050116539, 0.3457183837890625, -0.9443600177764893, -0.7889547348022461, -0.7553256456798787, -0.03946762856221897, 0.24087227224333324,-0.6081989730177381,-0.5934906005859375,-0.596527099609375,-0.695556640625
20220118-1314,2022-01-18 13:14:11Z,u01, 7,40,movements,el-ex, rt, d,203371.02809241667, -1.7220621718237334, -0.32837098955519645, -2.773073602826336, -0.17786899209022522, -0.2488047182559967, 0.7904784083366394, -0.9357602596282959, 0.3225014805793762, 0.14263814687728882, 0.3735349178314209, -0.7276376485824585, -0.9512010812759399, -0.7551619614389535, -0.03239578033524876, 0.23966952203914937,-0.6092942668246595,-0.56640625,-0.2811431884765625,-0.82098388671875
20220118-1314,2022-01-18 13:14:11Z,u01, 8,40,movements,el-ex, rt, d,203371.05303641668, -1.7369763636687807, -0.3548467920217632, -2.7717251835306547, 0.5688250660896301, -0.9210042953491211, 1.2440515756607056, -0.9247820973396301, 0.3474467098712921, 0.15511079132556915, 0.2940446734428406, -0.4003183841705322, -0.7628833055496216, -0.7595225057742747, -0.02609521979478807, 0.24934922805471013,-0.6002247733930139,-0.648345947265625,-0.0116729736328125,-0.5215301513671875
20220118-1314,2022-01-18 13:14:11Z,u01, 9,40,movements,el-ex, rt, d,203371.07797941667, -1.7623982182383862, -0.3919941112259962, -2.764573090148108, 0.4047611355781555, -1.391248106956482, 1.6275895833969116, -0.9072377681732178, 0.38203203678131104, 0.1759873330593109, 0.24148142337799072, -0.32613909244537354, -0.4843367338180542, -0.7665439385629353, -0.020101170929198664, 0.26452740514969353,-0.5848347977030706,-0.6581268310546875,0.0336761474609375,-0.28057861328125
20220118-1314,2022-01-18 13:14:11Z,u01, 10,40,movements,el-ex, rt, d,203371.10292341668, -1.8031144931564462, -0.43894867719819775, -2.7634551419336253, 0.5333831310272217, -1.876569151878357, 2.0406086444854736, -0.880881130695343, 0.4249880313873291, 0.20840762555599213, 0.24017983675003052, -0.3551943600177765, -0.4897184371948242, -0.777224709505334, -0.011205606125548606, 0.28151263524392467,-0.5626250093562299,-0.626861572265625,0.0830078125,-0.26385498046875
20220118-1314,2022-01-18 13:14:11Z,u01, 11,40,movements,el-ex, rt, d,203371.12786741668, -1.854927447695031, -0.4964147871640233, -2.763026550371877, 0.5740951895713806, -2.260565996170044, 2.3911333084106445, -0.8440411686897278, 0.47627612948417664, 0.24648736417293549, 0.26113998889923096, -0.343845009803772, -0.4287533462047577, -0.7894569351446274, -0.0011945847488240013, 0.3024561627848469,-0.5341130893669004,-0.561492919921875,0.1678009033203125,-0.0618896484375
20220118-1314,2022-01-18 13:14:11Z,u01, 12,40,movements,el-ex, rt, d,203371.1528114167, -1.9191887885102819, -0.5584059602086933, -2.7748043448094726, 0.1760857254266739, -2.432234525680542, 2.599271535873413, -0.7971493005752563, 0.5298349857330322, 0.289530873298645, 0.28047144412994385, -0.23218178749084473, -0.22565725445747375, -0.8028842805520763, 0.01192741395833391, 0.3225112693455579,-0.5012196438940626,-0.4927520751953125,0.332061767578125,0.0782928466796875
20220118-1314,2022-01-18 13:14:11Z,u01, 13,40,movements,el-ex, rt, d,203371.17775441668, -1.997893848216862, -0.6209804979894803, -2.8031294208329602, 0.14358703792095184, -2.610383987426758, 2.72758412361145, -0.7402507066726685, 0.5818328857421875, 0.33689749240875244, 0.3000345826148987, -0.178741455078125, -0.1910841464996338, -0.8171031570270779, 0.028127972518927735, 0.3400378387603101,-0.4646780738669588,-0.41632080078125,0.4448394775390625,0.1624755859375
20220118-1314,2022-01-18 13:14:11Z,u01, 14,40,movements,el-ex, rt, d,203371.2026984167, -2.08307612312673, -0.6878258593135366, -2.8325840431477776, 0.6192207336425781, -2.7758994102478027, 2.905921459197998, -0.6734457015991211, 0.6348589062690735, 0.37871599197387695, 0.33897292613983154, -0.10525667667388916, -0.2533647418022156, -0.8291537324562485, 0.04315185850510772, 0.36072344244508053,-0.4248774638900015,-0.307159423828125,0.54718017578125,0.1315155029296875
20220118-1314,2022-01-18 13:14:11Z,u01, 15,40,movements,el-ex, rt, d,203371.2276424167, -2.1782318287995377, -0.7580326295208571, -2.8691344385547968, 0.26136258244514465, -2.8884451389312744, 3.025599718093872, -0.5962851643562317, 0.6874940991401672, 0.41448289155960083, 0.39372479915618896, -0.06418782472610474, -0.16230061650276184, -0.8389732977686972, 0.058010740662167826, 0.38331905404994393,-0.3818705773829233,-0.1447296142578125,0.6777191162109375,0.2978973388671875
20220118-1314,2022-01-18 13:14:11Z,u01, 16,40,movements,el-ex, rt, d,203371.25258641667, -2.2924449481499294, -0.821370100131596, -2.929662817863592, 0.571936845779419, -2.8484878540039062, 3.0097641944885254, -0.5114032626152039, 0.7320798635482788, 0.450029194355011, 0.4041796922683716, -0.10929238796234131, 0.02964639663696289, -0.848152957658229, 0.07517419489625365, 0.4016963022023916,-0.337084028898622,-0.1026458740234375,0.651092529296875,0.4750823974609375
20220118-1314,2022-01-18 13:14:11Z,u01, 17,40,movements,el-ex, rt, d,203371.2775294167, -2.3990733619055185, -0.8963505052609761, -2.9776866065073566, 1.5213844776153564, -2.8085358142852783, 3.102511167526245, -0.4222296476364136, 0.7810531258583069, 0.46008551120758057, 0.3847845196723938, 0.031675875186920166, -0.07623499631881714, -0.8498892090907096, 0.08792664326057792, 0.42921006076922463,-0.2928073664416786,0.04473876953125,0.927337646484375,0.3730621337890625
20220118-1314,2022-01-18 13:14:11Z,u01, 18,40,movements,el-ex, rt, d,203371.30247341667, -2.5344181816334883, -0.9697734813799742, -3.0529203128205267, 0.7636251449584961, -3.0515005588531494, 3.329533576965332, -0.3226381540298462, 0.8247576355934143, 0.46441373229026794, 0.5264650583267212, -0.05328834056854248, -0.1572691798210144, -0.849615668031604, 0.10178451547619949, 0.4560783793968015,-0.24451149127289998,0.2111053466796875,0.7399749755859375,0.3698883056640625
20220118-1314,2022-01-18 13:14:11Z,u01, 19,40,movements,el-ex, rt, d,203371.32741741667, -2.708562330221121, -1.0154615832282528, 3.1067115764742446, 0.08575199544429779, -2.7359845638275146, 3.142681837081909, -0.2212371975183487, 0.8497239947319031, 0.4785640239715576, 0.4492340683937073, -0.09207934141159058, 0.2428717315196991, -0.8514961412020905, 0.11931611216008431, 0.4714977055438692,-0.19597960081496194,0.2639007568359375,0.8560791015625,0.77618408203125
20220118-1314,2022-01-18 13:14:11Z,u01, 20,40,movements,el-ex, rt, d,203371.35236141668, -2.8936819576600183, -1.0550928279561487, 2.9708892078926676, 0.9790180325508118, -2.696597099304199, 3.2213938236236572, -0.12100813537836075, 0.8699460029602051, 0.47807085514068604, 0.49814438819885254, 0.22870224714279175, 0.08767974376678467, -0.8489883939328255, 0.13510784100385964, 0.4886267262624052,-0.1490260293192891,0.399383544921875,1.1293487548828125,0.523834228515625
20220118-1314,2022-01-18 13:14:11Z,u01, 21,40,movements,el-ex, rt, d,203371.37730441667, -3.1020943327321526, -1.0886980209281973, 2.8117062864481315, 0.441222608089447, -2.78372859954834, 3.231605052947998, -0.018308239057660103, 0.886023998260498, 0.4632783532142639, 0.4728066027164459, 0.13190525770187378, 0.040460407733917236, -0.8420103884906459, 0.15052466809198034, 0.5079591249188531,-0.10167867179468637,0.474151611328125,0.9468994140625,0.6114349365234375
20220118-1314,2022-01-18 13:14:11Z,u01, 22,40,movements,el-ex, rt, d,203371.40224841668, 2.963557595395682, -1.0740835365077945, 2.641070081478768, -0.7761162519454956, -2.4523677825927734, 3.209287166595459, 0.08439307659864426, 0.8791537880897522, 0.46900612115859985, 0.4539676010608673, 0.015881001949310303, 0.22017261385917664, -0.8404267248442951, 0.1678868235342022, 0.5126138076277598,-0.05219320551063997,0.536865234375,0.902862548828125,0.757720947265625
20220118-1314,2022-01-18 13:14:11Z,u01, 23,40,movements,el-ex, rt, d,203371.42719241668, 2.7750166502113074, -1.0503727964017224, 2.4939044384096527, 0.4802227318286896, -2.3582723140716553, 2.8993442058563232, 0.17822419106960297, 0.8676086664199829, 0.46421098709106445, 0.3837418556213379, 0.26444101333618164, 0.22315198183059692, -0.8355947546675337, 0.1840839576666608, 0.5175329653630818,-0.007368908172408151,0.5897064208984375,1.317657470703125,0.5474700927734375
20220118-1314,2022-01-18 13:14:11Z,u01, 24,40,movements,el-ex, rt, d,203371.4521364167, 2.5905562581142476, -1.0327819713398065, 2.347878754041485, 0.6557559370994568, -2.367771863937378, 3.0524537563323975, 0.26829442381858826, 0.8587278723716736, 0.4365832507610321, 0.3077402412891388, 0.14317959547042847, -0.012007176876068115, -0.823690619311416, 0.19956298846794196, 0.5296370664172607,0.03454118787337143,0.54632568359375,0.8975677490234375,0.421905517578125
20220118-1314,2022-01-18 13:14:11Z,u01, 25,40,movements,el-ex, rt, d,203371.47707941668, 2.4251792759455304, -0.99187524036054, 2.2196840413233145, 0.1046467274427414, -2.09873628616333, 3.33258056640625, 0.3592858910560608, 0.8370534181594849, 0.41262033581733704, 0.18032601475715637, -0.10733234882354736, -0.022712230682373047, -0.8119343601759927, 0.21696256755302368, 0.5362969968460018,0.07794543769050855,0.586456298828125,0.698333740234375,0.5545501708984375
20220118-1314,2022-01-18 13:14:11Z,u01, 26,40,movements,el-ex, rt, d,203371.5020234167, 2.2787199198768384, -0.9405322547198246, 2.1084186200212485, 0.32695621252059937, -2.328528642654419, 2.9780890941619873, 0.4477435052394867, 0.8078718781471252, 0.3832347095012665, 0.3572492301464081, 0.20824134349822998, 0.35480257868766785, -0.7976848765273421, 0.23519394694193518, 0.5420148564691236,0.12084112919253018,0.8737335205078125,1.132354736328125,0.69073486328125
20220118-1314,2022-01-18 13:14:11Z,u01, 27,40,movements,el-ex, rt, d,203371.5269674167, 2.1681927976188056, -0.8799531317573542, 2.0443241063527617, -0.7252604961395264, -2.4557178020477295, 2.7933857440948486, 0.5268284678459167, 0.7707090377807617, 0.3584127426147461, 0.464779257774353, 0.3709230422973633, 0.1773693561553955, -0.7862264807107218, 0.24709167777216012, 0.5419021371737619,0.1647295555144477,0.9521026611328125,0.9880523681640625,0.4748382568359375
20220118-1314,2022-01-18 13:14:11Z,u01, 28,40,movements,el-ex, rt, d,203371.55191087502, 2.094340588428805, -0.8109508890996588, 2.023701681663392, -1.02225661277771, -2.186185121536255, 2.5479185581207275, 0.5965454578399658, 0.7249425053596497, 0.34437233209609985, 0.21033942699432373, 0.22253674268722534, 0.025668740272521973, -0.779276919302625, 0.2547815727818775, 0.5332746905893572,0.20840367598157153,0.7989501953125,0.9684906005859375,0.3643035888671875
20220118-1314,2022-01-18 13:14:12Z,u01, 29,40,movements,el-ex, rt, d,203371.576853875, 2.0231431071329538, -0.7469686905841796, 1.996268434512434, 0.06436121463775635, -2.0218100547790527, 2.6826255321502686, 0.6599538326263428, 0.6794176697731018, 0.3207063674926758, 0.15303444862365723, 0.26996880769729614, 0.07516783475875854, -0.768207283985703, 0.26497313048792814, 0.5275992000170274,0.24755989481548352,0.854461669921875,0.896728515625,0.4378204345703125
20220118-1314,2022-01-18 13:14:12Z,u01, 30,40,movements,el-ex, rt, d,203371.60179787502, 1.9402635308685843, -0.6907078460385554, 1.9488612791252748, 0.49080604314804077, -2.1111955642700195, 2.542142868041992, 0.7187822461128235, 0.6370829343795776, 0.2783486843109131, 0.23753201961517334, 0.22757160663604736, 0.17865228652954102, -0.7497169155587722, 0.2776668541300143, 0.5297567738821507,0.28316718495198606,0.982391357421875,0.8696746826171875,0.4511260986328125
20220118-1314,2022-01-18 13:14:12Z,u01, 31,40,movements,el-ex, rt, d,203371.62674187502, 1.8702358892299498, -0.6325733640716518, 1.922051438682216, -0.4675631821155548, -2.1395511627197266, 2.394195795059204, 0.7706209421157837, 0.5912221670150757, 0.23790785670280457, 0.2666412591934204, 0.2168375849723816, 0.18129709362983704, -0.7326880352776997, 0.2865696663212761, 0.5283252525534898,0.31924702816890427,1.0199737548828125,0.75146484375,0.40087890625
20220118-1314,2022-01-18 13:14:12Z,u01, 32,40,movements,el-ex, rt, d,203371.65168587503, 1.821862342457259, -0.5737816349138651, 1.926409683551875, -0.9443477988243103, -1.9363757371902466, 2.0798473358154297, 0.8135235905647278, 0.542811930179596, 0.20865069329738617, 0.15243428945541382, 0.24887508153915405, 0.17274299263954163, -0.7211886576200591, 0.29019350080483164, 0.5192145865766338,0.3550930605808814,0.96466064453125,0.8226776123046875,0.362701416015625
20220118-1314,2022-01-18 13:14:12Z,u01, 33,40,movements,el-ex, rt, d,203371.67662887502, 1.7799703929334636, -0.5219479212691233, 1.9332182076924338, -0.4116617739200592, -1.7239341735839844, 1.824954628944397, 0.8479549288749695, 0.49856963753700256, 0.18000313639640808, 0.10991567373275757, 0.36518460512161255, 0.18149304389953613, -0.7101017855828576, 0.2928430041935134, 0.5104671634255834,0.38655123681512576,0.962646484375,0.84619140625,0.3819732666015625
20220118-1314,2022-01-18 13:14:12Z,u01, 34,40,movements,el-ex, rt, d,203371.70157287503, 1.7385483698839954, -0.47985877994405685, 1.9299536702374929, -0.06540373712778091, -1.4939833879470825, 1.5461249351501465, 0.8746082782745361, 0.4616539180278778, 0.14810924232006073, 0.05962646007537842, 0.3302619457244873, 0.3091052770614624, -0.6972651077377199, 0.2964388465216379, 0.5061914069632205,0.41196574812231934,0.9195709228515625,0.7838592529296875,0.4611053466796875
20220118-1314,2022-01-18 13:14:12Z,u01, 35,40,movements,el-ex, rt, d,203371.726516875, 1.7027510389756657, -0.4443732331494051, 1.9267960825013093, -0.22945758700370789, -1.2504863739013672, 1.2876030206680298, 0.8950314521789551, 0.42989206314086914, 0.11879389733076096, -0.0293237566947937, 0.32793566584587097, 0.3101003170013428, -0.685339928082905, 0.2995098214833738, 0.5029459928436634,0.43318424501225106,0.84442138671875,0.7510528564453125,0.3870697021484375
20220118-1314,2022-01-18 13:14:12Z,u01, 36,40,movements,el-ex, rt, d,203371.751460875, 1.6781329515661882, -0.4161729085902683, 1.9333661541497242, -0.47954511642456055, -0.9726184010505676, 0.8980093598365784, 0.9093791246414185, 0.4042629897594452, 0.09798628091812134, -0.0740823745727539, 0.38806483149528503, 0.2874661684036255, -0.6775309643316384, 0.29990820853919864, 0.4978486341343832,0.4507257921907642,0.83905029296875,0.816070556640625,0.4042816162109375
20220118-1314,2022-01-18 13:14:12Z,u01, 37,40,movements,el-ex, rt, d,203371.776403875, 1.661118921086065, -0.39734648572914705, 1.943447901284181, -0.34268516302108765, -0.6864619851112366, 0.5295247435569763, 0.9183326363563538, 0.38697293400764465, 0.08317248523235321, -0.09376269578933716, 0.47133395075798035, 0.3739504814147949, -0.6728070888451845, 0.2981893108702288, 0.4931763962020415,0.4638868917077996,0.80059814453125,0.8540191650390625,0.480194091796875
20220118-1314,2022-01-18 13:14:12Z,u01, 38,40,movements,el-ex, rt, d,203371.801347875, 1.6515519285010953, -0.3888687654981596, 1.9493099649751824, -0.2239196002483368, -0.23143991827964783, 0.1045476421713829, 0.9223229289054871, 0.3791418969631195, 0.07464507967233658, -0.14386528730392456, 0.42055585980415344, 0.40377914905548096, -0.6703656720945241, 0.29653398819912186, 0.49101216478602017,0.47072768682834026,0.78326416015625,0.788543701171875,0.4812164306640625
20220118-1314,2022-01-18 13:14:12Z,u01, 39,40,movements,el-ex, rt, d,203371.826291875, 1.6545623824999738, -0.3914620267078889, 1.9573997438940105, -0.36239248514175415, 0.2116718888282776, -0.37457194924354553, 0.9211114048957825, 0.3815402388572693, 0.07733884453773499, -0.10356050729751587, 0.3808193504810333, 0.41861772537231445, -0.6725973984937673, 0.2937382524856187, 0.48934338230086283,0.47103487443493086,0.8421173095703125,0.7576904296875,0.5060577392578125
20220118-1314,2022-01-18 13:14:12Z,u01, 40,40,movements,el-ex, rt, d,203371.851234875, 1.6703959138961955, -0.4055346083382271, 1.9710864790403704, -0.5386831164360046, 0.6263372302055359, -0.7958821654319763, 0.9143377542495728, 0.39451006054878235, 0.09136999398469925, -0.0821995735168457, 0.361547589302063, 0.4128110408782959, -0.6800220134279051, 0.2885395276510413, 0.4875506148700634,0.4654132483758336,0.8275909423828125,0.7548065185546875,0.4932098388671875
20220118-1314,2022-01-18 13:14:12Z,u01, 41,40,movements,el-ex, rt, d,203371.876178875, 1.6975314335126357, -0.4274354911781257, 1.9885267568939746, -0.4831284284591675, 0.97210294008255, -1.080599308013916, 0.9027335047721863, 0.4145383834838867, 0.11502452194690704, -0.08042186498641968, 0.3480348587036133, 0.345257043838501, -0.6912568412274237, 0.28226980238058974, 0.48552018088374727,0.4547066450817589,0.831634521484375,0.76446533203125,0.4509735107421875
20220118-1314,2022-01-18 13:14:12Z,u01, 42,40,movements,el-ex, rt, d,203371.90112287502, 1.7324310403460466, -0.45722904840219547, 2.0034957185368016, -0.2101558893918991, 1.323045253753662, -1.4114941358566284, 0.8855839371681213, 0.44146350026130676, 0.14440083503723145, -0.03905653953552246, 0.37108227610588074, 0.32550907135009766, -0.7042169191018866, 0.27618643397218257, 0.48538266799381513,0.43841017624961426,0.852020263671875,0.83441162109375,0.477813720703125
20220118-1314,2022-01-18 13:14:12Z,u01, 43,40,movements,el-ex, rt, d,203371.92606687502, 1.7732060280107762, -0.49621897903633094, 2.012060760931729, 0.12777920067310333, 1.604614496231079, -1.755009651184082, 0.8614363074302673, 0.4761039614677429, 0.176783949136734, 0.026289522647857666, 0.40576237440109253, 0.30672144889831543, -0.717621640836396, 0.27094493251096347, 0.4886745049684975,0.4156985639204525,0.910430908203125,0.8898162841796875,0.4770660400390625
20220118-1314,2022-01-18 13:14:12Z,u01, 44,40,movements,el-ex, rt, d,203371.95100987502, 1.8205063875323544, -0.5438255366928189, 2.0209262234477423, 0.056358519941568375, 1.8438501358032227, -2.0891945362091064, 0.8291944265365601, 0.5174134373664856, 0.2114720344543457, 0.09936416149139404, 0.3059508204460144, 0.2737119495868683, -0.7319035217903944, 0.2646757431349079, 0.4937500348405303,0.38791118288718907,0.9205474853515625,0.838714599609375,0.494384765625
20220118-1314,2022-01-18 13:14:12Z,u01, 45,40,movements,el-ex, rt, d,203371.97595387502, 1.8790584529497516, -0.5976218610204334, 2.0381664257064047, 0.08461598306894302, 2.087188482284546, -2.3596301078796387, 0.787708580493927, 0.5626780986785889, 0.2508161664009094, 0.11320096254348755, 0.3310137987136841, 0.271416038274765, -0.7481005115295165, 0.2564248538368501, 0.49801710748132566,0.35576814652720656,0.904327392578125,0.9413299560546875,0.53515625
20220118-1314,2022-01-18 13:14:12Z,u01, 46,40,movements,el-ex, rt, d,203372.00089787503, 1.9452497845826846, -0.657798300647448, 2.058629905229735, 0.22263456881046295, 2.2418036460876465, -2.6320786476135254, 0.7365064024925232, 0.6113760471343994, 0.289443701505661, 0.1959276795387268, 0.39837419986724854, 0.2821354269981384, -0.763942250730361, 0.2472126381616, 0.5034184007510134,0.3191364557091795,0.94091796875,1.0065155029296875,0.5753326416015625
20220118-1314,2022-01-18 13:14:12Z,u01, 47,40,movements,el-ex, rt, d,203372.025841875, 2.023279340160859, -0.7229914311079011, 2.0902675183410078, -0.023307982832193375, 2.3976149559020996, -2.943952798843384, 0.6743701696395874, 0.6616306900978088, 0.3278256058692932, 0.2851024866104126, 0.3082483410835266, 0.26001936197280884, -0.7800067073333241, 0.23558933618061972, 0.508312836101753,0.2787565683898856,0.95556640625,0.962432861328125,0.6020355224609375
20220118-1314,2022-01-18 13:14:12Z,u01, 48,40,movements,el-ex, rt, d,203372.050784875, 2.125497081196956, -0.7874155656408603, 2.145656998221176, -0.23125049471855164, 2.708357334136963, -3.1475815773010254, 0.5998679995536804, 0.7085318565368652, 0.37167325615882874, 0.35171592235565186, 0.2531532645225525, 0.2661442458629608, -0.7980004866742817, 0.2214313681668572, 0.5090413209534671,0.23460674176727675,0.95361328125,0.990936279296875,0.6443634033203125
20220118-1314,2022-01-18 13:14:12Z,u01, 49,40,movements,el-ex, rt, d,203372.075728875, 2.247891056121414, -0.8509963266040148, 2.217696025584564, -0.037993982434272766, 2.8648335933685303, -3.2639193534851074, 0.5138048529624939, 0.7519375681877136, 0.4130310118198395, 0.42563313245773315, 0.3169862627983093, 0.24176949262619019, -0.8148051715037146, 0.2064171422137036, 0.5086517982720199,0.18643471107953993,0.931304931640625,1.0834808349609375,0.67840576171875
20220118-1314,2022-01-18 13:14:12Z,u01, 50,40,movements,el-ex, rt, d,203372.100672875, 2.387726515792921, -0.9125126629419766, 2.306863363614885, -0.014055861160159111, 2.824958086013794, -3.4351885318756104, 0.41872698068618774, 0.7910434007644653, 0.446002721786499, 0.4865923523902893, 0.26837438344955444, 0.16808748245239258, -0.8287733666278614, 0.1900948737265069, 0.5084316486166636,0.1360000804381385,0.893341064453125,1.0401763916015625,0.608428955078125
20220118-1314,2022-01-18 13:14:12Z,u01, 51,40,movements,el-ex, rt, d,203372.125616875, 2.5556011659086884, -0.9639861413573597, 2.4254879462004624, -0.2421996146440506, 2.9371073246002197, -3.5298256874084473, 0.31536296010017395, 0.8214712142944336, 0.4751119315624237, 0.5251064300537109, 0.16160666942596436, 0.15602225065231323, -0.841431181426848, 0.17189977598661244, 0.5053326980367938,0.08416006445573107,0.808441162109375,0.9755706787109375,0.6376190185546875
20220118-1314,2022-01-18 13:14:12Z,u01, 52,40,movements,el-ex, rt, d,203372.150559875, 2.752530477857036, -1.0007441368741539, 2.5725761977421104, -0.2661246359348297, 2.966728687286377, -3.587329626083374, 0.20471040904521942, 0.8418728113174438, 0.49934354424476624, 0.5536362528800964, 0.18580657243728638, 0.16918990015983582, -0.8522789337232703, 0.1526184548122997, 0.4993872477429189,0.030670115853068808,0.7536773681640625,1.034637451171875,0.667572021484375
20220118-1314,2022-01-18 13:14:12Z,u01, 53,40,movements,el-ex, rt, d,203372.175503875, 2.966427023023929, -1.017687187721631, 2.738365599282041, -0.4019455015659332, 2.9309678077697754, -3.5638513565063477, 0.09155090898275375, 0.8508952856063843, 0.5172969102859497, 0.6211719512939453, 0.15851938724517822, 0.09764790534973145, -0.8608732248879765, 0.1324603086153588, 0.4907673949310326,-0.02233981257919279,0.68731689453125,0.9614105224609375,0.5596466064453125
20220118-1314,2022-01-18 13:14:12Z,u01, 54,40,movements,el-ex, rt, d,203372.20044787502, -3.100637306240033, -1.012988313236841, 2.90609830024946, -0.350994735956192, 2.987471580505371, -3.518378496170044, -0.02167275920510292, 0.8484174013137817, 0.5288842916488647, 0.6122490167617798, 0.06268489360809326, -0.0033713579177856445, -0.8670468746335422, 0.11256938123717586, 0.4795509976981712,-0.07475851705865491,0.5620269775390625,0.8957061767578125,0.5237274169921875
20220118-1314,2022-01-18 13:14:12Z,u01, 55,40,movements,el-ex, rt, d,203372.22539187502, -2.8902111169271003, -0.9927412651137155, 3.0651717563787164, -0.294484406709671, 3.1423850059509277, -3.506789445877075, -0.13591188192367554, 0.8375269174575806, 0.5292229652404785, 0.6083087921142578, 0.06756341457366943, 0.07723784446716309, -0.8694627860399131, 0.09298351278587041, 0.46792454067199374,-0.12820009497514148,0.4380340576171875,0.9057769775390625,0.66461181640625
20220118-1314,2022-01-18 13:14:12Z,u01, 56,40,movements,el-ex, rt, d,203372.25033487502, -2.6979389098073443, -0.955318206845911, -3.078261188105098, -0.44230303168296814, 3.038318157196045, -3.456036329269409, -0.24782274663448334, 0.8164975047111511, 0.521455705165863, 0.6357012391090393, 0.04362523555755615, 0.07270646095275879, -0.869081041009435, 0.0736613440350724, 0.4543987311193863,-0.18109127640623007,0.364227294921875,0.848236083984375,0.5998382568359375
20220118-1314,2022-01-18 13:14:12Z,u01, 57,40,movements,el-ex, rt, d,203372.27527887502, -2.537652238196007, -0.8988218219752028, -2.971818725021733, -0.8598294258117676, 3.011038303375244, -3.2385804653167725, -0.3535301983356476, 0.7825940251350403, 0.5124092698097229, 0.6684716939926147, 0.015379607677459717, 0.008114039897918701, -0.8678064956004408, 0.0558257646769853, 0.4359957848121506,-0.2317393307900955,0.265777587890625,0.7592620849609375,0.5023956298828125
20220118-1314,2022-01-18 13:14:12Z,u01, 58,40,movements,el-ex, rt, d,203372.30022287503, -2.4028707634264035, -0.8327764371976399, -2.8953436752716653, -0.7225838303565979, 3.017009735107422, -3.1197524070739746, -0.453042209148407, 0.7398023009300232, 0.4974394142627716, 0.6364070177078247, 0.07446783781051636, 0.017468750476837158, -0.8643530904668332, 0.04016765552675494, 0.41487671144075655,-0.28134999378046266,0.1663818359375,0.7850799560546875,0.4573822021484375
20220118-1314,2022-01-18 13:14:12Z,u01, 59,40,movements,el-ex, rt, d,203372.325166875, -2.277980604669939, -0.7753148180113835, -2.825294866233658, 0.49610206484794617, 2.991034746170044, -2.8745622634887695, -0.5429313778877258, 0.6999409794807434, 0.46401333808898926, 0.5832756757736206, -0.022984802722930908, -0.12632086873054504, -0.8552424917074637, 0.02381068915418305, 0.40005897460812095,-0.32855169853922883,-0.0460205078125,0.63873291015625,0.3293609619140625
20220118-1314,2022-01-18 13:14:12Z,u01, 60,40,movements,el-ex, rt, d,203372.350109875, -2.1420407814366547, -0.7358743604797107, -2.733975141188616, 1.5969743728637695, 2.855224132537842, -2.868635654449463, -0.6235560774803162, 0.6712355017662048, 0.4007754921913147, 0.47481340169906616, -0.03538656234741211, -0.06814888119697571, -0.8368861562221581, 0.003051310708285071, 0.3996679392156737,-0.37400253562793145,-0.1520843505859375,0.5977783203125,0.3727569580078125
20220118-1314,2022-01-18 13:14:12Z,u01, 61,40,movements,el-ex, rt, d,203372.375053875, -2.0306019644267113, -0.6832723883942773, -2.666202562452083, -0.3674921691417694, 2.460808038711548, -2.7900426387786865, -0.694965660572052, 0.6313341856002808, 0.34415164589881897, 0.546726405620575, -0.2210252285003662, 0.041193991899490356, -0.8196305178228064, -0.016782238603448685, 0.39364890920363727,-0.41589046057101386,-0.16534423828125,0.3255462646484375,0.3062591552734375
20220118-1314,2022-01-18 13:14:12Z,u01, 62,40,movements,el-ex, rt, d,203372.399997875, -1.9721145172986887, -0.6131617584531587, -2.6638702515035226, -1.3562792539596558, 2.1551401615142822, -2.3960647583007812, -0.7528533935546875, 0.5754561424255371, 0.3194717466831207, 0.4748077988624573, -0.26538223028182983, -0.21568122506141663, -0.8118176538845426, -0.02622926640663964, 0.36902057831623836,-0.4517609917657233,-0.30401611328125,0.377593994140625,0.0775604248046875
20220118-1314,2022-01-18 13:14:12Z,u01, 63,40,movements,el-ex, rt, d,203372.424941875, -1.9176715496385965, -0.5537982092757929, -2.660026483990563, 0.11224035918712616, 2.0324344635009766, -2.104433059692383, -0.7998751997947693, 0.5259215235710144, 0.2891480028629303, 0.4077243208885193, 0.014727890491485596, -0.2394651174545288, -0.8020800187648631, -0.03523694154936802, 0.3490803989794011,-0.48328979444374853,-0.452392578125,0.5562286376953125,-0.0289459228515625
20220118-1314,2022-01-18 13:14:12Z,u01, 64,40,movements,el-ex, rt, d,203372.449884875, -1.8461577214053575, -0.511834511710094, -2.6184530267015105, 1.0045400857925415, 2.0129547119140625, -2.0159800052642822, -0.8390024900436401, 0.48977747559547424, 0.23705077171325684, 0.30022990703582764, -0.09925928711891174, -0.13875342905521393, -0.7847449706938608, -0.05196840511702949, 0.34594541234891263,-0.5116605011329195,-0.5469512939453125,0.3447418212890625,0.180999755859375
20220118-1314,2022-01-18 13:14:12Z,u01, 65,40,movements,el-ex, rt, d,203372.474828875, -1.7923265256680818, -0.46633645884755337, -2.6013999999948, -0.8700670003890991, 1.6943939924240112, -1.7592142820358276, -0.8713933229446411, 0.4496169686317444, 0.19626103341579437, 0.3006993532180786, -0.2518172562122345, 0.02660904824733734, -0.7707658992530613, -0.06364312742458145, 0.33605342172519637,-0.53752920381427,-0.64312744140625,0.1653289794921875,0.186187744140625
20220118-1314,2022-01-18 13:14:12Z,u01, 66,40,movements,el-ex, rt, d,203372.49977287502, -1.7650082108010032, -0.4188114624590994, -2.633546643610201, -1.681320071220398, 1.6396334171295166, -1.491065263748169, -0.8963978886604309, 0.40667492151260376, 0.17631345987319946, 0.1424611210823059, -0.22569045424461365, -0.16924835741519928, -0.7644005868908089, -0.0620360760767269, 0.31154243366156886,-0.5610567095887334,-0.7615203857421875,0.2377166748046875,-0.0331573486328125
20220118-1314,2022-01-18 13:14:12Z,u01, 67,40,movements,el-ex, rt, d,203372.52471687502, -1.7345216104699246, -0.3823981335273811, -2.656895278955086, -0.34033486247062683, 1.4636400938034058, -1.0428885221481323, -0.9153655171394348, 0.3731464743614197, 0.1512221097946167, 0.16368693113327026, -0.06935924291610718, -0.3861919641494751, -0.7562885415792542, -0.0603216325535863, 0.2930995944928089,-0.5817918402942839,-0.7312774658203125,0.198944091796875,-0.378814697265625
20220118-1314,2022-01-18 13:14:12Z,u01, 68,40,movements,el-ex, rt, d,203372.549659, -1.7001881852629412, -0.36339969524961296, -2.6531540414820016, 0.04353269934654236, 1.1025161743164062, -0.4807121753692627, -0.9268804788589478, 0.3554539680480957, 0.12060460448265076, 0.1957249641418457, -0.5031743049621582, -0.5056445598602295, -0.7458797097614104, -0.06297427237452691, 0.2886794457179532,-0.5969606649185464,-0.713470458984375,-0.247894287109375,-0.4034576416015625
20220118-1314,2022-01-18 13:14:13Z,u01, 69,40,movements,el-ex, rt, d,203372.57460300002, -1.683933728901752, -0.36278321288325505, -2.6572241847293783, -0.2346566766500473, 0.30762118101119995, 0.4327790439128876, -0.9289358854293823, 0.35487765073776245, 0.10554812103509903, 0.2690389156341553, -0.8478586077690125, -0.6072111129760742, -0.7411172187944909, -0.059323920698470145, 0.2877433031172501,-0.6036803250605535,-0.6374359130859375,-0.5390472412109375,-0.5735321044921875
20220118-1314,2022-01-18 13:14:13Z,u01, 70,40,movements,el-ex, rt, d,203372.59954700002, -1.691332321035212, -0.3794559915988137, -2.6667385518738693, -0.15438556671142578, -0.6168936491012573, 0.9952617287635803, -0.9221267700195312, 0.37041521072387695, 0.11169090867042542, 0.33316802978515625, -0.5516133308410645, -0.7155877351760864, -0.7437835024022387, -0.05129870022135108, 0.29037984147857065,-0.599861766381087,-0.5892486572265625,-0.097442626953125,-0.599639892578125
20220118-1314,2022-01-18 13:14:13Z,u01, 71,40,movements,el-ex, rt, d,203372.62449100002, -1.7150716942620754, -0.4081616147333406, -2.6696818324253355, -0.021795671433210373, -1.1330232620239258, 1.2960156202316284, -0.9083161354064941, 0.39692264795303345, 0.1319645494222641, 0.2735351324081421, -0.32621335983276367, -0.5725769996643066, -0.7510192237733129, -0.044185952257974614, 0.29880029579810186,-0.5871424721176024,-0.649871826171875,0.092681884765625,-0.2940216064453125
20220118-1314,2022-01-18 13:14:13Z,u01, 72,40,movements,el-ex, rt, d,203372.64943400002, -1.755773287167281, -0.44290227882564004, -2.682663459128323, -0.4106282591819763, -1.6537686586380005, 1.6057718992233276, -0.8880981802940369, 0.42856350541114807, 0.16617737710475922, 0.23044443130493164, -0.36351537704467773, -0.3509458601474762, -0.762840581513776, -0.03410179848355871, 0.30630964892122337,-0.5684062725790929,-0.656982421875,0.0691375732421875,-0.17041015625
20220118-1314,2022-01-18 13:14:13Z,u01, 73,40,movements,el-ex, rt, d,203372.67437800003, -1.8101497451717221, -0.4851666725172173, -2.701921272973812, -0.14009079337120056, -1.9753187894821167, 2.0013248920440674, -0.8593788146972656, 0.4663558006286621, 0.20971551537513733, 0.21767038106918335, -0.38212722539901733, -0.40028226375579834, -0.777423404572845, -0.021693463777180788, 0.3151144351367258,-0.5439165975836873,-0.6243133544921875,0.1232452392578125,-0.1427154541015625
20220118-1314,2022-01-18 13:14:13Z,u01, 74,40,movements,el-ex, rt, d,203372.699322, -1.8705552078684107, -0.5376005651261633, -2.7177981946422536, 0.10888437181711197, -2.2438316345214844, 2.3089358806610107, -0.8206378817558289, 0.5120764970779419, 0.2536362409591675, 0.23764526844024658, -0.31189650297164917, -0.22208085656166077, -0.7916666452687742, -0.009058036290918503, 0.3293038553219782,-0.5145298076624496,-0.57440185546875,0.22528076171875,0.0733795166015625
20220118-1314,2022-01-18 13:14:13Z,u01, 75,40,movements,el-ex, rt, d,203372.72426500003, -1.9443296264762489, -0.5943485241180925, -2.7446789193799996, -0.348820298910141, -2.475041151046753, 2.603205442428589, -0.7713825106620789, 0.5599691271781921, 0.30233073234558105, 0.24422180652618408, -0.27829182147979736, -0.21926164627075195, -0.806925611815541, 0.006035075642175758, 0.3433828749312126,-0.48054442725253954,-0.480224609375,0.3175506591796875,0.0439453125
20220118-1314,2022-01-18 13:14:13Z,u01, 76,40,movements,el-ex, rt, d,203372.749209, -2.031427503369596, -0.6549763803027293, -2.7853325750067395, 0.20459525287151337, -2.6359384059906006, 2.933135747909546, -0.7104031443595886, 0.6091405153274536, 0.352526992559433, 0.3719785213470459, -0.1831303834915161, -0.3945188820362091, -0.8219945819675123, 0.024257178081577346, 0.3574626025975572,-0.44267033768091174,-0.3055572509765625,0.4497528076171875,-0.0554046630859375
20220118-1314,2022-01-18 13:14:13Z,u01, 77,40,movements,el-ex, rt, d,203372.774153, -2.1096029404983434, -0.736119253503134, -2.802421302524092, 2.0687336921691895, -2.7965140342712402, 3.2823331356048584, -0.6360849142074585, 0.6714170575141907, 0.3802570402622223, 0.3840097188949585, -0.1753232479095459, -0.3703385591506958, -0.8298695773731071, 0.038013180508960465, 0.3861664488330088,-0.4009327332877441,-0.207977294921875,0.535858154296875,0.0546112060546875
20220118-1314,2022-01-18 13:14:13Z,u01, 78,40,movements,el-ex, rt, d,203372.799097, -2.1819907611479317, -0.8341838860983204, -2.8102543463992875, 1.2389339208602905, -2.561136245727539, 3.4493513107299805, -0.5501652956008911, 0.7407485246658325, 0.38549986481666565, 0.4178868532180786, -0.061549246311187744, 0.1588881015777588, -0.8307712289561817, 0.050686319693153015, 0.42403951307782956,-0.356988363837817,-0.100616455078125,0.7074737548828125,0.559906005859375
20220118-1314,2022-01-18 13:14:13Z,u01, 79,40,movements,el-ex, rt, d,203372.82404, -2.3002395113172587, -0.9094033349499739, -2.879114310416283, 0.06205920875072479, -2.6819982528686523, 3.5144474506378174, -0.4579267203807831, 0.7891374230384827, 0.40934768319129944, 0.4866895377635956, -0.040098726749420166, 0.05435189604759216, -0.8364829426725702, 0.0704991387185388, 0.44546604183780397,-0.31126555771774744,0.0949859619140625,0.815673828125,0.3589630126953125
20220118-1314,2022-01-18 13:14:13Z,u01, 80,40,movements,el-ex, rt, d,203372.848984, -2.437643073441289, -0.9830149944559413, -2.966449618169082, 1.6213736534118652, -2.632376194000244, 3.4791440963745117, -0.3589015603065491, 0.8321729898452759, 0.4227032959461212, 0.5005641579627991, 0.21393907070159912, -0.13281655311584473, -0.8386326256449039, 0.08970492607143415, 0.4679065532503413,-0.2640301520085412,0.149749755859375,1.068328857421875,0.324432373046875
20220118-1314,2022-01-18 13:14:13Z,u01, 81,40,movements,el-ex, rt, d,203372.87392800002, -2.5599796995163246, -1.0847487221686134, -3.0331539510845373, 2.6767845153808594, -2.473064422607422, 3.650367498397827, -0.25663134455680847, 0.8841860890388489, 0.39032799005508423, 0.38602587580680847, 0.10639941692352295, 0.002601444721221924, -0.8273390920868026, 0.10331512676253057, 0.5070802027164347,-0.21841677042964783,0.1197662353515625,0.894866943359375,0.50274658203125
20220118-1314,2022-01-18 13:14:13Z,u01, 82,40,movements,el-ex, rt, d,203372.89887200002, -2.7511701392587424, -1.1539145126996377, 3.1009894272795275, -0.6828552484512329, -2.276674509048462, 3.4707725048065186, -0.15410089492797852, 0.914355993270874, 0.3744412660598755, 0.4506707787513733, -0.0230138897895813, 0.5924016833305359, -0.8198902070275685, 0.12247729604811741, 0.5317052513736409,-0.17340403589302963,0.3785552978515625,0.9099884033203125,0.907989501953125
20220118-1314,2022-01-18 13:14:13Z,u01, 83,40,movements,el-ex, rt, d,203372.92381500002, -3.0088503012662366, -1.123774904931791, 2.8816323777874335, -2.310729503631592, -2.2640058994293213, 2.953866481781006, -0.057213786989450455, 0.901738703250885, 0.42847925424575806, 0.5488672852516174, 0.15195715427398682, 0.2341645359992981, -0.83268509026248, 0.14448243236623842, 0.5198521175850996,-0.12455656172477036,0.4612274169921875,1.350494384765625,0.500762939453125
20220118-1314,2022-01-18 13:14:13Z,u01, 84,40,movements,el-ex, rt, d,203372.94875900002, 3.0785897746504, -1.1030356085866166, 2.7230427104293846, 0.8235316872596741, -2.1016740798950195, 2.606837034225464, 0.028388498350977898, 0.8925802111625671, 0.44999414682388306, 0.3116994798183441, 0.6625038981437683, 0.030596882104873657, -0.836162238646016, 0.1607164635575457, 0.5178671615046314,-0.08256236253429317,0.346435546875,1.4698333740234375,0.4902801513671875
20220118-1314,2022-01-18 13:14:13Z,u01, 85,40,movements,el-ex, rt, d,203372.97370300003, 2.8680272012796117, -1.1383383855861038, 2.5476585749660847, 1.9498480558395386, -1.9943350553512573, 2.947631597518921, 0.11322776973247528, 0.9079383611679077, 0.40351951122283936, 0.13440722227096558, 0.23508232831954956, 0.0549921989440918, -0.8194587696810185, 0.17391686138374585, 0.5441394086953759,-0.0463978597005944,0.1932220458984375,0.8479766845703125,0.440155029296875
20220118-1314,2022-01-18 13:14:13Z,u01, 86,40,movements,el-ex, rt, d,203372.998647, 2.640385560339915, -1.13952956737033, 2.3493631530542403, 0.2675541341304779, -1.8229206800460815, 3.089073419570923, 0.20085321366786957, 0.9084369540214539, 0.36660686135292053, 0.1773512065410614, -0.20923340320587158, 0.12617599964141846, -0.8041761819359484, 0.19132196165873766, 0.562686324640671,-0.008987638206969573,0.4391326904296875,0.767181396484375,0.5970458984375
20220118-1314,2022-01-18 13:14:13Z,u01, 87,40,movements,el-ex, rt, d,203373.02359000003, 2.483054522743945, -1.0907139586058818, 2.225145321802679, -0.7603445053100586, -1.8306195735931396, 2.6223649978637695, 0.28263571858406067, 0.8869568705558777, 0.36527323722839355, 0.3353147804737091, 0.1362210512161255, 0.3413766920566559, -0.7997519567041851, 0.2074450095063753, 0.5625078146318032,0.0307950695000217,0.7093048095703125,1.278076171875,0.6169586181640625
20220118-1314,2022-01-18 13:14:13Z,u01, 88,40,movements,el-ex, rt, d,203373.048534, 2.3774614098873625, -1.0377548130726424, 2.1568325262518813, -0.640503466129303, -1.8298465013504028, 2.168962001800537, 0.3515978753566742, 0.8612654805183411, 0.36687999963760376, 0.30150890350341797, 0.49839937686920166, 0.15964004397392273, -0.7974502099537817, 0.2179751294228729, 0.5585391171722136,0.06778015713795907,0.6007080078125,1.2846221923828125,0.515045166015625
20220118-1314,2022-01-18 13:14:13Z,u01, 89,40,movements,el-ex, rt, d,203373.073478, 2.2947309868579535, -0.9874251757086439, 2.1127913896635477, -0.792400062084198, -1.81852388381958, 2.116328477859497, 0.41269320249557495, 0.8346104025840759, 0.36484286189079285, 0.07836529612541199, 0.23516815900802612, 0.07689931988716125, -0.7947223588810206, 0.22547239147557108, 0.5541550024261791,0.10242565010487187,0.491729736328125,0.9738006591796875,0.3729400634765625
20220118-1314,2022-01-18 13:14:13Z,u01, 90,40,movements,el-ex, rt, d,203373.098422, 2.215262222064816, -0.9363210498158896, 2.0704172898622377, -0.14372336864471436, -1.7774548530578613, 2.2350313663482666, 0.4738609194755554, 0.8053828477859497, 0.356110543012619, 0.00891202688217163, 0.09398543834686279, 0.012908220291137695, -0.7894713607442158, 0.23407316467300793, 0.5506518721724377,0.13684807954288675,0.5025177001953125,0.9216766357421875,0.373504638671875
20220118-1314,2022-01-18 13:14:13Z,u01, 91,40,movements,el-ex, rt, d,203373.123365, 2.1260238265977445, -0.8910298264069847, 2.0143754659721838, 0.125503271818161, -1.820214033126831, 2.310103416442871, 0.534182071685791, 0.7777194976806641, 0.33136430382728577, 0.07116478681564331, 0.12396824359893799, 0.03089478611946106, -0.7785103101034991, 0.2441389922455215, 0.5527242496258524,0.16974661178495867,0.6823272705078125,0.8315582275390625,0.3648223876953125
20220118-1314,2022-01-18 13:14:13Z,u01, 92,40,movements,el-ex, rt, d,203373.148309, 2.051833270801145, -0.8390234056777109, 1.978137037220436, -0.6440654397010803, -1.9045521020889282, 2.2768118381500244, 0.5923608541488647, 0.7439908981323242, 0.309170663356781, 0.2355964183807373, -0.02058696746826172, 0.05539250373840332, -0.7685678859437356, 0.2527621987690805, 0.5511382125823001,0.20411148847626182,0.86907958984375,0.718963623046875,0.3504486083984375
20220118-1314,2022-01-18 13:14:13Z,u01, 93,40,movements,el-ex, rt, d,203373.17325300002, 1.9986384242560484, -0.7792320067039696, 1.9707246227060558, -0.9088413715362549, -1.912658452987671, 2.1829311847686768, 0.6473254561424255, 0.7027332186698914, 0.2951880693435669, 0.2806989550590515, 0.04809069633483887, 0.03942215442657471, -0.7620163467306618, 0.2586989053892992, 0.5427448118181534,0.24048729972246133,0.9384307861328125,0.801239013671875,0.34002685546875
20220118-1314,2022-01-18 13:14:13Z,u01, 94,40,movements,el-ex, rt, d,203373.198196, 1.9444052824127653, -0.7252220257508553, 1.9589345781889977, -0.14407972991466522, -1.8384382724761963, 2.0598196983337402, 0.6967282891273499, 0.6633015871047974, 0.2731320261955261, 0.21341288089752197, 0.16526591777801514, 0.10287526249885559, -0.7526782102658024, 0.26465360430091117, 0.5369783370481478,0.2740226706557791,0.90130615234375,0.83160400390625,0.3650970458984375
20220118-1314,2022-01-18 13:14:13Z,u01, 95,40,movements,el-ex, rt, d,203373.22314000002, 1.8855420183594027, -0.6776933492221997, 1.9360027394374137, 0.02968059852719307, -1.707002878189087, 1.9981766939163208, 0.7407519221305847, 0.6269977688789368, 0.24116523563861847, 0.14906448125839233, 0.15475577116012573, 0.08404552936553955, -0.7393960359620855, 0.2718016251877479, 0.5357362733307403,0.30398050310831043,0.8937530517578125,0.729339599609375,0.3069305419921875
20220118-1314,2022-01-18 13:14:13Z,u01, 96,40,movements,el-ex, rt, d,203373.24808400002, 1.835340502155871, -0.6302322453924655, 1.9207408569219326, -0.22414563596248627, -1.5979106426239014, 1.9140545129776, 0.7797858715057373, 0.5893324017524719, 0.21123871207237244, 0.1285700798034668, 0.09896111488342285, 0.10321465134620667, -0.7266737215327426, 0.27850432485612686, 0.5328645039600647,0.3323195460404259,0.923126220703125,0.69879150390625,0.31268310546875
20220118-1314,2022-01-18 13:14:13Z,u01, 97,40,movements,el-ex, rt, d,203373.27302800003, 1.795449816285444, -0.5832454232354651, 1.9190069112012953, -0.5491347312927246, -1.5366536378860474, 1.7675635814666748, 0.8137056231498718, 0.5507357120513916, 0.1859404593706131, 0.14871227741241455, 0.1598508358001709, 0.13293792307376862, -0.7161413034478704, 0.28304039634944556, 0.5267685600557572,0.35992340282917973,0.9602813720703125,0.721527099609375,0.3061065673828125
20220118-1314,2022-01-18 13:14:13Z,u01, 98,40,movements,el-ex, rt, d,203373.29797100002, 1.7612238013789066, -0.5395600139681435, 1.9239997975754886, -0.3727112412452698, -1.4203994274139404, 1.561479926109314, 0.8424263596534729, 0.5137585401535034, 0.16238877177238464, 0.048900604248046875, 0.24361133575439453, 0.14353488385677338, -0.706745294718176, 0.28584169376895563, 0.5195310253980637,0.38586682430905733,0.8780975341796875,0.7767486572265625,0.3167724609375
20220118-1314,2022-01-18 13:14:13Z,u01, 99,40,movements,el-ex, rt, d,203373.32291500003, 1.7266834966908682, -0.5040326617787861, 1.9224470146734598, -0.10982169955968857, -1.2982690334320068, 1.2908127307891846, 0.8650243282318115, 0.48296061158180237, 0.13594920933246613, 0.011867880821228027, 0.32590770721435547, 0.1874152272939682, -0.6962305975805947, 0.2885092030654214, 0.5157091911416607,0.4075163110524929,0.887939453125,0.759613037109375,0.3129119873046875
20220118-1314,2022-01-18 13:14:13Z,u01, 100,40,movements,el-ex, rt, d,203373.347859, 1.6970148200088606, -0.47351026454725503, 1.9254034910720788, -0.475314199924469, -1.1505165100097656, 1.082930326461792, 0.8828935027122498, 0.45601314306259155, 0.11203305423259735, 0.002589404582977295, 0.22317078709602356, 0.19834613800048828, -0.6872045201250638, 0.2894243853120033, 0.5115901765848365,0.4269181293232069,0.88104248046875,0.6800994873046875,0.3234100341796875
20220118-1314,2022-01-18 13:14:13Z,u01, 101,40,movements,el-ex, rt, d,203373.372803, 1.677762860783828, -0.4478216884511956, 1.9404467721586012, -0.7767337560653687, -0.8989716172218323, 0.8385210037231445, 0.8962406516075134, 0.4330030381679535, 0.09623507410287857, -0.026749014854431152, 0.29513096809387207, 0.27856671810150146, -0.6822606791591583, 0.28746808864341666, 0.5045099884413558,0.4442434054897391,0.8448944091796875,0.7461700439453125,0.428863525390625
20220118-1314,2022-01-18 13:14:13Z,u01, 102,40,movements,el-ex, rt, d,203373.397746, 1.6651765856045653, -0.43001760867423705, 1.957641108346433, -0.6261311173439026, -0.6411932706832886, 0.44244372844696045, 0.9049133062362671, 0.4168868064880371, 0.08566044270992279, -0.08431071043014526, 0.3894943594932556, 0.34544622898101807, -0.6797973201973959, 0.2840877093969028, 0.4978290244490111,0.45753275630853013,0.8171844482421875,0.81591796875,0.4378204345703125
20220118-1314,2022-01-18 13:14:13Z,u01, 103,40,movements,el-ex, rt, d,203373.42269, 1.6593967739657218, -0.42264929695593434, 1.9719256430902747, -0.5172362923622131, -0.26658645272254944, 0.01635945960879326, 0.9084281325340271, 0.4101780652999878, 0.0806984081864357, -0.1020316481590271, 0.40145206451416016, 0.37480711936950684, -0.6796111432135701, 0.2801390720240533, 0.49342887058109636,0.4649502348723616,0.803955078125,0.8183746337890625,0.4922332763671875
20220118-1314,2022-01-18 13:14:13Z,u01, 104,40,movements,el-ex, rt, d,203373.447634, 1.6658467782348392, -0.42738171152826876, 1.988608905062606, -0.6838732957839966, 0.24538065493106842, -0.4915946125984192, 0.9059464335441589, 0.4144894480705261, 0.08637088537216187, -0.09465169906616211, 0.4326021671295166, 0.45861220359802246, -0.6839719720693147, 0.27453193393025344, 0.48989750691476736,0.46563414769657474,0.81787109375,0.854736328125,0.542633056640625
20220118-1314,2022-01-18 13:14:13Z,u01, 105,40,movements,el-ex, rt, d,203373.47257800002, 1.6872520796262724, -0.44233544171437855, 2.0115078587833986, -0.7772040963172913, 0.6894569396972656, -0.8413665294647217, 0.8976333141326904, 0.42805129289627075, 0.10500970482826233, -0.06331294775009155, 0.42735642194747925, 0.4152693748474121, -0.6936551371162007, 0.26710934597195557, 0.4856846268100117,0.46000632361468397,0.8260650634765625,0.8338165283203125,0.500762939453125
20220118-1314,2022-01-18 13:14:13Z,u01, 106,40,movements,el-ex, rt, d,203373.497521, 1.7190113740161665, -0.4649654991649392, 2.0323389119311153, -0.4669936001300812, 1.1379061937332153, -1.1390880346298218, 0.8840371370315552, 0.44839197397232056, 0.1319955736398697, -0.10904330015182495, 0.3934047520160675, 0.37777015566825867, -0.7058478204328438, 0.26033947408096814, 0.4829049445674359,0.4481126852423057,0.770355224609375,0.8556060791015625,0.5283050537109375
20220118-1314,2022-01-18 13:14:13Z,u01, 107,40,movements,el-ex, rt, d,203373.52246500002, 1.7580493420711938, -0.49555122445145305, 2.0466185559468677, -0.12613999843597412, 1.4673088788986206, -1.4614371061325073, 0.8643290996551514, 0.4755166471004486, 0.1637668013572693, -0.07537317276000977, 0.4153982996940613, 0.36862778663635254, -0.7189077785218976, 0.255058836687316, 0.4831787438368297,0.42971511636595705,0.8098907470703125,0.9181976318359375,0.5287322998046875
20220118-1314,2022-01-18 13:14:13Z,u01, 108,40,movements,el-ex, rt, d,203373.54741016668, 1.8045717972140507, -0.5357985538247689, 2.058884432174511, -0.14068058133125305, 1.762197494506836, -1.8600373268127441, 0.8364720940589905, 0.5105278491973877, 0.19918857514858246, 0.04351764917373657, 0.3797309398651123, 0.3684537410736084, -0.7330909230907974, 0.24934310228686213, 0.4860218808706577,0.40520192683533635,0.8994293212890625,0.8793182373046875,0.5808563232421875
20220118-1314,2022-01-18 13:14:14Z,u01, 109,40,movements,el-ex, rt, d,203373.57235416668, 1.866903225047838, -0.5811445996552262, 2.0855254224854654, -0.622270405292511, 2.1213085651397705, -2.1185851097106934, 0.7994592189788818, 0.5489810109138489, 0.24389560520648956, 0.12894666194915771, 0.30494654178619385, 0.37378036975860596, -0.7510126295896067, 0.240682019611145, 0.486139766612877,0.37645773618364764,0.928497314453125,0.85992431640625,0.614593505859375
20220118-1314,2022-01-18 13:14:14Z,u01, 110,40,movements,el-ex, rt, d,203373.59729716668, 1.945773725661459, -0.629271044825662, 2.121022561591781, -0.18562814593315125, 2.5608274936676025, -2.2810094356536865, 0.7522819638252258, 0.5885555744171143, 0.2960985600948334, 0.16490870714187622, 0.32268399000167847, 0.30570828914642334, -0.7709019335995828, 0.23186091019066285, 0.48464171734363787,0.34215963407400185,0.9141845703125,0.9333343505859375,0.6076812744140625
20220118-1314,2022-01-18 13:14:14Z,u01, 111,40,movements,el-ex, rt, d,203373.62224116668, 2.0273632903734122, -0.6859368917627693, 2.145672367010014, 0.4722936451435089, 2.7732532024383545, -2.506399154663086, 0.694564163684845, 0.6333982944488525, 0.3411562144756317, 0.23284989595413208, 0.34897780418395996, 0.28656005859375, -0.7872038196992748, 0.22558424533405114, 0.48860548226193845,0.3011423141653442,0.9294891357421875,1.0315399169921875,0.6534423828125
20220118-1314,2022-01-18 13:14:14Z,u01, 112,40,movements,el-ex, rt, d,203373.6471851667, 2.1207329834274926, -0.7464903610368937, 2.1782510814004, -0.048818204551935196, 2.987562417984009, -2.7213990688323975, 0.6258428692817688, 0.6790665984153748, 0.3836529850959778, 0.33964186906814575, 0.19468212127685547, 0.36352431774139404, -0.8025474369899634, 0.21850425130832984, 0.49270481593542637,0.25576475126365383,0.9698333740234375,0.847137451171875,0.7700347900390625
20220118-1314,2022-01-18 13:14:14Z,u01, 113,40,movements,el-ex, rt, d,203373.67212816668, 2.2456089768392884, -0.7975194690666837, 2.2457368890935823, -0.5938419103622437, 3.2526252269744873, -2.847393274307251, 0.5453935265541077, 0.7156257033348083, 0.43637895584106445, 0.42826998233795166, 0.1159631609916687, 0.3243940472602844, -0.8215026003183988, 0.208141686764104, 0.4883164574660798,0.20822545773999704,0.958465576171875,0.8867645263671875,0.739898681640625
20220118-1314,2022-01-18 13:14:14Z,u01, 114,40,movements,el-ex, rt, d,203373.6970721667, 2.3890435436667787, -0.8436050207568382, 2.3285093013408478, -0.12804362177848816, 3.379844903945923, -2.919325351715088, 0.4543745219707489, 0.7470445036888123, 0.48525145649909973, 0.47853273153305054, 0.256571888923645, 0.16593295335769653, -0.8388535185204762, 0.19735882835083085, 0.4822992901114612,0.15735911119142199,0.92523193359375,1.0247650146484375,0.6536407470703125
20220118-1314,2022-01-18 13:14:14Z,u01, 115,40,movements,el-ex, rt, d,203373.7220161667, 2.5398288787283376, -0.8903182335518841, 2.416277708881129, 0.05856062099337578, 3.321885108947754, -3.0345187187194824, 0.3561687767505646, 0.7772719860076904, 0.5186451077461243, 0.5505696535110474, 0.21876084804534912, 0.16839748620986938, -0.8512019477076069, 0.18648808521183613, 0.4793988193468395,0.10418469702541819,0.8692779541015625,0.9267425537109375,0.756622314453125
20220118-1314,2022-01-18 13:14:14Z,u01, 116,40,movements,el-ex, rt, d,203373.74696016667, 2.7123296100404715, -0.9241549409131723, 2.530879591195184, -0.6287800073623657, 3.305718421936035, -3.1618754863739014, 0.2507649064064026, 0.7981119155883789, 0.5478453636169434, 0.5793590545654297, 0.0751028060913086, 0.14621609449386597, -0.8626764950935979, 0.1723715421603631, 0.47274561119539626,0.05088183740532434,0.812652587890625,0.8853302001953125,0.6862030029296875
20220118-1314,2022-01-18 13:14:14Z,u01, 117,40,movements,el-ex, rt, d,203373.7719031667, 2.8999611339195743, -0.9304584301292405, 2.6611562355470797, -0.7245821356773376, 3.3675780296325684, -3.0147929191589355, 0.1429661363363266, 0.801893949508667, 0.5801099538803101, 0.5881893634796143, 0.046037137508392334, 0.05335909128189087, -0.8745930961536839, 0.1585619148162784, 0.4581958874651455,-0.0013370235371036598,0.653594970703125,0.8803253173828125,0.62255859375
20220118-1314,2022-01-18 13:14:14Z,u01, 118,40,movements,el-ex, rt, d,203373.79684716667, 3.085940630361304, -0.9290430947189827, 2.788000905823539, -0.3639627695083618, 3.3788158893585205, -2.946751356124878, 0.033296167850494385, 0.8010475039482117, 0.5976743102073669, 0.5647721290588379, 0.1171959638595581, 0.011029481887817383, -0.8819515716613566, 0.14490889785847, 0.44521590136333433,-0.05427470579087315,0.60198974609375,0.8920745849609375,0.60125732421875
20220118-1314,2022-01-18 13:14:14Z,u01, 119,40,movements,el-ex, rt, d,203373.82179116667, -3.0165285075271706, -0.9158702608904643, 2.90924373834177, -0.5653610825538635, 3.3171067237854004, -2.9235129356384277, -0.07597830146551132, 0.7930929660797119, 0.6043439507484436, 0.6454973816871643, 0.05302226543426514, 0.04084378480911255, -0.8859776229978773, 0.1312082978392512, 0.4317613086718598,-0.10681964522960027,0.549591064453125,0.7920989990234375,0.63739013671875
20220118-1314,2022-01-18 13:14:14Z,u01, 120,40,movements,el-ex, rt, d,203373.84673516668, -2.849093016442991, -0.8827632930164897, 3.015842701739998, -0.8271311521530151, 3.3626301288604736, -2.849169969558716, -0.18310563266277313, 0.7724965810775757, 0.6080475449562073, 0.5970156192779541, 0.024759888648986816, 0.0723116397857666, -0.8888308764978785, 0.11833610224077223, 0.4135143935895971,-0.15805762933778156,0.393646240234375,0.7928466796875,0.6376800537109375
20220118-1314,2022-01-18 13:14:14Z,u01, 121,40,movements,el-ex, rt, d,203373.87167816667, -2.6978073957849347, -0.8384268464412171, 3.1040371498244, -0.865696907043457, 3.4154558181762695, -2.7487850189208984, -0.2870851755142212, 0.7435922026634216, 0.6038647890090942, 0.6023776531219482, 0.07066237926483154, 0.03299146890640259, -0.889175918179737, 0.10629477922685526, 0.3932180612055257,-0.20843975850066815,0.283966064453125,0.83880615234375,0.628631591796875
20220118-1314,2022-01-18 13:14:14Z,u01, 122,40,movements,el-ex, rt, d,203373.89662216668, -2.561867182175193, -0.7893077733964328, -3.1081055529208994, -0.5604221820831299, 3.4543418884277344, -2.6553382873535156, -0.38583195209503174, 0.7098658680915833, 0.5892578363418579, 0.608152449131012, 0.19562125205993652, -0.029748141765594482, -0.886335657282316, 0.09506844913326629, 0.37281490203756135,-0.2576438333323537,0.1947174072265625,0.902252197265625,0.5582733154296875
20220118-1314,2022-01-18 13:14:14Z,u01, 123,40,movements,el-ex, rt, d,203373.92156616668, -2.423522752057523, -0.7473348046245877, -3.0367838313582465, 0.3895761966705322, 3.6068880558013916, -2.6979756355285645, -0.4825955927371979, 0.6796862483024597, 0.5523844957351685, 0.5874844789505005, 0.16668838262557983, 0.07066267728805542, -0.8771531643286866, 0.08242919095175977, 0.3584221446527923,-0.3087741753250839,0.0321197509765625,0.8027496337890625,0.71435546875
20220118-1314,2022-01-18 13:14:14Z,u01, 124,40,movements,el-ex, rt, d,203373.9465101667, -2.289987456669156, -0.7041673066906528, -2.9677094777785653, -0.28861480951309204, 3.4084646701812744, -2.6236162185668945, -0.5733960270881653, 0.6473994255065918, 0.5020872354507446, 0.5646069049835205, 0.02314811944961548, 0.17824149131774902, -0.8639811517516898, 0.0676770569909918, 0.3465412187155126,-0.35897877145521445,-0.01568603515625,0.6322479248046875,0.6975860595703125
20220118-1314,2022-01-18 13:14:14Z,u01, 125,40,movements,el-ex, rt, d,203373.97145316668, -2.1908645533595976, -0.6378867307327719, -2.9449951353236874, -1.5010879039764404, 3.400937080383301, -2.4838764667510986, -0.6538023352622986, 0.5954990386962891, 0.46682271361351013, 0.5775847434997559, -0.07641041278839111, 0.07065311074256897, -0.8542931521473878, 0.05995474197394979, 0.32010154720898903,-0.4051217940078865,-0.1544952392578125,0.4956207275390625,0.3712310791015625
20220118-1314,2022-01-18 13:14:14Z,u01, 126,40,movements,el-ex, rt, d,203373.9963971667, -2.095955675137555, -0.5702401878228437, -2.9336177701604766, -0.5967201590538025, 3.5945775508880615, -2.490114688873291, -0.7283377051353455, 0.5398342609405518, 0.42202284932136536, 0.41055816411972046, 0.19095492362976074, -0.10610467195510864, -0.8415233388507566, 0.053384372617229725, 0.2921199675211097,-0.45128100546725297,-0.326324462890625,0.719573974609375,0.239227294921875
20220118-1314,2022-01-18 13:14:14Z,u01, 127,40,movements,el-ex, rt, d,203374.0213411667, -1.988098922975476, -0.519738456730746, -2.8944527020837887, 0.9158181548118591, 3.3901097774505615, -2.3455123901367188, -0.7934666872024536, 0.49665313959121704, 0.3517763912677765, 0.43842512369155884, 0.06760165095329285, -0.28924560546875, -0.8211891235522367, 0.039199705583025546, 0.278701793355167,-0.4964244650826854,-0.355316162109375,0.5013427734375,0.1100616455078125
20220118-1314,2022-01-18 13:14:14Z,u01, 128,40,movements,el-ex, rt, d,203374.0462841667, -1.8925452029595704, -0.47440697914470065, -2.855015067784192, 0.19198031723499298, 2.7119996547698975, -2.032262086868286, -0.8439149856567383, 0.45681101083755493, 0.28130343556404114, 0.498593270778656, -0.35161691904067993, -0.31883978843688965, -0.8000653940953952, 0.023389681053381017, 0.2698344216278133,-0.5352922907553108,-0.3441162109375,-0.0020751953125,-0.1001434326171875
20220118-1314,2022-01-18 13:14:14Z,u01, 129,40,movements,el-ex, rt, d,203374.0712281667, -1.8312935085761681, -0.43052336465025515, -2.853386206408769, -1.0184873342514038, 2.1076953411102295, -1.4191267490386963, -0.8780882358551025, 0.4173464775085449, 0.23405791819095612, 0.47545456886291504, -0.6526370048522949, -0.4795868396759033, -0.7853158250259984, 0.017550243011194733, 0.2530984317568399,-0.5647231878227612,-0.439971923828125,-0.26904296875,-0.4057159423828125
20220118-1314,2022-01-18 13:14:14Z,u01, 130,40,movements,el-ex, rt, d,203374.09617216667, -1.796592399953942, -0.39656253870738617, -2.8777652055188288, -1.0081909894943237, 1.3984460830688477, -0.7788204550743103, -0.8989804983139038, 0.38624992966651917, 0.20650778710842133, 0.380868136882782, -0.5112498998641968, -0.8019206523895264, -0.7764165131759728, 0.0207674921129522, 0.2330869822206963,-0.5851638749408019,-0.531890869140625,-0.1146240234375,-0.656646728515625
20220118-1314,2022-01-18 13:14:14Z,u01, 131,40,movements,el-ex, rt, d,203374.12111616667, -1.7761266745122777, -0.38414308043766476, -2.885482292797283, 0.15454714000225067, 0.46780046820640564, -0.013071665540337563, -0.9076445698738098, 0.3747648000717163, 0.18903101980686188, 0.3477690815925598, -0.4804624617099762, -0.9601336717605591, -0.7707288737145661, 0.022192647180931058, 0.22598150731502975,-0.5953292053644298,-0.5621337890625,-0.1794891357421875,-0.802520751953125
20220118-1314,2022-01-18 13:14:14Z,u01, 132,40,movements,el-ex, rt, d,203374.14605916667, -1.7748204184562812, -0.39495054121247464, -2.8782826679796765, 0.371722936630249, -0.5310225486755371, 0.713323712348938, -0.903871476650238, 0.3847625255584717, 0.1870136559009552, 0.3628406524658203, -0.6518829464912415, -0.8472917079925537, -0.7700507741464665, 0.022992031558110693, 0.2320991395702753,-0.5938208150070055,-0.5487518310546875,-0.258819580078125,-0.5963287353515625
20220118-1314,2022-01-18 13:14:14Z,u01, 133,40,movements,el-ex, rt, d,203374.17100316667, -1.7985612008924035, -0.4188197233372626, -2.8809668259706647, -0.16154780983924866, -1.269971251487732, 1.1659862995147705, -0.8899753093719482, 0.40668246150016785, 0.20628464221954346, 0.31740450859069824, -0.5442710518836975, -0.6186074018478394, -0.776090636128707, 0.028734053375864155, 0.24044893722884667,-0.5822731305617951,-0.5721893310546875,-0.0176849365234375,-0.3067169189453125
20220118-1314,2022-01-18 13:14:14Z,u01, 134,40,movements,el-ex, rt, d,203374.19594716668, -1.8439191512563218, -0.44985373096266046, -2.8966848734430313, -0.1680438369512558, -1.795447587966919, 1.5074009895324707, -0.867131769657135, 0.434833824634552, 0.24290362000465393, 0.2660422921180725, -0.3052714467048645, -0.48530447483062744, -0.7873624120151798, 0.038887537969160835, 0.24833074973967517,-0.5629210285501074,-0.6091156005859375,0.1573638916015625,-0.232391357421875
20220118-1314,2022-01-18 13:14:14Z,u01, 135,40,movements,el-ex, rt, d,203374.22089116668, -1.8987493713319479, -0.49060425247355965, -2.9061132365389173, 0.567491888999939, -2.26688814163208, 1.8351784944534302, -0.8350386023521423, 0.4711589515209198, 0.28411298990249634, 0.24882638454437256, -0.2304057478904724, -0.5169312953948975, -0.7998597985914735, 0.04775770054209344, 0.2624236229642378,-0.5376592783023648,-0.558685302734375,0.2501678466796875,-0.23980712890625
20220118-1314,2022-01-18 13:14:14Z,u01, 136,40,movements,el-ex, rt, d,203374.24583416668, -1.9587437418690867, -0.5462908805354292, -2.902506189821768, 0.9373571872711182, -2.6618568897247314, 2.2367613315582275, -0.7909606695175171, 0.5195215344429016, 0.3232320249080658, 0.2864745259284973, -0.3518732786178589, -0.4188585579395294, -0.8116034575367521, 0.053998568859213114, 0.28637057746324934,-0.5063358620186457,-0.492095947265625,0.156341552734375,-0.0423126220703125
20220118-1314,2022-01-18 13:14:14Z,u01, 137,40,movements,el-ex, rt, d,203374.27077816668, -2.038432841772078, -0.6048938911871082, -2.9209116704519387, -0.19100813567638397, -2.9041056632995605, 2.5086402893066406, -0.7342489957809448, 0.5686748027801514, 0.3707928955554962, 0.3028525710105896, -0.40204888582229614, -0.239765465259552, -0.8252829593280382, 0.06560855835610296, 0.307227011116673,-0.4692708241053304,-0.38934326171875,0.2498626708984375,0.2115936279296875
20220118-1314,2022-01-18 13:14:14Z,u01, 138,40,movements,el-ex, rt, d,203374.2957221667, -2.1412724803997256, -0.6560086098275969, -2.9698077507917313, -0.20068494975566864, -3.0478739738464355, 2.623220443725586, -0.6669467687606812, 0.609958827495575, 0.42794010043144226, 0.36798131465911865, -0.16489040851593018, -0.130607008934021, -0.8409146469718694, 0.08265956546331654, 0.3205973182343851,-0.4280741588577555,-0.2677001953125,0.5001220703125,0.300628662109375
20220118-1314,2022-01-18 13:14:14Z,u01, 139,40,movements,el-ex, rt, d,203374.3206661667, -2.250485651644638, -0.7179766340592715, -3.014110298289595, 0.9881598353385925, -3.3334388732910156, 2.9725711345672607, -0.5857670903205872, 0.65786212682724, 0.473386287689209, 0.44939929246902466, -0.02994769811630249, -0.2539951801300049, -0.8527771641272157, 0.09728441250386771, 0.3420853102655116,-0.3824716707895254,-0.1040496826171875,0.6680450439453125,0.22918701171875
20220118-1314,2022-01-18 13:14:14Z,u01, 140,40,movements,el-ex, rt, d,203374.3456091667, -2.3543891840042535, -0.7976638676167546, -3.049795263309498, 1.316815972328186, -2.96136212348938, 3.1770482063293457, -0.49472036957740784, 0.7157265543937683, 0.4929373562335968, 0.501556396484375, -0.027021169662475586, 0.018354326486587524, -0.8569876598781005, 0.10973068480819653, 0.3744851087392736,-0.336589085900042,0.03668212890625,0.673553466796875,0.6419219970703125
20220118-1314,2022-01-18 13:14:14Z,u01, 141,40,movements,el-ex, rt, d,203374.3705531667, -2.47623286587647, -0.8625968733661906, -3.121984875946631, -0.10853126645088196, -2.6133921146392822, 3.1075680255889893, -0.40156126022338867, 0.7595342993736267, 0.5117196440696716, 0.470698744058609, -0.10810589790344238, 0.5328516960144043, -0.8599126642531792, 0.12810162476350934, 0.3980185889461902,-0.2927825965445742,0.110198974609375,0.74072265625,1.2025604248046875
20220118-1314,2022-01-18 13:14:14Z,u01, 142,40,movements,el-ex, rt, d,203374.39549716667, -2.627741273092324, -0.8872990430215072, 3.0481619473440786, -1.124708890914917, -2.5181758403778076, 2.891289710998535, -0.31040850281715393, 0.7753689289093018, 0.5499542355537415, 0.5078572034835815, 0.2252107858657837, 0.34111350774765015, -0.8674980608221604, 0.14974720859663598, 0.4039785185225121,-0.24864482680178987,0.1782989501953125,1.04632568359375,0.7705841064453125
20220118-1314,2022-01-18 13:14:14Z,u01, 143,40,movements,el-ex, rt, d,203374.42044116667, -2.7691709389567296, -0.9054264841747219, 2.941002371783222, 0.3614376485347748, -2.1980531215667725, 2.679946184158325, -0.22463680803775787, 0.786688506603241, 0.5750307440757751, 0.3091399371623993, 0.36022329330444336, -0.07275676727294922, -0.8711687651338479, 0.1690572648918685, 0.4110154535119287,-0.20868924627356603,0.086639404296875,1.0815277099609375,0.498260498046875
20220118-1314,2022-01-18 13:14:14Z,u01, 144,40,movements,el-ex, rt, d,203374.44538416667, -2.8963421429611786, -0.9618107478290141, 2.84865570287778, 2.096426486968994, -2.241471529006958, 2.8318231105804443, -0.13889002799987793, 0.8202286958694458, 0.5549189448356628, 0.19875027239322662, 0.15312957763671875, 0.1946999430656433, -0.8622397545619488, 0.18439651286019315, 0.43836560333111607,-0.17428806914915265,0.0790252685546875,0.944122314453125,0.6968536376953125
20220118-1314,2022-01-18 13:14:14Z,u01, 145,40,movements,el-ex, rt, d,203374.47032816667, -3.0534637122569084, -1.0125558851619063, 2.726862389039003, 0.6537569165229797, -2.2386834621429443, 3.0295660495758057, -0.046621061861515045, 0.8481884598731995, 0.5276393890380859, 0.19540956616401672, -0.16071879863739014, 0.04982978105545044, -0.8505912219678415, 0.2007841625041516, 0.46614461142095154,-0.1374396817640542,0.1828765869140625,0.57080078125,0.5864410400390625
20220118-1314,2022-01-18 13:14:14Z,u01, 146,40,movements,el-ex, rt, d,203374.49527216668, 3.0468537488152925, -1.0009308634644214, 2.5841911583940576, -1.2679088115692139, -2.630593776702881, 3.1361513137817383, 0.0510370098054409, 0.8419735431671143, 0.5370995402336121, 0.36276617646217346, -0.21007663011550903, -0.18965667486190796, -0.8488098189508333, 0.2192525228355831, 0.4722305866229407,-0.09191604696539757,0.433837890625,0.7414398193359375,0.361602783203125
20220118-1314,2022-01-18 13:14:14Z,u01, 147,40,movements,el-ex, rt, d,203374.52021516667, 2.8813388060559455, -0.9677287299416881, 2.4607265110193195, -0.10785891860723495, -2.494575262069702, 2.7657742500305176, 0.14594799280166626, 0.823599636554718, 0.5480722188949585, 0.324434757232666, 0.2801448106765747, 0.04312986135482788, -0.8475031834153892, 0.23616615964528603, 0.4731506013662694,-0.04574397351286991,0.5157928466796875,1.22930908203125,0.719207763671875
20220118-1314,2022-01-18 13:14:14Z,u01, 148,40,movements,el-ex, rt, d,203374.54515941668, 2.7212623636362436, -0.9559821063513401, 2.3407062833095615, 0.6558257937431335, -2.4190921783447266, 2.7705624103546143, 0.23537296056747437, 0.8168806433677673, 0.5265982151031494, 0.3353821039199829, 0.2008042335510254, 0.15475261211395264, -0.8370939040084482, 0.2501457697093779, 0.486495612515215,-0.004788401537998699,0.54620361328125,0.9335174560546875,0.671722412109375
20220118-1314,2022-01-18 13:14:15Z,u01, 149,40,movements,el-ex, rt, d,203374.57010341669, 2.575534349612413, -0.9272614512370446, 2.2346885052768677, -0.31826603412628174, -2.5239546298980713, 2.832585573196411, 0.3218000829219818, 0.7999797463417053, 0.5064356923103333, 0.22385427355766296, -0.028266608715057373, 0.07030093669891357, -0.8267630803652943, 0.2639709199238649, 0.49543408303153635,0.036431054092204235,0.6263275146484375,0.7042388916015625,0.45770263671875
20220118-1314,2022-01-18 13:14:15Z,u01, 150,40,movements,el-ex, rt, d,203374.5950474167, 2.4471044581268817, -0.8739805003663017, 2.1511242913394333, -0.28408199548721313, -2.4211058616638184, 2.9212989807128906, 0.41073372960090637, 0.7668896317481995, 0.49313119053840637, 0.2906976342201233, -0.021787703037261963, -0.02830246090888977, -0.8180418906753971, 0.278160122460599, 0.4966727503510262,0.08216243162605946,0.7199859619140625,0.831512451171875,0.5752716064453125
20220118-1314,2022-01-18 13:14:15Z,u01, 151,40,movements,el-ex, rt, d,203374.6199904167, 2.327238381802879, -0.8300429061860636, 2.0727442827966045, 0.30476251244544983, -2.409189224243164, 2.594855546951294, 0.4908025860786438, 0.7379603385925293, 0.46317148208618164, 0.36446791887283325, 0.3607792854309082, 0.23113417625427246, -0.8044538726553856, 0.29058512295810934, 0.5032048382045105,0.12328544930322904,0.9182891845703125,1.09912109375,0.677276611328125
20220118-1314,2022-01-18 13:14:15Z,u01, 152,40,movements,el-ex, rt, d,203374.6449344167, 2.2279191718636313, -0.7825365083082115, 2.0175824610077724, -0.5571783185005188, -2.3448126316070557, 2.288923740386963, 0.5614537000656128, 0.7050803899765015, 0.4331643581390381, 0.2731868028640747, 0.22393560409545898, 0.21675339341163635, -0.7916650779724532, 0.2997475314830273, 0.506907592564259,0.16267304044853262,0.80987548828125,0.922210693359375,0.620452880859375
20220118-1314,2022-01-18 13:14:15Z,u01, 153,40,movements,el-ex, rt, d,203374.66987841667, 2.1530980671929503, -0.7245045742610204, 1.9954471302325805, -0.8358964323997498, -2.3111369609832764, 2.243196487426758, 0.6254205107688904, 0.6627645492553711, 0.41181638836860657, 0.1675940752029419, 0.2553415298461914, 0.024066448211669922, -0.7828300634560326, 0.3050988139558895, 0.5026482700489838,0.2035599831566427,0.7584075927734375,0.9661102294921875,0.3977813720703125
20220118-1314,2022-01-18 13:14:15Z,u01, 154,40,movements,el-ex, rt, d,203374.6948214167, 2.0809114532176967, -0.6722341267465127, 1.9694100469514177, 0.11384651064872742, -2.1225831508636475, 2.187903881072998, 0.6828195452690125, 0.6227356195449829, 0.38204425573349, 0.14384067058563232, 0.32250046730041504, 0.12967461347579956, -0.7707312027596274, 0.31144108172304086, 0.5011560203314899,0.24045891931456492,0.857421875,0.9119110107421875,0.5765228271484375
20220118-1314,2022-01-18 13:14:15Z,u01, 155,40,movements,el-ex, rt, d,203374.71976541667, 2.0032886976235176, -0.6297203615962484, 1.930060676110528, 0.27228274941444397, -2.1260764598846436, 1.9858253002166748, 0.7337771654129028, 0.5889188051223755, 0.3387416899204254, 0.23274511098861694, 0.26656514406204224, 0.3009222447872162, -0.7534601190663304, 0.31885528402481345, 0.5062183008952309,0.27271278203261573,0.9956207275390625,0.8002777099609375,0.604644775390625
20220118-1314,2022-01-18 13:14:15Z,u01, 156,40,movements,el-ex, rt, d,203374.74470941667, 1.9411975754722903, -0.5863741702109752, 1.907608001331009, -0.23298168182373047, -1.8195327520370483, 1.757369041442871, 0.7764637470245361, 0.5533445477485657, 0.3015201687812805, 0.17113780975341797, 0.1824800968170166, 0.2036985456943512, -0.7387928794942857, 0.3239524063984768, 0.5073638578064291,0.30302149965699166,0.9363555908203125,0.748016357421875,0.480194091796875
20220118-1314,2022-01-18 13:14:15Z,u01, 157,40,movements,el-ex, rt, d,203374.76965341668, 1.8920799542298845, -0.546052100831219, 1.8974687287219796, -0.12556546926498413, -1.7221369743347168, 1.5492318868637085, 0.8108533620834351, 0.5193175077438354, 0.2698638439178467, 0.11323428153991699, 0.28839123249053955, 0.11978471279144287, -0.7266553751428078, 0.32696159126169855, 0.5059461654608832,0.33028270529779874,0.925750732421875,0.8142547607421875,0.373138427734375
20220118-1314,2022-01-18 13:14:15Z,u01, 158,40,movements,el-ex, rt, d,203374.79459641667, 1.8441375039771617, -0.5107918785887521, 1.8865367824858594, -0.05322716385126114, -1.643807291984558, 1.3915077447891235, 0.8399710655212402, 0.48886820673942566, 0.23549309372901917, 0.05274462699890137, 0.25014549493789673, 0.21064355969429016, -0.7137317872141073, 0.3291405226290246, 0.5061859914023502,0.35500621635308516,0.8757171630859375,0.71600341796875,0.48052978515625
20220118-1314,2022-01-18 13:14:15Z,u01, 159,40,movements,el-ex, rt, d,203374.81954041668, 1.8022043284148075, -0.4783048618401543, 1.880413230041206, -0.19725440442562103, -1.4613374471664429, 1.1874414682388306, 0.8641123175621033, 0.46027493476867676, 0.20360995829105377, -0.023002028465270996, 0.2023226022720337, 0.35173389315605164, -0.7019071107170127, 0.33035040395230325, 0.5055874609004,0.37759289975907884,0.8336029052734375,0.6511688232421875,0.5543975830078125
20220118-1314,2022-01-18 13:14:15Z,u01, 160,40,movements,el-ex, rt, d,203374.84448441668, 1.7717106389644517, -0.451734582781055, 1.8854117183931391, -0.5268763899803162, -1.1328777074813843, 0.8156945705413818, 0.8815935254096985, 0.4365267753601074, 0.17954719066619873, -0.042085468769073486, 0.19537007808685303, 0.31854569911956787, -0.6939854299332053, 0.3288735594640282, 0.5026301956005693,0.39697518736101467,0.8180389404296875,0.6419677734375,0.483917236328125
20220118-1314,2022-01-18 13:14:15Z,u01, 161,40,movements,el-ex, rt, d,203374.86942841668, 1.7522623038127345, -0.4322649508010703, 1.8966851050712106, -0.4742521345615387, -0.813173770904541, 0.5519428849220276, 0.8931099772453308, 0.41892850399017334, 0.16387179493904114, -0.08288329839706421, 0.28202974796295166, 0.3106614351272583, -0.6896947048610405, 0.3259710330861928, 0.4983888714943576,0.4119136516854296,0.7976837158203125,0.73297119140625,0.4722900390625
20220118-1314,2022-01-18 13:14:15Z,u01, 162,40,movements,el-ex, rt, d,203374.89437141668, 1.7382830424736115, -0.4196388351365147, 1.9025953159833626, -0.1457654982805252, -0.49519073963165283, 0.37315019965171814, 0.9004571437835693, 0.40743064880371094, 0.1522408127784729, -0.09041380882263184, 0.329706072807312, 0.3440514802932739, -0.6862659411985836, 0.3242830056794659, 0.49608442429442956,0.42163948323726663,0.8133392333984375,0.7192535400390625,0.5017852783203125
20220118-1314,2022-01-18 13:14:15Z,u01, 163,40,movements,el-ex, rt, d,203374.9193154167, 1.731443478535404, -0.4142704302731952, 1.9054364066896432, -0.24571292102336884, -0.14149244129657745, -0.01588982343673706, 0.9036234617233276, 0.40252217650413513, 0.14642633497714996, -0.09440398216247559, 0.2890212833881378, 0.38558685779571533, -0.6846361590071945, 0.3232437138733968, 0.49516643075448724,0.426142091308296,0.8211212158203125,0.6998443603515625,0.5507049560546875
20220118-1314,2022-01-18 13:14:15Z,u01, 164,40,movements,el-ex, rt, d,203374.9442594167, 1.737630411282513, -0.4172739800306566, 1.916368551330373, -0.4535358250141144, 0.29513588547706604, -0.3529271185398102, 0.9015040397644043, 0.4052698314189911, 0.15181271731853485, -0.07348573207855225, 0.32014819979667664, 0.3998994827270508, -0.6880680823992424, 0.3201072863274807, 0.4926419430901261,0.42590806808028553,0.825042724609375,0.740081787109375,0.54833984375
20220118-1314,2022-01-18 13:14:15Z,u01, 165,40,movements,el-ex, rt, d,203374.96920341667, 1.7559813443132284, -0.4277233232679384, 1.9306427292746693, -0.3677838444709778, 0.7183506488800049, -0.6220971941947937, 0.8943551182746887, 0.4148003160953522, 0.1675407439470291, -0.08116835355758667, 0.34566715359687805, 0.3614206314086914, -0.6954100560991676, 0.3165047061557056, 0.48951088974358437,0.4202485504180376,0.8005523681640625,0.7675628662109375,0.52325439453125
20220118-1314,2022-01-18 13:14:15Z,u01, 166,40,movements,el-ex, rt, d,203374.9941464167, 1.7837457048939516, -0.44591973598100193, 1.9426679321163127, -0.21734647452831268, 1.0846434831619263, -0.962448239326477, 0.8818351030349731, 0.43128785490989685, 0.1906772255897522, -0.0887746810913086, 0.3802660405635834, 0.35038435459136963, -0.7049879515678716, 0.313577110289633, 0.4876015410889916,0.4085415568219065,0.7967071533203125,0.8138885498046875,0.5475921630859375
20220118-1314,2022-01-18 13:14:15Z,u01, 167,40,movements,el-ex, rt, d,203375.01909041667, 1.821131975325615, -0.4724393122879543, 1.9554338595590193, -0.2463551163673401, 1.4569324254989624, -1.33176851272583, 0.8627048134803772, 0.4550597369670868, 0.2205931842327118, -0.043261945247650146, 0.34965819120407104, 0.3506045341491699, -0.7169956126333508, 0.3101836265340048, 0.4865443842366545,0.391124172312976,0.848388671875,0.8122406005859375,0.5817413330078125
20220118-1314,2022-01-18 13:14:15Z,u01, 168,40,movements,el-ex, rt, d,203375.04403441667, 1.8700130888446722, -0.5063820593929016, 1.9742812634092268, -0.2250443994998932, 1.779037356376648, -1.6240113973617554, 0.8356489539146423, 0.48501652479171753, 0.2577795386314392, 0.06228530406951904, 0.34876948595046997, 0.287005215883255, -0.731969377961984, 0.3051402942830316, 0.48498753840592057,0.368642779802071,0.895477294921875,0.854766845703125,0.5496978759765625
20220118-1314,2022-01-18 13:14:15Z,u01, 169,40,movements,el-ex, rt, d,203375.06897741667, 1.9282607153549378, -0.5473255469585738, 1.9928028039500318, 0.10775196552276611, 2.1407628059387207, -1.8900291919708252, 0.799940824508667, 0.5204053521156311, 0.2987864911556244, 0.08506906032562256, 0.3816484808921814, 0.2964743375778198, -0.7477633589233486, 0.30040507749436784, 0.4846418730373444,0.3401898960608384,0.8892974853515625,0.89404296875,0.6211090087890625
20220118-1314,2022-01-18 13:14:15Z,u01, 170,40,movements,el-ex, rt, d,203375.09392141667, 1.9953345082043394, -0.5959456653768124, 2.0103973660613583, 0.15699195861816406, 2.4572577476501465, -2.1592202186584473, 0.7541499733924866, 0.5612916350364685, 0.34089604020118713, 0.19218510389328003, 0.3230162262916565, 0.3479163944721222, -0.7634206015899816, 0.2960354755007005, 0.48606061789413,0.3054460334871596,0.9656219482421875,0.874542236328125,0.6938934326171875
20220118-1314,2022-01-18 13:14:15Z,u01, 171,40,movements,el-ex, rt, d,203375.11886541668, 2.0762050676626544, -0.6472853130158158, 2.03970627801531, -0.015249788761138916, 2.678222179412842, -2.365858793258667, 0.6979899406433105, 0.6030230522155762, 0.3862301707267761, 0.2941367030143738, 0.2420850396156311, 0.275665819644928, -0.7804186684623265, 0.2899341129536308, 0.48547604931314353,0.2668297329298833,0.9691009521484375,0.8803558349609375,0.6445465087890625
20220118-1314,2022-01-18 13:14:15Z,u01, 172,40,movements,el-ex, rt, d,203375.14380941668, 2.170863643526886, -0.6991415291689326, 2.0803134610213525, 0.08841511607170105, 2.8634891510009766, -2.540026903152466, 0.6316787004470825, 0.6435608267784119, 0.4322170913219452, 0.26640790700912476, 0.2984556555747986, 0.22830554842948914, -0.7975968389072949, 0.28275047011236704, 0.4831038276488335,0.22472697625930854,0.8879241943359375,0.94195556640625,0.673126220703125
20220118-1314,2022-01-18 13:14:15Z,u01, 173,40,movements,el-ex, rt, d,203375.16875241668, 2.278042289319859, -0.7543558808044726, 2.1328765086723998, -0.04034871608018875, 2.903615713119507, -2.8346688747406006, 0.5539344549179077, 0.6848194599151611, 0.4734761714935303, 0.3218287229537964, 0.2696942687034607, 0.2683912515640259, -0.8137257861708247, 0.2731088151141599, 0.4808626207480537,0.1789784693072886,0.887298583984375,0.9435272216796875,0.74798583984375
20220118-1314,2022-01-18 13:14:15Z,u01, 174,40,movements,el-ex, rt, d,203375.19369641668, 2.406557717420225, -0.8007279734988717, 2.2103542442060746, -0.4856955111026764, 3.0208218097686768, -2.9141781330108643, 0.46687042713165283, 0.7178630828857422, 0.5164347290992737, 0.41229531168937683, 0.17962831258773804, 0.20574861764907837, -0.8308052588553247, 0.2607297421944326, 0.4735656633440734,0.13235659588046605,0.8860626220703125,0.8891448974609375,0.7098388671875
20220118-1314,2022-01-18 13:14:15Z,u01, 175,40,movements,el-ex, rt, d,203375.2186404167, 2.5535394338169377, -0.8366792384229962, 2.3061251336257227, -0.34475579857826233, 3.1746230125427246, -2.989549398422241, 0.3716397285461426, 0.7424225211143494, 0.5573984384536743, 0.4656559228897095, 0.16671139001846313, 0.15376806259155273, -0.8471113457853947, 0.2471873730307656, 0.46280975492792076,0.08430903000044401,0.776702880859375,0.92608642578125,0.7446746826171875
20220118-1314,2022-01-18 13:14:15Z,u01, 176,40,movements,el-ex, rt, d,203375.2435844167, 2.7107253874954784, -0.8711600248707159, 2.4080711727953825, 0.1083257794380188, 3.2298505306243896, -3.0742714405059814, 0.2689472436904907, 0.7650764584541321, 0.5850862264633179, 0.45222899317741394, 0.19377058744430542, 0.173092782497406, -0.8591097497310766, 0.2333957056721757, 0.4542691388817245,0.03311469454548291,0.710693359375,0.952880859375,0.7648162841796875
20220118-1314,2022-01-18 13:14:15Z,u01, 177,40,movements,el-ex, rt, d,203375.2685274167, 2.880564785568696, -0.8989433415100949, 2.523978553177017, -0.2346123456954956, 3.1627612113952637, -3.2200803756713867, 0.16063477098941803, 0.7826696634292603, 0.6013525724411011, 0.5381567478179932, 0.10536128282546997, 0.18070638179779053, -0.8679597801494519, 0.21753644072861317, 0.4460414919328768,-0.01925537720769155,0.7079925537109375,0.8212738037109375,0.7632598876953125
20220118-1314,2022-01-18 13:14:15Z,u01, 178,40,movements,el-ex, rt, d,203375.2934714167, 3.0633996301210646, -0.8943156964724612, 2.6550971811507758, -1.1118069887161255, 3.3133397102355957, -3.1601462364196777, 0.04890308156609535, 0.7797808647155762, 0.6241397857666016, 0.5980085730552673, 0.03313106298446655, 0.15483683347702026, -0.8785370565261319, 0.20060539709485098, 0.4278428564282908,-0.06986164559336278,0.6130828857421875,0.833709716796875,0.8092803955078125
20220118-1314,2022-01-18 13:14:15Z,u01, 179,40,movements,el-ex, rt, d,203375.31841541667, -3.0393844641802445, -0.8694595099417861, 2.7782282594140213, -0.5928298234939575, 3.543827533721924, -3.0986993312835693, -0.06583403795957565, 0.7639803290367126, 0.6418725252151489, 0.5928115844726562, 0.14907515048980713, 0.15622341632843018, -0.8870042159343285, 0.18482369454570619, 0.40532138627504416,-0.12156651858068673,0.4791717529296875,0.9108123779296875,0.8076171875
20220118-1314,2022-01-18 13:14:15Z,u01, 180,40,movements,el-ex, rt, d,203375.3433584167, -2.8649165032615977, -0.8484495512464043, 2.8919695318703336, -0.04253360629081726, 3.5432183742523193, -3.0155906677246094, -0.1805988848209381, 0.7502562403678894, 0.6360032558441162, 0.570079505443573, 0.11874711513519287, 0.08715677261352539, -0.8885639889751614, 0.168688073001926, 0.38886584726986484,-0.17544766088167627,0.3652191162109375,0.8378143310546875,0.7099609375
20220118-1314,2022-01-18 13:14:15Z,u01, 181,40,movements,el-ex, rt, d,203375.36830241667, -2.699744738897406, -0.8181869667241063, 2.993979598194501, -0.36048638820648193, 3.656683921813965, -3.0175819396972656, -0.292291522026062, 0.729907751083374, 0.6179003119468689, 0.6350191831588745, 0.04404854774475098, 0.1159408688545227, -0.8863181843778999, 0.1529386111354501, 0.37222803297720597,-0.22912065742402477,0.3336944580078125,0.7674102783203125,0.780517578125
20220118-1314,2022-01-18 13:14:15Z,u01, 182,40,movements,el-ex, rt, d,203375.39324641667, -2.549842486002711, -0.7636875946495212, 3.074457185792648, -1.1162424087524414, 3.7102813720703125, -2.976172685623169, -0.4029043912887573, 0.6915896534919739, 0.5994768142700195, 0.7150839567184448, 0.0667264461517334, 0.20449382066726685, -0.8835095688691742, 0.13838078105295487, 0.34715842994691404,-0.2823877210982017,0.2975006103515625,0.727142333984375,0.7738494873046875
20220118-1314,2022-01-18 13:14:15Z,u01, 183,40,movements,el-ex, rt, d,203375.41819041668, -2.4213197333065417, -0.6991714987225728, 3.1288748305952945, -0.8786060214042664, 3.6201212406158447, -2.764214038848877, -0.504833996295929, 0.6435837745666504, 0.5752760767936707, 0.6831483840942383, 0.05915963649749756, 0.07506895065307617, -0.8784583420114109, 0.1262892665632835, 0.31842445989332857,-0.3331183622448128,0.1196441650390625,0.738983154296875,0.5517578125
20220118-1314,2022-01-18 13:14:15Z,u01, 184,40,movements,el-ex, rt, d,203375.44313341667, -2.3011955046217176, -0.6441708736096253, -3.1047107620836805, -0.1194729283452034, 3.6282362937927246, -2.5933070182800293, -0.5956271290779114, 0.6005356907844543, 0.5334655046463013, 0.5961154103279114, 0.09199965000152588, -0.10046654939651489, -0.8682926116602134, 0.11314011659455242, 0.2960949375046169,-0.3815692729770431,-0.0298919677734375,0.6676177978515625,0.41448974609375
20220118-1314,2022-01-18 13:14:15Z,u01, 185,40,movements,el-ex, rt, d,203375.46807741668, -2.1834975882716328, -0.5921523082018213, -3.057431232000113, -0.17995022237300873, 3.6368215084075928, -2.580688953399658, -0.678809404373169, 0.5581481456756592, 0.4771672487258911, 0.5942147374153137, 0.041629016399383545, -0.022928059101104736, -0.8537271411204481, 0.09865894753257226, 0.277243909386371,-0.42959546565437984,-0.1223297119140625,0.47772216796875,0.3669281005859375
20220118-1314,2022-01-18 13:14:15Z,u01, 186,40,movements,el-ex, rt, d,203375.49302141668, -2.077259721054859, -0.5378035588245731, -3.023362107346787, -0.0824846550822258, 3.410426378250122, -2.347600221633911, -0.7510226964950562, 0.5122508406639099, 0.41661083698272705, 0.5716707110404968, -0.13194072246551514, -0.21133404970169067, -0.8372559439065455, 0.0854863033123689, 0.2574333758150637,-0.4747871591683289,-0.1996917724609375,0.377960205078125,0.176971435546875
20220118-1314,2022-01-18 13:14:15Z,u01, 187,40,movements,el-ex, rt, d,203375.51796441668, -1.9837420199397477, -0.49114105862430135, -2.994942305670264, 0.17341072857379913, 2.9211385250091553, -1.9144657850265503, -0.8076739311218262, 0.47163236141204834, 0.35387253761291504, 0.5521655082702637, -0.1268906593322754, -0.3002682328224182, -0.8195011649324414, 0.07317174542869614, 0.24182806124532785,-0.514376272157934,-0.282073974609375,0.2742156982421875,-0.0749664306640625
20220118-1314,2022-01-18 13:14:15Z,u01, 188,40,movements,el-ex, rt, d,203375.54290779168, -1.907286953031283, -0.4541917320085085, -2.972658801895862, 0.12371750921010971, 2.410790205001831, -1.439132809638977, -0.8482210040092468, 0.4387361407279968, 0.29670199751853943, 0.46827709674835205, -0.3655855059623718, -0.5281164646148682, -0.8027500716837445, 0.06279582295978642, 0.23053155702319125,-0.5463555027423797,-0.40740966796875,0.0349884033203125,-0.291778564453125
20220118-1314,2022-01-18 13:14:16Z,u01, 189,40,movements,el-ex, rt, d,203375.56785179168, -1.8502187101526077, -0.4257669639000573, -2.963633562591633, -0.019322628155350685, 1.8223521709442139, -0.8455744385719299, -0.8753999471664429, 0.4130193889141083, 0.25117766857147217, 0.3808930516242981, -0.5103704929351807, -0.6310602426528931, -0.7888661535917155, 0.057262820660279656, 0.2203437251770304,-0.5708414253210498,-0.535980224609375,-0.199951171875,-0.4604034423828125
20220118-1314,2022-01-18 13:14:16Z,u01, 190,40,movements,el-ex, rt, d,203375.5927957917, -1.8144425230089147, -0.4145046838270666, -2.9560224974130684, 0.2165946513414383, 0.7142422199249268, -0.10618402808904648, -0.8882819414138794, 0.4027366042137146, 0.2208133339881897, 0.3761206865310669, -0.5959739685058594, -0.8966248035430908, -0.7793632476809463, 0.05476853406964877, 0.21725533641579575,-0.585144015540074,-0.5093231201171875,-0.1884307861328125,-0.7277984619140625
20220118-1314,2022-01-18 13:14:16Z,u01, 191,40,movements,el-ex, rt, d,203375.61773879168, -1.807978939221301, -0.42368163369447953, -2.94865487353138, 0.5352762341499329, -0.37725597620010376, 0.5988601446151733, -0.8860610127449036, 0.41111934185028076, 0.21418987214565277, 0.33454710245132446, -0.647081196308136, -1.0498372316360474, -0.7771880221113394, 0.055441078721310655, 0.22269404130380382,-0.5859288771275384,-0.564483642578125,-0.2223358154296875,-0.7926788330078125
20220118-1314,2022-01-18 13:14:16Z,u01, 192,40,movements,el-ex, rt, d,203375.6426827917, -1.8241795122700146, -0.4466509559550443, -2.9415930406927133, 0.3108842968940735, -1.1222540140151978, 1.027178406715393, -0.8731012940406799, 0.4319474697113037, 0.22608855366706848, 0.2886589765548706, -0.5293137431144714, -0.659193754196167, -0.7808277131045411, 0.05789955738714747, 0.23385290567153122,-0.5764275874703577,-0.5959014892578125,-0.0666656494140625,-0.3242340087890625
20220118-1314,2022-01-18 13:14:16Z,u01, 193,40,movements,el-ex, rt, d,203375.6676267917, -1.8632574570671083, -0.4739638375853668, -2.9495668034330382, -0.304911345243454, -1.7030506134033203, 1.2728042602539062, -0.8519842624664307, 0.4564167559146881, 0.25652825832366943, 0.2353765368461609, -0.3747822642326355, -0.37734711170196533, -0.7899933645239436, 0.06461124371208177, 0.24314490156301102,-0.5591212015677686,-0.619537353515625,0.156982421875,-0.117218017578125
20220118-1314,2022-01-18 13:14:16Z,u01, 194,40,movements,el-ex, rt, d,203375.6925697917, -1.9229495226344648, -0.5043341110140719, -2.9737039628028974, -0.39593303203582764, -2.1739561557769775, 1.56108820438385, -0.8217693567276001, 0.4832245707511902, 0.3019760251045227, 0.21660572290420532, -0.2854095995426178, -0.5156598091125488, -0.8032784309966374, 0.07570847533055952, 0.25034943571013385,-0.535104952725827,-0.5931396484375,0.2019805908203125,-0.241851806640625
20220118-1314,2022-01-18 13:14:16Z,u01, 195,40,movements,el-ex, rt, d,203375.7175137917, -1.992491663637263, -0.5432591026834606, -2.9941530540860155, 0.3694383502006531, -2.5325162410736084, 1.8492364883422852, -0.781037449836731, 0.5169286131858826, 0.3503792881965637, 0.22734177112579346, -0.2922581434249878, -0.5890111923217773, -0.8172017390113391, 0.08585430395217103, 0.2631701618039894,-0.5055214770831574,-0.518096923828125,0.2728729248046875,-0.1158294677734375
20220118-1314,2022-01-18 13:14:16Z,u01, 196,40,movements,el-ex, rt, d,203375.74245779167, -2.0631528193309516, -0.5952183880535687, -3.0027416149990063, 0.7900093197822571, -2.763988733291626, 2.1373984813690186, -0.7296745181083679, 0.5606896281242371, 0.3914111852645874, 0.29637062549591064, -0.20387804508209229, -0.26299285888671875, -0.8288557520073554, 0.09329381048020641, 0.2850751006453008,-0.4722570799088275,-0.4152679443359375,0.3614044189453125,0.1656036376953125
20220118-1314,2022-01-18 13:14:16Z,u01, 197,40,movements,el-ex, rt, d,203375.76740179167, -2.146018139068311, -0.6531004975525548, -3.0212784846102325, 0.4623410105705261, -3.0191736221313477, 2.5171709060668945, -0.666394054889679, 0.6076517701148987, 0.43206357955932617, 0.3280913233757019, -0.2418375015258789, -0.2599593997001648, -0.8399122186360861, 0.10285549280265305, 0.30852809129226555,-0.4344868661142364,-0.261993408203125,0.333099365234375,0.124420166015625
20220118-1314,2022-01-18 13:14:16Z,u01, 198,40,movements,el-ex, rt, d,203375.79234479167, -2.249530967360112, -0.7132954670074242, -3.062026430254979, 0.46834278106689453, -3.2107722759246826, 2.857802391052246, -0.588609516620636, 0.6543293595314026, 0.4747551679611206, 0.47706764936447144, -0.3029041290283203, -0.40418297052383423, -0.8507167658980928, 0.11686987745082467, 0.3308062708175404,-0.39139470259751974,-0.067962646484375,0.3911590576171875,0.0703887939453125
20220118-1314,2022-01-18 13:14:16Z,u01, 199,40,movements,el-ex, rt, d,203375.81728879167, -2.363867287429191, -0.7867116604714778, -3.106512872130488, 1.6919498443603516, -3.5270802974700928, 3.2395401000976562, -0.49549704790115356, 0.7080349326133728, 0.5031597018241882, 0.5452711582183838, -0.1977657675743103, -0.38725364208221436, -0.8570880921729497, 0.13030676751105663, 0.36076120599932027,-0.34390648998129075,0.09478759765625,0.5987701416015625,0.2069091796875
20220118-1314,2022-01-18 13:14:16Z,u01, 200,40,movements,el-ex, rt, d,203375.84223279168, -2.493457417718976, -0.879251764935762, 3.1262036811692173, 1.4839667081832886, -3.7906410694122314, 3.6289148330688477, -0.3849969506263733, 0.7702619433403015, 0.5084037780761719, 0.6055321097373962, -0.08605766296386719, 0.028950035572052002, -0.8567404800260956, 0.1421183488245258, 0.4012184676730456,-0.29124219311049293,0.23907470703125,0.6476287841796875,0.6611785888671875
20220118-1314,2022-01-18 13:14:16Z,u01, 201,40,movements,el-ex, rt, d,203375.86717679168, -2.6818043442619857, -0.9203260591019733, 3.0039359986558765, -1.7441762685775757, -3.4854066371917725, 3.2119266986846924, -0.2687227725982666, 0.7957991361618042, 0.542671263217926, 0.6292269229888916, -0.1312941312789917, 0.3276292681694031, -0.8633819935420264, 0.16095707378368707, 0.4173447684748345,-0.23342619479340065,0.4911651611328125,0.817535400390625,0.8884735107421875
20220118-1314,2022-01-18 13:14:16Z,u01, 202,40,movements,el-ex, rt, d,203375.89211979168, -2.8736575463797225, -0.9194398860884148, 2.868891875383882, 0.05644860118627548, -3.3992953300476074, 2.8982081413269043, -0.1605032980442047, 0.7952621579170227, 0.5846340656280518, 0.6770133376121521, 0.526896595954895, 0.28697866201400757, -0.871848131568544, 0.17943763990070505, 0.41936969340083985,-0.17835945606171577,0.4884185791015625,1.4279022216796875,0.8316650390625
20220118-1314,2022-01-18 13:14:16Z,u01, 203,40,movements,el-ex, rt, d,203375.91706379168, -3.0463694422120775, -0.9664687749590792, 2.7580035612764613, 2.273489236831665, -3.192387342453003, 2.973473310470581, -0.054024942219257355, 0.8228843808174133, 0.5656347274780273, 0.43621188402175903, 0.5213843584060669, 0.09223288297653198, -0.8640595379585005, 0.19031152969523413, 0.4475753576708359,-0.12984200493057463,0.327789306640625,1.007965087890625,0.6136016845703125
20220118-1314,2022-01-18 13:14:16Z,u01, 204,40,movements,el-ex, rt, d,203375.9420077917, 3.0438942608445045, -1.0026304841097535, 2.621067648852445, 0.4785154163837433, -3.2436559200286865, 3.1902105808258057, 0.05248671770095825, 0.8428893089294434, 0.5355217456817627, 0.3815801441669464, -0.34098178148269653, 0.07200729846954346, -0.8524457527422331, 0.20272424250068716, 0.4748599317122301,-0.08214277745433346,0.5003204345703125,0.4525299072265625,0.59893798828125
20220118-1314,2022-01-18 13:14:16Z,u01, 205,40,movements,el-ex, rt, d,203375.96695079168, 2.8471511710707316, -0.977021700520847, 2.482265771453309, -0.779749870300293, -3.2005653381347656, 3.0541443824768066, 0.16236817836761475, 0.8288347125053406, 0.535415768623352, 0.4567877948284149, -0.1870652437210083, 0.23658764362335205, -0.8487311195063013, 0.21763130396128344, 0.48116882189294546,-0.027727637628905344,0.7037811279296875,0.925018310546875,0.8350982666015625
20220118-1314,2022-01-18 13:14:16Z,u01, 206,40,movements,el-ex, rt, d,203375.9918947917, 2.6754582690436512, -0.9427991152956344, 2.3674502358505083, 0.16405388712882996, -2.9780642986297607, 2.8576772212982178, 0.26405563950538635, 0.8092058300971985, 0.5248442888259888, 0.5603921413421631, 0.5165695548057556, 0.21316277980804443, -0.8423076602331263, 0.23008682314959467, 0.4868405201485499,0.02375881289184678,0.81005859375,1.293975830078125,0.70867919921875
20220118-1314,2022-01-18 13:14:16Z,u01, 207,40,movements,el-ex, rt, d,203376.0168387917, 2.5200522558356204, -0.9126248627057802, 2.261836652802389, 0.1591704785823822, -2.7328765392303467, 2.7556629180908203, 0.35616907477378845, 0.7911120057106018, 0.49727821350097656, 0.3657548129558563, 0.23809325695037842, 0.15994855761528015, -0.8306983753550995, 0.24203164440740887, 0.49648732497752984,0.06972313930568322,0.67144775390625,0.9148101806640625,0.636474609375
20220118-1314,2022-01-18 13:14:16Z,u01, 208,40,movements,el-ex, rt, d,203376.04178279167, 2.384799484051849, -0.8679122530714427, 2.1752855469238783, -0.10008904337882996, -2.718247890472412, 2.9246826171875, 0.4438285529613495, 0.7629810571670532, 0.4699750542640686, 0.2769051790237427, 0.04471242427825928, 0.06934702396392822, -0.8187792080000558, 0.2541419463053197, 0.501714957045887,0.11530271482217896,0.7458038330078125,0.788726806640625,0.5328369140625
20220118-1314,2022-01-18 13:14:16Z,u01, 209,40,movements,el-ex, rt, d,203376.06672579166, 2.2608126398250805, -0.8134682103794807, 2.100297365483258, 0.12381685525178909, -2.8088955879211426, 2.9424960613250732, 0.5298255085945129, 0.7266741394996643, 0.43729865550994873, 0.3068140149116516, 0.0636243224143982, 0.15498673915863037, -0.8045975205292093, 0.26696846497440196, 0.5052025271422209,0.16162070350046334,0.9134368896484375,0.8547821044921875,0.582794189453125
20220118-1314,2022-01-18 13:14:16Z,u01, 210,40,movements,el-ex, rt, d,203376.09166979167, 2.144326017303032, -0.7573277549197279, 2.0360486166966614, 0.03517869859933853, -2.8430898189544678, 2.8507070541381836, 0.6104000806808472, 0.6869820356369019, 0.3942938446998596, 0.3592808246612549, 0.18707191944122314, 0.10845291614532471, -0.7873172801277843, 0.27798996801507087, 0.5096184975472876,0.2077068669274591,0.96844482421875,0.8494415283203125,0.492156982421875
20220118-1314,2022-01-18 13:14:16Z,u01, 211,40,movements,el-ex, rt, d,203376.11661379167, 2.046969776444546, -0.6954867535386169, 1.9952028422080712, -0.29984161257743835, -2.798865556716919, 2.700298547744751, 0.6823349595069885, 0.6407592296600342, 0.35191890597343445, 0.336341917514801, 0.18016362190246582, 0.11413049697875977, -0.770676333788705, 0.28638686670340735, 0.5098158877938197,0.2532358829567556,1.0620269775390625,0.8267059326171875,0.440399169921875
20220118-1314,2022-01-18 13:14:16Z,u01, 212,40,movements,el-ex, rt, d,203376.14155679167, 1.9589999718286082, -0.6331106246103938, 1.9644449106984785, 0.05307750031352043, -2.7230331897735596, 2.648472547531128, 0.7462028861045837, 0.5916553735733032, 0.3051646053791046, 0.33944475650787354, 0.2504313588142395, 0.1327018439769745, -0.7525491309974031, 0.2936870833288116, 0.5090544882337688,0.2971217692940677,1.09417724609375,0.830596923828125,0.4264984130859375
20220118-1314,2022-01-18 13:14:16Z,u01, 213,40,movements,el-ex, rt, d,203376.16650079167, 1.8748783532514044, -0.5744720636436857, 1.930327779189936, 0.41084685921669006, -2.4867091178894043, 2.4692182540893555, 0.8009660840034485, 0.5433917045593262, 0.25135481357574463, 0.29888761043548584, 0.25326967239379883, 0.22560465335845947, -0.7309876443350152, 0.30221593256236023, 0.5108681398268478,0.33665485416424357,1.1065673828125,0.7774658203125,0.52874755859375
20220118-1314,2022-01-18 13:14:16Z,u01, 214,40,movements,el-ex, rt, d,203376.19144479168, 1.8017285136049823, -0.5202635347646622, 1.9031546150919958, 0.14260396361351013, -2.212488889694214, 2.236177921295166, 0.8446542620658875, 0.4971088171005249, 0.1986009180545807, 0.2647209167480469, 0.2677074074745178, 0.3508530855178833, -0.7095445190492671, 0.3095917170434267, 0.5124464662023542,0.37161579109325044,1.099609375,0.76312255859375,0.5503692626953125
20220118-1314,2022-01-18 13:14:16Z,u01, 215,40,movements,el-ex, rt, d,203376.21638879168, 1.7459925012073154, -0.46895999687248197, 1.8901665509825372, 0.027379795908927917, -1.752203345298767, 1.9750537872314453, 0.8783841133117676, 0.4519588053226471, 0.15548358857631683, 0.18120169639587402, 0.3202122151851654, 0.4299963712692261, -0.6915231347660649, 0.3154957225247458, 0.5103200178631888,0.40228340994004763,1.0526580810546875,0.8011627197265625,0.5806427001953125
20220118-1314,2022-01-18 13:14:16Z,u01, 216,40,movements,el-ex, rt, d,203376.24133179168, 1.6990394432790132, -0.4240817253236296, 1.8769978549567672, 0.36090219020843506, -1.5842103958129883, 1.6647017002105713, 0.903932511806488, 0.411484032869339, 0.11656283587217331, 0.09863096475601196, 0.43774375319480896, 0.3099205493927002, -0.6743465801945123, 0.3217733777128689, 0.509012342426854,0.4273464798679696,0.9742889404296875,0.8460540771484375,0.415374755859375
20220118-1314,2022-01-18 13:14:16Z,u01, 217,40,movements,el-ex, rt, d,203376.26627579168, 1.657942451867722, -0.3899174619581377, 1.868348784819377, -0.22998452186584473, -1.3793176412582397, 1.1043270826339722, 0.9214305877685547, 0.38011208176612854, 0.08050300180912018, -0.04591166973114014, 0.4510798454284668, 0.40579473972320557, -0.6593983911650237, 0.32472336038509936, 0.5088882853319494,0.44808627145055074,0.834442138671875,0.8557891845703125,0.550567626953125
20220118-1314,2022-01-18 13:14:16Z,u01, 218,40,movements,el-ex, rt, d,203376.2912197917, 1.6330737465033285, -0.3657208795976165, 1.88412725776346, -0.9552620053291321, -1.035941243171692, 0.7080602645874023, 0.9320560693740845, 0.35762259364128113, 0.058121208101511, -0.1385071873664856, 0.5543036460876465, 0.5519710779190063, -0.6528208487631039, 0.3207577632892422, 0.5031821483978127,0.4666340712958115,0.7957000732421875,0.9259033203125,0.5928955078125
20220118-1314,2022-01-18 13:14:16Z,u01, 219,40,movements,el-ex, rt, d,203376.3161637917, 1.6206551252946537, -0.3525473133556788, 1.906471425966835, -0.6481599807739258, -0.5604338049888611, 0.29258546233177185, 0.9373300075531006, 0.34528955817222595, 0.04677291214466095, -0.1270272135734558, 0.5762495994567871, 0.41263890266418457, -0.6515270432482951, 0.3144820632436802, 0.49651549343034357,0.4796727841715342,0.8004913330078125,0.8750152587890625,0.378692626953125
20220118-1314,2022-01-18 13:14:16Z,u01, 220,40,movements,el-ex, rt, d,203376.3411067917, 1.618385049096175, -0.3509650366987206, 1.9158189230011302, -0.09201983362436295, 0.11966392397880554, -0.18986761569976807, 0.9379785060882568, 0.34380418062210083, 0.04467092454433441, -0.21353673934936523, 0.5207740068435669, 0.40286946296691895, -0.6522149604035574, 0.3113697292892386, 0.49421528767806716,0.4831314727792706,0.7187347412109375,0.8655853271484375,0.479034423828125
20220118-1314,2022-01-18 13:14:16Z,u01, 221,40,movements,el-ex, rt, d,203376.36605079166, 1.6277122239686095, -0.36056973682555765, 1.9138443522811206, 0.14048494398593903, 0.6478785872459412, -0.6162177920341492, 0.9341810345649719, 0.3528074026107788, 0.05322723835706711, -0.2145153284072876, 0.4116731286048889, 0.4979051351547241, -0.6555157175991726, 0.31130814820886393, 0.49570399816865596,0.477141595721735,0.7372589111328125,0.6875762939453125,0.5711517333984375
20220118-1314,2022-01-18 13:14:16Z,u01, 222,40,movements,el-ex, rt, d,203376.39099479167, 1.6511132115406384, -0.3811516925060455, 1.9194085203295779, -0.5352371335029602, 1.028520941734314, -1.0261236429214478, 0.9252445697784424, 0.37198975682258606, 0.07447296380996704, -0.09142792224884033, 0.23566091060638428, 0.4972740411758423, -0.6647266022452478, 0.30882847609848174, 0.4960695840566047,0.4654874163843072,0.859710693359375,0.610565185546875,0.5656585693359375
20220118-1314,2022-01-18 13:14:16Z,u01, 223,40,movements,el-ex, rt, d,203376.41593779167, 1.6912013106931718, -0.4088951731407978, 1.9468808727285607, -1.1309328079223633, 1.3614689111709595, -1.3800240755081177, 0.9109176397323608, 0.3975958228111267, 0.11021213233470917, -0.008970558643341064, 0.25503772497177124, 0.41562116146087646, -0.6816269715224716, 0.30081678373638365, 0.4909254100159827,0.45153759770037677,0.906829833984375,0.6939239501953125,0.4938201904296875
20220118-1314,2022-01-18 13:14:16Z,u01, 224,40,movements,el-ex, rt, d,203376.44088179167, 1.7443990863023573, -0.4421324611998358, 1.982580285460654, -0.9685764312744141, 1.71879243850708, -1.6145353317260742, 0.8902556300163269, 0.4278678297996521, 0.15612240135669708, 0.02579057216644287, 0.34720224142074585, 0.29720115661621094, -0.7023573015169946, 0.29112784272695663, 0.4841133701600982,0.4330971494532949,0.9162750244140625,0.7895355224609375,0.44921875
20220118-1314,2022-01-18 13:14:16Z,u01, 225,40,movements,el-ex, rt, d,203376.46582579167, 1.8039402877549555, -0.4805235564198105, 2.011049335187174, -0.3941537141799927, 2.0155997276306152, -1.8191509246826172, 0.8627617955207825, 0.4622434973716736, 0.20487326383590698, 0.05683964490890503, 0.36197513341903687, 0.23830315470695496, -0.7225116687005033, 0.28357277781697965, 0.4802431130235275,0.4085706033067848,0.9314422607421875,0.855804443359375,0.4486846923828125
20220118-1314,2022-01-18 13:14:16Z,u01, 226,40,movements,el-ex, rt, d,203376.49076979168, 1.8654802392363155, -0.5264156558092832, 2.029575622341584, 0.010933811776340008, 2.204368829727173, -2.102111339569092, 0.827343761920929, 0.5024375319480896, 0.25111618638038635, 0.12079179286956787, 0.3705177903175354, 0.22764372825622559, -0.7405570205601796, 0.27772898788282635, 0.4810592080360969,0.37818530636666414,0.953521728515625,0.8766326904296875,0.497833251953125
20220118-1314,2022-01-18 13:14:16Z,u01, 227,40,movements,el-ex, rt, d,203376.51571279168, 1.935225132182915, -0.5787126181745473, 2.052929092771846, -0.19781723618507385, 2.4181618690490723, -2.359624147415161, 0.7821886539459229, 0.54694664478302, 0.2983796298503876, 0.20711499452590942, 0.32205653190612793, 0.24692389369010925, -0.7590425610898267, 0.27026691568464944, 0.48256725214596036,0.34342259266493613,1.0053863525390625,0.8739471435546875,0.56341552734375
20220118-1314,2022-01-18 13:14:16Z,u01, 228,40,movements,el-ex, rt, d,203376.54065691668, 2.0199354492362143, -0.6331065938942692, 2.0882791379090837, -0.06887223571538925, 2.761209487915039, -2.550403118133545, 0.7262361645698547, 0.5916520953178406, 0.3500412702560425, 0.28298020362854004, 0.3537518382072449, 0.21566328406333923, -0.7789160524628407, 0.261362631025168, 0.48195439276480007,0.30446567896909277,1.0107879638671875,0.963348388671875,0.560211181640625
20220118-1314,2022-01-18 13:14:17Z,u01, 229,40,movements,el-ex, rt, d,203376.56560091669, 2.1100684204832, -0.6942442655562912, 2.118293598062387, 0.6609761118888855, 2.956441879272461, -2.6492903232574463, 0.659468948841095, 0.6398048400878906, 0.3946530222892761, 0.3643348813056946, 0.36980825662612915, 0.17356926202774048, -0.7954218054176876, 0.2542256026081487, 0.48511607675984575,0.2594919587113106,1.016693115234375,1.0133819580078125,0.610809326171875
20220118-1314,2022-01-18 13:14:17Z,u01, 230,40,movements,el-ex, rt, d,203376.59054391668, 2.204864017261066, -0.761982590951448, 2.148019357388, 0.6861794590950012, 3.0257742404937744, -2.8632009029388428, 0.5828440189361572, 0.6903571486473083, 0.4286021590232849, 0.3945271968841553, 0.2689780592918396, 0.27980247139930725, -0.8081991986481091, 0.24721474870569232, 0.4914130384540032,0.2102667919014244,0.9731903076171875,0.9350738525390625,0.70489501953125
20220118-1314,2022-01-18 13:14:17Z,u01, 231,40,movements,el-ex, rt, d,203376.6154879167, 2.320599498784538, -0.8265317893509968, 2.2011824199864365, 0.3665074110031128, 3.1720409393310547, -3.045092821121216, 0.4957597255706787, 0.7355863451957703, 0.4616657495498657, 0.44904932379722595, 0.15917372703552246, 0.2281385362148285, -0.821210650207647, 0.2375835619614054, 0.4938582423496719,0.15896926872064818,0.938201904296875,0.9192352294921875,0.6769561767578125
20220118-1314,2022-01-18 13:14:17Z,u01, 232,40,movements,el-ex, rt, d,203376.6404319167, 2.4560613864817755, -0.8864413445859566, 2.2761021763806903, 0.4649093747138977, 3.1151342391967773, -3.0960075855255127, 0.400219202041626, 0.7748269438743591, 0.4893546998500824, 0.5303686857223511, 0.1776418685913086, 0.13758337497711182, -0.832838607775088, 0.2259584238302778, 0.4939983135385666,0.10624689987923941,0.920806884765625,0.9564666748046875,0.6209869384765625
20220118-1314,2022-01-18 13:14:17Z,u01, 233,40,movements,el-ex, rt, d,203376.66537591667, 2.608351395991042, -0.9395522938535935, 2.3720588995162655, 0.28219306468963623, 3.045565128326416, -3.2216551303863525, 0.2999892830848694, 0.8072939515113831, 0.5082158446311951, 0.5762925744056702, 0.1058836579322815, 0.12027865648269653, -0.8420415245862574, 0.21230638278137814, 0.4929431562870339,0.053844933093402714,0.827484130859375,0.888885498046875,0.6578369140625
20220118-1314,2022-01-18 13:14:17Z,u01, 234,40,movements,el-ex, rt, d,203376.6903189167, 2.791530792391474, -0.9743932499626314, 2.5019825990450517, -0.33142679929733276, 3.1018028259277344, -3.339268207550049, 0.19262832403182983, 0.8273612260818481, 0.5276063084602356, 0.5709521174430847, 0.039170265197753906, 0.19942957162857056, -0.851657760695427, 0.19616884642456822, 0.4859997607287405,0.0011461777861664635,0.753509521484375,0.849853515625,0.718353271484375
20220118-1314,2022-01-18 13:14:17Z,u01, 235,40,movements,el-ex, rt, d,203376.71526291667, 2.990927187550526, -0.9835988273012882, 2.6497990994457514, -0.446647971868515, 3.0396828651428223, -3.2360827922821045, 0.08315782248973846, 0.8324966430664062, 0.547754168510437, 0.6282069683074951, 0.010154783725738525, 0.06963193416595459, -0.8611955169498025, 0.17949757546793765, 0.4728586641783047,-0.05027670282570684,0.6683197021484375,0.8632354736328125,0.5661163330078125
20220118-1314,2022-01-18 13:14:17Z,u01, 236,40,movements,el-ex, rt, d,203376.74020691667, -3.0949108822521634, -0.9823440888492008, 2.7951989169199027, -0.024845192208886147, 3.102269172668457, -3.2430360317230225, -0.025902435183525085, 0.8318008184432983, 0.5544694662094116, 0.5883262157440186, 0.09759670495986938, 0.03993678092956543, -0.8664545876898587, 0.1627611154852479, 0.46093006241654433,-0.10153181698407421,0.550750732421875,0.943817138671875,0.6402587890625
20220118-1314,2022-01-18 13:14:17Z,u01, 237,40,movements,el-ex, rt, d,203376.76514991667, -2.8976784370968467, -0.966860002696651, 2.938989751661087, -0.38740918040275574, 3.1914725303649902, -3.3209052085876465, -0.13714638352394104, 0.823106586933136, 0.5510778427124023, 0.6448215842247009, 0.10767954587936401, 0.19233059883117676, -0.8686055377371191, 0.14513219076910577, 0.44810813262977933,-0.15381907862575672,0.4775848388671875,0.86505126953125,0.7542877197265625
20220118-1314,2022-01-18 13:14:17Z,u01, 238,40,movements,el-ex, rt, d,203376.79009391667, -2.7166892010421386, -0.9234168564617997, 3.0625927269457778, -1.0311721563339233, 3.2543389797210693, -3.2838714122772217, -0.2486170530319214, 0.7976669669151306, 0.5494702458381653, 0.6552180051803589, 0.03691267967224121, 0.21179109811782837, -0.8707718890301251, 0.12841898586630252, 0.42766799240850595,-0.20582798030562402,0.3864593505859375,0.8596649169921875,0.7344207763671875
20220118-1314,2022-01-18 13:14:17Z,u01, 239,40,movements,el-ex, rt, d,203376.81503791668, -2.561938772650393, -0.861524598220961, -3.129086925905456, -0.9428979158401489, 3.454111337661743, -3.156961441040039, -0.35672932863235474, 0.7588363885879517, 0.5448962450027466, 0.6603944897651672, 0.17269742488861084, 0.15789341926574707, -0.8714802761909453, 0.11388701178146171, 0.40176426559375433,-0.257172084621173,0.230926513671875,0.973114013671875,0.6988677978515625
20220118-1314,2022-01-18 13:14:17Z,u01, 240,40,movements,el-ex, rt, d,203376.83998191668, -2.4171876141012434, -0.7962648983673628, -3.0536985583325484, -0.8402019143104553, 3.746966600418091, -3.2624940872192383, -0.4634730815887451, 0.7147487998008728, 0.5237624645233154, 0.6021449565887451, 0.3325687050819397, 0.33364439010620117, -0.8671829544927432, 0.0993727767248494, 0.3765425428380279,-0.3103781293470401,0.11895751953125,1.0394134521484375,0.8657989501953125
20220118-1314,2022-01-18 13:14:17Z,u01, 241,40,movements,el-ex, rt, d,203376.86492491668, -2.277748093237096, -0.7236409861467984, -2.993951773052323, -0.7773466110229492, 4.123828887939453, -3.326939821243286, -0.5698029398918152, 0.662117600440979, 0.4867497682571411, 0.6268402934074402, 0.2596811056137085, 0.32945847511291504, -0.8579784789054272, 0.085134106460243, 0.349469024900538,-0.36673788739474134,-0.0049285888671875,0.840667724609375,0.708892822265625
20220118-1314,2022-01-18 13:14:17Z,u01, 242,40,movements,el-ex, rt, d,203376.88986891668, -2.1432992979495253, -0.6479649706229688, -2.94554063392683, -0.31038525700569153, 4.157882213592529, -3.314204692840576, -0.6701805591583252, 0.6035650968551636, 0.43193507194519043, 0.5989371538162231, 0.1244470477104187, -0.04336971044540405, -0.8432320280568908, 0.07019458679730795, 0.32257215253422417,-0.4242403991570541,-0.084075927734375,0.706390380859375,0.3274993896484375
20220118-1314,2022-01-18 13:14:17Z,u01, 243,40,movements,el-ex, rt, d,203376.9148129167, -2.013939311166316, -0.5795151805283848, -2.894872816301492, 0.6294815540313721, 3.859243869781494, -3.025930643081665, -0.7559075951576233, 0.5476183295249939, 0.35877326130867004, 0.6989465355873108, 0.0709424614906311, -0.31395792961120605, -0.8226154682334069, 0.051869276230672945, 0.30267811964739816,-0.47853890003243466,-0.0736846923828125,0.5018463134765625,-0.01507568359375
20220118-1314,2022-01-18 13:14:17Z,u01, 244,40,movements,el-ex, rt, d,203376.93975591668, -1.894170614714725, -0.5210420270429271, -2.835976784489169, 1.2148141860961914, 3.2631778717041016, -2.760880947113037, -0.8223477005958557, 0.49778416752815247, 0.2756003439426422, 0.6764278411865234, -0.2667965888977051, -0.5115162134170532, -0.7980861175792943, 0.029303936293961164, 0.2925497817411149,-0.5259416285637607,-0.172210693359375,0.130035400390625,-0.2665557861328125
20220118-1314,2022-01-18 13:14:17Z,u01, 245,40,movements,el-ex, rt, d,203376.9646999167, -1.7932322127757825, -0.47052426118216895, -2.7789786970124437, 1.329445719718933, 2.5807044506073, -2.138805866241455, -0.8693711161613464, 0.4533536434173584, 0.19663307070732117, 0.6225754618644714, -0.6229550838470459, -0.508293628692627, -0.7734848427559263, 0.006142554894955798, 0.28857802554539813,-0.5642750011610878,-0.2497711181640625,-0.321136474609375,-0.3829498291015625
20220118-1314,2022-01-18 13:14:17Z,u01, 246,40,movements,el-ex, rt, d,203376.9896439167, -1.7293655604279612, -0.4350976111464467, -2.7464153767917625, 0.4163160026073456, 1.371068000793457, -1.098616361618042, -0.8954523205757141, 0.4214989244937897, 0.14319336414337158, 0.6358848214149475, -0.9388328194618225, -0.79118812084198, -0.7559921396281459, -0.008518620416174849, 0.2854091870476389,-0.5890204926178584,-0.28521728515625,-0.540069580078125,-0.7083587646484375
20220118-1314,2022-01-18 13:14:17Z,u01, 247,40,movements,el-ex, rt, d,203377.01458791667, -1.707273535607925, -0.41919090471885995, -2.744077653925647, -0.38398799300193787, 0.369919091463089, -0.2469039261341095, -0.9049253463745117, 0.40702155232429504, 0.12427421659231186, 0.5073268413543701, -0.9694146513938904, -0.9311130046844482, -0.74966982871403, -0.011500337365914881, 0.28065992431303616,-0.5992437706217503,-0.45513916015625,-0.4940643310546875,-0.7544097900390625
20220118-1314,2022-01-18 13:14:17Z,u01, 248,40,movements,el-ex, rt, d,203377.0395309167, -1.714597054939185, -0.42391763691600604, -2.754539157528449, -0.01851702108979225, -0.5048176050186157, 0.6771044135093689, -0.9020768404006958, 0.41133445501327515, 0.13062089681625366, 0.37151336669921875, -0.6707033514976501, -0.7298942804336548, -0.7518383515232061, -0.007038813990038195, 0.27914447423725525,-0.5973006945619853,-0.556182861328125,-0.19842529296875,-0.535736083984375
20220118-1314,2022-01-18 13:14:17Z,u01, 249,40,movements,el-ex, rt, d,203377.06447491667, -1.7344205409285713, -0.4464458471029274, -2.755528279678008, 0.0057881176471710205, -1.0344709157943726, 1.0622379779815674, -0.8899400234222412, 0.4317624568939209, 0.1469293236732483, 0.29515236616134644, -0.4593503475189209, -0.5012991428375244, -0.7572716090119717, -0.002091422030653989, 0.2866983085318352,-0.5868045373890769,-0.624755859375,0.030181884765625,-0.2335205078125
20220118-1314,2022-01-18 13:14:17Z,u01, 250,40,movements,el-ex, rt, d,203377.08941891667, -1.772464090913975, -0.4748679878693955, -2.769181146538358, -0.575710654258728, -1.5080012083053589, 1.3592077493667603, -0.8713296055793762, 0.45722103118896484, 0.17814065515995026, 0.2056952714920044, -0.28946584463119507, -0.32187819480895996, -0.7674793689742809, 0.006763472764469369, 0.29284661797708245,-0.5702374278221207,-0.679351806640625,0.1992340087890625,-0.152008056640625
20220118-1314,2022-01-18 13:14:17Z,u01, 251,40,movements,el-ex, rt, d,203377.11436291668, -1.8255869644711602, -0.508077609052246, -2.794269468585991, -0.38692548871040344, -1.8090380430221558, 1.6325767040252686, -0.8454755544662476, 0.4864985942840576, 0.2202051281929016, 0.13028091192245483, -0.2609432339668274, -0.4334769546985626, -0.7808582650947857, 0.019050784270618404, 0.2981297688310684,-0.5486493706140873,-0.7104034423828125,0.208709716796875,-0.252044677734375
20220118-1314,2022-01-18 13:14:17Z,u01, 252,40,movements,el-ex, rt, d,203377.13930591667, -1.8818125299695159, -0.5512507020881008, -2.8088998844729174, 0.42288076877593994, -2.1017446517944336, 1.9870257377624512, -0.8110001683235168, 0.5237530469894409, 0.2606946527957916, 0.17052769660949707, -0.3458660840988159, -0.47941386699676514, -0.793401694792356, 0.029344195950642527, 0.31074013438323517,-0.5225833343098804,-0.6175994873046875,0.194427490234375,-0.153228759765625
20220118-1314,2022-01-18 13:14:17Z,u01, 253,40,movements,el-ex, rt, d,203377.16424991668, -1.9376239704386167, -0.6076363410229318, -2.8114155016614055, 0.790667712688446, -2.251380205154419, 2.298875093460083, -0.7663787007331848, 0.5709285140037537, 0.29445651173591614, 0.20877671241760254, -0.29192155599594116, -0.24262216687202454, -0.8036136182814235, 0.03786039645527045, 0.3320239085231721,-0.4924753536771983,-0.5319366455078125,0.3434600830078125,0.197906494140625
20220118-1314,2022-01-18 13:14:17Z,u01, 254,40,movements,el-ex, rt, d,203377.18919391668, -2.0028105733946715, -0.6680627455637017, -2.8231673942747104, 0.24731391668319702, -2.394979238510132, 2.490063428878784, -0.7128987312316895, 0.6194663643836975, 0.32868996262550354, 0.24597972631454468, -0.15195232629776, -0.07951366901397705, -0.8136371186806579, 0.04836956376979196, 0.35338434101066113,-0.4591019976827165,-0.4425201416015625,0.4788665771484375,0.223480224609375
