SessionID,LoggingTime,UID,RecNo,Hertz,Activity,MoveType,Wrist,Side,TimeStamp,DMRoll,DMPitch,DMYaw,DMRotX,DMRotY,DMRotZ,DMGrvX,DMGrvY,DMGrvZ,DMUAccelX,DMUAccelY,DMUAccelZ,DMQuatX,DMQuatY,DMQuatW,DMQuatZ,AccelroX,AceelroY,AceelroZ
20220118-1311,2022-01-18 13:11:44Z,u01, 1,40,movements,el-ex, rt, d,203223.946114875, -2.486988435907266, -0.8593083351664428, -2.832935081411746, -1.0398555994033813, 3.2880468368530273, -3.5078494548797607, -0.39755257964134216, 0.757391095161438, 0.5179871916770935, 0.7080384492874146, -0.11580479145050049, 0.06943047046661377, -0.8712023855862248, 0.0, 0.4346814965920727,-0.22816316530713537,0.373382568359375,0.6428375244140625,0.677581787109375
20220118-1311,2022-01-18 13:11:44Z,u01, 2,40,movements,el-ex, rt, d,203223.971058875, -2.3510903559563623, -0.7870734685552468, -2.760110242082785, -0.616520881652832, 3.2423808574676514, -3.240480422973633, -0.5017030239105225, 0.7082903981208801, 0.4966074824333191, 0.6619660258293152, 0.015250861644744873, 0.01869720220565796, -0.864885721740474, -0.016626029006768128, 0.4148927497624044,-0.2820644265654011,0.1739654541015625,0.6990966796875,0.495635986328125
20220118-1311,2022-01-18 13:11:44Z,u01, 3,40,movements,el-ex, rt, d,203223.996002875, -2.223124276512109, -0.7224449838858559, -2.6936392229794377, -0.03426775336265564, 3.6347548961639404, -3.441358804702759, -0.5961567163467407, 0.6612208485603333, 0.4553947150707245, 0.780589759349823, 0.019382178783416748, -0.035671114921569824, -0.8523935877365065, -0.03350423294867377, 0.400986879450884,-0.33393448380141216,0.4061431884765625,0.63671875,0.33013916015625
20220118-1311,2022-01-18 13:11:44Z,u01, 4,40,movements,el-ex, rt, d,203224.020946875, -2.1044773842052455, -0.656062648324199, -2.6372092019628557, -0.16190777719020844, 3.308344602584839, -3.173489570617676, -0.6822093725204468, 0.6100016236305237, 0.4030987620353699, 0.6698803305625916, 0.01875203847885132, 0.08808183670043945, -0.8360594669241704, -0.05053659584034531, 0.38805121497761264,-0.38453474097168094,0.0095367431640625,0.6446075439453125,0.4985198974609375
20220118-1311,2022-01-18 13:11:44Z,u01, 5,40,movements,el-ex, rt, d,203224.04589087502, -2.0067388034452107, -0.5822078422500899, -2.6054710322185364, -0.787771999835968, 3.060790777206421, -3.0660934448242188, -0.7571316361427307, 0.5498693585395813, 0.3526970148086548, 0.6605893969535828, 0.01195913553237915, 0.14255759119987488, -0.8198147811637995, -0.0652091596839508, 0.3697523947969409,-0.4323593521404381,-0.05694580078125,0.54327392578125,0.454193115234375
20220118-1311,2022-01-18 13:11:44Z,u01, 6,40,movements,el-ex, rt, d,203224.07083487502, -1.9274052881636603, -0.5063464646469661, -2.5966359829590386, -0.8218989372253418, 2.992494821548462, -2.837207555770874, -0.8195026516914368, 0.4849853813648224, 0.3052944839000702, 0.621290922164917, -0.029983609914779663, -0.05865132808685303, -0.8042486729129878, -0.0763629963857842, 0.34676354247219926,-0.4765583348367885,-0.1817169189453125,0.4731597900390625,0.2584991455078125
20220118-1311,2022-01-18 13:11:44Z,u01, 7,40,movements,el-ex, rt, d,203224.09577887502, -1.8508624459655547, -0.43646105596561136, -2.5872175622132993, -0.13895560801029205, 2.8324663639068604, -2.6129157543182373, -0.8709431290626526, 0.42273494601249695, 0.25050580501556396, 0.49191486835479736, -0.047277241945266724, -0.2141745388507843, -0.7857975669435996, -0.08817648287200874, 0.327052288813343,-0.5174783778043224,-0.32757568359375,0.436370849609375,0.14349365234375
20220118-1311,2022-01-18 13:11:44Z,u01, 8,40,movements,el-ex, rt, d,203224.120722875, -1.7736072902867255, -0.37881235538018304, -2.5621862273683758, 0.5641566514968872, 2.497339963912964, -2.198289394378662, -0.9100620150566101, 0.3698172867298126, 0.1871434897184372, 0.46308618783950806, -0.15604165196418762, -0.3447667360305786, -0.7634609529783312, -0.10343655331383239, 0.31712656025743846,-0.5530453385662366,-0.4465789794921875,0.2362213134765625,-0.1400604248046875
20220118-1311,2022-01-18 13:11:44Z,u01, 9,40,movements,el-ex, rt, d,203224.145666875, -1.7123483204812757, -0.3348284602882612, -2.542188995123471, 0.112375408411026, 1.7904279232025146, -1.4502332210540771, -0.9350205063819885, 0.3286071717739105, 0.13324514031410217, 0.46298980712890625, -0.7108856439590454, -0.6219534873962402, -0.7438212622098416, -0.11555303308705234, 0.3110266537218513,-0.5802068174112943,-0.4680023193359375,-0.1960296630859375,-0.435272216796875
20220118-1311,2022-01-18 13:11:44Z,u01, 10,40,movements,el-ex, rt, d,203224.170610875, -1.6825568878610893, -0.31100510621796285, -2.5522219815002636, -1.0089244842529297, 0.8419689536094666, -0.39575013518333435, -0.9460870027542114, 0.30601567029953003, 0.10617765039205551, 0.4336206316947937, -1.0426795482635498, -0.888465166091919, -0.7347337176979565, -0.11513118363118552, 0.3017274426419622,-0.5965498156594911,-0.50213623046875,-0.7111968994140625,-0.745086669921875
20220118-1311,2022-01-18 13:11:44Z,u01, 11,40,movements,el-ex, rt, d,203224.195554875, -1.6813264114783317, -0.3107142609444026, -2.574027384669796, -0.23226888477802277, -0.23277229070663452, 0.5594872236251831, -0.9463053345680237, 0.30573877692222595, 0.10502324253320694, 0.39975082874298096, -0.7307113409042358, -1.0583617687225342, -0.7355653769795774, -0.10702895742501706, 0.2951729122962994,-0.6003009786387026,-0.551910400390625,-0.5508270263671875,-0.9634857177734375
20220118-1311,2022-01-18 13:11:44Z,u01, 12,40,movements,el-ex, rt, d,203224.22049887502, -1.6946039932942825, -0.3341246943264513, -2.5683391016070813, 0.6084666848182678, -0.9332699179649353, 1.1871811151504517, -0.9374666810035706, 0.3279424011707306, 0.11666225641965866, 0.29691797494888306, -0.530029833316803, -0.8492672443389893, -0.7400330775646538, -0.10335458825524052, 0.304102430369123,-0.5909235410423123,-0.6290435791015625,-0.206512451171875,-0.764556884765625
20220118-1311,2022-01-18 13:11:44Z,u01, 13,40,movements,el-ex, rt, d,203224.24544287502, -1.7235906542416488, -0.36886836328532313, -2.567464751274287, -0.25068730115890503, -1.4596081972122192, 1.54120934009552, -0.921869158744812, 0.3605601489543915, 0.14196285605430603, 0.27463722229003906, -0.43557244539260864, -0.36503103375434875, -0.7494143062706023, -0.09674516691007129, 0.3147171663451598,-0.5744315325136876,-0.6499176025390625,-0.140045166015625,-0.322662353515625
20220118-1311,2022-01-18 13:11:44Z,u01, 14,40,movements,el-ex, rt, d,203224.27038687502, -1.7729205977342108, -0.408181330876454, -2.586328941769045, -0.4063292443752289, -1.8622033596038818, 1.827901005744934, -0.8991591334342957, 0.3969407379627228, 0.18425798416137695, 0.21342915296554565, -0.28738266229629517, -0.3223499059677124, -0.7648188063714725, -0.08474186371041631, 0.3206937686804075,-0.5522920801946511,-0.680389404296875,0.08673095703125,-0.1395416259765625
20220118-1311,2022-01-18 13:11:44Z,u01, 15,40,movements,el-ex, rt, d,203224.295330875, -1.827851270791305, -0.45655140170255903, -2.598687148129311, 0.5180873870849609, -2.0958499908447266, 2.13323974609375, -0.8680864572525024, 0.44085535407066345, 0.22819435596466064, 0.22883468866348267, -0.23271018266677856, -0.3399038016796112, -0.78017020587552, -0.07369957521175452, 0.33212969192686387,-0.524969322804823,-0.6666412353515625,0.1859893798828125,-0.1587677001953125
20220118-1311,2022-01-18 13:11:44Z,u01, 16,40,movements,el-ex, rt, d,203224.320274875, -1.8802801408366925, -0.5153191955503715, -2.5947359720696492, 0.7969869375228882, -2.276120662689209, 2.297846555709839, -0.8287961483001709, 0.4928126037120819, 0.26501455903053284, 0.2503201961517334, -0.1493220031261444, -0.16520678997039795, -0.7925421682461036, -0.06621326064791233, 0.3521319727356037,-0.49345294444920373,-0.5836334228515625,0.3273468017578125,0.0721435546875
20220118-1311,2022-01-18 13:11:44Z,u01, 17,40,movements,el-ex, rt, d,203224.345218875, -1.9437633793055415, -0.5751043905469515, -2.605425384084688, 0.10363851487636566, -2.3789780139923096, 2.4709978103637695, -0.7814452052116394, 0.5439223647117615, 0.3057642877101898, 0.2604339122772217, -0.20038610696792603, -0.15413764119148254, -0.806094169615294, -0.05562670233271766, 0.3690726537249584,-0.4592420102033822,-0.5467987060546875,0.3557891845703125,0.1585540771484375
20220118-1311,2022-01-18 13:11:44Z,u01, 18,40,movements,el-ex, rt, d,203224.370162875, -2.0228882494784037, -0.6351415021178314, -2.635675284117562, 0.3509399890899658, -2.5920302867889404, 2.7268664836883545, -0.7241149544715881, 0.5932914018630981, 0.35165753960609436, 0.31478261947631836, -0.20820540189743042, -0.23660612106323242, -0.8210601410953955, -0.041097646867012505, 0.3824100018586952,-0.42182211198171143,-0.4218597412109375,0.373870849609375,0.1241912841796875
20220118-1311,2022-01-18 13:11:44Z,u01, 19,40,movements,el-ex, rt, d,203224.39510737502, -2.0969931555288106, -0.7103985593954678, -2.64867655754626, 1.5366954803466797, -2.632403612136841, 2.9459376335144043, -0.6555487513542175, 0.652135968208313, 0.38075554370880127, 0.35194456577301025, -0.06986057758331299, -0.14850133657455444, -0.8303483589322525, -0.02998957905517946, 0.4064149283142766,-0.3800647886404471,-0.3179931640625,0.5190277099609375,0.125640869140625
20220118-1311,2022-01-18 13:11:44Z,u01, 20,40,movements,el-ex, rt, d,203224.42005137503, -2.179514753571287, -0.7876244414424279, -2.6729926204758625, 0.22493532299995422, -2.6633880138397217, 3.1068339347839355, -0.578804612159729, 0.7086792588233948, 0.40343430638313293, 0.37297874689102173, -0.084320068359375, 0.05373436212539673, -0.8375055234834843, -0.017368140620605765, 0.43007039032451794,-0.3366339309053075,-0.223724365234375,0.631103515625,0.447784423828125
20220118-1311,2022-01-18 13:11:44Z,u01, 21,40,movements,el-ex, rt, d,203224.444995375, -2.3089363984568316, -0.8395656449683976, -2.756919576951688, -0.7593184113502502, -2.8115074634552, 3.0305659770965576, -0.49397605657577515, 0.7443531155586243, 0.44936245679855347, 0.4960053563117981, -0.07900875806808472, -0.06212460994720459, -0.8512794333608791, 0.0021349879426546536, 0.4364663063732756,-0.29123207991486944,-0.0388946533203125,0.5982666015625,0.413970947265625
20220118-1311,2022-01-18 13:11:44Z,u01, 22,40,movements,el-ex, rt, d,203224.469939375, -2.444186445033307, -0.8956597128610794, -2.8399341727745226, 1.244742751121521, -2.8987979888916016, 3.15236496925354, -0.4013972878456116, 0.7806215882301331, 0.47907206416130066, 0.42521631717681885, 0.04762536287307739, -0.18323463201522827, -0.8597533042130103, 0.01898135636551679, 0.44860755973992694,-0.2433416881851368,0.028289794921875,0.8165740966796875,0.3021697998046875
20220118-1311,2022-01-18 13:11:44Z,u01, 23,40,movements,el-ex, rt, d,203224.494883375, -2.5649371522654345, -0.9853795924052822, -2.900870741088249, 2.204925060272217, -2.8133127689361572, 3.4310343265533447, -0.3012612760066986, 0.8334819078445435, 0.46319472789764404, 0.42847388982772827, -0.007218658924102783, -0.049345821142196655, -0.8547320714003235, 0.03210063477931219, 0.4802730712617452,-0.19426872767224806,0.0814971923828125,0.910400390625,0.29547119140625
20220118-1311,2022-01-18 13:11:44Z,u01, 24,40,movements,el-ex, rt, d,203224.519827375, -2.734183609493639, -1.0500431139665045, -3.0212162430612657, -0.2985054552555084, -2.5623068809509277, 3.376542091369629, -0.19713877141475677, 0.8674446940422058, 0.4568110704421997, 0.4659681022167206, -0.14210277795791626, 0.3403387665748596, -0.8519867345116903, 0.0502408578841782, 0.5005089179456463,-0.14520810824895114,0.2452850341796875,0.7178955078125,0.7614898681640625
20220118-1311,2022-01-18 13:11:44Z,u01, 25,40,movements,el-ex, rt, d,203224.54477137502, -2.949485718474715, -1.0482619967978233, 3.0910565795282894, -1.1615843772888184, -2.8249292373657227, 3.1645164489746094, -0.09528768807649612, 0.8665571212768555, 0.4898969233036041, 0.6297268271446228, 0.20213788747787476, 0.16284367442131042, -0.8602806199633452, 0.06975467125118967, 0.49589709157008066,-0.09559088212227787,0.4985809326171875,0.9366607666015625,0.7785491943359375
20220118-1311,2022-01-18 13:11:45Z,u01, 26,40,movements,el-ex, rt, d,203224.56971537502, 3.126886376491083, -1.0407688964602784, 2.9335954543359755, 0.1079055666923523, -2.845958709716797, 3.0117149353027344, 0.007434590253978968, 0.8627932071685791, 0.5055021047592163, 0.40581920742988586, 0.3430171608924866, -0.07578408718109131, -0.8632964584051485, 0.08643079055357872, 0.495176252235323,-0.04526970949332107,0.432769775390625,1.2096710205078125,0.449981689453125
20220118-1311,2022-01-18 13:11:45Z,u01, 27,40,movements,el-ex, rt, d,203224.59465937503, 2.9191715596498007, -1.0461246096453647, 2.7743006310490204, 0.9599645733833313, -2.721386194229126, 3.3412320613861084, 0.11050079017877579, 0.8654884099960327, 0.48858922719955444, 0.2679019570350647, -0.038462042808532715, -0.08406341075897217, -0.8565887912961078, 0.10271442894878974, 0.5056584489429757,0.0038664701714909433,0.374298095703125,0.9147186279296875,0.3604583740234375
20220118-1311,2022-01-18 13:11:45Z,u01, 28,40,movements,el-ex, rt, d,203224.619603375, 2.702347941131792, -1.0417207584219688, 2.599598025276633, 0.6953153610229492, -2.548959493637085, 3.3602206707000732, 0.21464179456233978, 0.8632740378379822, 0.4568225145339966, 0.298053503036499, 0.04073286056518555, 0.3265027701854706, -0.8446823113483186, 0.12215994106262595, 0.5185346364064438,0.05206304737076864,0.484130859375,0.8666534423828125,0.75
20220118-1311,2022-01-18 13:11:45Z,u01, 29,40,movements,el-ex, rt, d,203224.644547375, 2.5341947386487873, -0.996066562813563, 2.4761628862883422, -1.218692660331726, -2.579432249069214, 2.9457590579986572, 0.31025511026382446, 0.8393392562866211, 0.44637635350227356, 0.5572528839111328, 0.19790756702423096, 0.2254834771156311, -0.8390040873654427, 0.13878157191570062, 0.5166475045312781,0.09943503359765088,0.7940826416015625,1.0585174560546875,0.774017333984375
20220118-1311,2022-01-18 13:11:45Z,u01, 30,40,movements,el-ex, rt, d,203224.669491375, 2.419260503159464, -0.9277507317922123, 2.4138958722738924, -0.8840516805648804, -2.5256292819976807, 2.763231039047241, 0.3964408040046692, 0.8002732396125793, 0.44988614320755005, 0.3779580593109131, 0.3519636392593384, 0.07463479042053223, -0.8381219527485221, 0.1499821910262113, 0.503615836644954,0.14638321829970066,0.8010406494140625,1.1367340087890625,0.5334320068359375
20220118-1311,2022-01-18 13:11:45Z,u01, 31,40,movements,el-ex, rt, d,203224.69443537502, 2.3003155372591455, -0.8751594365582736, 2.3392465831448135, 0.4658234119415283, -2.411670684814453, 2.8356943130493164, 0.4777688682079315, 0.7676457166671753, 0.42715024948120117, 0.13801491260528564, 0.17875027656555176, 0.16754597425460815, -0.8287448174039571, 0.163576119072619, 0.5005317209506654,0.18945445370219255,0.6107025146484375,1.017669677734375,0.5263824462890625
20220118-1311,2022-01-18 13:11:45Z,u01, 32,40,movements,el-ex, rt, d,203224.71937937502, 2.174216951856202, -0.8298140775148494, 2.2529768876072023, 0.5476862192153931, -2.4622251987457275, 2.8267781734466553, 0.5558053851127625, 0.7378059029579163, 0.3830445110797882, 0.24485385417938232, 0.22929614782333374, 0.09556269645690918, -0.8120894949273934, 0.17897739494416381, 0.5051471574463219,0.23087696677242692,0.7819366455078125,0.9699554443359375,0.4896392822265625
20220118-1311,2022-01-18 13:11:45Z,u01, 33,40,movements,el-ex, rt, d,203224.74432337502, 2.074973032377057, -0.7728146315561503, 2.2027061853416785, -0.6061334609985352, -2.5541229248046875, 2.5697720050811768, 0.6268647313117981, 0.6981531381607056, 0.3458651602268219, 0.3684660792350769, 0.09617358446121216, 0.1312771737575531, -0.7980233208709944, 0.18997727635103762, 0.5024519125917455,0.2731472868231826,0.9499359130859375,0.8311004638671875,0.4723358154296875
20220118-1311,2022-01-18 13:11:45Z,u01, 34,40,movements,el-ex, rt, d,203224.769267375, 2.005193673866168, -0.7057655581668915, 2.1924866037319632, -0.965323805809021, -2.423332691192627, 2.497328042984009, 0.6904258131980896, 0.6486166715621948, 0.3203258514404297, 0.3342629671096802, 0.1225777268409729, 0.1751117706298828, -0.7885128445169585, 0.19598577986432403, 0.48984592049309333,0.31605074319506704,1.0312347412109375,0.7685546875,0.4909210205078125
20220118-1311,2022-01-18 13:11:45Z,u01, 35,40,movements,el-ex, rt, d,203224.794211375, 1.9345169667573459, -0.647013425190995, 2.173921292275353, 0.19513091444969177, -2.2429873943328857, 2.297133445739746, 0.7456895112991333, 0.6028061509132385, 0.28385165333747864, 0.2311018705368042, 0.3580092191696167, 0.12937164306640625, -0.7749503561240616, 0.20341525418688716, 0.48201010234566877,0.35459890920717013,0.9703216552734375,0.903717041015625,0.4591217041015625
20220118-1311,2022-01-18 13:11:45Z,u01, 36,40,movements,el-ex, rt, d,203224.819155375, 1.8621387255218187, -0.5978085537093759, 2.1408698442137544, 0.3177749514579773, -2.0346243381500244, 2.0983917713165283, 0.7917386889457703, 0.5628324151039124, 0.2374228835105896, 0.2041109800338745, 0.26413285732269287, 0.21496975421905518, -0.7570334210034764, 0.21356929380425055, 0.48097869107905655,0.3872313397373812,0.9925384521484375,0.844512939453125,0.4447784423828125
20220118-1311,2022-01-18 13:11:45Z,u01, 37,40,movements,el-ex, rt, d,203224.844099375, 1.806436370967533, -0.5504340551787892, 2.1263619000902403, -0.37574824690818787, -1.8036034107208252, 1.827139139175415, 0.8287445306777954, 0.523057222366333, 0.19898200035095215, 0.14421695470809937, 0.23016232252120972, 0.28168511390686035, -0.7422515129836116, 0.22034902702489922, 0.47611478571432825,0.4169217813590911,0.975494384765625,0.7592010498046875,0.478973388671875
20220118-1311,2022-01-18 13:11:45Z,u01, 38,40,movements,el-ex, rt, d,203224.86904337502, 1.766988976376637, -0.506626353585401, 2.13133296354472, -0.5530099272727966, -1.5473524332046509, 1.5074032545089722, 0.8576122522354126, 0.48523014783859253, 0.17044980823993683, 0.06693309545516968, 0.3137352466583252, 0.29530954360961914, -0.7317849062558492, 0.2229703075914618, 0.4667489011573758,0.4437574242400442,0.9316864013671875,0.78857421875,0.4666290283203125
20220118-1311,2022-01-18 13:11:45Z,u01, 39,40,movements,el-ex, rt, d,203224.89398737502, 1.731048528793052, -0.47266988542771626, 2.131107318515647, 0.11439608782529831, -1.305682897567749, 1.1677651405334473, 0.878947913646698, 0.4552650451660156, 0.14207160472869873, -0.0545002818107605, 0.4397544264793396, 0.2808258533477783, -0.7212423287592075, 0.22548902879217703, 0.4610477518656593,0.4651872776090192,0.8423309326171875,0.8780975341796875,0.4302215576171875
20220118-1311,2022-01-18 13:11:45Z,u01, 40,40,movements,el-ex, rt, d,203224.91893137502, 1.6958548863563445, -0.4473606063960512, 2.118546884000245, 0.3433043956756592, -1.0755093097686768, 0.9554159045219421, 0.8945510983467102, 0.4325873851776123, 0.11245814710855484, -0.08318006992340088, 0.4187309741973877, 0.31533730030059814, -0.7094628906869982, 0.22998148165567933, 0.4608127338251684,0.4810641259890506,0.80914306640625,0.868255615234375,0.4195098876953125
20220118-1311,2022-01-18 13:11:45Z,u01, 41,40,movements,el-ex, rt, d,203224.943875375, 1.6708913731327788, -0.4280842393518214, 2.1148036472291367, -0.2465631663799286, -0.7575019001960754, 0.6155133843421936, 0.9052091836929321, 0.4151286780834198, 0.09091076999902725, -0.09684425592422485, 0.3098621070384979, 0.433762788772583, -0.7012343954247908, 0.23178806459918538, 0.4591752158238007,0.493662675052432,0.810760498046875,0.7296600341796875,0.5030670166015625
20220118-1311,2022-01-18 13:11:45Z,u01, 42,40,movements,el-ex, rt, d,203224.968819375, 1.6601313552106332, -0.41762755676752356, 2.121461276306656, -0.1700894683599472, -0.30694520473480225, 0.1901305764913559, 0.9104089736938477, 0.40559306740760803, 0.08154846727848053, -0.09998399019241333, 0.40355002880096436, 0.42356324195861816, -0.6983502172311908, 0.2303935902685112, 0.4558264402786288,0.5014460928130893,0.8081512451171875,0.8003387451171875,0.506927490234375
20220118-1311,2022-01-18 13:11:45Z,u01, 43,40,movements,el-ex, rt, d,203224.993763375, 1.6575267534906732, -0.4173483467452169, 2.1208375586325836, 0.15703636407852173, 0.13267698884010315, -0.14305423200130463, 0.9107308387756348, 0.4053378403186798, 0.07918673008680344, -0.09974151849746704, 0.3828395903110504, 0.42285799980163574, -0.6975984250020095, 0.23010823779575354, 0.4562043710726923,0.5022790070264502,0.8249664306640625,0.792572021484375,0.494537353515625
20220118-1311,2022-01-18 13:11:45Z,u01, 44,40,movements,el-ex, rt, d,203225.018707375, 1.6656977252529386, -0.42607868432996426, 2.118001072667915, 0.025533527135849, 0.5989678502082825, -0.567475438117981, 0.9064960479736328, 0.4133032560348511, 0.08628693968057632, -0.1276874542236328, 0.34289175271987915, 0.47149813175201416, -0.7001320240182078, 0.2301273989837507, 0.45842071265519,0.496696132093983,0.7806854248046875,0.75640869140625,0.553375244140625
20220118-1311,2022-01-18 13:11:45Z,u01, 45,40,movements,el-ex, rt, d,203225.04365137502, 1.6884750770408785, -0.44536655995682106, 2.123970205524633, -0.27110469341278076, 0.9949260354042053, -1.0056999921798706, 0.8962115049362183, 0.43078872561454773, 0.1059545949101448, -0.08511513471603394, 0.37368521094322205, 0.41551458835601807, -0.7081288078313008, 0.22700416341514534, 0.45978165743698324,0.4854108362398855,0.8003692626953125,0.7942352294921875,0.533233642578125
20220118-1311,2022-01-18 13:11:45Z,u01, 46,40,movements,el-ex, rt, d,203225.06859537502, 1.7225675100420696, -0.47345693703694086, 2.136199068645784, -0.21950598061084747, 1.3041818141937256, -1.3307337760925293, 0.8797668218612671, 0.45596566796302795, 0.13455800712108612, -0.06363511085510254, 0.37655389308929443, 0.36469435691833496, -0.7198887380757282, 0.22144797637165958, 0.46103163967578387,0.4692237549720082,0.8159637451171875,0.827667236328125,0.5018768310546875
20220118-1311,2022-01-18 13:11:45Z,u01, 47,40,movements,el-ex, rt, d,203225.09353937503, 1.7636944729482846, -0.5093768565951878, 2.146410150301245, 0.00449831597507, 1.6117547750473022, -1.605461835861206, 0.8568560481071472, 0.4876333177089691, 0.16736701130867004, -0.025221407413482666, 0.3956369459629059, 0.29668331146240234, -0.7328767400916805, 0.21581285248945564, 0.46454598922498747,0.4477874951136236,0.81640625,0.8780975341796875,0.464508056640625
20220118-1311,2022-01-18 13:11:45Z,u01, 48,40,movements,el-ex, rt, d,203225.118483375, 1.812084891385425, -0.5531036537989679, 2.1561756045468266, 0.003771538846194744, 1.8612713813781738, -1.9542269706726074, 0.8262483477592468, 0.525330662727356, 0.203325554728508, 0.0553433895111084, 0.3654773235321045, 0.3000924289226532, -0.7467706791523204, 0.2097530254462736, 0.47003872624918136,0.42118970408571094,0.875946044921875,0.887298583984375,0.4945526123046875
20220118-1311,2022-01-18 13:11:45Z,u01, 49,40,movements,el-ex, rt, d,203225.143427375, 1.872387612132425, -0.6034978933176443, 2.1767431835387074, -0.2356189489364624, 2.081141948699951, -2.290771961212158, 0.7861933708190918, 0.5675259232521057, 0.2445695549249649, 0.1508030891418457, 0.33861714601516724, 0.2858870029449463, -0.7629074252721246, 0.20064156349978096, 0.47463223315267755,0.39043495771224274,0.9249420166015625,0.891265869140625,0.5423126220703125
20220118-1311,2022-01-18 13:11:45Z,u01, 50,40,movements,el-ex, rt, d,203225.168371375, 1.9466155527355362, -0.6583383231103086, 2.209754927505568, -0.3092627227306366, 2.2746102809906006, -2.5577657222747803, 0.7358033061027527, 0.6118032932281494, 0.29032814502716064, 0.2357391119003296, 0.3428017497062683, 0.2739877700805664, -0.7806678082875573, 0.18900223159021778, 0.47792773109204584,0.35555742725484196,0.9692840576171875,0.94512939453125,0.5601806640625
20220118-1311,2022-01-18 13:11:45Z,u01, 51,40,movements,el-ex, rt, d,203225.193315375, 2.0339511468353164, -0.7157675396815353, 2.2533643915706802, -0.2011149674654007, 2.5040528774261475, -2.720384359359741, 0.6750916838645935, 0.6561967730522156, 0.3371300995349884, 0.2776823043823242, 0.3123394250869751, 0.2179846167564392, -0.7985097102952705, 0.17591842066403712, 0.4806866370127466,0.3168204516575176,0.9648284912109375,0.979949951171875,0.5517425537109375
20220118-1311,2022-01-18 13:11:45Z,u01, 52,40,movements,el-ex, rt, d,203225.21825937502, 2.1318701077638234, -0.7760910117375012, 2.3018681182912366, -0.018314754590392113, 2.6840131282806396, -2.8733408451080322, 0.6042425632476807, 0.7004951238632202, 0.379734069108963, 0.3240870237350464, 0.31421440839767456, 0.19442373514175415, -0.8144048071018504, 0.1631313644042196, 0.48491771713248977,0.27383924483821026,0.9304962158203125,1.01031494140625,0.566131591796875
20220118-1311,2022-01-18 13:11:45Z,u01, 53,40,movements,el-ex, rt, d,203225.24320337502, 2.2486942288417318, -0.8336040673068602, 2.367843560844042, -0.2690456807613373, 2.8475871086120605, -2.997560501098633, 0.5235810875892639, 0.7403588891029358, 0.42158252000808716, 0.38498830795288086, 0.2248510718345642, 0.2617061138153076, -0.8297587608851522, 0.14930392913928686, 0.4871275194818445,0.22784994140033604,0.9207000732421875,0.9577484130859375,0.6529693603515625
20220118-1311,2022-01-18 13:11:45Z,u01, 54,40,movements,el-ex, rt, d,203225.268147375, 2.3854669389602083, -0.8854730151734371, 2.4538675654074527, -0.22195646166801453, 2.8911755084991455, -3.076298475265503, 0.4342537820339203, 0.7742144465446472, 0.46045148372650146, 0.4454459249973297, 0.24708670377731323, 0.1715981662273407, -0.8439241499592465, 0.1342302638946511, 0.4872933406064035,0.17977607664867654,0.8834381103515625,1.0189056396484375,0.639129638671875
20220118-1311,2022-01-18 13:11:45Z,u01, 55,40,movements,el-ex, rt, d,203225.293091375, 2.538741840837761, -0.9308308427015848, 2.555736861863687, -0.06548500061035156, 2.971327781677246, -3.135999917984009, 0.33859002590179443, 0.8021163940429688, 0.49190065264701843, 0.45131173729896545, 0.18744659423828125, 0.06770026683807373, -0.8554682704896939, 0.11884596336553072, 0.48691255843542086,0.13025313381940595,0.8309478759765625,1.00006103515625,0.5570526123046875
20220118-1311,2022-01-18 13:11:45Z,u01, 56,40,movements,el-ex, rt, d,203225.318035375, 2.7118167043134687, -0.9691417639183172, 2.675515595356422, -0.09015639126300812, 3.076157569885254, -3.236914873123169, 0.23583649098873138, 0.8244002461433411, 0.5145337581634521, 0.4791293144226074, 0.1680922508239746, 0.1611863374710083, -0.8640935341187046, 0.10300122981218945, 0.48638754994242483,0.07848656196106912,0.7220306396484375,0.9896240234375,0.6553192138671875
20220118-1311,2022-01-18 13:11:45Z,u01, 57,40,movements,el-ex, rt, d,203225.342979375, 2.9095220338360788, -0.9906882943072494, 2.8201509932489395, -0.3768869638442993, 3.1181814670562744, -3.3753700256347656, 0.12606263160705566, 0.8364034295082092, 0.5334210395812988, 0.5718286633491516, 0.20105701684951782, 0.18564963340759277, -0.8714332335048968, 0.08552565401373796, 0.4823537215584791,0.02499066476609907,0.6903076171875,1.0313568115234375,0.7240753173828125
20220118-1311,2022-01-18 13:11:45Z,u01, 58,40,movements,el-ex, rt, d,203225.36792337502, 3.1197000489031024, -0.9913619774728851, 2.977900315616461, -0.44191497564315796, 3.1420323848724365, -3.453202962875366, 0.011986348778009415, 0.8367725014686584, 0.5474192500114441, 0.646720290184021, 0.21437478065490723, 0.1565602421760559, -0.8770734343475721, 0.06672203160377, 0.47479742563276284,-0.029286344107884194,0.660064697265625,1.0495758056640625,0.7148590087890625
20220118-1311,2022-01-18 13:11:45Z,u01, 59,40,movements,el-ex, rt, d,203225.3928669167, -2.952322822072488, -0.9710912368953434, 3.134536483006633, -0.5224971771240234, 3.2772269248962402, -3.6115739345550537, -0.10618714243173599, 0.8255020976066589, 0.5543203353881836, 0.6380780339241028, 0.24876254796981812, 0.21843063831329346, -0.880302121874931, 0.04720544440634161, 0.46430495014096673,-0.08521085093252823,0.560394287109375,1.093658447265625,0.7852630615234375
20220118-1311,2022-01-18 13:11:45Z,u01, 60,40,movements,el-ex, rt, d,203225.41781091667, -2.7483360683850724, -0.9319533766877824, -3.0031284458098537, -0.572464108467102, 3.5312387943267822, -3.7629177570343018, -0.22848863899707794, 0.8027862310409546, 0.5507517457008362, 0.690997838973999, 0.30312514305114746, 0.29780489206314087, -0.8801416254870187, 0.02695522999948302, 0.45165617304997924,-0.14363463276382446,0.4724884033203125,1.0972442626953125,0.81597900390625
20220118-1311,2022-01-18 13:11:45Z,u01, 61,40,movements,el-ex, rt, d,203225.44275491667, -2.5604396248132963, -0.8738139534275351, -2.8795846065877737, -0.7359523773193359, 3.71370267868042, -3.8108208179473877, -0.35239920020103455, 0.7667827010154724, 0.5365251898765564, 0.7659429311752319, 0.2736225128173828, 0.31029200553894043, -0.8764795555980738, 0.006795304595056562, 0.4358371214331568,-0.2044100732296665,0.427734375,1.0344696044921875,0.85174560546875
20220118-1311,2022-01-18 13:11:45Z,u01, 62,40,movements,el-ex, rt, d,203225.46769891668, -2.3951147933657944, -0.8037391180407346, -2.7833411050042542, -0.5122675895690918, 3.8501203060150146, -3.754732608795166, -0.47127923369407654, 0.7199561595916748, 0.5094695687294006, 0.8185692429542542, 0.18371516466140747, 0.18382889032363892, -0.8686670178429243, -0.012344887890391398, 0.41817341317748835,-0.26532297450892806,0.3628387451171875,0.9151458740234375,0.68682861328125
20220118-1311,2022-01-18 13:11:45Z,u01, 63,40,movements,el-ex, rt, d,203225.49264291668, -2.2447956723516187, -0.7257448436664303, -2.707907778686178, -0.5406140089035034, 4.044527530670166, -3.8119146823883057, -0.5844403505325317, 0.6636927723884583, 0.4668418765068054, 0.7543317675590515, 0.18579447269439697, 0.29161152243614197, -0.8558397111489968, -0.03097299768366446, 0.39957715307300157,-0.32698186058557926,0.2131805419921875,0.878936767578125,0.7994842529296875
20220118-1311,2022-01-18 13:11:45Z,u01, 64,40,movements,el-ex, rt, d,203225.51758691669, -2.106040900245035, -0.6423010974797652, -2.649615873234738, -0.25185149908065796, 4.111871719360352, -3.738752841949463, -0.688733696937561, 0.5990395545959473, 0.40840795636177063, 0.7825906276702881, 0.1523335576057434, 0.15491598844528198, -0.8377224118215115, -0.04924566354143273, 0.38039121637333106,-0.38871377200819446,0.10546875,0.7613372802734375,0.571990966796875
20220118-1311,2022-01-18 13:11:45Z,u01, 65,40,movements,el-ex, rt, d,203225.5425309167, -1.9774665010175225, -0.5596668895014671, -2.600146875588661, 0.0949665904045105, 4.036448955535889, -3.6361799240112305, -0.7783181071281433, 0.5309039354324341, 0.335204541683197, 0.7981545329093933, 0.08727532625198364, -0.034041762351989746, -0.8142018302792051, -0.06839338112944177, 0.3636107797844085,-0.44742038575934623,0.04632568359375,0.6586456298828125,0.3692169189453125
20220118-1311,2022-01-18 13:11:46Z,u01, 66,40,movements,el-ex, rt, d,203225.56747491666, -1.860085959893308, -0.4746199375759191, -2.56154614447696, 0.0776996910572052, 3.8035976886749268, -3.608241319656372, -0.8525062799453735, 0.4570004343986511, 0.2537393867969513, 0.8188605904579163, 0.03959682583808899, -0.042222023010253906, -0.7868276766263276, -0.08815840192444235, 0.3467516279285282,-0.5028852962074174,-0.0276031494140625,0.5082855224609375,0.252044677734375
20220118-1311,2022-01-18 13:11:46Z,u01, 67,40,movements,el-ex, rt, d,203225.59241891667, -1.7581205391532404, -0.3914760836082189, -2.53060816040477, 0.4922364354133606, 3.259000778198242, -3.284435749053955, -0.9081763029098511, 0.3815532326698303, 0.1721416413784027, 0.7611274719238281, -0.14717835187911987, -0.40775251388549805, -0.7577690088768041, -0.10888963216952807, 0.331035255832726,-0.5516745235029439,-0.1351776123046875,0.283660888671875,-0.1121826171875
20220118-1311,2022-01-18 13:11:46Z,u01, 68,40,movements,el-ex, rt, d,203225.61736291667, -1.6792901998996497, -0.32112370478083424, -2.507981991317213, 0.34047073125839233, 2.3786797523498535, -2.4852523803710938, -0.9433021545410156, 0.31563302874565125, 0.10274595767259598, 0.7554665207862854, -0.48532605171203613, -0.7070702314376831, -0.7315193795696576, -0.1274848146777222, 0.3184308877799662,-0.5892611961020745,-0.1841888427734375,-0.0984344482421875,-0.5583343505859375
20220118-1311,2022-01-18 13:11:46Z,u01, 69,40,movements,el-ex, rt, d,203225.64230691668, -1.6320139381061654, -0.27571525652049694, -2.5029082568812804, -0.3235544264316559, 1.2506992816925049, -1.1505845785140991, -0.9604282379150391, 0.272235244512558, 0.05886868014931679, 0.6709232330322266, -1.2351411581039429, -1.049713373184204, -0.7145857492735492, -0.1371187353408323, 0.30809121451456567,-0.6128992292128282,-0.2536773681640625,-0.80975341796875,-0.9233245849609375
20220118-1311,2022-01-18 13:11:46Z,u01, 70,40,movements,el-ex, rt, d,203225.66725091668, -1.6207439755580155, -0.26227140409018307, -2.512765849872675, -0.34644079208374023, -0.15019917488098145, 0.16191846132278442, -0.964599072933197, 0.259274959564209, 0.04821956157684326, 0.589599072933197, -1.2030158042907715, -1.1427171230316162, -0.7109805863920051, -0.13644187994646084, 0.3014169730248427,-0.6205143301554003,-0.36993408203125,-0.9929046630859375,-1.09320068359375
20220118-1311,2022-01-18 13:11:46Z,u01, 71,40,movements,el-ex, rt, d,203225.6921949167, -1.6371606523254238, -0.2803619063306671, -2.512000726176686, 0.3184111416339874, -1.0744668245315552, 1.1618711948394775, -0.9588400721549988, 0.27670344710350037, 0.06372635811567307, 0.4628683924674988, -0.7389684915542603, -0.9472559690475464, -0.7170433978860847, -0.1330862307199337, 0.3064855803435748,-0.6117217404036842,-0.4422454833984375,-0.56884765625,-0.99017333984375
20220118-1311,2022-01-18 13:11:46Z,u01, 72,40,movements,el-ex, rt, d,203225.7171389167, -1.667728588099999, -0.31751696091359866, -2.5050612942622883, 0.34803345799446106, -1.5423153638839722, 1.7330055236816406, -0.9455540776252747, 0.3122085928916931, 0.09194283932447433, 0.3600284457206726, -0.5385879874229431, -0.5894403457641602, -0.7277437612726235, -0.12790791905845594, 0.31883694507775656,-0.5936090264740009,-0.581512451171875,-0.260955810546875,-0.5491180419921875
20220118-1311,2022-01-18 13:11:46Z,u01, 73,40,movements,el-ex, rt, d,203225.74208291667, -1.7114662175124011, -0.3662139693099829, -2.5056111712253997, 0.11930475383996964, -1.8865574598312378, 2.119020462036133, -0.9244672656059265, 0.358083039522171, 0.13090932369232178, 0.2469158172607422, -0.365681916475296, -0.2813303470611572, -0.7425354959825125, -0.11872531732021424, 0.33216370072537854,-0.5693968684542876,-0.6471405029296875,-0.0460052490234375,-0.2037353515625
20220118-1311,2022-01-18 13:11:46Z,u01, 74,40,movements,el-ex, rt, d,203225.76702691667, -1.7629473323840505, -0.42303246412223394, -2.5109458445446133, 0.3444958031177521, -2.0844833850860596, 2.425666093826294, -0.8950664401054382, 0.4105274975299835, 0.17413637042045593, 0.20057779550552368, -0.29149362444877625, -0.25799858570098877, -0.7586902244853291, -0.10703890899072938, 0.34686782275800293,-0.5409386656796767,-0.6964569091796875,0.1064453125,-0.08245849609375
20220118-1311,2022-01-18 13:11:46Z,u01, 75,40,movements,el-ex, rt, d,203225.79197091667, -1.815510264878081, -0.4880545162037757, -2.5101970048886995, 0.7394087314605713, -2.18582820892334, 2.630380153656006, -0.8569320440292358, 0.468908429145813, 0.21399199962615967, 0.2203352451324463, -0.2377682626247406, -0.17409011721611023, -0.7731523917166749, -0.0960800742346738, 0.36645362817471083,-0.5086411755730579,-0.6573333740234375,0.1932830810546875,-0.01324462890625
20220118-1311,2022-01-18 13:11:46Z,u01, 76,40,movements,el-ex, rt, d,203225.81691491668, -1.8739887500809078, -0.5571002881124053, -2.5149146564574405, 0.42056092619895935, -2.2992842197418213, 2.7878899574279785, -0.8100770711898804, 0.5287271738052368, 0.2534225881099701, 0.23015141487121582, -0.20008331537246704, -0.12537071108818054, -0.7871935173007607, -0.08389074796644352, 0.38627720624849743,-0.4733695595223774,-0.5867919921875,0.31781005859375,0.123382568359375
20220118-1311,2022-01-18 13:11:46Z,u01, 77,40,movements,el-ex, rt, d,203225.84185891668, -1.9420113252669013, -0.6277227037328429, -2.532500489222654, 0.49993962049484253, -2.3807122707366943, 2.922440528869629, -0.7542390823364258, 0.587303102016449, 0.2935962975025177, 0.28425294160842896, -0.1567763090133667, -0.08957096934318542, -0.8012568959429716, -0.06917761266302253, 0.40411148692911947,-0.43577044012467847,-0.5002899169921875,0.408935546875,0.189727783203125
20220118-1311,2022-01-18 13:11:46Z,u01, 78,40,movements,el-ex, rt, d,203225.8668029167, -2.0107122054958673, -0.7042710213770734, -2.5457497958864996, 1.1749287843704224, -2.4486587047576904, 3.0537991523742676, -0.6895238161087036, 0.647478461265564, 0.3245435357093811, 0.3172399401664734, -0.10698169469833374, -0.13626530766487122, -0.8118728993587666, -0.05598353082891461, 0.4260125708131224,-0.39527395418403893,-0.384613037109375,0.5248260498046875,0.1881103515625
20220118-1311,2022-01-18 13:11:46Z,u01, 79,40,movements,el-ex, rt, d,203225.8917469167, -2.0796570337539517, -0.7872658424637475, -2.557167931713808, 1.0926908254623413, -2.3845183849334717, 3.1777970790863037, -0.6163619160652161, 0.7084261775016785, 0.34384608268737793, 0.3852218985557556, -0.019751369953155518, -0.10829609632492065, -0.8185578707369092, -0.0434286879544894, 0.45143237647161516,-0.35254178167360817,-0.270965576171875,0.66827392578125,0.185577392578125
20220118-1311,2022-01-18 13:11:46Z,u01, 80,40,movements,el-ex, rt, d,203225.91669091667, -2.1642086879694764, -0.8637957887142755, -2.594246266757717, 0.5786307454109192, -2.27782940864563, 3.0996460914611816, -0.5385062098503113, 0.7603136301040649, 0.36322733759880066, 0.3721091151237488, -0.05424380302429199, 0.16744288802146912, -0.8251403139212183, -0.02751601192659686, 0.4710754676994604,-0.31060290297279014,-0.1740264892578125,0.6993255615234375,0.506805419921875
20220118-1311,2022-01-18 13:11:46Z,u01, 81,40,movements,el-ex, rt, d,203225.94163491667, -2.2688164745570143, -0.93423879128502, -2.654133526881869, 0.4626585841178894, -2.343996524810791, 3.2255263328552246, -0.45540323853492737, 0.8041468262672424, 0.38204213976860046, 0.4166763424873352, 0.06680971384048462, 0.005943357944488525, -0.8312095847057299, -0.010568302942917829, 0.487125085153014,-0.2677465910889745,-0.0693359375,0.8518218994140625,0.449432373046875
20220118-1311,2022-01-18 13:11:46Z,u01, 82,40,movements,el-ex, rt, d,203225.96657891668, -2.3983468312363923, -1.0018211914054684, -2.7384490297895816, 0.27303609251976013, -2.421613931655884, 3.3268020153045654, -0.3645748496055603, 0.8424535989761353, 0.39668264985084534, 0.3989224433898926, -0.09123295545578003, -0.07344034314155579, -0.8356369440926416, 0.007226778909942222, 0.5021546103266596,-0.22248464218711872,0.0308074951171875,0.7682952880859375,0.3221435546875
20220118-1311,2022-01-18 13:11:46Z,u01, 83,40,movements,el-ex, rt, d,203225.99152291668, -2.565737681152386, -1.0542588849784504, -2.866697876741819, 0.10598452389240265, -2.151703119277954, 3.3737971782684326, -0.26893916726112366, 0.869534432888031, 0.4142240285873413, 0.37868043780326843, 0.025622308254241943, 0.11537811160087585, -0.8404345045769006, 0.027961752440772147, 0.5114230333135514,-0.17701542693112723,0.0862274169921875,0.824554443359375,0.4666595458984375
20220118-1311,2022-01-18 13:11:46Z,u01, 84,40,movements,el-ex, rt, d,203226.01646591668, -2.7447772673184514, -1.102940863899582, -3.010585003297199, 0.7144746780395508, -2.043370246887207, 3.284712553024292, -0.1742936074733734, 0.8925374746322632, 0.41593116521835327, 0.3984910249710083, 0.24645483493804932, 0.08408427238464355, -0.8400141573508362, 0.04839206367574994, 0.5235492423007038,-0.13390540231004894,0.203521728515625,1.1074981689453125,0.5226593017578125
20220118-1311,2022-01-18 13:11:46Z,u01, 85,40,movements,el-ex, rt, d,203226.0414109167, -2.9464998754192133, -1.1497826093803651, 3.107145095788983, 1.0177520513534546, -2.1412839889526367, 3.3445515632629395, -0.07922676205635071, 0.912675142288208, 0.40093255043029785, 0.4453004002571106, 0.07458364963531494, -0.12679320573806763, -0.8342256406346054, 0.06733392943227023, 0.5396707590238612,-0.09104435239270992,0.352020263671875,1.083282470703125,0.302947998046875
20220118-1311,2022-01-18 13:11:46Z,u01, 86,40,movements,el-ex, rt, d,203226.06635391669, 3.0884578074172673, -1.1814812144358287, 2.89468287633713, 0.9507951736450195, -2.068791389465332, 3.4582691192626953, 0.020158104598522186, 0.9251692295074463, 0.37901926040649414, 0.3227069079875946, -0.05506730079650879, 0.04714345932006836, -0.8257384766527861, 0.08755337759812998, 0.5552589198991056,-0.04666821631058926,0.34332275390625,0.8646087646484375,0.398529052734375
20220118-1311,2022-01-18 13:11:46Z,u01, 87,40,movements,el-ex, rt, d,203226.0912979167, 2.827846736912662, -1.182404757507137, 2.6668248082307215, 0.2805749773979187, -1.9322229623794556, 3.313354730606079, 0.11687587946653366, 0.9255193471908569, 0.3602135181427002, 0.396750271320343, 0.18557977676391602, 0.20405647158622742, -0.8175550540474359, 0.10821504980548097, 0.5655808829967672,-0.003383776991334242,0.449493408203125,1.0993499755859375,0.593414306640625
20220118-1311,2022-01-18 13:11:46Z,u01, 88,40,movements,el-ex, rt, d,203226.11624191666, 2.6136473853188646, -1.1472479814796273, 2.487118164293604, -0.46016234159469604, -2.0099270343780518, 3.057283878326416, 0.2070443034172058, 0.9116362929344177, 0.35503846406936646, 0.44003522396087646, 0.2305605411529541, 0.13492140173912048, -0.8133295110575556, 0.1265477694416381, 0.5665239315554192,0.03913519902642926,0.635528564453125,1.1378631591796875,0.5033111572265625
20220118-1311,2022-01-18 13:11:46Z,u01, 89,40,movements,el-ex, rt, d,203226.14118591667, 2.4465353503179412, -1.093916728469296, 2.3591431912044705, -0.34009820222854614, -2.056922197341919, 3.1040525436401367, 0.2939629852771759, 0.8884315490722656, 0.35252681374549866, 0.3075690269470215, 0.1271628737449646, 0.041958779096603394, -0.8099166446598306, 0.14247260443540816, 0.5629737948904417,0.08244446505221265,0.643310546875,1.0708465576171875,0.376708984375
20220118-1311,2022-01-18 13:11:46Z,u01, 90,40,movements,el-ex, rt, d,203226.16612991667, 2.291471692416616, -1.0401542335124152, 2.2407952690511057, 0.3321057856082916, -2.0386807918548584, 3.2194647789001465, 0.3802536725997925, 0.8624823093414307, 0.33396291732788086, 0.18381798267364502, 0.10785448551177979, 0.09650275111198425, -0.8009311812338097, 0.1596580676610348, 0.5633586364192638,0.12508200719917068,0.557373046875,0.9530029296875,0.44647216796875
20220118-1311,2022-01-18 13:11:46Z,u01, 91,40,movements,el-ex, rt, d,203226.19107391668, 2.157151940261574, -0.9804682264263788, 2.1416880931354467, -0.09859108179807663, -1.9990607500076294, 3.0555200576782227, 0.463655024766922, 0.8307580947875977, 0.3080015480518341, 0.2937760055065155, 0.14530080556869507, 0.0975770652294159, -0.7889962527208089, 0.17744204890440807, 0.5640183904724372,0.16698043485510553,0.7060546875,0.9656829833984375,0.4068145751953125
20220118-1311,2022-01-18 13:11:46Z,u01, 92,40,movements,el-ex, rt, d,203226.21601791668, 2.068761361306137, -0.9113968701683912, 2.093670927739605, -0.7010259628295898, -1.9423134326934814, 2.851818799972534, 0.5382408499717712, 0.7903602719306946, 0.2926217019557953, 0.34907305240631104, 0.22227394580841064, 0.07925033569335938, -0.7808131746840903, 0.1914200375965277, 0.55712650786973,0.20808464813691344,0.8773040771484375,1.003143310546875,0.37054443359375
20220118-1311,2022-01-18 13:11:46Z,u01, 93,40,movements,el-ex, rt, d,203226.2409619167, 1.9975250428259341, -0.8436672899187793, 2.063792814672038, -0.2513839602470398, -1.9105932712554932, 2.7063019275665283, 0.6051180362701416, 0.7470858693122864, 0.2751275599002838, 0.25906360149383545, 0.2514340281486511, 0.17142096161842346, -0.7721252020885065, 0.20343660759409266, 0.5489231211608457,0.24722410111084875,0.88726806640625,0.988311767578125,0.45257568359375
20220118-1311,2022-01-18 13:11:46Z,u01, 94,40,movements,el-ex, rt, d,203226.2659059167, 1.9277049932581916, -0.7816010844004169, 2.0301848081561156, -0.07994276285171509, -1.7525665760040283, 2.6186187267303467, 0.6650570631027222, 0.7044167518615723, 0.2479848861694336, 0.19923138618469238, 0.26309734582901, 0.12405505776405334, -0.7598051684440951, 0.21607533845909094, 0.544014527412829,0.28294147373338924,0.8569183349609375,0.9832763671875,0.376068115234375
20220118-1311,2022-01-18 13:11:46Z,u01, 95,40,movements,el-ex, rt, d,203226.29084991667, 1.8707345543291969, -0.7191267102379082, 2.0111590544465607, -0.5478249192237854, -1.7693270444869995, 2.4844634532928467, 0.7187909483909607, 0.6587278842926025, 0.22229944169521332, 0.2249956727027893, 0.16434639692306519, 0.10376569628715515, -0.7480375559445465, 0.22713329826320838, 0.5367052647599179,0.3174865018830211,0.9388427734375,0.8378448486328125,0.33514404296875
20220118-1311,2022-01-18 13:11:46Z,u01, 96,40,movements,el-ex, rt, d,203226.31579391667, 1.8288915230896876, -0.6560635157809077, 2.0149081750504205, -1.0063185691833496, -1.7364238500595093, 2.3058149814605713, 0.766153872013092, 0.610002338886261, 0.20225156843662262, 0.16095495223999023, 0.2058698534965515, 0.16955947875976562, -0.7390803345702354, 0.2342777077478554, 0.5242941673012415,0.3521220629420981,0.9283599853515625,0.8145751953125,0.368621826171875
20220118-1311,2022-01-18 13:11:46Z,u01, 97,40,movements,el-ex, rt, d,203226.34073791667, 1.7940440731979421, -0.5979784615006305, 2.0270140297862307, -0.7265739440917969, -1.6297467947006226, 1.9681334495544434, 0.80596524477005, 0.5629728436470032, 0.18297995626926422, 0.07423800230026245, 0.30729687213897705, 0.20738577842712402, -0.7310060607689205, 0.2389981459666059, 0.5107109193861785,0.38429729429290926,0.89984130859375,0.8389434814453125,0.40863037109375
20220118-1311,2022-01-18 13:11:46Z,u01, 98,40,movements,el-ex, rt, d,203226.36568191668, 1.7581505575178407, -0.5514371881139937, 2.0296022025262563, -0.30647486448287964, -1.3433632850646973, 1.6429555416107178, 0.8368669152259827, 0.5239119529724121, 0.1586512178182602, 0.004899501800537109, 0.4201035499572754, 0.20585083961486816, -0.7210899190037919, 0.2436286872373192, 0.5020254452385657,0.410663971365025,0.8430633544921875,0.9474639892578125,0.3665618896484375
20220118-1311,2022-01-18 13:11:46Z,u01, 99,40,movements,el-ex, rt, d,203226.390626625, 1.7269250602668902, -0.5129074141057276, 2.0298986795020126, -0.3034636974334717, -1.1533058881759644, 1.3677417039871216, 0.8607233762741089, 0.49071261286735535, 0.13548631966114044, 0.012872874736785889, 0.3259834945201874, 0.19576680660247803, -0.7115234547803724, 0.24794663552397606, 0.49544145344182783,0.4321974747287857,0.8675689697265625,0.834442138671875,0.3310699462890625
20220118-1311,2022-01-18 13:11:46Z,u01, 100,40,movements,el-ex, rt, d,203226.41557062502, 1.7013172342644205, -0.4803851543796229, 2.033751025521306, -0.2527432441711426, -1.068941354751587, 1.1701029539108276, 0.8792740106582642, 0.46212077140808105, 0.11541980504989624, 0.005552768707275391, 0.31717610359191895, 0.23681415617465973, -0.7034825318636895, 0.25064363481164964, 0.48903410504828787,0.45070589900022745,0.883880615234375,0.7864532470703125,0.3519134521484375
20220118-1311,2022-01-18 13:11:46Z,u01, 101,40,movements,el-ex, rt, d,203226.44051462502, 1.6774490539497826, -0.4538271431514675, 2.0361135796165533, -0.2106497883796692, -0.8948149681091309, 0.9042391777038574, 0.8936690092086792, 0.4384084939956665, 0.0956752747297287, -0.0571669340133667, 0.3570321500301361, 0.2810032367706299, -0.6957544699197415, 0.2525140708370702, 0.48434848799988517,0.4664428601554977,0.8515777587890625,0.7906341552734375,0.37322998046875
20220118-1311,2022-01-18 13:11:46Z,u01, 102,40,movements,el-ex, rt, d,203226.46545862503, 1.6606795012672233, -0.4351503677688733, 2.0410717629614403, -0.28823211789131165, -0.6182693243026733, 0.5451868772506714, 0.9031460881233215, 0.4215467572212219, 0.08139695972204208, -0.08477145433425903, 0.3533555269241333, 0.3145838975906372, -0.6905147002941212, 0.2527606125366884, 0.48027136568842554,0.47816412775623157,0.8165740966796875,0.784515380859375,0.3982696533203125
20220118-1311,2022-01-18 13:11:46Z,u01, 103,40,movements,el-ex, rt, d,203226.490402625, 1.6541608828285475, -0.4263043670229592, 2.0507934511839196, -0.5033664703369141, -0.22892488539218903, 0.16429907083511353, 0.9073381423950195, 0.4135087728500366, 0.07581555098295212, -0.09676074981689453, 0.2969251573085785, 0.33162474632263184, -0.689242595907987, 0.25070385062348416, 0.47636513126207275,0.4849417334574453,0.813720703125,0.6910552978515625,0.3776702880859375
20220118-1311,2022-01-18 13:11:46Z,u01, 104,40,movements,el-ex, rt, d,203226.515346625, 1.6566409537900633, -0.42519463887781295, 2.0600542084688303, -0.13928194344043732, 0.13251034915447235, -0.16416744887828827, 0.9076038599014282, 0.4124980866909027, 0.07810486853122711, -0.10882163047790527, 0.36371639370918274, 0.3436480760574341, -0.6908848900157918, 0.24845623707030465, 0.47350545501050467,0.4865593912551172,0.8008270263671875,0.768798828125,0.4188079833984375
20220118-1311,2022-01-18 13:11:46Z,u01, 105,40,movements,el-ex, rt, d,203226.540290625, 1.6670806047062452, -0.4344416671162149, 2.0648515174417645, -0.2198374718427658, 0.5479571223258972, -0.6193298101425171, 0.90290367603302, 0.4209040105342865, 0.08720507472753525, -0.09992516040802002, 0.3533879220485687, 0.36317336559295654, -0.694945430715571, 0.24627908216580963, 0.4735735753534373,0.481794032545028,0.7960205078125,0.7760009765625,0.44134521484375
20220118-1311,2022-01-18 13:11:47Z,u01, 106,40,movements,el-ex, rt, d,203226.565234625, 1.6904353619871955, -0.45506773145310847, 2.075065185789712, -0.31484007835388184, 0.9644282460212708, -1.0955511331558228, 0.8918105959892273, 0.4395231604576111, 0.10720735043287277, -0.0737411379814148, 0.38551953434944153, 0.3850107192993164, -0.7037285275700587, 0.24159850260383028, 0.4739537611356847,0.4709185055903521,0.8162689208984375,0.8185577392578125,0.490264892578125
20220118-1311,2022-01-18 13:11:47Z,u01, 107,40,movements,el-ex, rt, d,203226.59017862502, 1.7254733346169115, -0.4857816342016876, 2.0902366000579815, -0.38400134444236755, 1.2587612867355347, -1.4663382768630981, 0.873752772808075, 0.46689972281455994, 0.13623769581317902, -0.02322787046432495, 0.3972817361354828, 0.34238481521606445, -0.716267180372705, 0.23469165861506214, 0.4748015562691663,0.4543617697985184,0.844879150390625,0.862274169921875,0.4909820556640625
20220118-1311,2022-01-18 13:11:47Z,u01, 108,40,movements,el-ex, rt, d,203226.61512262502, 1.7676020637230894, -0.5234590414316062, 2.106209657781079, -0.13492299616336823, 1.5097150802612305, -1.6687161922454834, 0.8493762016296387, 0.49987897276878357, 0.16935428977012634, -0.011897683143615723, 0.3905933201313019, 0.25685426592826843, -0.730174887715578, 0.2269840869903722, 0.4770102377972424,0.43334053605497364,0.8408966064453125,0.8872222900390625,0.430877685546875
20220118-1311,2022-01-18 13:11:47Z,u01, 109,40,movements,el-ex, rt, d,203226.64006662503, 1.8127529499851067, -0.5671532093609516, 2.1149918961224667, 0.2865206003189087, 1.7247754335403442, -1.9225571155548096, 0.8188655972480774, 0.5372331738471985, 0.20208905637264252, 0.036115050315856934, 0.3713209629058838, 0.2686598598957062, -0.7431432742772557, 0.22086784220683175, 0.4825784483596009,0.40752131480644493,0.840545654296875,0.9006500244140625,0.4422149658203125
20220118-1311,2022-01-18 13:11:47Z,u01, 110,40,movements,el-ex, rt, d,203226.665010625, 1.8631964472427125, -0.619622903605068, 2.1247041309205947, 0.12101387977600098, 1.8931666612625122, -2.31040096282959, 0.7795431613922119, 0.5807282328605652, 0.23466472327709198, 0.13363444805145264, 0.3622192144393921, 0.2904360592365265, -0.7562155782354932, 0.2132378089792652, 0.4903224208253625,0.3771627042642085,0.9062957763671875,0.944732666015625,0.520965576171875
20220118-1311,2022-01-18 13:11:47Z,u01, 111,40,movements,el-ex, rt, d,203226.689954625, 1.928800093267716, -0.6781562369943415, 2.151399780978939, -0.16869260370731354, 2.062014102935791, -2.6595957279205322, 0.729357898235321, 0.6273583173751831, 0.27287137508392334, 0.21876221895217896, 0.2927466630935669, 0.2825791835784912, -0.7719344683982119, 0.2013774268033905, 0.49585190975058513,0.34306740996101664,0.945098876953125,0.9093017578125,0.569580078125
20220118-1311,2022-01-18 13:11:47Z,u01, 112,40,movements,el-ex, rt, d,203226.714898625, 2.0061127720145886, -0.740683783747481, 2.1884675576899264, 0.08770082145929337, 2.190037488937378, -2.8366594314575195, 0.669178307056427, 0.6747927069664001, 0.31121572852134705, 0.2551839351654053, 0.2952847480773926, 0.22984576225280762, -0.7876627952709847, 0.18760381813073695, 0.5010994695707898,0.30543651033216535,0.9277191162109375,0.9666595458984375,0.5467987060546875
20220118-1311,2022-01-18 13:11:47Z,u01, 113,40,movements,el-ex, rt, d,203226.73984262501, 2.093400182415495, -0.8067219582093655, 2.2325502821404317, 0.004131431691348553, 2.282320976257324, -3.054588556289673, 0.5995200872421265, 0.722023069858551, 0.34533822536468506, 0.3141762614250183, 0.2502974271774292, 0.2813403606414795, -0.8016854673671594, 0.17311709513501916, 0.5073984882094529,0.2643439284347078,0.8987579345703125,1.0059814453125,0.5888214111328125
20220118-1311,2022-01-18 13:11:47Z,u01, 114,40,movements,el-ex, rt, d,203226.76478662502, 2.211885217208524, -0.8642940190093464, 2.3145590668889366, -1.1588165760040283, 2.329892873764038, -3.161402940750122, 0.5202800035476685, 0.7606371641159058, 0.3882525563240051, 0.4495381712913513, 0.23809635639190674, 0.21981024742126465, -0.8187402160020998, 0.15424247976385863, 0.5064017297321017,0.22233102341475866,0.9641876220703125,1.0031890869140625,0.607086181640625
20220118-1311,2022-01-18 13:11:47Z,u01, 115,40,movements,el-ex, rt, d,203226.78973062502, 2.3631033144225353, -0.9076163472372486, 2.429366955724814, -0.5676976442337036, 2.6324384212493896, -3.266435384750366, 0.43229547142982483, 0.7880385518074036, 0.4383104145526886, 0.44966256618499756, 0.33970803022384644, 0.09095597267150879, -0.8373796389853965, 0.13397967950329753, 0.49906211033189796,0.17827463954052566,0.924713134765625,1.06982421875,0.5317535400390625
20220118-1311,2022-01-18 13:11:47Z,u01, 116,40,movements,el-ex, rt, d,203226.814674625, 2.5178907445143492, -0.9595872022308666, 2.5379093349459296, 0.1925407499074936, 2.7775955200195312, -3.399613857269287, 0.3351585865020752, 0.8189547657966614, 0.46581345796585083, 0.45176780223846436, 0.3154752850532532, 0.103904128074646, -0.8482359158586952, 0.11576941780571465, 0.5003828738647684,0.12926859446864766,0.800537109375,1.146331787109375,0.55963134765625
20220118-1311,2022-01-18 13:11:47Z,u01, 117,40,movements,el-ex, rt, d,203226.839618625, 2.701480960935599, -1.0013721994300298, 2.673613331118072, -0.5673039555549622, 2.879807233810425, -3.4940826892852783, 0.22969864308834076, 0.8422116041183472, 0.48776888847351074, 0.5306926369667053, 0.15571331977844238, 0.20353072881698608, -0.8570641680093889, 0.09656836781969425, 0.5000850706804639,0.0776568742771416,0.7499237060546875,0.99859619140625,0.64886474609375
20220118-1311,2022-01-18 13:11:47Z,u01, 118,40,movements,el-ex, rt, d,203226.864562625, 2.916422611923081, -1.0123856057953122, 2.8412127735178094, -0.6011233329772949, 3.0232796669006348, -3.5356764793395996, 0.11829832941293716, 0.8480982184410095, 0.5164640545845032, 0.6138031482696533, 0.19116270542144775, 0.11251860857009888, -0.867426850834939, 0.07617538715840105, 0.4910598465093933,0.02506550261540627,0.7420654296875,1.024169921875,0.6487884521484375
20220118-1311,2022-01-18 13:11:47Z,u01, 119,40,movements,el-ex, rt, d,203226.889506625, 3.133905445251703, -1.0282552110071332, 3.0073133670016863, 1.1263080835342407, 3.083242654800415, -3.5047264099121094, 0.0039689731784164906, 0.856399416923523, 0.5162985920906067, 0.5437910556793213, 0.23748785257339478, -0.04094153642654419, -0.8688807080299706, 0.056529699291370306, 0.4908883513944975,-0.029653419824251487,0.595245361328125,1.0744781494140625,0.5216217041015625
20220118-1311,2022-01-18 13:11:47Z,u01, 120,40,movements,el-ex, rt, d,203226.91445062502, -2.913064431623916, -1.055515902363142, -3.0918211771605164, 1.335686206817627, 3.094710350036621, -3.752246141433716, -0.111636221408844, 0.8701545596122742, 0.47996705770492554, 0.5331755876541138, 0.17824620008468628, 0.1377699077129364, -0.8594675287691849, 0.03604288275130618, 0.5026097767958684,-0.08602258208048338,0.4384918212890625,1.06396484375,0.576324462890625
20220118-1311,2022-01-18 13:11:47Z,u01, 121,40,movements,el-ex, rt, d,203226.93939462502, -2.67783335141765, -1.036197304864425, -2.9055892810517245, -0.2088484913110733, 2.8482632637023926, -3.7798049449920654, -0.22790445387363434, 0.8604729771614075, 0.4556816816329956, 0.5873405337333679, -0.07621705532073975, 0.16139912605285645, -0.8530294508846319, 0.013475511929022743, 0.5021274183211674,-0.14151756747404792,0.3839874267578125,0.816253662109375,0.656219482421875
20220118-1311,2022-01-18 13:11:47Z,u01, 122,40,movements,el-ex, rt, d,203226.96433862502, -2.488969177727743, -0.9821542774505487, -2.7634099043598184, -0.030961908400058746, 2.766421318054199, -3.719550848007202, -0.33717742562294006, 0.8316954374313354, 0.44112828373908997, 0.6381264925003052, 0.09445202350616455, 0.08723783493041992, -0.848817566572188, -0.008537040666505624, 0.49186196006331134,-0.19366901516251453,0.3101654052734375,0.89129638671875,0.533599853515625
20220118-1311,2022-01-18 13:11:47Z,u01, 123,40,movements,el-ex, rt, d,203226.989282625, -2.3101120617484567, -0.9230667933640921, -2.6301440746269864, 0.45325297117233276, 2.8492889404296875, -4.032958030700684, -0.44585373997688293, 0.7974557876586914, 0.4065453112125397, 0.628882884979248, 0.36007606983184814, 0.16439300775527954, -0.8379566310984345, -0.033186380455712816, 0.4856079979760439,-0.24680430425921687,0.2017364501953125,1.1540679931640625,0.52545166015625
20220118-1311,2022-01-18 13:11:47Z,u01, 124,40,movements,el-ex, rt, d,203227.014226625, -2.164942028214418, -0.8403998486140686, -2.5348071853101812, -0.8880717754364014, 2.85960054397583, -4.167905330657959, -0.5528309345245361, 0.744909942150116, 0.3734796941280365, 0.6570485234260559, 0.15665555000305176, 0.27221131324768066, -0.8266483514677636, -0.05824382801952005, 0.4717780526434977,-0.3011405295840524,0.1176605224609375,0.947357177734375,0.6616668701171875
20220118-1311,2022-01-18 13:11:47Z,u01, 125,40,movements,el-ex, rt, d,203227.039170625, -2.0670327852751336, -0.7391664173225873, -2.4958811567844674, -1.2693570852279663, 2.808519124984741, -3.8913955688476562, -0.6498890519142151, 0.673672080039978, 0.3518666625022888, 0.6155415177345276, -0.0577358603477478, -0.004149317741394043, -0.8183623483686905, -0.07884413018866859, 0.4457154237862026,-0.354124897191585,-0.007293701171875,0.5786895751953125,0.4001007080078125
20220118-1311,2022-01-18 13:11:47Z,u01, 126,40,movements,el-ex, rt, d,203227.064114625, -1.9808791557489451, -0.6443714379517763, -2.469125487405996, -0.5868172645568848, 2.816861867904663, -3.6900200843811035, -0.733191192150116, 0.6006960272789001, 0.31873995065689087, 0.6500612497329712, 0.041042864322662354, -0.1488637924194336, -0.8061028607509264, -0.09781696907847992, 0.4215700942355525,-0.4036195492840631,-0.0759429931640625,0.625518798828125,0.141754150390625
20220118-1311,2022-01-18 13:11:47Z,u01, 127,40,movements,el-ex, rt, d,203227.08905862502, -1.893861544117135, -0.5564159307798159, -2.4383234118590162, -0.20019739866256714, 2.7952470779418945, -3.6547694206237793, -0.8052240610122681, 0.5281461477279663, 0.2695847451686859, 0.6465173959732056, 0.12373977899551392, -0.03134918212890625, -0.7879243738936708, -0.11818441897451187, 0.402733395292772,-0.45057015898413116,-0.126678466796875,0.712982177734375,0.210723876953125
20220118-1311,2022-01-18 13:11:47Z,u01, 128,40,movements,el-ex, rt, d,203227.11400262502, -1.8187827665603569, -0.4678491860334114, -2.4232037693749544, -0.7085292339324951, 2.6357200145721436, -3.4550883769989014, -0.8652362823486328, 0.4509676396846771, 0.2190762460231781, 0.6302356719970703, 0.06828892230987549, -0.009725570678710938, -0.7686950220276, -0.13655067690814893, 0.3812765455953266,-0.4950657385447362,-0.2228851318359375,0.544830322265625,0.238006591796875
20220118-1311,2022-01-18 13:11:47Z,u01, 129,40,movements,el-ex, rt, d,203227.13894662503, -1.7544805120897313, -0.38476553383622586, -2.421852496856619, -0.5079624652862549, 2.4829177856445312, -3.088449001312256, -0.9112938046455383, 0.37534183263778687, 0.16929860413074493, 0.5816735625267029, -0.13074350357055664, -0.20504988729953766, -0.7494841337045433, -0.15140288409627056, 0.3585784298424049,-0.5355111467186671,-0.3028564453125,0.301727294921875,-0.0284881591796875
20220118-1311,2022-01-18 13:11:47Z,u01, 130,40,movements,el-ex, rt, d,203227.163890625, -1.6946631201957296, -0.3116788307775851, -2.416386231139251, -0.05572900548577309, 2.1526641845703125, -2.678774833679199, -0.9445277452468872, 0.30665701627731323, 0.11759766936302185, 0.5555047988891602, -0.14416614174842834, -0.2558727264404297, -0.7287332542926107, -0.16657334408809166, 0.34073469816814445,-0.5701764566006333,-0.381378173828125,0.1790618896484375,-0.113250732421875
20220118-1311,2022-01-18 13:11:47Z,u01, 131,40,movements,el-ex, rt, d,203227.188834625, -1.6463459564757679, -0.2538957498499451, -2.4154840409547527, -0.37504178285598755, 1.659411907196045, -1.8636099100112915, -0.9651802778244019, 0.25117671489715576, 0.07305806130170822, 0.4769446849822998, -0.5507677793502808, -0.46118056774139404, -0.7105606593943707, -0.17785550704987813, 0.32630006638761533,-0.5974942004016011,-0.4761505126953125,-0.12884521484375,-0.3238067626953125
20220118-1311,2022-01-18 13:11:47Z,u01, 132,40,movements,el-ex, rt, d,203227.213778625, -1.6166241605250469, -0.22092391802623712, -2.4283091157792454, -0.7714259028434753, 0.9380749464035034, -0.7515060901641846, -0.9746708869934082, 0.21913117170333862, 0.04469835385680199, 0.47433531284332275, -0.8984372615814209, -0.5670523643493652, -0.7000734655680586, -0.17957260045284967, 0.3143798509365513,-0.6154803235228751,-0.4958953857421875,-0.64886474609375,-0.500946044921875
20220118-1311,2022-01-18 13:11:47Z,u01, 133,40,movements,el-ex, rt, d,203227.238722625, -1.607506608056695, -0.21490771387179286, -2.4468398641602898, -0.45794281363487244, 0.11505798995494843, 0.3207666277885437, -0.9763380289077759, 0.21325726807117462, 0.035857751965522766, 0.42110103368759155, -0.8252567648887634, -0.8216395378112793, -0.6983958611729809, -0.17370117262638746, 0.3075026951007467,-0.6225057373599918,-0.53631591796875,-0.713470458984375,-0.7333831787109375
20220118-1311,2022-01-18 13:11:47Z,u01, 134,40,movements,el-ex, rt, d,203227.26366662502, -1.6112410489196125, -0.23489277750060472, -2.440452348927736, 0.886986255645752, -0.5086484551429749, 1.2066524028778076, -0.9717441201210022, 0.2327387034893036, 0.039323363453149796, 0.35896623134613037, -0.646435022354126, -0.7903761863708496, -0.7005993289088704, -0.1697712057518097, 0.31561952950532335,-0.617027344066885,-0.6036224365234375,-0.43756103515625,-0.770416259765625
20220118-1311,2022-01-18 13:11:47Z,u01, 135,40,movements,el-ex, rt, d,203227.28861062502, -1.6237986332180447, -0.2730832686773565, -2.418406358527003, 0.7297549843788147, -0.9595909118652344, 1.7357165813446045, -0.9615916013717651, 0.2697017192840576, 0.05101435258984566, 0.2916240096092224, -0.5961025953292847, -0.4632610082626343, -0.7054933172291576, -0.1666923987035277, 0.33354709085738327,-0.602693224087424,-0.672821044921875,-0.364593505859375,-0.488006591796875
20220118-1311,2022-01-18 13:11:47Z,u01, 136,40,movements,el-ex, rt, d,203227.313554625, -1.6505567753249275, -0.32222277574127334, -2.4101945058642382, 0.19761374592781067, -1.3573427200317383, 2.1181201934814453, -0.9455183744430542, 0.31667572259902954, 0.07557529956102371, 0.23053723573684692, -0.5254007577896118, -0.39405667781829834, -0.7161791274768519, -0.15771844348837616, 0.3495080494099276,-0.5831436591437669,-0.710235595703125,-0.23150634765625,-0.3291778564453125
20220118-1311,2022-01-18 13:11:47Z,u01, 137,40,movements,el-ex, rt, d,203227.338498625, -1.691252628432091, -0.37824835450927174, -2.4142347738750174, 0.04411260411143303, -1.7584455013275146, 2.366895914077759, -0.9225791692733765, 0.369293212890625, 0.1116710975766182, 0.20533978939056396, -0.2466888427734375, -0.32952070236206055, -0.7313215775782789, -0.14492860348783299, 0.3632191206388655,-0.5587811748110879,-0.7134246826171875,0.0572052001953125,-0.242340087890625
20220118-1311,2022-01-18 13:11:47Z,u01, 138,40,movements,el-ex, rt, d,203227.363442625, -1.7408875360531777, -0.440047407982022, -2.4202870277284125, 0.2510160505771637, -2.034379243850708, 2.6113991737365723, -0.8916756510734558, 0.42598235607147217, 0.1531459391117096, 0.19973528385162354, -0.18463408946990967, -0.2892695665359497, -0.7478147318170467, -0.1317045741329606, 0.3780906047732468,-0.5295985059841384,-0.6998138427734375,0.230133056640625,-0.1397247314453125
20220118-1311,2022-01-18 13:11:47Z,u01, 139,40,movements,el-ex, rt, d,203227.388386625, -1.7943641724034642, -0.5085909226813271, -2.423291409031874, 0.599575936794281, -2.1293535232543945, 2.7846014499664307, -0.8516941070556641, 0.4869470000267029, 0.1936485767364502, 0.28241920471191406, -0.13578125834465027, -0.14527809619903564, -0.7633307546582988, -0.11895564845412232, 0.3962769750720548,-0.49612527123886413,-0.595458984375,0.311798095703125,-0.0565338134765625
20220118-1311,2022-01-18 13:11:47Z,u01, 140,40,movements,el-ex, rt, d,203227.41333025, -1.8505859342128554, -0.5791409907154067, -2.428062102126666, 0.36517471075057983, -2.1696715354919434, 2.7706313133239746, -0.8043878078460693, 0.5473052263259888, 0.2311219722032547, 0.26718688011169434, -0.05775749683380127, 0.04147636890411377, -0.7773292409093162, -0.10639661452491012, 0.41508517451233906,-0.46059022726077614,-0.538604736328125,0.4742279052734375,0.2577056884765625
20220118-1311,2022-01-18 13:11:47Z,u01, 141,40,movements,el-ex, rt, d,203227.43827425002, -1.9190052478555912, -0.6468984636570823, -2.4517555352338816, -0.03036392852663994, -2.2438130378723145, 2.899600028991699, -0.750067949295044, 0.6027144193649292, 0.2722747325897217, 0.30615919828414917, -0.0801771879196167, -0.09739363193511963, -0.7923901869133828, -0.09085786971931453, 0.4289439642196839,-0.42411053739676025,-0.4822845458984375,0.5569610595703125,0.225921630859375
20220118-1311,2022-01-18 13:11:47Z,u01, 142,40,movements,el-ex, rt, d,203227.46321825002, -1.9973052708218906, -0.7171476441210033, -2.4853907691382453, 0.3943876624107361, -2.3264172077178955, 3.0865554809570312, -0.6861653923988342, 0.6572375893592834, 0.3117952048778534, 0.3391803503036499, -0.15667283535003662, -0.18768006563186646, -0.806503750694704, -0.07381943185840945, 0.4426886923532405,-0.3848756694607286,-0.358978271484375,0.4965362548828125,0.12017822265625
20220118-1311,2022-01-18 13:11:47Z,u01, 143,40,movements,el-ex, rt, d,203227.48816225003, -2.0739824253402475, -0.7942914004062932, -2.51280530714336, 0.8845945596694946, -2.2934162616729736, 3.1295855045318604, -0.613927960395813, 0.713367223739624, 0.33793461322784424, 0.3765469789505005, 0.0235711932182312, 0.042253464460372925, -0.8158207969836747, -0.05834147537043127, 0.4617544548983543,-0.3432426957146697,-0.2536163330078125,0.672607421875,0.32452392578125
20220118-1311,2022-01-18 13:11:47Z,u01, 144,40,movements,el-ex, rt, d,203227.51310625, -2.1563362857217867, -0.8694904947238952, -2.5490205181970635, 0.41565489768981934, -2.1953396797180176, 3.063117742538452, -0.5377318859100342, 0.7640002965927124, 0.3565782606601715, 0.34086304903030396, 0.11359363794326782, 0.13101646304130554, -0.8224698220312396, -0.0428079633801382, 0.48016868105783306,-0.30190882682483366,-0.2056427001953125,0.868682861328125,0.482696533203125
20220118-1311,2022-01-18 13:11:47Z,u01, 145,40,movements,el-ex, rt, d,203227.53805025, -2.2698061210120763, -0.9329623034811676, -2.621661261798595, -0.18327085673809052, -2.3341689109802246, 3.1753294467926025, -0.45580995082855225, 0.8033874034881592, 0.3831525146961212, 0.41699162125587463, -0.07520753145217896, -0.07956364750862122, -0.8312465791757164, -0.024604524357421553, 0.4909277872152439,-0.259641286408731,-0.07122802734375,0.760772705078125,0.352264404296875
20220118-1311,2022-01-18 13:11:48Z,u01, 146,40,movements,el-ex, rt, d,203227.56299425, -2.409063933958091, -0.9928814588626182, -2.719064141566361, 0.6401394009590149, -2.3996541500091553, 3.338017463684082, -0.3653247058391571, 0.8376035094261169, 0.4061501920223236, 0.3532244861125946, -0.13565361499786377, -0.11255580186843872, -0.8384785480317603, -0.005368132872935805, 0.5008524077396983,-0.21464318207539682,-0.0099945068359375,0.6977386474609375,0.27947998046875
20220118-1311,2022-01-18 13:11:48Z,u01, 147,40,movements,el-ex, rt, d,203227.58793825, -2.5467895450839664, -1.0668535458630974, -2.8127593902321117, 1.0260276794433594, -2.1209678649902344, 3.3467140197753906, -0.27058079838752747, 0.875685453414917, 0.3999512195587158, 0.32377293705940247, 0.1571667194366455, 0.16762995719909668, -0.8365558253507548, 0.012245734953990728, 0.5209083844380169,-0.1693482975857531,0.0157470703125,0.9427642822265625,0.5062408447265625
20220118-1311,2022-01-18 13:11:48Z,u01, 148,40,movements,el-ex, rt, d,203227.61288225002, -2.729237186041306, -1.1146368262453505, -2.9585219700501337, -0.26537758111953735, -2.171118974685669, 3.232574701309204, -0.17653997242450714, 0.8977508544921875, 0.40358033776283264, 0.3941456079483032, 0.047988831996917725, 0.10382029414176941, -0.8371218538211331, 0.03189321736717693, 0.531424112949817,-0.12569115214726417,0.194427490234375,0.9676361083984375,0.5289764404296875
20220118-1311,2022-01-18 13:11:48Z,u01, 149,40,movements,el-ex, rt, d,203227.63782525, -2.953100085178798, -1.1296809176404814, 3.1385232107036183, 0.00020916108042001724, -2.3589253425598145, 3.2675254344940186, -0.08000093698501587, 0.9042760133743286, 0.4193863868713379, 0.37493807077407837, -0.0029239654541015625, 0.050523340702056885, -0.8408472018824261, 0.05166413172934853, 0.5327828766486196,-0.0803073753755219,0.3301239013671875,0.887786865234375,0.43255615234375
20220118-1311,2022-01-18 13:11:48Z,u01, 150,40,movements,el-ex, rt, d,203227.66277025003, 3.0910870823408785, -1.150947400490476, 2.9394680689379795, 1.1589263677597046, -2.273876428604126, 3.484123468399048, 0.02057843841612339, 0.9131505489349365, 0.4071023762226105, 0.19505879282951355, 0.013271450996398926, 0.03311365842819214, -0.8357741781925991, 0.07094158159943759, 0.5434199519298457,-0.033815177131432284,0.21875,0.9357757568359375,0.446533203125
20220118-1311,2022-01-18 13:11:48Z,u01, 151,40,movements,el-ex, rt, d,203227.68771325002, 2.83616799346514, -1.1569171093915838, 2.7203378741251076, 0.19504602253437042, -2.0984702110290527, 3.349555015563965, 0.12092998623847961, 0.9155676364898682, 0.38355153799057007, 0.2958791255950928, 0.09454888105392456, 0.17627820372581482, -0.8266611430699913, 0.09169040151384494, 0.5550586859530051,0.011578429545207602,0.323974609375,0.9788818359375,0.5408477783203125
20220118-1311,2022-01-18 13:11:48Z,u01, 152,40,movements,el-ex, rt, d,203227.71265725, 2.647288794162042, -1.1101490724229952, 2.569961920923234, -1.372485876083374, -2.2344889640808105, 2.880486011505127, 0.21089252829551697, 0.895764946937561, 0.3913176655769348, 0.4678489565849304, 0.24189984798431396, 0.15403151512145996, -0.826957235453202, 0.10863038467629255, 0.5488815925842725,0.055409204008665475,0.6429290771484375,1.1289520263671875,0.547821044921875
20220118-1311,2022-01-18 13:11:48Z,u01, 153,40,movements,el-ex, rt, d,203227.73760125, 2.5089986085950393, -1.0500411500070492, 2.4776161772695082, -0.500682532787323, -2.3364226818084717, 2.676386594772339, 0.29416221380233765, 0.8674436807632446, 0.40126052498817444, 0.38482341170310974, 0.3512756824493408, 0.14266961812973022, -0.828297015950518, 0.12064125201867615, 0.5380791911936614,0.09919938872204842,0.7375946044921875,1.2433624267578125,0.5264739990234375
20220118-1311,2022-01-18 13:11:48Z,u01, 154,40,movements,el-ex, rt, d,203227.76254525, 2.367759541226479, -1.005968432119958, 2.378771147769658, 0.24275991320610046, -2.2014148235321045, 2.796867609024048, 0.37409117817878723, 0.8446807265281677, 0.38284558057785034, 0.19782355427742004, 0.24835222959518433, 0.07862621545791626, -0.8207804894546775, 0.13319975764927872, 0.5373892319601314,0.14067765026645532,0.5715179443359375,1.1285400390625,0.475494384765625
20220118-1311,2022-01-18 13:11:48Z,u01, 155,40,movements,el-ex, rt, d,203227.78748925, 2.2328831944421856, -0.956844588078931, 2.2816298311569017, 0.24587172269821167, -2.138390302658081, 3.026614189147949, 0.4543780982494354, 0.8173778057098389, 0.3541669249534607, 0.24990656971931458, -0.004969358444213867, -0.001215815544128418, -0.8092763181069631, 0.14884658778948, 0.5384248513612491,0.18170104556005418,0.6533660888671875,0.8311920166015625,0.3799285888671875
20220118-1311,2022-01-18 13:11:48Z,u01, 156,40,movements,el-ex, rt, d,203227.81243325002, 2.1189418001235167, -0.8944628899315058, 2.205099455570781, 0.04675382375717163, -2.0801944732666016, 3.1579737663269043, 0.534233033657074, 0.7798730134963989, 0.3261794149875641, 0.29315948486328125, 0.04243826866149902, 0.017418086528778076, -0.7971949607732943, 0.16604187613258659, 0.5356860942642909,0.22349637135020675,0.8135833740234375,0.8190460205078125,0.3380584716796875
20220118-1311,2022-01-18 13:11:48Z,u01, 157,40,movements,el-ex, rt, d,203227.83737725002, 2.0182846986598877, -0.8290123768495858, 2.142061800761076, 0.272392600774765, -2.1369788646698, 3.0288336277008057, 0.6090819835662842, 0.7372645139694214, 0.2923356890678406, 0.37442320585250854, 0.18461042642593384, 0.03321060538291931, -0.7827398516257718, 0.18299225541134928, 0.5327900459164701,0.26451260014794503,0.9501495361328125,0.881622314453125,0.34368896484375
20220118-1311,2022-01-18 13:11:48Z,u01, 158,40,movements,el-ex, rt, d,203227.86232125002, 1.9319954291646944, -0.7620222873211866, 2.0954502574184404, -0.05238916724920273, -2.0773801803588867, 2.8756327629089355, 0.676760196685791, 0.6903858780860901, 0.25566136837005615, 0.33233392238616943, 0.18209630250930786, 0.10742157697677612, -0.7671432067206643, 0.19829770657603385, 0.5286654807311587,0.3044372130219163,1.009124755859375,0.8803253173828125,0.3587646484375
20220118-1311,2022-01-18 13:11:48Z,u01, 159,40,movements,el-ex, rt, d,203227.88726525, 1.8666826244865966, -0.6953383767892756, 2.073974595849442, -0.4494175910949707, -1.9967710971832275, 2.602686882019043, 0.7344701290130615, 0.6406452655792236, 0.22389191389083862, 0.3117488622665405, 0.16353869438171387, 0.13861122727394104, -0.7535931299532213, 0.2098650757422007, 0.5204099404799815,0.34238526084396803,1.041107177734375,0.8233489990234375,0.3442840576171875
20220118-1311,2022-01-18 13:11:48Z,u01, 160,40,movements,el-ex, rt, d,203227.91220925, 1.816933978315248, -0.6323964214413079, 2.0713990733707646, -0.61924809217453, -1.8250640630722046, 2.3188798427581787, 0.7823026776313782, 0.5910794138908386, 0.19653929769992828, 0.21679705381393433, 0.2545015215873718, 0.17029736936092377, -0.7422169386143348, 0.21767788731746662, 0.5089671241927347,0.37773382661626803,1.0084228515625,0.838104248046875,0.37164306640625
20220118-1311,2022-01-18 13:11:48Z,u01, 161,40,movements,el-ex, rt, d,203227.93715325, 1.7728543551796248, -0.5772547566050512, 2.0680474527089943, -0.10540032386779785, -1.592726469039917, 2.030668258666992, 0.8209161758422852, 0.5457255840301514, 0.1681675761938095, 0.11206728219985962, 0.32921332120895386, 0.1845850944519043, -0.7303242576403914, 0.22518940539154858, 0.4994302789144921,0.40802655436595275,0.9379119873046875,0.8874969482421875,0.36151123046875
20220118-1311,2022-01-18 13:11:48Z,u01, 162,40,movements,el-ex, rt, d,203227.96209725, 1.7293109194612633, -0.5305447376427929, 2.057438967801042, 0.0778360515832901, -1.4294989109039307, 1.80644690990448, 0.8517178893089294, 0.5060032606124878, 0.136151984333992, 0.04729944467544556, 0.41555124521255493, 0.17476117610931396, -0.7167632546150633, 0.23308031148748853, 0.49395083580193105,0.43351655578095943,0.9028778076171875,0.920867919921875,0.311553955078125
20220118-1311,2022-01-18 13:11:48Z,u01, 163,40,movements,el-ex, rt, d,203227.98704125002, 1.6911493241871032, -0.4890952882610275, 2.0491879196673115, -0.03635064512491226, -1.2769242525100708, 1.519120454788208, 0.8763725757598877, 0.46982744336128235, 0.10598629713058472, -0.0037835240364074707, 0.3167325258255005, 0.22351203858852386, -0.7038648333100564, 0.2399321638813906, 0.4891244902108033,0.45581137022450424,0.874053955078125,0.833587646484375,0.314056396484375
20220118-1311,2022-01-18 13:11:48Z,u01, 164,40,movements,el-ex, rt, d,203228.01198525002, 1.6620344976551844, -0.4549640014215268, 2.053193127989096, -0.47854888439178467, -1.2152857780456543, 1.1636571884155273, 0.8945406675338745, 0.43942996859550476, 0.08184348046779633, -0.02807033061981201, 0.3665849566459656, 0.37605762481689453, -0.694350427687985, 0.2424855111403534, 0.48253888106799425,0.47564115976556753,0.868804931640625,0.78961181640625,0.451141357421875
20220118-1311,2022-01-18 13:11:48Z,u01, 165,40,movements,el-ex, rt, d,203228.03692925003, 1.6377926250579855, -0.42913454772538645, 2.061581943366211, -0.22284236550331116, -0.9863379597663879, 0.866524338722229, 0.9072862863540649, 0.4160839915275574, 0.06087592989206314, -0.08848434686660767, 0.46411922574043274, 0.43250179290771484, -0.686869508935766, 0.24217399117511157, 0.4765086279261509,0.4924445301601411,0.830780029296875,0.889739990234375,0.474700927734375
20220118-1311,2022-01-18 13:11:48Z,u01, 166,40,movements,el-ex, rt, d,203228.06187325, 1.6185768478507923, -0.4099295546719283, 2.061832942708877, 0.07867281138896942, -0.5236162543296814, 0.6724367737770081, 0.9161021709442139, 0.3985447287559509, 0.04380518198013306, -0.11399340629577637, 0.4022059142589569, 0.4361753463745117, -0.6800465182346689, 0.24380181126560108, 0.4736289212134071,0.503758926604258,0.8000030517578125,0.8204803466796875,0.4871826171875
20220118-1311,2022-01-18 13:11:48Z,u01, 167,40,movements,el-ex, rt, d,203228.08681725, 1.6111342079139044, -0.3985579680307737, 2.0598807933532015, -0.09630292654037476, -0.041137345135211945, 0.23550140857696533, 0.9208719730377197, 0.38808974623680115, 0.037166185677051544, -0.08609408140182495, 0.33296430110931396, 0.45277833938598633, -0.6766497396922109, 0.24643096818942242, 0.47199012047505445,0.5085688857902043,0.834808349609375,0.6736297607421875,0.4739837646484375
20220118-1311,2022-01-18 13:11:48Z,u01, 168,40,movements,el-ex, rt, d,203228.11176125, 1.614783593020229, -0.3997555809848932, 2.060847079622017, 0.018361832946538925, 0.29348158836364746, -0.31108397245407104, 0.9202653169631958, 0.38919320702552795, 0.04050608351826668, -0.09774017333984375, 0.41274774074554443, 0.4228271245956421, -0.6778311934765897, 0.24657233202145717, 0.47161594492717274,0.5072726321652944,0.823394775390625,0.79595947265625,0.4641265869140625
20220118-1311,2022-01-18 13:11:48Z,u01, 169,40,movements,el-ex, rt, d,203228.13670525, 1.6291392059111307, -0.4135233488385104, 2.064860388349666, -0.3059106469154358, 0.7426655292510986, -0.810579776763916, 0.9141527414321899, 0.40183818340301514, 0.053394898772239685, -0.11399704217910767, 0.4456501603126526, 0.41767454147338867, -0.6834589594164446, 0.2440928105631866, 0.47254644359574577,0.5000024723114609,0.7994842529296875,0.8378448486328125,0.458587646484375
20220118-1311,2022-01-18 13:11:48Z,u01, 170,40,movements,el-ex, rt, d,203228.16164925002, 1.66008053962081, -0.4404300981074027, 2.0800043489186786, -0.6026102304458618, 1.2433290481567383, -1.4354523420333862, 0.9009653925895691, 0.42632856965065, 0.08065642416477203, -0.08602398633956909, 0.4589710831642151, 0.40840303897857666, -0.6956733476477392, 0.23741694170612318, 0.47238868144979046,0.48633402387949665,0.8123321533203125,0.8808441162109375,0.48822021484375
20220118-1311,2022-01-18 13:11:48Z,u01, 171,40,movements,el-ex, rt, d,203228.18659325002, 1.7080202727004485, -0.4814025171902727, 2.1025776315545266, -0.5881705284118652, 1.7822000980377197, -1.9749552011489868, 0.8780144453048706, 0.46302273869514465, 0.12124660611152649, -0.008309125900268555, 0.47858187556266785, 0.3535916805267334, -0.7133336915708431, 0.22754856123804357, 0.4727600942512527,0.46462315292305983,0.851806640625,0.9228668212890625,0.4766845703125
20220118-1311,2022-01-18 13:11:48Z,u01, 172,40,movements,el-ex, rt, d,203228.21153725003, 1.7678700406057406, -0.5330093742429323, 2.124871862459924, -0.22495944797992706, 2.1204283237457275, -2.3265278339385986, 0.8446106314659119, 0.5081275701522827, 0.1686394363641739, 0.09034121036529541, 0.4584556221961975, 0.2736670970916748, -0.7329004633932084, 0.21720180948322548, 0.47564531782156166,0.43524911374237607,0.9276885986328125,0.9654083251953125,0.4504241943359375
20220118-1311,2022-01-18 13:11:48Z,u01, 173,40,movements,el-ex, rt, d,203228.23648125, 1.8312948756965381, -0.5926300420616537, 2.140968710185643, 0.18618175387382507, 2.2677342891693115, -2.549009084701538, 0.8014895915985107, 0.5585445165634155, 0.21364140510559082, 0.16367465257644653, 0.454318642616272, 0.19971919059753418, -0.7507867458514377, 0.20770163279715625, 0.48269488984082676,0.4002311965571063,0.96917724609375,0.990631103515625,0.414947509765625
20220118-1311,2022-01-18 13:11:48Z,u01, 174,40,movements,el-ex, rt, d,203228.26142525, 1.8995678025627682, -0.6573651738474384, 2.159461960021673, 0.06605219095945358, 2.3335278034210205, -2.7607414722442627, 0.7492063045501709, 0.6110332608222961, 0.25559383630752563, 0.21333330869674683, 0.3662005662918091, 0.20642706751823425, -0.7673625014073415, 0.19736186315777832, 0.49120084469358616,0.3618353148420729,0.9617919921875,0.98638916015625,0.451995849609375
20220118-1311,2022-01-18 13:11:48Z,u01, 175,40,movements,el-ex, rt, d,203228.28636925, 1.979914702539053, -0.7245442458567387, 2.1917667283503612, 0.10350295901298523, 2.485568046569824, -2.957568645477295, 0.6870043873786926, 0.6627942323684692, 0.29787370562553406, 0.29593634605407715, 0.378709614276886, 0.26839518547058105, -0.7841504248426525, 0.184512791868568, 0.49811585838817285,0.3208484372845177,0.9792327880859375,0.986480712890625,0.5355224609375
20220118-1311,2022-01-18 13:11:48Z,u01, 176,40,movements,el-ex, rt, d,203228.31131325001, 2.0669708553189956, -0.796928296185735, 2.227431220763281, 0.6291428804397583, 2.5406062602996826, -3.1634840965270996, 0.6146260499954224, 0.7152126431465149, 0.3327251374721527, 0.4160137176513672, 0.3638126850128174, 0.19756367802619934, -0.7981486512364375, 0.17123463051727905, 0.5072998498503595,0.27619631677966827,1.0276336669921875,1.0873870849609375,0.5338287353515625
20220118-1311,2022-01-18 13:11:48Z,u01, 177,40,movements,el-ex, rt, d,203228.33625725002, 2.1566895323413044, -0.8753097878439954, 2.2628548167835154, 0.8977231979370117, 2.557758331298828, -3.2210280895233154, 0.5338923335075378, 0.7677420377731323, 0.354303777217865, 0.49259692430496216, 0.1973457932472229, 0.0700584352016449, -0.8075515483864933, 0.1581530562534889, 0.5201402996449839,0.22869671946001324,1.040130615234375,0.9941253662109375,0.4426727294921875
20220118-1311,2022-01-18 13:11:48Z,u01, 178,40,movements,el-ex, rt, d,203228.36120125002, 2.2673078294217683, -0.9515549668393053, 2.321630799935712, 0.3928571045398712, 2.576545000076294, -3.366478681564331, 0.4452296793460846, 0.8143190145492554, 0.37236446142196655, 0.5213230848312378, 0.13111555576324463, 0.16357004642486572, -0.8158956921963776, 0.14316582806555045, 0.5305741091795624,0.17974694759179452,0.9783477783203125,0.94879150390625,0.507659912109375
20220118-1311,2022-01-18 13:11:48Z,u01, 179,40,movements,el-ex, rt, d,203228.38614525, 2.4164581330029, -1.0185439888311745, 2.4225248777232604, 0.2392084300518036, 2.6463425159454346, -3.586003303527832, 0.34793755412101746, 0.8513451218605042, 0.39262038469314575, 0.48848822712898254, 0.1693151593208313, 0.12379807233810425, -0.8249824599979942, 0.12535602235595344, 0.5356526774837899,0.12948334755999338,0.8581085205078125,0.9974365234375,0.5339813232421875
20220118-1311,2022-01-18 13:11:48Z,u01, 180,40,movements,el-ex, rt, d,203228.411088875, 2.601437929855795, -1.078984023180601, 2.558906025664355, 0.47954219579696655, 2.6840476989746094, -3.681246042251587, 0.24285008013248444, 0.881478488445282, 0.4049931764602661, 0.5630123019218445, 0.17116427421569824, 0.08887287974357605, -0.8313919088787264, 0.10622653965988588, 0.5399679008095335,0.07705887123066316,0.8083343505859375,1.050994873046875,0.4904327392578125
20220118-1311,2022-01-18 13:11:48Z,u01, 181,40,movements,el-ex, rt, d,203228.436032875, 2.8337551985091003, -1.1243937577638499, 2.743511762205365, -0.05519350990653038, 2.7146222591400146, -3.8750650882720947, 0.1308116465806961, 0.9020060300827026, 0.41142892837524414, 0.6150837540626526, 0.18118500709533691, 0.17574471235275269, -0.8357355295545773, 0.08520910783748242, 0.5419931625684873,0.023001382559944883,0.7560272216796875,1.1046905517578125,0.5989532470703125
20220118-1311,2022-01-18 13:11:48Z,u01, 182,40,movements,el-ex, rt, d,203228.460976875, 3.107290920004685, -1.1345084338688713, 2.971012903797072, -0.3524172902107239, 2.7129456996917725, -3.9560458660125732, 0.014492315240204334, 0.9063265323638916, 0.4223294258117676, 0.6549718379974365, 0.13204926252365112, 0.15626871585845947, -0.840975252473781, 0.06265246099320476, 0.5365186006189069,-0.03135413668788922,0.6878509521484375,1.03558349609375,0.576141357421875
20220118-1311,2022-01-18 13:11:48Z,u01, 183,40,movements,el-ex, rt, d,203228.485920875, -2.9002310709123083, -1.1157922197769972, -3.084147104505953, -0.27039864659309387, 2.8892955780029297, -4.018982410430908, -0.10504339635372162, 0.8982592225074768, 0.4267275929450989, 0.5986804366111755, 0.21067333221435547, 0.11329632997512817, -0.8436835458082794, 0.03952044850031278, 0.5282684471338754,-0.08699838082883507,0.531707763671875,1.09173583984375,0.5208740234375
20220118-1311,2022-01-18 13:11:48Z,u01, 184,40,movements,el-ex, rt, d,203228.51086487502, -2.646236182161686, -1.0735966488581414, -2.880980753446872, -0.2171604037284851, 2.9675850868225098, -4.1021318435668945, -0.22672370076179504, 0.8789216876029968, 0.4196346402168274, 0.6706628799438477, 0.24311816692352295, 0.17216229438781738, -0.8423536519581052, 0.016051223745664145, 0.518953020913507,-0.14446625651232728,0.4494171142578125,1.122039794921875,0.587677001953125
20220118-1311,2022-01-18 13:11:48Z,u01, 185,40,movements,el-ex, rt, d,203228.53580887502, -2.430930945037071, -1.0071688168093598, -2.720085225470125, -0.5756160020828247, 3.1595842838287354, -4.277300834655762, -0.3485141098499298, 0.8453226685523987, 0.40492886304855347, 0.696933388710022, 0.29676705598831177, 0.2922300696372986, -0.8380969594471089, -0.007610034610187499, 0.506156986173581,-0.2033239546612645,0.3723297119140625,1.1165313720703125,0.6117401123046875
20220118-1311,2022-01-18 13:11:49Z,u01, 186,40,movements,el-ex, rt, d,203228.56075287503, -2.2659117208493043, -0.9165111286842145, -2.6137406145298945, -0.993965208530426, 3.1580028533935547, -4.248493671417236, -0.4673866033554077, 0.7934831380844116, 0.38978758454322815, 0.7797645330429077, 0.2608228921890259, 0.16010868549346924, -0.833033023772318, -0.030818514301379607, 0.485974858473743,-0.2625541559723632,0.3211517333984375,1.06732177734375,0.5823516845703125
20220118-1311,2022-01-18 13:11:49Z,u01, 187,40,movements,el-ex, rt, d,203228.585696875, -2.1302858490592307, -0.822876250996502, -2.5392171808766424, 0.04334678128361702, 3.158294200897217, -4.106761932373047, -0.576415479183197, 0.7331050634384155, 0.36097365617752075, 0.7421412467956543, 0.2558627724647522, 0.035693854093551636, -0.8232199013515829, -0.05287549874871311, 0.4658318826264267,-0.3201776966050208,0.216033935546875,1.0028228759765625,0.469696044921875
20220118-1311,2022-01-18 13:11:49Z,u01, 188,40,movements,el-ex, rt, d,203228.610640875, -1.9780392312729977, -0.7406997015367757, -2.4412506507152183, 1.351446509361267, 3.426530599594116, -4.270752429962158, -0.6776402592658997, 0.6748044490814209, 0.29230502247810364, 0.7188848853111267, 0.3508759140968323, 0.17771142721176147, -0.7998084139253918, -0.08036794646881451, 0.45977910210356737,-0.37742618402493416,0.0421600341796875,1.0181121826171875,0.4467926025390625
20220118-1311,2022-01-18 13:11:49Z,u01, 189,40,movements,el-ex, rt, d,203228.635584875, -1.8443045987127702, -0.6450437340240261, -2.366957448303233, 0.17193545401096344, 3.44128680229187, -4.4556450843811035, -0.7693712115287781, 0.6012333631515503, 0.2158384770154953, 0.7848894596099854, -0.06897640228271484, 0.2040376365184784, -0.7721501595469606, -0.10818212720727599, 0.45028568853472656,-0.4351132166209681,0.033416748046875,0.6896514892578125,0.4501495361328125
20220118-1311,2022-01-18 13:11:49Z,u01, 190,40,movements,el-ex, rt, d,203228.660528875, -1.7525312329041525, -0.5389782495411047, -2.3491331815826877, -0.7302675247192383, 3.1373519897460938, -4.110225677490234, -0.8440999388694763, 0.5132593512535095, 0.15511387586593628, 0.8018941283226013, -0.278685986995697, -0.009300827980041504, -0.7490050742435892, -0.12864034064587676, 0.42681434307430505,-0.4901761672018135,-0.0306549072265625,0.2582244873046875,0.177886962890625
20220118-1311,2022-01-18 13:11:49Z,u01, 191,40,movements,el-ex, rt, d,203228.68547287502, -1.6817069648337848, -0.43898989179933107, -2.3548533081414784, -0.787921667098999, 2.664203643798828, -3.7252516746520996, -0.8996196389198303, 0.4250253438949585, 0.10018853098154068, 0.7769085764884949, -0.31615397334098816, -0.3391411304473877, -0.7274340983586212, -0.14468551996026513, 0.3993314329536694,-0.5389248728787035,-0.1134033203125,0.1810150146484375,-0.1350250244140625
20220118-1311,2022-01-18 13:11:49Z,u01, 192,40,movements,el-ex, rt, d,203228.71041687502, -1.6249050163988041, -0.35412469158266346, -2.3650335309426898, -0.5802455544471741, 2.053478717803955, -2.9296059608459473, -0.9365777969360352, 0.3467695116996765, 0.0507265105843544, 0.7125176191329956, -0.4969312250614166, -0.5396790504455566, -0.7072911106821271, -0.15843781123716172, 0.37465155299165576,-0.5781635151270099,-0.21685791015625,-0.1107330322265625,-0.4486083984375
20220118-1311,2022-01-18 13:11:49Z,u01, 193,40,movements,el-ex, rt, d,203228.735360875, -1.5867510015754303, -0.2967863174746575, -2.3789576289914325, -0.6630187034606934, 1.3040084838867188, -1.6354351043701172, -0.9561597108840942, 0.2924485504627228, 0.015256511978805065, 0.6243877410888672, -1.060072422027588, -0.797269344329834, -0.6928575694978315, -0.16606216987026723, 0.3559761842855308,-0.6046923574078299,-0.2980194091796875,-0.619049072265625,-0.7397613525390625
20220118-1311,2022-01-18 13:11:49Z,u01, 194,40,movements,el-ex, rt, d,203228.760304875, -1.572749039698807, -0.27391578094868163, -2.397903536522859, -0.8707758188247681, 0.22414107620716095, -0.2053685486316681, -0.9627172946929932, 0.27050331234931946, 0.0018799128010869026, 0.5705663561820984, -1.290492296218872, -0.8895903825759888, -0.6882927451122817, -0.16490316383681447, 0.34429334048050525,-0.6168648142731168,-0.3815460205078125,-1.012359619140625,-0.8762054443359375
20220118-1311,2022-01-18 13:11:49Z,u01, 195,40,movements,el-ex, rt, d,203228.785248875, -1.584276967742039, -0.28513756804533036, -2.4150746561544167, -0.28525081276893616, -0.667852520942688, 1.0120630264282227, -0.9595357179641724, 0.2812894582748413, 0.01293594017624855, 0.49420374631881714, -0.8501676917076111, -0.859264612197876, -0.6941106112185897, -0.1570936965185165, 0.3415645592414319,-0.6138938316231495,-0.4391021728515625,-0.705780029296875,-0.8982696533203125
20220118-1311,2022-01-18 13:11:49Z,u01, 196,40,movements,el-ex, rt, d,203228.810192875, -1.6060815067414953, -0.31900141106288893, -2.41253365179109, 0.4316500723361969, -1.107293963432312, 1.651449203491211, -0.9489580392837524, 0.3136185109615326, 0.03349805995821953, 0.36370718479156494, -0.553974986076355, -0.6012928485870361, -0.702989358854121, -0.1501831902625309, 0.35122274001545767,-0.5999113128945436,-0.5758209228515625,-0.2811126708984375,-0.6088104248046875
20220118-1311,2022-01-18 13:11:49Z,u01, 197,40,movements,el-ex, rt, d,203228.83513687502, -1.635535821406696, -0.3656321914902683, -2.407117619452064, 0.10937768965959549, -1.4033970832824707, 2.0110414028167725, -0.931941568851471, 0.3575397729873657, 0.06041786074638367, 0.23231083154678345, -0.2657429277896881, -0.214150071144104, -0.7142611585815958, -0.14156244852294214, 0.36523781564148144,-0.5799935089749422,-0.66827392578125,0.0513153076171875,-0.2081298828125
20220118-1311,2022-01-18 13:11:49Z,u01, 198,40,movements,el-ex, rt, d,203228.860079875, -1.6755374133854966, -0.41852677591190657, -2.4138467340064027, -0.10799460858106613, -1.5827828645706177, 2.2430684566497803, -0.9086813926696777, 0.40641483664512634, 0.09552586078643799, 0.14096587896347046, -0.24081122875213623, -0.20631980895996094, -0.7288141872095759, -0.1288130815887341, 0.37721696516867653,-0.5567265511693429,-0.7619171142578125,0.1588592529296875,-0.106689453125
20220118-1311,2022-01-18 13:11:49Z,u01, 199,40,movements,el-ex, rt, d,203228.88502387502, -1.7190107835314559, -0.47753731408342065, -2.4199433253142897, 0.3297763764858246, -1.706168532371521, 2.5059616565704346, -0.8783921003341675, 0.45959338545799255, 0.1311521828174591, 0.1409350037574768, -0.2537219226360321, -0.2493620216846466, -0.7431412982663842, -0.11539974474458514, 0.3915556709957887,-0.5301961113694479,-0.75885009765625,0.1983795166015625,-0.1414642333984375
20220118-1311,2022-01-18 13:11:49Z,u01, 200,40,movements,el-ex, rt, d,203228.90996787502, -1.7612779727870689, -0.5440657781205307, -2.416615478140475, 0.5329590439796448, -1.8313707113265991, 2.7227628231048584, -0.8401358723640442, 0.5176190137863159, 0.16199444234371185, 0.17390668392181396, -0.1923322081565857, -0.1461557298898697, -0.755179454178978, -0.10344667176507283, 0.4111934296942728,-0.4999226754532458,-0.6754608154296875,0.30108642578125,0.0013580322265625
20220118-1311,2022-01-18 13:11:49Z,u01, 201,40,movements,el-ex, rt, d,203228.93491187503, -1.8141493250442133, -0.6130841618573989, -2.426801832456687, -0.018732871860265732, -1.9535331726074219, 2.8465352058410645, -0.7937788367271423, 0.5753926634788513, 0.19707418978214264, 0.22059780359268188, -0.13980013132095337, -0.11510398983955383, -0.7685657114678828, -0.08856547013176747, 0.4281509585885908,-0.4670648358133924,-0.6031341552734375,0.4390106201171875,0.0824127197265625
20220118-1311,2022-01-18 13:11:49Z,u01, 202,40,movements,el-ex, rt, d,203228.959855875, -1.8813358880309907, -0.6830923293822349, -2.4545296248817414, -0.004094539675861597, -2.09096622467041, 3.044123888015747, -0.7385255694389343, 0.631194531917572, 0.23700949549674988, 0.2714082598686218, -0.21571296453475952, -0.17113721370697021, -0.7832774599213475, -0.07057741355495478, 0.44181040571523106,-0.43162349613960976,-0.48260498046875,0.4094390869140625,0.0666046142578125
20220118-1311,2022-01-18 13:11:49Z,u01, 203,40,movements,el-ex, rt, d,203228.984799875, -1.9528133424009397, -0.7592444901514602, -2.4815674385254924, 0.5927778482437134, -2.1958935260772705, 3.1970808506011963, -0.6730687618255615, 0.6883736252784729, 0.27040764689445496, 0.3399999141693115, -0.14365017414093018, -0.07694140076637268, -0.7952298841561471, -0.05304015164663667, 0.4589982960956858,-0.3925770814162093,-0.3546600341796875,0.503936767578125,0.133819580078125
20220118-1311,2022-01-18 13:11:49Z,u01, 204,40,movements,el-ex, rt, d,203229.009743875, -2.028029487762166, -0.8386770467921317, -2.510131371171492, 0.2955782413482666, -2.1978328227996826, 3.2270514965057373, -0.5997828245162964, 0.7437594532966614, 0.29509761929512024, 0.3534144163131714, -0.03912383317947388, 0.015479803085327148, -0.8038875864859514, -0.036243030652879205, 0.4784480524444322,-0.35148073043481537,-0.2576751708984375,0.6863555908203125,0.2898406982421875
20220118-1311,2022-01-18 13:11:49Z,u01, 205,40,movements,el-ex, rt, d,203229.034687875, -2.136631443567825, -0.9050030951887169, -2.578973595796159, -0.6303958892822266, -2.2948179244995117, 3.1900079250335693, -0.5214118361473083, 0.7864270806312561, 0.33115291595458984, 0.42375558614730835, -0.04005861282348633, 0.015740394592285156, -0.8156613269076727, -0.016524507302245584, 0.48835427482540744,-0.3097316192452077,-0.1379547119140625,0.7811737060546875,0.3630828857421875
20220118-1311,2022-01-18 13:11:49Z,u01, 206,40,movements,el-ex, rt, d,203229.05963187502, -2.26861655731857, -0.965668939922773, -2.670087111215348, 0.3546651601791382, -2.378476619720459, 3.272759437561035, -0.43589136004447937, 0.8224296569824219, 0.3655249774456024, 0.3951045870780945, -0.07328402996063232, -0.060227006673812866, -0.8262875361104642, 0.0033768589826257966, 0.49657927909427746,-0.2657943570861333,-0.044921875,0.7384185791015625,0.309234619140625
20220118-1311,2022-01-18 13:11:49Z,u01, 207,40,movements,el-ex, rt, d,203229.08457587502, -2.3803323819799456, -1.0492713766414425, -2.7320938721965518, 2.0480387210845947, -2.3487863540649414, 3.447206974029541, -0.34367769956588745, 0.8670604825019836, 0.36068278551101685, 0.37869659066200256, 0.025166869163513184, -0.023051470518112183, -0.8246134239714726, 0.01881746173784471, 0.5207110367418594,-0.2202696565736279,0.0080718994140625,0.859405517578125,0.328277587890625
20220118-1311,2022-01-18 13:11:49Z,u01, 208,40,movements,el-ex, rt, d,203229.10951987503, -2.51230815039472, -1.138322099801345, -2.818302241703429, 0.8025515675544739, -2.0941572189331055, 3.490726947784424, -0.2466791570186615, 0.9079315066337585, 0.3388359546661377, 0.3885248899459839, 0.01643061637878418, 0.1701819896697998, -0.8174006284431772, 0.035695777408769724, 0.5477432857395529,-0.17481232251333206,0.1274261474609375,0.9285888671875,0.4768524169921875
20220118-1311,2022-01-18 13:11:49Z,u01, 209,40,movements,el-ex, rt, d,203229.134463875, -2.742885925124444, -1.1678723092484506, -3.012782256495268, -1.514944314956665, -2.1517326831817627, 3.263249635696411, -0.15222761034965515, 0.919918417930603, 0.36135435104370117, 0.5610105991363525, 0.05858194828033447, 0.06988954544067383, -0.8231070326233383, 0.056320435925368006, 0.5499066196821113,-0.13009824896484834,0.3446044921875,0.975921630859375,0.45849609375
20220118-1311,2022-01-18 13:11:49Z,u01, 210,40,movements,el-ex, rt, d,203229.159407875, -2.996662895530712, -1.1644522070187844, 3.055854249647483, -0.16620714962482452, -2.275458335876465, 3.125551462173462, -0.057083770632743835, 0.918571949005127, 0.3911103904247284, 0.41528385877609253, 0.1402050256729126, 0.08250731229782104, -0.830577152991385, 0.07547709434863847, 0.5453459095429994,-0.08392117428103157,0.3819427490234375,1.0337066650390625,0.473785400390625
20220118-1311,2022-01-18 13:11:49Z,u01, 211,40,movements,el-ex, rt, d,203229.184351875, 3.0453779937218184, -1.1797671910617509, 2.852474641991651, 1.049751877784729, -2.121123790740967, 3.223667621612549, 0.03661473095417023, 0.9245173335075378, 0.37937748432159424, 0.22540923953056335, 0.11013543605804443, 0.011140823364257812, -0.8252398387198084, 0.09310183381704351, 0.5555820779821182,-0.04049531292661451,0.2398834228515625,1.1439666748046875,0.4120330810546875
20220118-1311,2022-01-18 13:11:49Z,u01, 212,40,movements,el-ex, rt, d,203229.209295875, 2.7778351344350667, -1.1824390242373972, 2.618178440487026, 0.5515287518501282, -1.9810868501663208, 3.6394762992858887, 0.13472583889961243, 0.925532341003418, 0.3538908362388611, 0.26220107078552246, -0.14449602365493774, 0.0009675920009613037, -0.8148467768481386, 0.11388659153361619, 0.5683696839325763,0.0032315648847655587,0.3806610107421875,0.8081512451171875,0.3507843017578125
20220118-1311,2022-01-18 13:11:49Z,u01, 213,40,movements,el-ex, rt, d,203229.23423987502, 2.526088010574361, -1.144405992364067, 2.3986740771175348, 0.07747292518615723, -2.0364654064178467, 3.8397388458251953, 0.2387930303812027, 0.9104645848274231, 0.3376864790916443, 0.4087899923324585, -0.051547348499298096, 0.06618320941925049, -0.8061044373511721, 0.13798142881755632, 0.5732872099528479,0.049985490549707856,0.5636138916015625,0.736053466796875,0.427215576171875
20220118-1311,2022-01-18 13:11:49Z,u01, 214,40,movements,el-ex, rt, d,203229.25918387502, 2.3275683306777903, -1.0830974153637718, 2.2354356562424855, 0.05893998593091965, -2.1411476135253906, 3.682330369949341, 0.34069469571113586, 0.8834134936332703, 0.3217269480228424, 0.5188329219818115, 0.19483375549316406, -0.05245491862297058, -0.7968345906524028, 0.16099100303553576, 0.5740846881676641,0.09779304703735572,0.8408050537109375,1.0662994384765625,0.275054931640625
20220118-1311,2022-01-18 13:11:49Z,u01, 215,40,movements,el-ex, rt, d,203229.284127875, 2.1707061316327123, -1.0141935667177957, 2.116483101909682, 0.20823907852172852, -2.142256736755371, 3.660235643386841, 0.4360557198524475, 0.8490548133850098, 0.2982640266418457, 0.49132776260375977, 0.07164525985717773, 0.0563960075378418, -0.7849351830270392, 0.18168318202852524, 0.5743646458842734,0.14482147157812963,0.9378509521484375,0.9797210693359375,0.3184967041015625
20220118-1311,2022-01-18 13:11:49Z,u01, 216,40,movements,el-ex, rt, d,203229.309071875, 2.0376763235424176, -0.9404626396706719, 2.018690969665898, 0.5379744172096252, -2.065112829208374, 3.515789270401001, 0.526333749294281, 0.8078308701515198, 0.26529696583747864, 0.4055664539337158, 0.11680608987808228, 0.18474584817886353, -0.7690412579454857, 0.20303699629522654, 0.5754542331522408,0.1902737501212544,0.923126220703125,0.913818359375,0.448883056640625
20220118-1311,2022-01-18 13:11:49Z,u01, 217,40,movements,el-ex, rt, d,203229.334015875, 1.93640161606045, -0.8669151108970138, 1.9559314261641807, -0.19314329326152802, -2.1202571392059326, 3.1541574001312256, 0.6044076085090637, 0.7623360753059387, 0.23137684166431427, 0.48058390617370605, 0.283180832862854, 0.0827559232711792, -0.7530977194643742, 0.22030035426176786, 0.5743690769092846,0.23326335387898667,1.0577392578125,1.085235595703125,0.3313446044921875
20220118-1311,2022-01-18 13:11:49Z,u01, 218,40,movements,el-ex, rt, d,203229.358959875, 1.8716715861595827, -0.7901246626242971, 1.9389226971210143, -0.8203262090682983, -1.9844658374786377, 3.0400373935699463, 0.6721424460411072, 0.710440993309021, 0.20856279134750366, 0.3559338450431824, 0.219307541847229, 0.0786992609500885, -0.7418791174644452, 0.23215677621379283, 0.5652199269569194,0.2761252830034935,1.038970947265625,0.9394683837890625,0.28680419921875
20220118-1311,2022-01-18 13:11:49Z,u01, 219,40,movements,el-ex, rt, d,203229.38390387502, 1.8196030475096219, -0.7118603310931881, 1.9325713238784339, -0.35126519203186035, -1.8992130756378174, 3.004218816757202, 0.7338331937789917, 0.6532434225082397, 0.1864459067583084, 0.23760247230529785, 0.18989622592926025, 0.23462046682834625, -0.7303643413979283, 0.2445217364503633, 0.5533702689799163,0.31710959506972053,0.9734039306640625,0.8494415283203125,0.4021148681640625
20220118-1311,2022-01-18 13:11:49Z,u01, 220,40,movements,el-ex, rt, d,203229.40884779167, 1.7664095415287917, -0.6392754913638936, 1.9210709737168739, -0.3599066734313965, -1.812805414199829, 2.839545965194702, 0.7872229218482971, 0.5966141819953918, 0.15598587691783905, 0.24181455373764038, 0.4227491617202759, 0.13087938725948334, -0.7155026476322592, 0.25699980137428424, 0.5442931064943933,0.3546153678385238,1.0161590576171875,1.01983642578125,0.298614501953125
20220118-1311,2022-01-18 13:11:49Z,u01, 221,40,movements,el-ex, rt, d,203229.43379179167, 1.7242561603619275, -0.5694968301757577, 1.9252234887492872, -0.8403168320655823, -1.663932204246521, 2.591496467590332, 0.8322752118110657, 0.5392083525657654, 0.12873296439647675, 0.20175182819366455, 0.38135427236557007, 0.14627622067928314, -0.7024622393933274, 0.26629547890839855, 0.5319279821430093,0.39075068537256974,1.0727691650390625,0.929351806640625,0.268310546875
20220118-1311,2022-01-18 13:11:49Z,u01, 222,40,movements,el-ex, rt, d,203229.45873579168, 1.6926492787383087, -0.5059174154958849, 1.9386764148995637, -0.575673520565033, -1.4312233924865723, 2.2073025703430176, 0.8682444095611572, 0.4846101403236389, 0.10632491111755371, 0.09711825847625732, 0.43226000666618347, 0.26873624324798584, -0.6916391120487759, 0.27349185412880933, 0.5175993936662179,0.42299949949947724,0.9729461669921875,0.9150543212890625,0.3676300048828125
20220118-1311,2022-01-18 13:11:49Z,u01, 223,40,movements,el-ex, rt, d,203229.48367979168, 1.6600127843640997, -0.45708311460963014, 1.9398679591091976, -0.001153777353465557, -1.2391175031661987, 1.733018398284912, 0.8937748074531555, 0.44133254885673523, 0.07995166629552841, 0.030160129070281982, 0.5160343647003174, 0.21335279941558838, -0.6792988225482266, 0.2802301579512698, 0.5095221882497462,0.447673275576169,0.919464111328125,0.9686126708984375,0.3048553466796875
20220118-1311,2022-01-18 13:11:49Z,u01, 224,40,movements,el-ex, rt, d,203229.50862379168, 1.6269034802778037, -0.41905303422037427, 1.935799070943542, -0.06081121414899826, -1.2316232919692993, 1.3362191915512085, 0.9120373725891113, 0.40689560770988464, 0.051225584000349045, 0.013942360877990723, 0.47480303049087524, 0.26952946186065674, -0.6664835657451589, 0.28532866798411777, 0.5055238834212193,0.46779581646964447,0.9326629638671875,0.88385009765625,0.318389892578125
20220118-1311,2022-01-18 13:11:49Z,u01, 225,40,movements,el-ex, rt, d,203229.5335677917, 1.602232221139696, -0.3886249355599779, 1.946203661340066, -0.8038007020950317, -1.0226269960403442, 1.0447912216186523, 0.9249737858772278, 0.3789162337779999, 0.02908696047961712, -0.07775998115539551, 0.46846529841423035, 0.3947412967681885, -0.6580796791175478, 0.28543758675601144, 0.49886878860455786,0.48640156552972086,0.870269775390625,0.8633575439453125,0.4131011962890625
20220118-1311,2022-01-18 13:11:49Z,u01, 226,40,movements,el-ex, rt, d,203229.5585117917, 1.591966843828415, -0.3674994161706468, 1.973061149451339, -1.122154951095581, -0.5774015784263611, 0.5687688589096069, 0.9330196976661682, 0.3592829406261444, 0.01975546032190323, -0.13330644369125366, 0.4762578010559082, 0.42078113555908203, -0.6564935183379318, 0.2808807412684513, 0.48828783485645083,0.5016945179745755,0.8054656982421875,0.836944580078125,0.435394287109375
20220118-1311,2022-01-18 13:11:50Z,u01, 227,40,movements,el-ex, rt, d,203229.58345579167, 1.590935381873191, -0.3619286906918372, 1.9966244314672539, -0.6270394921302795, -0.13913653790950775, -0.1782778650522232, 0.9350261092185974, 0.35407862067222595, 0.018833087757229805, -0.15057170391082764, 0.4432235658168793, 0.3975182771682739, -0.6587599415717762, 0.274685062322325, 0.48103121643564606,0.5091095184732082,0.7754669189453125,0.779815673828125,0.4461212158203125
20220118-1311,2022-01-18 13:11:50Z,u01, 228,40,movements,el-ex, rt, d,203229.60839979167, 1.6000735259151817, -0.37334428897055244, 2.013706639030104, -0.6748292446136475, 0.35448363423347473, -0.7094075083732605, 0.9307138919830322, 0.3647313714027405, 0.02725648507475853, -0.08928310871124268, 0.5562127828598022, 0.44445371627807617, -0.6648771038797437, 0.2675194926208314, 0.47844492554952994,0.5074074682547806,0.8347930908203125,0.9228515625,0.460205078125
20220118-1311,2022-01-18 13:11:50Z,u01, 229,40,movements,el-ex, rt, d,203229.63334379168, 1.62254956631494, -0.39548944157106763, 2.035974433366862, -0.9914577007293701, 0.7682710289955139, -1.1262234449386597, 0.9215726852416992, 0.3852598965167999, 0.0477370023727417, -0.09643828868865967, 0.45099806785583496, 0.43927788734436035, -0.6761580879977416, 0.2582222692459779, 0.47575602627860664,0.49978779004967416,0.8302764892578125,0.8447113037109375,0.50262451171875
20220118-1311,2022-01-18 13:11:50Z,u01, 230,40,movements,el-ex, rt, d,203229.65828779168, 1.6604583003760172, -0.42624633551518926, 2.0707200088808047, -1.230570673942566, 1.1456420421600342, -1.5109093189239502, 0.906866729259491, 0.41345593333244324, 0.08153005689382553, -0.07878744602203369, 0.3796653747558594, 0.39005815982818604, -0.693238680039945, 0.2453266430602474, 0.47072404815384083,0.4874976306860342,0.828399658203125,0.7939910888671875,0.4705657958984375
20220118-1311,2022-01-18 13:11:50Z,u01, 231,40,movements,el-ex, rt, d,203229.68323179169, 1.7078023243901643, -0.4656219732215045, 2.1025386175195346, -0.5463892817497253, 1.5751543045043945, -1.8108807802200317, 0.8851693868637085, 0.4489786624908447, 0.12203805148601532, -0.044486403465270996, 0.5172994136810303, 0.27964937686920166, -0.7119876318196993, 0.23257823776347275, 0.46837839383538804,0.4686177889832435,0.8224945068359375,0.9311981201171875,0.4243927001953125
20220118-1311,2022-01-18 13:11:50Z,u01, 232,40,movements,el-ex, rt, d,203229.7081757917, 1.7579915755141646, -0.5141385859839218, 2.118204309419218, -0.10269245505332947, 1.830985426902771, -2.203298807144165, 0.8555054068565369, 0.4917849898338318, 0.1620437651872635, 0.07644045352935791, 0.48605918884277344, 0.29240882396698, -0.7288142366558544, 0.22327492326382886, 0.4728159275150448,0.44206705270485347,0.9179534912109375,0.9813079833984375,0.44732666015625
20220118-1311,2022-01-18 13:11:50Z,u01, 233,40,movements,el-ex, rt, d,203229.73311979166, 1.8200296476441127, -0.5709094757008262, 2.1405419923494695, -0.42685067653656006, 2.2417523860931396, -2.614285707473755, 0.8154118061065674, 0.5403975248336792, 0.2075430303812027, 0.19291943311691284, 0.3460922837257385, 0.37309977412223816, -0.7475699850476692, 0.2119212832240504, 0.4776542644463481,0.4099693671303758,1.0081939697265625,0.891571044921875,0.5468902587890625
20220118-1311,2022-01-18 13:11:50Z,u01, 234,40,movements,el-ex, rt, d,203229.75806379167, 1.9033005537882646, -0.6342181944056038, 2.178561905007153, -0.3430308401584625, 2.6674067974090576, -2.8710525035858154, 0.7614145874977112, 0.5925479531288147, 0.26293572783470154, 0.25991731882095337, 0.3495450019836426, 0.3329963982105255, -0.7695958307861741, 0.19796495792965224, 0.48043285710137457,0.3711018494123011,1.01666259765625,0.9354400634765625,0.60333251953125
20220118-1311,2022-01-18 13:11:50Z,u01, 235,40,movements,el-ex, rt, d,203229.78300779167, 1.9945452272565407, -0.7008633275101646, 2.2142225070879995, 0.24180980026721954, 2.826758861541748, -2.949190139770508, 0.6966876983642578, 0.6448777318000793, 0.3142595589160919, 0.3187847137451172, 0.3513990640640259, 0.26073741912841797, -0.7889499346179221, 0.186246538380482, 0.4858491899268413,0.326834576187115,1.01983642578125,0.997467041015625,0.57525634765625
20220118-1311,2022-01-18 13:11:50Z,u01, 236,40,movements,el-ex, rt, d,203229.80795179168, 2.093136760472075, -0.7713829010225726, 2.253106318460304, 0.19238492846488953, 2.989494800567627, -3.125906229019165, 0.6213451027870178, 0.6971274018287659, 0.35769203305244446, 0.3776172399520874, 0.27525413036346436, 0.32829734683036804, -0.8051866616356145, 0.17470105090300075, 0.4933867824612555,0.27878922297952285,0.996826171875,0.989990234375,0.6647491455078125
20220118-1311,2022-01-18 13:11:50Z,u01, 237,40,movements,el-ex, rt, d,203229.83289479167, 2.2157245579924867, -0.8381789433910816, 2.3157944894295928, -0.06838750839233398, 3.2017362117767334, -3.2270495891571045, 0.5344810485839844, 0.7434263825416565, 0.4020538926124573, 0.5137062668800354, 0.24392402172088623, 0.288543701171875, -0.8215485135918128, 0.1615084529210677, 0.49718778058822327,0.2275464985413867,1.03826904296875,0.93499755859375,0.724365234375
20220118-1311,2022-01-18 13:11:50Z,u01, 238,40,movements,el-ex, rt, d,203229.85783879168, 2.358559623690147, -0.9009529806605112, 2.396386484198639, 0.23118139803409576, 3.285020589828491, -3.2719438076019287, 0.43797722458839417, 0.7839189171791077, 0.44005391001701355, 0.602946937084198, 0.2548842430114746, 0.10129755735397339, -0.8355049639661636, 0.1481836903789192, 0.4998904866410453,0.1734436151728826,1.0472259521484375,1.0330963134765625,0.557464599609375
20220118-1311,2022-01-18 13:11:50Z,u01, 239,40,movements,el-ex, rt, d,203229.88278279168, 2.517715810836459, -0.9600954952329777, 2.492505188062774, 0.37201377749443054, 3.2861685752868652, -3.325770378112793, 0.3349964916706085, 0.8192463517189026, 0.46541640162467957, 0.5214639902114868, 0.08480620384216309, 0.19551801681518555, -0.8452951328164127, 0.13484931803056105, 0.5033920641796629,0.11784779846417176,0.9098358154296875,0.922943115234375,0.59814453125
20220118-1311,2022-01-18 13:11:50Z,u01, 240,40,movements,el-ex, rt, d,203229.9077267917, 2.702563840231616, -1.009324170401562, 2.6177318290362046, 0.07623755186796188, 3.14742374420166, -3.4413013458251953, 0.22631622850894928, 0.8464722037315369, 0.48193955421447754, 0.6140005588531494, 0.15645742416381836, 0.16335463523864746, -0.8524567438709163, 0.11952941497376612, 0.5051706592361749,0.06190972536835898,0.83624267578125,0.99163818359375,0.65411376953125
20220118-1311,2022-01-18 13:11:50Z,u01, 241,40,movements,el-ex, rt, d,203229.9326707917, 2.9173053445470103, -1.0314730778958512, 2.7784814476635034, -0.5331151485443115, 3.0519485473632812, -3.482851505279541, 0.11422078311443329, 0.8580564260482788, 0.5006928443908691, 0.6839817762374878, 0.04819375276565552, 0.03939223289489746, -0.8602222488378652, 0.10180420036992827, 0.49960083260900023,0.007264319483917092,0.8178253173828125,0.935211181640625,0.580657958984375
20220118-1311,2022-01-18 13:11:50Z,u01, 242,40,movements,el-ex, rt, d,203229.95761479167, 3.1379294294944415, -1.0304016088508348, 2.9463958341396816, -0.06677469611167908, 3.042442560195923, -3.386237859725952, 0.0018846314633265138, 0.8575056791305542, 0.5144711136817932, 0.6631850004196167, 0.0172044038772583, -0.016210556030273438, -0.8661391021429896, 0.08389646945558382, 0.49051929644957826,-0.04642501573832236,0.6819000244140625,0.882049560546875,0.5002899169921875
20220118-1311,2022-01-18 13:11:50Z,u01, 243,40,movements,el-ex, rt, d,203229.98255879167, -2.92738872920036, -1.0359011580960593, 3.111808401829605, 1.1053335666656494, 3.0078020095825195, -3.3293826580047607, -0.10835743695497513, 0.8603220582008362, 0.49810048937797546, 0.5904131531715393, 0.07102841138839722, -0.026481956243515015, -0.862973240688823, 0.06578323772465883, 0.4908260992203636,-0.10019644354293564,0.5103607177734375,0.917724609375,0.4819793701171875
20220118-1311,2022-01-18 13:11:50Z,u01, 244,40,movements,el-ex, rt, d,203230.00750279168, -2.7072049915754404, -1.0268440367250233, -3.002472618048439, 0.006360664032399654, 2.890530824661255, -3.505457639694214, -0.2178017944097519, 0.8556699752807617, 0.46945878863334656, 0.6571328043937683, 0.005231022834777832, 0.18114560842514038, -0.8559033161078549, 0.0464640978915154, 0.4915080332226325,-0.1539173546770664,0.4344329833984375,0.8908538818359375,0.6278076171875
20220118-1311,2022-01-18 13:11:50Z,u01, 245,40,movements,el-ex, rt, d,203230.03244679168, -2.5388475562829633, -0.9613977355066949, -2.88833476137071, -1.9386059045791626, 2.864804744720459, -3.509061098098755, -0.3244823217391968, 0.8199924230575562, 0.4715118110179901, 0.687900960445404, 0.0662684440612793, 0.2748871147632599, -0.8572641771859689, 0.029223839312123412, 0.47126192692327024,-0.20531972034213292,0.3927459716796875,0.8057861328125,0.7125396728515625
20220118-1311,2022-01-18 13:11:50Z,u01, 246,40,movements,el-ex, rt, d,203230.05739079168, -2.412110274604175, -0.8741107849991087, -2.821490465379, -1.1154441833496094, 3.0189602375030518, -3.2727458477020264, -0.42766863107681274, 0.7669731974601746, 0.4783841371536255, 0.680216908454895, 0.1679936647415161, -0.05356419086456299, -0.8596460979570486, 0.014165253548603318, 0.44187940124190606,-0.25602820042969776,0.2723236083984375,0.91802978515625,0.4506988525390625
20220118-1311,2022-01-18 13:11:50Z,u01, 247,40,movements,el-ex, rt, d,203230.0823347917, -2.2799252248519335, -0.8102980742285905, -2.7447693203771615, 0.23031127452850342, 3.103107213973999, -3.2893874645233154, -0.523116946220398, 0.7244926691055298, 0.44884225726127625, 0.5794065594673157, 0.2827553153038025, -0.025273382663726807, -0.851123234797692, -0.0032194718301006287, 0.4267660604515234,-0.3056954596619392,0.106475830078125,1.0089569091796875,0.3773193359375
20220118-1311,2022-01-18 13:11:50Z,u01, 248,40,movements,el-ex, rt, d,203230.1072787917, -2.1528631625212484, -0.7445423787685381, -2.673763798793334, -0.49332761764526367, 3.108062744140625, -3.3624582290649414, -0.6142987608909607, 0.6776353716850281, 0.40428629517555237, 0.6159162521362305, 0.12290167808532715, 0.09636995196342468, -0.8376462529346351, -0.022178770024847305, 0.41390641417353913,-0.3557222995597701,0.01458740234375,0.825927734375,0.480712890625
20220118-1311,2022-01-18 13:11:50Z,u01, 249,40,movements,el-ex, rt, d,203230.13222279167, -2.05868309483519, -0.6610833672851848, -2.646940574229443, -1.4053292274475098, 3.014025926589966, -3.161041736602783, -0.697233259677887, 0.6139723658561707, 0.3700054883956909, 0.5219249725341797, -0.015278458595275879, 0.04750564694404602, -0.826854382991905, -0.03625695212776037, 0.3890095960091233,-0.4045601396175553,-0.14239501953125,0.6002655029296875,0.4603729248046875
20220118-1311,2022-01-18 13:11:50Z,u01, 250,40,movements,el-ex, rt, d,203230.15716679167, -1.9785304053373387, -0.5763836226408106, -2.639616401834834, -0.9773753881454468, 3.0463128089904785, -3.1332576274871826, -0.7697051763534546, 0.5449953675270081, 0.33246636390686035, 0.47534799575805664, 0.15347564220428467, -0.04389205574989319, -0.8148333980262361, -0.04774636543757882, 0.36085794519043785,-0.4511633058630697,-0.2873687744140625,0.678680419921875,0.2919921875
20220118-1311,2022-01-18 13:11:50Z,u01, 251,40,movements,el-ex, rt, d,203230.18211079168, -1.8908054960891976, -0.49874910972790604, -2.6208132709580085, 0.0390746034681797, 3.258918285369873, -3.0853941440582275, -0.8335986733436584, 0.4783273935317993, 0.276254266500473, 0.4850420355796814, 0.18843594193458557, -0.15755602717399597, -0.7963670299559451, -0.06266323947777297, 0.3393995878473575,-0.4966698154077469,-0.3256683349609375,0.7144317626953125,0.138458251953125
20220118-1311,2022-01-18 13:11:50Z,u01, 252,40,movements,el-ex, rt, d,203230.20705479168, -1.793601543146657, -0.43007757921756967, -2.583028687494741, 1.0177247524261475, 3.1173288822174072, -2.847046375274658, -0.8864659667015076, 0.4169413149356842, 0.20084373652935028, 0.482901394367218, -0.015680938959121704, -0.2443617284297943, -0.7704742041709947, -0.08240975304968068, 0.3283491108892605,-0.5401528246621567,-0.4019622802734375,0.4498443603515625,-0.0230560302734375
20220118-1311,2022-01-18 13:11:50Z,u01, 253,40,movements,el-ex, rt, d,203230.23199879169, -1.7095720069917617, -0.37539030190490547, -2.5424968989200534, 1.0030640363693237, 2.260058641433716, -1.8655695915222168, -0.921420156955719, 0.36663568019866943, 0.1286979615688324, 0.585970938205719, -0.8208288550376892, -0.5768027305603027, -0.7443171798598103, -0.10169028117445095, 0.3247925697530054,-0.5745962037387708,-0.3524627685546875,-0.1918792724609375,-0.3280487060546875
20220118-1311,2022-01-18 13:11:50Z,u01, 254,40,movements,el-ex, rt, d,203230.2569427917, -1.6613983326215382, -0.3460006029822462, -2.52366935534592, -0.013154314830899239, 1.0695935487747192, -0.6792975068092346, -0.9368780255317688, 0.3391381502151489, 0.08511605113744736, 0.6125525236129761, -1.341320276260376, -0.9401116371154785, -0.7282365107173983, -0.11058757128052399, 0.3230805099365745,-0.5941892667481732,-0.3176422119140625,-0.95849609375,-0.8199462890625
