SessionID,LoggingTime,UID,RecNo,Hertz,Activity,MoveType,Wrist,Side,TimeStamp,DMRoll,DMPitch,DMYaw,DMRotX,DMRotY,DMRotZ,DMGrvX,DMGrvY,DMGrvZ,DMUAccelX,DMUAccelY,DMUAccelZ,DMQuatX,DMQuatY,DMQuatW,DMQuatZ,AccelroX,AceelroY,AceelroZ
20220112-1511,2022-01-12 15:11:51Z,u01, 1,40,movements,el-ex, rt, d,97342.49601225, -0.9922916181445284, -0.2716170778142374, -0.14767033149761832, 0.07784295827150345, -0.017731357365846634, 0.0040776776149868965, -0.8065850734710693, 0.26828956604003906, -0.526727020740509, -0.11261975765228271, 0.05449491739273071, -0.10204178094863892, -0.15353524090266849, -0.4615879433751866, 0.8737068383239773,5.551115123125783e-17,-0.92401123046875,0.322052001953125,-0.6282501220703125
20220112-1511,2022-01-12 15:11:51Z,u01, 2,40,movements,el-ex, rt, d,97342.52095725, -0.993155955296236, -0.27063547684188705, -0.1464327437224929, 0.06295325607061386, -0.06361409276723862, -0.008663085289299488, -0.807260274887085, 0.2673438489437103, -0.5261731743812561, -0.10881650447845459, 0.04875728487968445, -0.08993083238601685, -0.15282523418491117, -0.46212320452443634, 0.8735482567723651,0.00037154923889620717,-0.91607666015625,0.31610107421875,-0.6161041259765625
20220112-1511,2022-01-12 15:11:51Z,u01, 3,40,movements,el-ex, rt, d,97342.54590225, -0.994683374311698, -0.26897237184347067, -0.14497815938286326, 0.0995674580335617, -0.09970498830080032, -0.035202816128730774, -0.808434784412384, 0.26574090123176575, -0.5251810550689697, -0.07807046175003052, 0.03493356704711914, -0.08222544193267822, -0.15176986640247972, -0.46300688546440694, 0.8732641166998594,0.0007241158680444393,-0.894317626953125,0.302154541015625,-0.609649658203125
20220112-1511,2022-01-12 15:11:52Z,u01, 4,40,movements,el-ex, rt, d,97342.57084625, -0.9974432919744143, -0.26644037241064006, -0.14378929249711125, 0.10785165429115295, -0.13708877563476562, -0.07488837838172913, -0.8104437589645386, 0.2632990777492523, -0.5233111381530762, -0.0705377459526062, 0.04701891541481018, -0.0688212513923645, -0.15039956739809812, -0.4644614166230838, 0.8727284243719698,0.0008430556357597041,-0.8809814453125,0.3103179931640625,-0.592132568359375
20220112-1511,2022-01-12 15:11:52Z,u01, 5,40,movements,el-ex, rt, d,97342.62073625, -1.0040561870154043, -0.2604368032099875, -0.14155995412570543, 0.06718551367521286, -0.15487802028656006, -0.07989179342985153, -0.8152055740356445, 0.25750264525413513, -0.5187796950340271, -0.03226768970489502, 0.043538033962249756, -0.03105539083480835, -0.14728628238526406, -0.46788557423235466, 0.8714293857177348,0.0008586078254450014,-0.8625030517578125,0.2898712158203125,-0.554595947265625
20220112-1511,2022-01-12 15:11:52Z,u01, 6,40,movements,el-ex, rt, d,97342.59579125, -1.0005059150685127, -0.2631284985457535, -0.14219057315128392, 0.10409676283597946, -0.14161476492881775, -0.08019332587718964, -0.812772274017334, 0.26010262966156006, -0.5212945342063904, -0.044451355934143066, 0.02757132053375244, -0.02809804677963257, -0.14859648935468542, -0.4661242520095705, 0.8721504654734278,0.0009714617867391806,-0.84747314453125,0.3010406494140625,-0.549835205078125
20220112-1511,2022-01-12 15:11:52Z,u01, 7,40,movements,el-ex, rt, d,97342.67062525, -1.0102861777244982, -0.25663282870540427, -0.13976649612074687, 0.05439591780304909, -0.10303327441215515, -0.04195299744606018, -0.819245457649231, 0.2538250982761383, -0.5142079591751099, 0.013443946838378906, 0.017186254262924194, 0.0043967366218566895, -0.145222597578469, -0.4709632953819976, 0.8701164680175622,0.0011720156617843758,-0.944366455078125,0.3147430419921875,-0.4994659423828125
20220112-1511,2022-01-12 15:11:52Z,u01, 8,40,movements,el-ex, rt, d,97342.64568125001, -1.0074471467977526, -0.2581700633360272, -0.1407100141072882, 0.08836304396390915, -0.3335016965866089, 0.07675760984420776, -0.8174514174461365, 0.2553116977214813, -0.5163227319717407, 0.1353377103805542, 0.011854439973831177, -0.04156893491744995, -0.14610828085051814, -0.46956468920295735, 0.8707241582648941,0.0009281684607957419,-0.8058013916015625,0.2710113525390625,-0.5098114013671875
20220112-1511,2022-01-12 15:11:52Z,u01, 9,40,movements,el-ex, rt, d,97342.69557025001, -1.012501864537375, -0.2553111096204482, -0.1392374687425055, 0.038782041519880295, -0.10166554152965546, -0.054363396018743515, -0.8206665515899658, 0.2525464594364166, -0.5125687718391418, -0.0054749250411987305, 0.003984332084655762, -0.016666948795318604, -0.1445273664754429, -0.4720460314916992, 0.8696452924318185,0.0012407243561332604,-0.8271331787109375,0.2586517333984375,-0.5184783935546875
20220112-1511,2022-01-12 15:11:52Z,u01, 10,40,movements,el-ex, rt, d,97342.72051525001, -1.015231583611994, -0.25380358087891874, -0.13918074479307066, 0.07498438656330109, -0.1221148893237114, -0.0671023577451706, -0.8223852515220642, 0.251087486743927, -0.5105269551277161, -0.005968749523162842, 0.0026509463787078857, -0.039125025272369385, -0.14386353240239314, -0.47332844913770783, 0.8690583853699989,0.0010942498194015937,-0.8283538818359375,0.2537384033203125,-0.549652099609375
20220112-1511,2022-01-12 15:11:52Z,u01, 11,40,movements,el-ex, rt, d,97342.77040525, -1.0215360253669092, -0.2501049950424958, -0.13791841972061444, 0.028833437711000443, -0.21137411892414093, -0.08709357678890228, -0.8263738751411438, 0.24750569462776184, -0.505813479423523, 0.0029027462005615234, 0.014243602752685547, -0.0149688720703125, -0.14197001724812944, -0.476379861482274, 0.867701273077456,0.0011866155277474033,-0.8207550048828125,0.2478179931640625,-0.5341339111328125
20220112-1511,2022-01-12 15:11:52Z,u01, 12,40,movements,el-ex, rt, d,97342.79534925001, -1.0271762546149523, -0.24754613137205655, -0.13841764672613951, 0.02800719067454338, -0.264620840549469, -0.11464637517929077, -0.8297528624534607, 0.245025634765625, -0.5014704465866089, 0.012293696403503418, 0.0022278130054473877, -0.029001176357269287, -0.14098792242929387, -0.47894383471307944, 0.8664494452636486,0.0007389369811666713,-0.8234710693359375,0.261749267578125,-0.520782470703125
20220112-1511,2022-01-12 15:11:52Z,u01, 13,40,movements,el-ex, rt, d,97342.74546025001, -1.016978125186474, -0.2519346930645459, -0.13796527194617064, 0.07065631449222565, -0.15704284608364105, -0.059639714658260345, -0.8236733078956604, 0.24927803874015808, -0.5093356966972351, 0.00423043966293335, -0.0007581263780593872, -0.021074891090393066, -0.14277055981495063, -0.4742875901179145, 0.8687153053486816,0.00129046416475892,-0.8164215087890625,0.258148193359375,-0.5414886474609375
20220112-1511,2022-01-12 15:11:52Z,u01, 14,40,movements,el-ex, rt, d,97342.84523925, -1.0369096807172944, -0.24368534232828232, -0.13947257567325605, -0.01991366222500801, -0.3262270987033844, -0.11057266592979431, -0.8354027271270752, 0.2412807196378708, -0.4938482344150543, 0.0013114213943481445, -0.009148746728897095, 0.005307674407958984, -0.13958559372922744, -0.4833133013418695, 0.86424782515073,7.888739352424068e-06,-0.8098297119140625,0.2318572998046875,-0.514007568359375
20220112-1511,2022-01-12 15:11:52Z,u01, 15,40,movements,el-ex, rt, d,97342.82029425, -1.0325466636882001, -0.24457957136710803, -0.13902798814588335, 0.016848713159561157, -0.3111422061920166, -0.1229252815246582, -0.8330545425415039, 0.24214842915534973, -0.49737757444381714, 0.023224711418151855, -0.010291099548339844, -0.016629815101623535, -0.13986140619146878, -0.4814041910652632, 0.8652681365526931,0.00011756569055065835,-0.8304290771484375,0.2292022705078125,-0.4935302734375
20220112-1511,2022-01-12 15:11:52Z,u01, 16,40,movements,el-ex, rt, d,97342.87018425, -1.041768742981587, -0.24363368829563045, -0.14052711681363433, -0.03941475972533226, -0.33024758100509644, -0.0973910242319107, -0.8378032445907593, 0.24123059213161469, -0.4897893965244293, 0.0076029300689697266, -0.011540025472640991, 0.016019433736801147, -0.13981902232014345, -0.48534105394634774, 0.8630728680718441,-0.00012096688780066644,-0.8302001953125,0.2296905517578125,-0.4737701416015625
20220112-1511,2022-01-12 15:11:52Z,u01, 17,40,movements,el-ex, rt, d,97342.89512825, -1.051070525992258, -0.2419967705172158, -0.14298344024848583, -0.06122957915067673, -0.34802350401878357, -0.09887080639600754, -0.8426644802093506, 0.2396416962146759, -0.4821707606315613, 0.024076104164123535, -0.03589104115962982, 0.0007866024971008301, -0.1397215092031275, -0.48927755423451014, 0.8608627362162481,-0.0009405613808302071,-0.8159332275390625,0.20599365234375,-0.4859466552734375
20220112-1511,2022-01-12 15:11:52Z,u01, 18,40,movements,el-ex, rt, d,97342.92007325, -1.0605104574413613, -0.2406492963002122, -0.14545307659471152, -0.060637958347797394, -0.3426916301250458, -0.08585114777088165, -0.8474594950675964, 0.23833325505256653, -0.4743519723415375, 0.012651026248931885, -0.02730417251586914, 0.029054880142211914, -0.13976097894778966, -0.49324525473312003, 0.8585879697705529,-0.001683673476613301,-0.834808349609375,0.211029052734375,-0.4452972412109375
20220112-1511,2022-01-12 15:11:52Z,u01, 19,40,movements,el-ex, rt, d,97342.94501825, -1.069890090284153, -0.23955305634977325, -0.148300485051609, -0.09610896557569504, -0.34042543172836304, -0.08913209289312363, -0.8521000742912292, 0.23726846277713776, -0.46650755405426025, -0.00046962499618530273, -0.025537461042404175, 0.036499738693237305, -0.14001077142765211, -0.49713500091684665, 0.8562987298727568,-0.0025281081793090965,-0.853515625,0.2128143310546875,-0.4321441650390625
20220112-1511,2022-01-12 15:11:52Z,u01, 20,40,movements,el-ex, rt, d,97342.96996325001, -1.0796235364706448, -0.2386078003052807, -0.1517725426889927, -0.09246502816677094, -0.3517714738845825, -0.09671371430158615, -0.8567977547645569, 0.23635010421276093, -0.4582972824573517, 0.016496121883392334, -0.037558555603027344, 0.015517890453338623, -0.14049229714344816, -0.5011120347863058, 0.8538945987897021,-0.003573180331081005,-0.840301513671875,0.19879150390625,-0.442779541015625
20220112-1511,2022-01-12 15:11:52Z,u01, 21,40,movements,el-ex, rt, d,97342.99490825001, -1.0892299397163796, -0.23718350128911325, -0.15485315518059634, -0.07700271904468536, -0.3396383821964264, -0.09509317576885223, -0.8614581823348999, 0.23496592044830322, -0.45020097494125366, 0.03176140785217285, -0.032741159200668335, 0.03429228067398071, -0.14068623315246012, -0.5050810826846941, 0.8515160305287248,-0.004580700687060346,-0.8301849365234375,0.1993255615234375,-0.4202728271484375
20220112-1511,2022-01-12 15:11:52Z,u01, 22,40,movements,el-ex, rt, d,97343.01985225, -1.098204952125179, -0.2359539373128819, -0.15809447454548245, -0.11698681861162186, -0.309268057346344, -0.10037010163068771, -0.8657205104827881, 0.23377059400081635, -0.44258248805999756, 0.03158348798751831, -0.014456018805503845, 0.04344329237937927, -0.14101381804497598, -0.5087473402007143, 0.8492698692760308,-0.005648163669987549,-0.834136962890625,0.2193145751953125,-0.399139404296875
20220112-1511,2022-01-12 15:11:52Z,u01, 23,40,movements,el-ex, rt, d,97343.04479725001, -1.1072931193341458, -0.23519525860693644, -0.16263751605202093, -0.152914896607399, -0.2891886830329895, -0.09739968180656433, -0.8698654174804688, 0.23303286731243134, -0.434775710105896, -0.0031663179397583008, -0.007218003273010254, 0.05179548263549805, -0.14188457038273952, -0.5123289184212757, 0.8469575039961618,-0.0071316785399660465,-0.8643341064453125,0.2288970947265625,-0.3963470458984375
20220112-1511,2022-01-12 15:11:52Z,u01, 24,40,movements,el-ex, rt, d,97343.06974225001, -1.1151360460712558, -0.23424638834161698, -0.16716684709117882, -0.13541878759860992, -0.22965040802955627, -0.12350492179393768, -0.8734466433525085, 0.23211002349853516, -0.42803719639778137, 0.019427478313446045, -0.015480980277061462, 0.0518929660320282, -0.14268289107468443, -0.5153862548019801, 0.8449509862635729,-0.00874109240607096,-0.8540191650390625,0.2166290283203125,-0.3761444091796875
20220112-1511,2022-01-12 15:11:52Z,u01, 25,40,movements,el-ex, rt, d,97343.09468725, -1.1219969021247893, -0.2323833780705302, -0.17156993935297518, -0.11354710906744003, -0.20492789149284363, -0.14033836126327515, -0.8767508864402771, 0.2302974909543991, -0.42222148180007935, 0.12705600261688232, -0.04195822775363922, 0.02402833104133606, -0.14307716047782706, -0.5180908980637107, 0.8432071638180691,-0.010606135398430527,-0.76470947265625,0.1895599365234375,-0.385101318359375
20220112-1511,2022-01-12 15:11:52Z,u01, 26,40,movements,el-ex, rt, d,97343.11963125001, -1.129200835967595, -0.22990235555981742, -0.17556928603060476, -0.10002844035625458, -0.2518070936203003, -0.13966365158557892, -0.8802836537361145, 0.22788244485855103, -0.4161374568939209, 0.14871615171432495, -0.017311155796051025, -0.01956188678741455, -0.14312594689470576, -0.5210050196253191, 0.8413763013492755,-0.012440485047175931,-0.7315673828125,0.2105712890625,-0.435699462890625
20220112-1511,2022-01-12 15:11:52Z,u01, 27,40,movements,el-ex, rt, d,97343.14457625001, -1.1379372628932192, -0.22770483877451606, -0.1797418949303669, -0.11726538091897964, -0.30943289399147034, -0.12393935024738312, -0.8843379616737366, 0.22574220597743988, -0.40864017605781555, 0.0554957389831543, 0.09234254062175751, 0.029489964246749878, -0.14336342737926422, -0.5245253455712159, 0.8391182882758964,-0.014160939998494493,-0.8095855712890625,0.3039093017578125,-0.392303466796875
20220112-1511,2022-01-12 15:11:52Z,u01, 28,40,movements,el-ex, rt, d,97343.16952125, -1.1470743002271775, -0.2262641395308193, -0.18420051033787677, -0.17039132118225098, -0.3233759105205536, -0.12138030678033829, -0.888330340385437, 0.22433845698833466, -0.40067633986473083, 0.023935139179229736, 0.10580070316791534, 0.05569055676460266, -0.14400954765112306, -0.528131687864332, 0.8367136532427756,-0.01576410819057139,-0.8643951416015625,0.33013916015625,-0.3449859619140625
20220112-1511,2022-01-12 15:11:52Z,u01, 29,40,movements,el-ex, rt, d,97343.19446625, -1.1562237785435066, -0.22510566557475606, -0.18960243581078848, -0.16657638549804688, -0.28313931822776794, -0.125985786318779, -0.8921964168548584, 0.22320936620235443, -0.39263635873794556, 0.08319056034088135, 0.02120596170425415, 0.05587500333786011, -0.1450399293323327, -0.5316439053494826, 0.8342696328536039,-0.017676732425258745,-0.824859619140625,0.259613037109375,-0.330963134765625
20220112-1511,2022-01-12 15:11:52Z,u01, 30,40,movements,el-ex, rt, d,97343.21941125, -1.1638493820963853, -0.2234032753510894, -0.19386618453586893, -0.07873107492923737, -0.24297592043876648, -0.13168974220752716, -0.8955122232437134, 0.2215496003627777, -0.385971337556839, 0.14113283157348633, -0.03191334009170532, 0.015106618404388428, -0.14554786286290547, -0.5346308592427736, 0.8322323669797212,-0.01936820880590784,-0.7543792724609375,0.18963623046875,-0.3708648681640625
20220112-1511,2022-01-12 15:11:52Z,u01, 31,40,movements,el-ex, rt, d,97343.24435525, -1.1701178182809926, -0.22076296930304082, -0.1962867833034637, -0.018857985734939575, -0.21359135210514069, -0.12918603420257568, -0.8984495401382446, 0.21897414326667786, -0.3805771470069885, 0.13352632522583008, -0.046916037797927856, 0.015098810195922852, -0.14517733767767232, -0.5372475837926867, 0.8305794962880461,-0.020650163335908855,-0.762054443359375,0.1688385009765625,-0.3681793212890625
20220112-1511,2022-01-12 15:11:52Z,u01, 32,40,movements,el-ex, rt, d,97343.26930079167, -1.1761370574514751, -0.2181195825634176, -0.19792441804673333, -0.013310488313436508, -0.2372433990240097, -0.11205338686704636, -0.9012550711631775, 0.21639414131641388, -0.37538349628448486, 0.12029498815536499, -0.03919383883476257, 0.03286963701248169, -0.14460097738525146, -0.5398136796493278, 0.8289896669565252,-0.021629026174177002,-0.7809600830078125,0.1772003173828125,-0.3425140380859375
20220112-1511,2022-01-12 15:11:52Z,u01, 33,40,movements,el-ex, rt, d,97343.29424579168, -1.1826074452631754, -0.21594374657349774, -0.1987058165995516, 0.013183802366256714, -0.27311331033706665, -0.07071614265441895, -0.9040988087654114, 0.21426935493946075, -0.36972156167030334, 0.1357119083404541, -0.060155585408210754, 0.04806646704673767, -0.14399517958091196, -0.5425906406534784, 0.8272681822926256,-0.022093921150332763,-0.7738189697265625,0.1554107666015625,-0.3243255615234375
20220112-1511,2022-01-12 15:11:52Z,u01, 34,40,movements,el-ex, rt, d,97343.31919079168, -1.1899779851136512, -0.2147271119907514, -0.19902163475966325, 0.0016800789162516594, -0.2985796630382538, -0.02423851564526558, -0.907040536403656, 0.21308080852031708, -0.36314448714256287, 0.1379517912864685, -0.05065101385116577, 0.05471876263618469, -0.14366704201806202, -0.5456991211950335, 0.8252797101288376,-0.022036112421960907,-0.7690887451171875,0.1624298095703125,-0.3084259033203125
20220112-1511,2022-01-12 15:11:52Z,u01, 35,40,movements,el-ex, rt, d,97343.34413479167, -1.1975472753277823, -0.21467990413763327, -0.19954586521252746, -0.055870600044727325, -0.2901257872581482, 0.0023932941257953644, -0.9097727537155151, 0.21303468942642212, -0.35627222061157227, 0.08645415306091309, -0.02121645212173462, 0.07622778415679932, -0.1438741021671945, -0.54878423570449, 0.8232037213305813,-0.021721379540798336,-0.8117218017578125,0.1865234375,-0.2833404541015625
20220112-1511,2022-01-12 15:11:52Z,u01, 36,40,movements,el-ex, rt, d,97343.36907979168, -1.204722105692184, -0.21552878560550218, -0.2014282324475428, -0.09595823287963867, -0.24270714819431305, 0.00849885679781437, -0.9121362566947937, 0.2138640135526657, -0.34967076778411865, 0.044048428535461426, -0.014767289161682129, 0.0973515510559082, -0.1448136835009408, -0.5515375018820987, 0.821196045446761,-0.021736363211830756,-0.8680877685546875,0.1990966796875,-0.2523193359375
20220112-1511,2022-01-12 15:11:52Z,u01, 37,40,movements,el-ex, rt, d,97343.39402479168, -1.2105767200264437, -0.2163686192627232, -0.20353023998170855, -0.06868302822113037, -0.19287002086639404, 0.009748744778335094, -0.9139994382858276, 0.21468433737754822, -0.34426116943359375, 0.04083043336868286, -0.024559810757637024, 0.05817428231239319, -0.14579771536479952, -0.5537259661347949, 0.8195422626509447,-0.021933631237462115,-0.8749847412109375,0.1924285888671875,-0.2774200439453125
20220112-1511,2022-01-12 15:11:52Z,u01, 38,40,movements,el-ex, rt, d,97343.41896979167, -1.2152214778307822, -0.2169417460828082, -0.20461601145338257, -0.028455354273319244, -0.16116568446159363, 0.006229044869542122, -0.9154731035232544, 0.21524406969547272, -0.339969277381897, 0.04105287790298462, -0.011829152703285217, 0.02823236584663391, -0.14638074071325238, -0.5555070105308226, 0.8182335925379767,-0.021874803781568586,-0.874420166015625,0.2034149169921875,-0.311737060546875
20220112-1511,2022-01-12 15:11:52Z,u01, 39,40,movements,el-ex, rt, d,97343.44391479167, -1.2194052388620829, -0.21742229709882602, -0.2054195834511623, -0.04585261642932892, -0.14575164020061493, 0.006307542324066162, -0.9167901873588562, 0.21571332216262817, -0.3361005485057831, 0.0024682283401489258, 0.010330364108085632, 0.05248561501502991, -0.14684331755019936, -0.5571236595298961, 0.8170537543775767,-0.02175858110040574,-0.908172607421875,0.2249755859375,-0.287017822265625
20220112-1511,2022-01-12 15:11:52Z,u01, 40,40,movements,el-ex, rt, d,97343.46885879168, -1.2234900667044033, -0.21788725506693093, -0.20634807170394806, -0.03344864398241043, -0.1461246758699417, -0.004172729328274727, -0.9180610775947571, 0.21616731584072113, -0.33231866359710693, -0.01391535997390747, 0.010166347026824951, 0.04217296838760376, -0.14733353543633065, -0.5586890892491557, 0.815897299688839,-0.02170326280755086,-0.931976318359375,0.2263336181640625,-0.2901458740234375
20220112-1511,2022-01-12 15:11:52Z,u01, 41,40,movements,el-ex, rt, d,97343.49380379167, -1.2272734863309234, -0.217720563536309, -0.20725295071758834, -0.024591771885752678, -0.13658151030540466, -0.022589020431041718, -0.9193457365036011, 0.21600456535816193, -0.328855037689209, -0.012249290943145752, -0.023972630500793457, 0.014539331197738647, -0.14756094666299865, -0.5601769858139654, 0.8148316468764445,-0.02184139758794118,-0.93328857421875,0.1943817138671875,-0.3099212646484375
20220112-1511,2022-01-12 15:11:52Z,u01, 42,40,movements,el-ex, rt, d,97343.51874879167, -1.2311426134885466, -0.2174929313377909, -0.2077871523400926, 0.0015182923525571823, -0.13061383366584778, -0.02556610107421875, -0.9206575751304626, 0.2157822996377945, -0.3253118693828583, -0.010159194469451904, -0.0276871919631958, 0.009653449058532715, -0.14766182947544046, -0.5617295159540815, 0.8137438752040592,-0.021839266119444367,-0.930816650390625,0.1880950927734375,-0.3156585693359375
20220112-1511,2022-01-12 15:11:52Z,u01, 43,40,movements,el-ex, rt, d,97343.54369379167, -1.2359246594304298, -0.21768122801564677, -0.20803402492085277, 0.023834384977817535, -0.10448049753904343, -0.02978028729557991, -0.922164261341095, 0.2159661501646042, -0.3208921551704407, -0.022049665451049805, -0.016793176531791687, 0.017639189958572388, -0.14785846456064228, -0.56364154630924, 0.8123930727030806,-0.02153161889170091,-0.9404449462890625,0.19781494140625,-0.30767822265625
20220112-1511,2022-01-12 15:11:53Z,u01, 44,40,movements,el-ex, rt, d,97343.56863779167, -1.2394040865854605, -0.21597358826152552, -0.20798377918761454, 0.02728903479874134, -0.0816177949309349, -0.03506506606936455, -0.9236226677894592, 0.21429850161075592, -0.31780117750167847, -0.025794565677642822, -0.018879175186157227, 0.020773768424987793, -0.14719982304955137, -0.565182821834096, 0.8114355156595595,-0.021752102068641477,-0.9494171142578125,0.1954193115234375,-0.297027587890625
20220112-1511,2022-01-12 15:11:53Z,u01, 45,40,movements,el-ex, rt, d,97343.59358279167, -1.241318996070247, -0.2122916834053379, -0.20737026485350663, 0.04228050261735916, -0.06345583498477936, -0.03285703808069229, -0.9249697923660278, 0.21070069074630737, -0.31628507375717163, -0.014620780944824219, -0.021812111139297485, 0.024445652961730957, -0.1455777761921337, -0.5662725246826796, 0.81094956043936,-0.02243776486794563,-0.939971923828125,0.189788818359375,-0.2926483154296875
20220112-1511,2022-01-12 15:11:53Z,u01, 46,40,movements,el-ex, rt, d,97343.61852779167, -1.242551307802982, -0.20989920150908145, -0.20652120357928452, 0.06607970595359802, -0.032394059002399445, -0.03055633418262005, -0.9258333444595337, 0.20836131274700165, -0.31530657410621643, 0.001776278018951416, -0.026613876223564148, 0.030165821313858032, -0.144396371500854, -0.5670065202151428, 0.8106404391920616,-0.022703232112424865,-0.9240570068359375,0.1817474365234375,-0.2851409912109375
20220112-1511,2022-01-12 15:11:53Z,u01, 47,40,movements,el-ex, rt, d,97343.64347279168, -1.2442405345418752, -0.20763944299781414, -0.2053795210864535, 0.06865888088941574, 0.0036771930754184723, -0.02004477009177208, -0.9268083572387695, 0.206150621175766, -0.3138924539089203, 0.02164161205291748, -0.030766069889068604, 0.04806923866271973, -0.1431900510294471, -0.5679351879337852, 0.810202131942207,-0.022780016373792344,-0.9081878662109375,0.17547607421875,-0.26849365234375
20220112-1511,2022-01-12 15:11:53Z,u01, 48,40,movements,el-ex, rt, d,97343.66841779168, -1.2444472580543111, -0.2061545812733837, -0.20419591734569842, 0.0532291904091835, 0.04580174386501312, 0.006495494395494461, -0.9271619915962219, 0.20469743013381958, -0.31379860639572144, 0.02326178550720215, -0.03430253267288208, 0.06152522563934326, -0.14226385784822648, -0.5682091968245582, 0.8101747272782869,-0.022720272008371234,-0.903900146484375,0.1703948974609375,-0.2522735595703125
20220112-1511,2022-01-12 15:11:53Z,u01, 49,40,movements,el-ex, rt, d,97343.69336179167, -1.2435685927751654, -0.20543390926100863, -0.20334511262235191, 0.03067108616232872, 0.10513763874769211, 0.039955317974090576, -0.9270253777503967, 0.20399196445941925, -0.3146604895591736, 0.03861284255981445, -0.05299095809459686, 0.0653778612613678, -0.14172462668426525, -0.5679646853246985, 0.8104426644899039,-0.02264877065091392,-0.8924560546875,0.154510498046875,-0.2490234375
20220112-1511,2022-01-12 15:11:53Z,u01, 50,40,movements,el-ex, rt, d,97343.71830679168, -1.240306754645597, -0.2061135555049916, -0.2023673336027383, 0.02741171047091484, 0.17769958078861237, 0.06649571657180786, -0.9258626699447632, 0.20465727150440216, -0.31763753294944763, 0.053319334983825684, -0.059790343046188354, 0.06434181332588196, -0.14168209193288142, -0.5666634078580574, 0.8113704970434944,-0.022284892707896742,-0.8725433349609375,0.144866943359375,-0.2532958984375
20220112-1511,2022-01-12 15:11:53Z,u01, 51,40,movements,el-ex, rt, d,97343.74325179167, -1.2353357278630317, -0.20756679255982183, -0.20124415776715537, 0.010312216356396675, 0.24242718517780304, 0.09423892945051193, -0.9239906072616577, 0.20607952773571014, -0.32213789224624634, 0.07660889625549316, -0.04439738392829895, 0.052713632583618164, -0.1418909785751694, -0.5646220056813739, 0.8127703861319315,-0.021757952789822788,-0.8491058349609375,0.1589508056640625,-0.271209716796875
20220112-1511,2022-01-12 15:11:53Z,u01, 52,40,movements,el-ex, rt, d,97343.76819679167, -1.228914546805693, -0.209507910485348, -0.20032974329106157, 0.015809213742613792, 0.27594831585884094, 0.09338532388210297, -0.9215244054794312, 0.20797859132289886, -0.3279295563697815, 0.0883944034576416, -0.03930792212486267, 0.05768132209777832, -0.142342377951618, -0.5619376039034998, 0.8145624802676792,-0.02127898616228152,-0.8331298828125,0.168670654296875,-0.2702484130859375
20220112-1511,2022-01-12 15:11:53Z,u01, 53,40,movements,el-ex, rt, d,97343.79314179167, -1.2219798074906596, -0.21126661213893705, -0.19924393801106396, 0.016861028969287872, 0.272391676902771, 0.07781514525413513, -0.9188829660415649, 0.20969851315021515, -0.3341866135597229, 0.10311752557754517, -0.03300173580646515, 0.050052911043167114, -0.142671636092527, -0.5590630532466331, 0.8164923620903356,-0.020822413546008778,-0.8187103271484375,0.1696319580078125,-0.278778076171875
20220112-1511,2022-01-12 15:11:53Z,u01, 54,40,movements,el-ex, rt, d,97343.81808579167, -1.2158085981530218, -0.21231252253996646, -0.1979757270134345, 0.049521103501319885, 0.1942577362060547, 0.03885522857308388, -0.9165970683097839, 0.21072106063365936, -0.3397744297981262, 0.12138515710830688, -0.002514868974685669, -0.002235889434814453, -0.1426754153202866, -0.5565577284261446, 0.8182111205529669,-0.020443668965594686,-0.7952117919921875,0.2082061767578125,-0.342010498046875
20220112-1511,2022-01-12 15:11:53Z,u01, 55,40,movements,el-ex, rt, d,97343.84303079167, -1.2117693837518873, -0.2123856935951677, -0.19606972035363382, 0.07961655408143997, 0.11505744606256485, 0.029514994472265244, -0.9152026176452637, 0.21079258620738983, -0.3434685170650482, 0.09247922897338867, 0.013084381818771362, 0.013848334550857544, -0.14213450800402674, -0.555034702420023, 0.8193515715295872,-0.019929995739917827,-0.8143310546875,0.2246856689453125,-0.3435211181640625
20220112-1511,2022-01-12 15:11:53Z,u01, 56,40,movements,el-ex, rt, d,97343.86797579167, -1.2087721258571056, -0.21248058769224906, -0.19410118901315346, 0.052409037947654724, 0.09791281819343567, 0.03385834023356438, -0.9141504168510437, 0.21088534593582153, -0.3462030291557312, 0.08117300271987915, 0.010641783475875854, 0.04983174800872803, -0.14159766895020903, -0.5539391553899404, 0.8202004574200665,-0.019308617226915015,-0.832977294921875,0.221527099609375,-0.2963714599609375
20220112-1511,2022-01-12 15:11:53Z,u01, 57,40,movements,el-ex, rt, d,97343.89292079167, -1.2056375075135861, -0.21307359469575557, -0.19284199200208246, 0.03329945728182793, 0.13483686745166779, 0.04978497698903084, -0.9129436612129211, 0.211464986205101, -0.3490220904350281, 0.07882189750671387, -0.009575918316841125, 0.029503196477890015, -0.14145928095571528, -0.5527008526469398, 0.8210699569830296,-0.018844688108997643,-0.8309478759765625,0.2065277099609375,-0.3177032470703125
20220112-1511,2022-01-12 15:11:53Z,u01, 58,40,movements,el-ex, rt, d,97343.91786479167, -1.2007578777088503, -0.21423554905784428, -0.19104236285982185, 0.06411755830049515, 0.22956764698028564, 0.08661356568336487, -0.91100013256073, 0.21260051429271698, -0.3533836901187897, 0.04393458366394043, -0.029800206422805786, 0.03456670045852661, -0.14138841511082417, -0.5507426543097046, 0.8224133440069331,-0.018120008396041054,-0.8670654296875,0.18280029296875,-0.318817138671875
20220112-1511,2022-01-12 15:11:53Z,u01, 59,40,movements,el-ex, rt, d,97343.94280979167, -1.1933414883917919, -0.21617326828590241, -0.18852317160225912, 0.05760838836431503, 0.319240540266037, 0.1161232516169548, -0.90796959400177, 0.2144935429096222, -0.35997772216796875, 0.010828971862792969, -0.021942853927612305, 0.055397212505340576, -0.1414180470428792, -0.5477335738676377, 0.8244380350102961,-0.01705874709439892,-0.897674560546875,0.19281005859375,-0.3046722412109375
20220112-1511,2022-01-12 15:11:53Z,u01, 60,40,movements,el-ex, rt, d,97343.96775479167, -1.1841164682083036, -0.2185561612256824, -0.1863035104681432, 0.03488466888666153, 0.3806913197040558, 0.11741002649068832, -0.9041341543197632, 0.2168203592300415, -0.36814451217651367, 0.009373962879180908, -0.037102311849594116, 0.05749094486236572, -0.14170597374009727, -0.5439183459604081, 0.8269294210517564,-0.016124957224068592,-0.8947601318359375,0.179718017578125,-0.3106536865234375
20220112-1511,2022-01-12 15:11:53Z,u01, 61,40,movements,el-ex, rt, d,97343.99269979168, -1.1741536785332056, -0.22094138554407958, -0.1841516701174378, 0.049469273537397385, 0.3874894380569458, 0.12732884287834167, -0.8999419808387756, 0.21914821863174438, -0.37693288922309875, 0.051660120487213135, -0.06363064050674438, 0.04476451873779297, -0.14201913820402606, -0.5397815455155263, 0.8295981593849164,-0.01527415066499671,-0.8558807373046875,0.1557464599609375,-0.33282470703125
20220112-1511,2022-01-12 15:11:53Z,u01, 62,40,movements,el-ex, rt, d,97344.01764379167, -1.1640389669029794, -0.2235043647432254, -0.1813799914885446, 0.06842821836471558, 0.3748522698879242, 0.15053702890872955, -0.8955647349357605, 0.221648171544075, -0.38579264283180237, 0.06373178958892822, -0.04382224380970001, 0.061619848012924194, -0.14225015549533906, -0.535601126912074, 0.8322840270275362,-0.014130746797103022,-0.8318328857421875,0.177825927734375,-0.3241729736328125
20220112-1511,2022-01-12 15:11:53Z,u01, 63,40,movements,el-ex, rt, d,97344.04258879168, -1.1546518922895344, -0.22664824616848886, -0.1787148822266208, 0.007928621023893356, 0.3261379301548004, 0.16619127988815308, -0.8912620544433594, 0.22471275925636292, -0.393898606300354, 0.07088851928710938, 0.011066049337387085, 0.05046921968460083, -0.1427686574723479, -0.5316651245111746, 0.834736392138889,-0.01282351283844485,-0.8212432861328125,0.228240966796875,-0.33599853515625
20220112-1511,2022-01-12 15:11:53Z,u01, 64,40,movements,el-ex, rt, d,97344.06753379168, -1.146774065888413, -0.23062245283680718, -0.1772599356729579, -0.0338456928730011, 0.2907102406024933, 0.1727571040391922, -0.8873103857040405, 0.22858354449272156, -0.4005369246006012, 0.04417067766189575, 0.0016868561506271362, 0.04987487196922302, -0.1439736381205128, -0.528207466117383, 0.8367387316521584,-0.011693414762146082,-0.8431396484375,0.2302703857421875,-0.3506622314453125
20220112-1511,2022-01-12 15:11:53Z,u01, 65,40,movements,el-ex, rt, d,97344.09247879167, -1.1391475807741003, -0.23512274030071442, -0.176893762547935, -0.08626998215913773, 0.3180071711540222, 0.16908307373523712, -0.8832866549491882, 0.23296235501766205, -0.40685778856277466, 0.02067667245864868, -0.028479278087615967, 0.08739995956420898, -0.14569414744443646, -0.5247326161993658, 0.8386362749873838,-0.010868815266560028,-0.86590576171875,0.2015228271484375,-0.3197174072265625
20220112-1511,2022-01-12 15:11:53Z,u01, 66,40,movements,el-ex, rt, d,97344.11742379167, -1.1310886124988329, -0.23986938034059496, -0.1771984034687799, -0.09972560405731201, 0.3342505991458893, 0.17050039768218994, -0.8789685964584351, 0.23757575452327728, -0.4134874939918518, 0.03683602809906006, -0.026363611221313477, 0.04099017381668091, -0.14769712324682455, -0.5210007762744334, 0.8406173569604792,-0.010304957951632387,-0.842132568359375,0.211212158203125,-0.37249755859375
20220112-1511,2022-01-12 15:11:53Z,u01, 67,40,movements,el-ex, rt, d,97344.14236779168, -1.1227161851544982, -0.24497334716727842, -0.1776838881097889, -0.11072096228599548, 0.3444681167602539, 0.18742193281650543, -0.8743718266487122, 0.2425304651260376, -0.42030125856399536, 0.022549748420715332, -0.00694999098777771, 0.012800216674804688, -0.1498997375216952, -0.517087453382232, 0.8426479382721949,-0.0097613485685894,-0.84765625,0.2305908203125,-0.4019927978515625
20220112-1511,2022-01-12 15:11:53Z,u01, 68,40,movements,el-ex, rt, d,97344.16731279167, -1.11472493123768, -0.2504882437413274, -0.17912918479374737, -0.16276821494102478, 0.3180851936340332, 0.1629207879304886, -0.8697710633277893, 0.24787700176239014, -0.42667949199676514, 0.0018358230590820312, 0.018083736300468445, -0.017732590436935425, -0.15252751005690596, -0.5132208268448276, 0.8445409809983622,-0.009503190694888974,-0.8679351806640625,0.265960693359375,-0.4444122314453125
20220112-1511,2022-01-12 15:11:53Z,u01, 69,40,movements,el-ex, rt, d,97344.19225779167, -1.1070074695951437, -0.2553495276858944, -0.18038149639088735, -0.09666670113801956, 0.32863157987594604, 0.14570291340351105, -0.8653643727302551, 0.2525836229324341, -0.43283501267433167, -0.029411137104034424, 0.018488794565200806, -0.0026049017906188965, -0.1548373335619298, -0.5095173216835238, 0.8463630901229007,-0.00933588463361601,-0.89886474609375,0.27325439453125,-0.4364013671875
20220112-1511,2022-01-12 15:11:53Z,u01, 70,40,movements,el-ex, rt, d,97344.21720279167, -1.099103435974994, -0.2593649820624861, -0.18107129206773634, -0.0991940051317215, 0.31049230694770813, 0.1198096051812172, -0.8610058426856995, 0.2564668357372284, -0.4391968548297882, 0.002622544765472412, 0.036379843950271606, -0.030666887760162354, -0.15665262846162992, -0.5058275619110083, 0.8482418262075649,-0.009184748779644814,-0.8583831787109375,0.2928466796875,-0.4698638916015625
20220112-1511,2022-01-12 15:11:53Z,u01, 71,40,movements,el-ex, rt, d,97344.24214779168, -1.0918748253965522, -0.26278765376012864, -0.18175844760059165, -0.05539935082197189, 0.2870185077190399, 0.1075679212808609, -0.8570245504379272, 0.25977352261543274, -0.44500210881233215, 0.028655290603637695, 0.049644261598587036, -0.07011920213699341, -0.15822478484640828, -0.5024578244386793, 0.8499514890718048,-0.009148302959619492,-0.8274993896484375,0.314208984375,-0.5213775634765625
20220112-1511,2022-01-12 15:11:53Z,u01, 72,40,movements,el-ex, rt, d,97344.26709179167, -1.0845886877824702, -0.26558369974382406, -0.18090257384896472, -0.0021572033874690533, 0.2659594714641571, 0.12268342077732086, -0.8531138896942139, 0.262472540140152, -0.45089343190193176, 0.019449889659881592, 0.026376307010650635, -0.04539850354194641, -0.15915028409429863, -0.4992238636564483, 0.8516878812344708,-0.00863359045681339,-0.8336639404296875,0.288848876953125,-0.4962921142578125
20220112-1511,2022-01-12 15:11:53Z,u01, 73,40,movements,el-ex, rt, d,97344.292036125, -1.0776114575983409, -0.2682210274455319, -0.17853470402885646, 0.06519977003335953, 0.24981732666492462, 0.14834809303283691, -0.8493345379829407, 0.26501649618148804, -0.45650550723075867, 0.014358222484588623, 0.04243290424346924, -0.052008748054504395, -0.15964083410700788, -0.49624797767768236, 0.8533444073679571,-0.0074969901426941155,-0.8366546630859375,0.3023223876953125,-0.510589599609375
20220112-1511,2022-01-12 15:11:53Z,u01, 74,40,movements,el-ex, rt, d,97344.31698112501, -1.0701129089772374, -0.2710283835250166, -0.17547035958425303, 0.0321572944521904, 0.29352492094039917, 0.15822289884090424, -0.8452315926551819, 0.2677224278450012, -0.46250244975090027, 0.03711062669754028, 0.059670209884643555, -0.03766530752182007, -0.16003949194514822, -0.4930883691615382, 0.8551109073386787,-0.006064439080893325,-0.8081207275390625,0.327392578125,-0.5001678466796875
20220112-1511,2022-01-12 15:11:53Z,u01, 75,40,movements,el-ex, rt, d,97344.34192612501, -1.0613043998135203, -0.2740222252058911, -0.17270530039323528, 0.05120135843753815, 0.35157716274261475, 0.1567700207233429, -0.8404213786125183, 0.27060577273368835, -0.46953657269477844, 0.04412609338760376, 0.03641635179519653, -0.01334291696548462, -0.1606000395836541, -0.4893253906138655, 0.8571727875533228,-0.0048211222137961585,-0.7967681884765625,0.3127899169921875,-0.4866485595703125
20220112-1511,2022-01-12 15:11:53Z,u01, 76,40,movements,el-ex, rt, d,97344.366871125, -1.05112878151086, -0.27694926731937836, -0.1692615143558348, 0.048518624156713486, 0.3738747835159302, 0.18161651492118835, -0.8349090814590454, 0.2734224498271942, -0.47766855359077454, 0.045220792293548584, 0.016815006732940674, 0.009452760219573975, -0.16097914754170048, -0.48502724993844204, 0.8595480212126575,-0.0034185415249934903,-0.7896881103515625,0.2902374267578125,-0.4682159423828125
20220112-1511,2022-01-12 15:11:53Z,u01, 77,40,movements,el-ex, rt, d,97344.39181512501, -1.041510605118177, -0.28056603004814584, -0.1665189959815421, 0.004487883299589157, 0.32709255814552307, 0.16340334713459015, -0.8294171094894409, 0.2768995761871338, -0.48517411947250366, 0.023798704147338867, 0.05157637596130371, -0.013544023036956787, -0.1618389674593974, -0.4808545460015292, 0.8617323575374436,-0.0021047522966833876,-0.7991485595703125,0.32568359375,-0.49676513671875
20220112-1511,2022-01-12 15:11:53Z,u01, 78,40,movements,el-ex, rt, d,97344.41676012501, -1.0334852141008897, -0.28406851254365484, -0.1642262440455077, -0.008289696648716927, 0.2602251172065735, 0.1734919399023056, -0.8246585130691528, 0.28026342391967773, -0.49131542444229126, -0.0013608336448669434, 0.030191928148269653, -0.0033285915851593018, -0.16277421417690735, -0.477333052198425, 0.8635143440686774,-0.0008927947809251879,-0.826019287109375,0.310455322265625,-0.4946441650390625
20220112-1511,2022-01-12 15:11:53Z,u01, 79,40,movements,el-ex, rt, d,97344.441705125, -1.0271368464693709, -0.2880321365975336, -0.16206948159827833, -0.008532843552529812, 0.2035767287015915, 0.1803772747516632, -0.8205656409263611, 0.28406599164009094, -0.4959621727466583, -0.04448568820953369, 0.006934404373168945, 0.024084270000457764, -0.1639503746518144, -0.47448834282698904, 0.8648588370462857,0.0005038257458239159,-0.862396240234375,0.2877197265625,-0.4728851318359375
20220112-1511,2022-01-12 15:11:53Z,u01, 80,40,movements,el-ex, rt, d,97344.466650125, -1.021595674455419, -0.29145727141715894, -0.15965642474041486, 0.025106042623519897, 0.18123993277549744, 0.1446240097284317, -0.8169702887535095, 0.28734833002090454, -0.49999064207077026, -0.04170292615890503, 0.03137725591659546, 0.048513710498809814, -0.16484538549800185, -0.47204943687304235, 0.8660206325863803,0.0019376491025709375,-0.858673095703125,0.3187255859375,-0.45147705078125
20220112-1511,2022-01-12 15:11:53Z,u01, 81,40,movements,el-ex, rt, d,97344.49159412501, -1.0169253922407417, -0.2937209615508734, -0.1578928542024468, -0.007651736959815025, 0.1480892449617386, 0.07311180233955383, -0.8140708804130554, 0.28951582312583923, -0.5034571886062622, -0.021042704582214355, 0.013950943946838379, 0.009682953357696533, -0.16540366856993324, -0.47001386121917643, 0.8670180620704899,0.002872138217394793,-0.8390960693359375,0.30938720703125,-0.487518310546875
20220112-1511,2022-01-12 15:11:53Z,u01, 82,40,movements,el-ex, rt, d,97344.516539125, -1.0135049172553856, -0.2946022235080866, -0.15731125648178484, 0.02428731881082058, 0.11638356745243073, 0.011739857494831085, -0.8121272325515747, 0.290359228849411, -0.5061036348342896, -0.02190297842025757, -0.008117377758026123, -0.015578925609588623, -0.16564953740175453, -0.4685172593260911, 0.8677801814677979,0.003056944458938282,-0.8340301513671875,0.2822418212890625,-0.5216827392578125
20220112-1511,2022-01-12 15:11:53Z,u01, 83,40,movements,el-ex, rt, d,97344.541484125, -1.0136028524105893, -0.2950465702634571, -0.15680066646012902, 0.07264383137226105, 0.0641486644744873, -0.0009399186819791794, -0.8120671510696411, 0.29078441858291626, -0.5059558153152466, -0.028829455375671387, -0.011655360460281372, -0.017756164073944092, -0.16572007451132603, -0.4685711929151598, 0.8677363053805152,0.003395170271475456,-0.8397674560546875,0.27557373046875,-0.5276031494140625
20220112-1511,2022-01-12 15:11:54Z,u01, 84,40,movements,el-ex, rt, d,97344.566429125, -1.013487623819874, -0.2953328190686813, -0.15579078252845174, 0.06796392798423767, 0.04149620980024338, -0.0008055614307522774, -0.8119382262229919, 0.2910582721233368, -0.5060053467750549, -0.016308903694152832, 0.006915360689163208, -0.027792692184448242, -0.16560627186565594, -0.4685849903662043, 0.8677485418867386,0.0038937164130833923,-0.8282470703125,0.2979736328125,-0.5337982177734375
20220112-1511,2022-01-12 15:11:54Z,u01, 85,40,movements,el-ex, rt, d,97344.59137412501, -1.0123445592787848, -0.2946419641998413, -0.15459886163852224, 0.04684106633067131, 0.05240478366613388, 0.021365255117416382, -0.8115296959877014, 0.2903972566127777, -0.5070395469665527, -0.00487673282623291, 0.014366596937179565, -0.032724738121032715, -0.16503343006046342, -0.46823518415965, 0.8680453314782207,0.00414777146526335,-0.81695556640625,0.302032470703125,-0.534393310546875
20220112-1511,2022-01-12 15:11:54Z,u01, 86,40,movements,el-ex, rt, d,97344.616318125, -1.0095750780678892, -0.293781552352128, -0.15254829799610864, 0.06807854026556015, 0.10282076150178909, 0.05543047934770584, -0.8103335499763489, 0.2895738184452057, -0.5094178915023804, -0.017654240131378174, 0.0090559720993042, -0.019619464874267578, -0.16419101809140302, -0.46726048199903647, 0.8687277176364715,0.004600479426080162,-0.8279876708984375,0.2986297607421875,-0.5290374755859375
20220112-1511,2022-01-12 15:11:54Z,u01, 87,40,movements,el-ex, rt, d,97344.641263125, -1.00572261237566, -0.29399301400291933, -0.1504605412352316, 0.03452547639608383, 0.15248091518878937, 0.07493221014738083, -0.8083133101463318, 0.2897762060165405, -0.5125031471252441, -0.013662517070770264, -0.006573081016540527, 0.009588837623596191, -0.16380428540563688, -0.4657430552245062, 0.8696115435251239,0.005243257552665248,-0.822784423828125,0.287506103515625,-0.5039215087890625
20220112-1511,2022-01-12 15:11:54Z,u01, 88,40,movements,el-ex, rt, d,97344.66620812501, -1.0009823550880685, -0.295535268065352, -0.14912039868209914, -0.010941406711935997, 0.17828014492988586, 0.08010127395391464, -0.8054975867271423, 0.2912519574165344, -0.5160872340202332, 0.0005964040756225586, -0.0076978206634521484, 0.004399120807647705, -0.16416882222457801, -0.46368628605666673, 0.8706377042494615,0.005810848046162886,-0.804901123046875,0.2835540771484375,-0.511688232421875
20220112-1511,2022-01-12 15:11:54Z,u01, 89,40,movements,el-ex, rt, d,97344.69115312501, -0.9961019094978788, -0.29770753582179743, -0.14825979569522474, -0.01914341002702713, 0.18418864905834198, 0.09002234786748886, -0.8024362921714783, 0.2933293581008911, -0.5196670889854431, -0.03424900770187378, 0.0032710134983062744, -0.0025647878646850586, -0.1649193377421139, -0.4614846236686614, 0.8716615182770369,0.006307552197402422,-0.8294525146484375,0.2919158935546875,-0.5238800048828125
20220112-1511,2022-01-12 15:11:54Z,u01, 90,40,movements,el-ex, rt, d,97344.716098125, -0.99210201671279, -0.2998548164690368, -0.14784860378437523, -0.04506322741508484, 0.170271635055542, 0.09062302112579346, -0.7998221516609192, 0.2953815162181854, -0.5225269198417664, -0.038602590560913086, 0.01946842670440674, -0.005091309547424316, -0.16576264017079628, -0.45962950521457624, 0.8724786979019284,0.006671416259150409,-0.8384246826171875,0.314849853515625,-0.527618408203125
20220112-1511,2022-01-12 15:11:54Z,u01, 91,40,movements,el-ex, rt, d,97344.74104212501, -0.9890278543441033, -0.30175210001209296, -0.14868796956990346, -0.10201539099216461, 0.15038034319877625, 0.048763323575258255, -0.7977423667907715, 0.29719358682632446, -0.5246743559837341, -0.028460144996643066, 0.03256416320800781, -0.02592366933822632, -0.1667833002083869, -0.4580896919916945, 0.8730950388622705,0.006503369784681634,-0.832977294921875,0.32757568359375,-0.5416107177734375
20220112-1511,2022-01-12 15:11:54Z,u01, 92,40,movements,el-ex, rt, d,97344.765987125, -0.9865508028691597, -0.30340804322645826, -0.15040345411325423, -0.08644797652959824, 0.10570056736469269, 0.015751376748085022, -0.7960286736488342, 0.2987743020057678, -0.5263766050338745, -0.018622934818267822, 0.017754018306732178, -0.06610679626464844, -0.1678976257352948, -0.4567516810141712, 0.8735862781857938,0.0059421655947758945,-0.8146514892578125,0.3165283203125,-0.5924835205078125
20220112-1511,2022-01-12 15:11:54Z,u01, 93,40,movements,el-ex, rt, d,97344.790932125, -0.9851665296976239, -0.30445427462961094, -0.15200970430582963, -0.05589260533452034, 0.08778148889541626, 0.007431395351886749, -0.7950382828712463, 0.29977259039878845, -0.5273049473762512, -0.04079246520996094, 0.028016716241836548, -0.06263017654418945, -0.16871943953810764, -0.45593999898136905, 0.8738556050601134,0.005373224769187446,-0.8306732177734375,0.322235107421875,-0.5899658203125
20220112-1511,2022-01-12 15:11:54Z,u01, 94,40,movements,el-ex, rt, d,97344.815877125, -0.983679341780402, -0.3054657056026668, -0.153180631418284, -0.05603494867682457, 0.07184512913227081, 0.008435407653450966, -0.7940004467964172, 0.3007373511791229, -0.5283185243606567, -0.04112851619720459, 0.05698972940444946, -0.06123518943786621, -0.16942643912609753, -0.45512132831642094, 0.8741479295126462,0.004976488997179895,-0.8351287841796875,0.35772705078125,-0.5895538330078125
20220112-1511,2022-01-12 15:11:54Z,u01, 95,40,movements,el-ex, rt, d,97344.840822125, -0.982288811105586, -0.3067534835631909, -0.1542695111067603, -0.06103992834687233, 0.05724627897143364, 0.01952487789094448, -0.7929421663284302, 0.30196526646614075, -0.5292066335678101, -0.0301474928855896, 0.05594491958618164, -0.06448215246200562, -0.17023320113700396, -0.4543317532491686, 0.8744034172298205,0.004688514525121534,-0.8239898681640625,0.3580780029296875,-0.5911407470703125
20220112-1511,2022-01-12 15:11:54Z,u01, 96,40,movements,el-ex, rt, d,97344.865766125, -0.981059355451574, -0.3078439846030782, -0.154950945281305, -0.036119766533374786, 0.0424913689494133, 0.02870059944689274, -0.7920168042182922, 0.3030046820640564, -0.5299976468086243, -0.02219223976135254, 0.061832964420318604, -0.0820627212524414, -0.17086147708727004, -0.45366013607752753, 0.8746303242077348,0.004544619033379549,-0.814208984375,0.364837646484375,-0.612060546875
20220112-1511,2022-01-12 15:11:54Z,u01, 97,40,movements,el-ex, rt, d,97344.890711125, -0.9801801481729043, -0.3089376975759859, -0.15526899667056127, -0.029799718409776688, 0.02420763671398163, 0.02848001942038536, -0.7912748456001282, 0.3040468096733093, -0.5305089950561523, -0.0598146915435791, 0.07740771770477295, -0.0878990888595581, -0.17140778456608544, -0.45317201442036764, 0.8747763203161942,0.004589709869315672,-0.8464202880859375,0.3810577392578125,-0.613189697265625
20220112-1511,2022-01-12 15:11:54Z,u01, 98,40,movements,el-ex, rt, d,97344.91565612501, -0.9799223317619201, -0.309820648838802, -0.15556186458175944, -0.025772519409656525, 0.007513010874390602, 0.011005623266100883, -0.7909148335456848, 0.3048878312110901, -0.530563235282898, -0.08759486675262451, 0.08453172445297241, -0.08868408203125, -0.17185595225294964, -0.4529723230735231, 0.8747914917036281,0.004648826796722516,-0.878509521484375,0.3894195556640625,-0.6192474365234375
20220112-1511,2022-01-12 15:11:54Z,u01, 99,40,movements,el-ex, rt, d,97344.94060112501, -0.9799391028096114, -0.31034467164011775, -0.1559765770658325, -0.020200584083795547, -0.010728443041443825, -0.0071668545715510845, -0.7907909154891968, 0.30538687109947205, -0.5304608345031738, -0.08134055137634277, 0.06762951612472534, -0.10418260097503662, -0.17217607734298498, -0.4529072427762895, 0.8747624987588342,0.004593114230813267,-0.87158203125,0.373382568359375,-0.627899169921875
20220112-1511,2022-01-12 15:11:54Z,u01, 100,40,movements,el-ex, rt, d,97344.965545125, -0.9805537337366343, -0.3102724875307518, -0.15632968053257798, 0.016050897538661957, -0.04493621736764908, -0.020911695435643196, -0.7911350131034851, 0.30531811714172363, -0.5299869179725647, -0.09537011384963989, 0.08159902691841125, -0.13291573524475098, -0.17222352199835744, -0.453150739416054, 0.8746275620457202,0.004474499808218235,-0.886505126953125,0.3869171142578125,-0.66290283203125
20220112-1511,2022-01-12 15:11:54Z,u01, 101,40,movements,el-ex, rt, d,97344.99049012501, -0.9819393817147288, -0.3093133676918704, -0.15596117125257739, 0.03344666585326195, -0.08430252969264984, -0.029557913541793823, -0.792111873626709, 0.30440467596054077, -0.5290526747703552, -0.12259161472320557, 0.073250412940979, -0.13613885641098022, -0.1717228902230385, -0.45385562054470835, 0.8743603227791743,0.004527098433470822,-0.9136810302734375,0.3767242431640625,-0.66864013671875
20220112-1511,2022-01-12 15:11:54Z,u01, 102,40,movements,el-ex, rt, d,97345.01543512501, -0.9846379033780671, -0.30827197954566393, -0.1558710661685585, 0.016704335808753967, -0.1320132613182068, -0.039208877831697464, -0.7938002943992615, 0.303412526845932, -0.5270882844924927, -0.12300890684127808, 0.08570191264152527, -0.13007712364196777, -0.171247051488099, -0.4551157182745549, 0.8737983505026817,0.004550213835464889,-0.91680908203125,0.3891143798828125,-0.65716552734375
20220112-1511,2022-01-12 15:11:54Z,u01, 103,40,movements,el-ex, rt, d,97345.040380125, -0.9881838894051537, -0.3070674854799614, -0.15625293479071004, 0.008006684482097626, -0.14515629410743713, -0.06572630256414413, -0.7959689497947693, 0.30226460099220276, -0.524470865726471, -0.15961283445358276, 0.08967268466949463, -0.110096275806427, -0.17080696195696224, -0.45671605963513784, 0.8730499396491731,0.004399430441444141,-0.950469970703125,0.39215087890625,-0.6398468017578125
20220112-1511,2022-01-12 15:11:54Z,u01, 104,40,movements,el-ex, rt, d,97345.065325125, -0.9920237183652496, -0.30552941785771015, -0.15750207532836133, -0.010809713043272495, -0.14095482230186462, -0.09524790942668915, -0.7983652353286743, 0.30079811811447144, -0.5216643214225769, -0.16319799423217773, 0.08782804012298584, -0.10841673612594604, -0.17042248304495836, -0.45839287066513296, 0.8722487110306112,0.0038139057158900758,-0.9615631103515625,0.3886260986328125,-0.6300811767578125
20220112-1511,2022-01-12 15:11:54Z,u01, 105,40,movements,el-ex, rt, d,97345.09026912501, -0.995830950663584, -0.3037001387766302, -0.15923163100639284, -0.007081621326506138, -0.13875465095043182, -0.11013457924127579, -0.8008058667182922, 0.29905304312705994, -0.5189192891120911, -0.14621567726135254, 0.08530062437057495, -0.12439113855361938, -0.17002621825664596, -0.4600341843659938, 0.8714648284811393,0.0029446887097144825,-0.951690673828125,0.386871337890625,-0.64544677734375
20220112-1511,2022-01-12 15:11:54Z,u01, 106,40,movements,el-ex, rt, d,97345.115214125, -0.9992470038648865, -0.30155293388158194, -0.1607260988489662, 0.011320655234158039, -0.12749247252941132, -0.11987382918596268, -0.8031120896339417, 0.2970034182071686, -0.5165268182754517, -0.13249588012695312, 0.07405984401702881, -0.12100052833557129, -0.169443380503299, -0.46154688170112923, 0.8707808078710807,0.0020662436234156756,-0.93560791015625,0.371063232421875,-0.6375274658203125
20220112-1511,2022-01-12 15:11:54Z,u01, 107,40,movements,el-ex, rt, d,97345.140159125, -1.0021497387788443, -0.2989572509252749, -0.1617843644714073, 0.03426838293671608, -0.12028742581605911, -0.12848156690597534, -0.8052549958229065, 0.29452386498451233, -0.5146068930625916, -0.10445886850357056, 0.06527841091156006, -0.0989183783531189, -0.1685707842856971, -0.46290436980263433, 0.8702310610598138,0.0012235842509717987,-0.9143218994140625,0.363433837890625,-0.61614990234375
20220112-1511,2022-01-12 15:11:54Z,u01, 108,40,movements,el-ex, rt, d,97345.165104125, -1.0051871430245696, -0.29593815088582565, -0.16275635059440474, 0.03390449285507202, -0.11415383219718933, -0.12251441925764084, -0.8075613379478455, 0.2916373610496521, -0.5126327872276306, -0.08138531446456909, 0.049869656562805176, -0.07818734645843506, -0.1674991510219758, -0.46435723048722066, 0.8696644917182634,0.0003243394654381393,-0.888946533203125,0.3415069580078125,-0.5908203125
20220112-1511,2022-01-12 15:11:54Z,u01, 109,40,movements,el-ex, rt, d,97345.19004912501, -1.0081252095041677, -0.29302616633871775, -0.16355213779102032, 0.036143913865089417, -0.1103045716881752, -0.11224161088466644, -0.8097789287567139, 0.28885072469711304, -0.5107088088989258, -0.05656939744949341, 0.02955448627471924, -0.05092132091522217, -0.16643526932615543, -0.4657734316678786, 0.8691112569488679,-0.0004839429519805649,-0.868438720703125,0.32049560546875,-0.567047119140625
20220112-1511,2022-01-12 15:11:54Z,u01, 110,40,movements,el-ex, rt, d,97345.214993125, -1.010895804992998, -0.2902986266282216, -0.16422344061695426, 0.03260979801416397, -0.1072237566113472, -0.1021532192826271, -0.8118552565574646, 0.2862383723258972, -0.5088797807693481, -0.043415188789367676, 0.02848944067955017, -0.03222721815109253, -0.1654238032063168, -0.4671135593794997, 0.8685841416506929,-0.001210214007455579,-0.8552703857421875,0.314727783203125,-0.541107177734375
20220112-1511,2022-01-12 15:11:54Z,u01, 111,40,movements,el-ex, rt, d,97345.239938125, -1.013576998368406, -0.28815291103239155, -0.16505605478209945, 0.003403143957257271, -0.09512721002101898, -0.08424139767885208, -0.8137362003326416, 0.28418177366256714, -0.507024884223938, -0.02568042278289795, 0.020231127738952637, -0.011300802230834961, -0.16470133137343357, -0.46835994686148663, 0.868048955081416,-0.0018744777243764332,-0.844024658203125,0.30401611328125,-0.5210418701171875
20220112-1511,2022-01-12 15:11:54Z,u01, 112,40,movements,el-ex, rt, d,97345.26488312501, -1.0162664144506677, -0.2866613171682295, -0.1659278317578966, 0.0005750339478254318, -0.09744676202535629, -0.06077755242586136, -0.8154563307762146, 0.2827513515949249, -0.5050572156906128, -0.015155911445617676, 0.016580313444137573, -0.014885902404785156, -0.16427000995116636, -0.4695601693729763, 0.8674808705487048,-0.00239672961448012,-0.8306121826171875,0.2993316650390625,-0.5199432373046875
20220112-1511,2022-01-12 15:11:54Z,u01, 113,40,movements,el-ex, rt, d,97345.28982716668, -1.018901335642269, -0.2855423623521772, -0.1665946586176911, 0.006372901611030102, -0.10568864643573761, -0.05567540228366852, -0.8170531392097473, 0.28167790174484253, -0.5030723214149475, -0.006265461444854736, 0.007399827241897583, -0.016565561294555664, -0.1639514407663686, -0.47072684428120065, 0.8669075182552229,-0.0027442443753389334,-0.825439453125,0.2894439697265625,-0.521148681640625
20220112-1511,2022-01-12 15:11:54Z,u01, 114,40,movements,el-ex, rt, d,97345.31477216668, -1.0217969970502132, -0.28449872682063426, -0.16711845179608598, 0.007035030052065849, -0.12267468124628067, -0.04717285931110382, -0.8187568187713623, 0.28067636489868164, -0.5008574724197388, 0.002182602882385254, 0.007409602403640747, -0.018383681774139404, -0.1636328571931585, -0.4720122261481837, 0.8662678587261491,-0.002990819025125546,-0.8165740966796875,0.2880859375,-0.5192413330078125
20220112-1511,2022-01-12 15:11:54Z,u01, 115,40,movements,el-ex, rt, d,97345.33971616667, -1.0250436465289918, -0.28384170230019273, -0.1673758195502796, 0.013771428726613522, -0.1410040259361267, -0.02891169860959053, -0.8205360174179077, 0.28004568815231323, -0.4982922375202179, -0.004949331283569336, 0.018553614616394043, -0.040632784366607666, -0.16341790501808098, -0.4734432080472645, 0.8655271510156042,-0.0029988585865765582,-0.8250579833984375,0.2945098876953125,-0.53656005859375
20220112-1511,2022-01-12 15:11:54Z,u01, 116,40,movements,el-ex, rt, d,97345.36466116668, -1.0285255969840172, -0.2835208922248815, -0.16722971488720964, 0.0193316787481308, -0.15007615089416504, -0.005964370444417, -0.8223429918289185, 0.2797377109527588, -0.49547848105430603, -0.023177146911621094, 0.034440815448760986, -0.04544544219970703, -0.163251343820166, -0.4749839533602776, 0.8647149133727818,-0.0027306627855915866,-0.84552001953125,0.314178466796875,-0.540924072265625
20220112-1511,2022-01-12 15:11:54Z,u01, 117,40,movements,el-ex, rt, d,97345.38960616667, -1.0313482336854176, -0.28316823061661367, -0.1666223849221083, 0.03212533891201019, -0.1265711486339569, -0.008788454346358776, -0.8238227963447571, 0.2793990969657898, -0.4932059645652771, -0.043990373611450195, 0.03548124432563782, -0.03557196259498596, -0.1629601129245079, -0.4762783029308921, 0.864058782922892,-0.0023254596247627712,-0.869964599609375,0.31842041015625,-0.525543212890625
20220112-1511,2022-01-12 15:11:54Z,u01, 118,40,movements,el-ex, rt, d,97345.41455116667, -1.0339539772600732, -0.28241716876850764, -0.16608286087355997, 0.030185258015990257, -0.1314460039138794, -0.030177831649780273, -0.8252853751182556, 0.27867788076400757, -0.49116483330726624, -0.019883811473846436, 0.012292027473449707, -0.050644099712371826, -0.1625142839686776, -0.4775004547810994, 0.8634687805342348,-0.0020671697958307145,-0.8451690673828125,0.2909698486328125,-0.54180908203125
20220112-1511,2022-01-12 15:11:54Z,u01, 119,40,movements,el-ex, rt, d,97345.43949616667, -1.0367640916666432, -0.2812888708995176, -0.16537097479988483, 0.053530529141426086, -0.152849018573761, -0.05087219178676605, -0.826932430267334, 0.27759408950805664, -0.4890035092830658, -0.014528870582580566, -0.009771794080734253, -0.034647464752197266, -0.16186634965724878, -0.4788502216518531, 0.862843348215156,-0.0018132090741965756,-0.8405609130859375,0.270599365234375,-0.5290374755859375
20220112-1511,2022-01-12 15:11:54Z,u01, 120,40,movements,el-ex, rt, d,97345.46444016667, -1.040756858171436, -0.27961849137129446, -0.16494329077903747, 0.047735922038555145, -0.1901388168334961, -0.07258141040802002, -0.8292770981788635, 0.27598896622657776, -0.48593154549598694, -0.00621795654296875, -0.0058779120445251465, -0.021133095026016235, -0.16105659366323344, -0.480723414863772, 0.8619528613644366,-0.0017238664989195907,-0.8354949951171875,0.270111083984375,-0.5070648193359375
20220112-1511,2022-01-12 15:11:54Z,u01, 121,40,movements,el-ex, rt, d,97345.48938516667, -1.045722635846777, -0.27724765219568315, -0.16505359773701148, 0.049687787890434265, -0.24553009867668152, -0.11597862839698792, -0.832243800163269, 0.2737094461917877, -0.48213425278663635, 0.03318673372268677, -0.008053898811340332, -0.04603332281112671, -0.16008012773917532, -0.4830188736151573, 0.8608503400639396,-0.001967437074558709,-0.8085479736328125,0.2657318115234375,-0.52783203125
20220112-1511,2022-01-12 15:11:54Z,u01, 122,40,movements,el-ex, rt, d,97345.51433016667, -1.0518492534395671, -0.27361751134725587, -0.1651570201768209, 0.07184997946023941, -0.2968379557132721, -0.14018936455249786, -0.8360393047332764, 0.2702161371707916, -0.4775160253047943, 0.05629986524581909, -0.014722973108291626, -0.019645661115646362, -0.15857121314468706, -0.4858982930161624, 0.8595069196930115,-0.0024387551811499986,-0.7797393798828125,0.2554931640625,-0.497161865234375
20220112-1511,2022-01-12 15:11:54Z,u01, 123,40,movements,el-ex, rt, d,97345.53927516667, -1.058228319999196, -0.26903813701675916, -0.16507786850822417, 0.06833533197641373, -0.32814010977745056, -0.15910378098487854, -0.8401380181312561, 0.2658042907714844, -0.4727751314640045, 0.04130983352661133, 9.53972339630127e-05, 0.016735851764678955, -0.1566199713393265, -0.48896075103259745, 0.8581249173355964,-0.003062313300306818,-0.7957611083984375,0.262237548828125,-0.464263916015625
20220112-1511,2022-01-12 15:11:55Z,u01, 124,40,movements,el-ex, rt, d,97345.56421916667, -1.065837312335086, -0.26474316463228065, -0.16588310938455764, 0.012101427651941776, -0.366179496049881, -0.18927939236164093, -0.8447023630142212, 0.2616613805294037, -0.46691688895225525, 0.039557039737701416, 0.006542384624481201, 0.030149459838867188, -0.1550137396150288, -0.49245537669065764, 0.8564130566898566,-0.003909178070691743,-0.805145263671875,0.2682037353515625,-0.436767578125
20220112-1511,2022-01-12 15:11:55Z,u01, 125,40,movements,el-ex, rt, d,97345.58916416667, -1.0760821506156129, -0.2605727896666855, -0.1685612669492942, -0.024514440447092056, -0.39304453134536743, -0.21183624863624573, -0.8503944277763367, 0.2576340436935425, -0.4587527811527252, 0.03420168161392212, -0.0014694929122924805, -0.0001857280731201172, -0.15393982148493826, -0.4969166374501106, 0.8540187333100547,-0.0053338270634865625,-0.8150482177734375,0.255889892578125,-0.4521942138671875
20220112-1511,2022-01-12 15:11:55Z,u01, 126,40,movements,el-ex, rt, d,97345.61410916668, -1.0867971385828892, -0.2557199143367907, -0.1717914616195367, -0.012946667149662971, -0.4041993021965027, -0.2508476972579956, -0.8563576936721802, 0.25294196605682373, -0.4501911401748657, 0.060657501220703125, 0.002795398235321045, 0.0010640621185302734, -0.1527377255901457, -0.5015731358322005, 0.8514955420662482,-0.007146522103196329,-0.7957000732421875,0.2557373046875,-0.449127197265625
20220112-1511,2022-01-12 15:11:55Z,u01, 127,40,movements,el-ex, rt, d,97345.63905416668, -1.0977619413793094, -0.24982946147311627, -0.17510025590054876, -0.008774759247899055, -0.4145607352256775, -0.2883685529232025, -0.8625537157058716, 0.24723872542381287, -0.44144561886787415, 0.06563282012939453, -0.011734575033187866, -0.003256380558013916, -0.1511458440090757, -0.5063912753697617, 0.848903503803206,-0.009259395673606008,-0.8028106689453125,0.238128662109375,-0.4470367431640625
20220112-1511,2022-01-12 15:11:55Z,u01, 128,40,movements,el-ex, rt, d,97345.66399916667, -1.109393105619258, -0.2436103241093689, -0.17872353678868025, -0.020917441695928574, -0.4520774781703949, -0.283282995223999, -0.8689897656440735, 0.24120791256427765, -0.4320596754550934, 0.08880782127380371, -0.01684267818927765, -0.00583687424659729, -0.14952843656560225, -0.5114796250509362, 0.8461065194192176,-0.011560632032125706,-0.780181884765625,0.224365234375,-0.437896728515625
20220112-1511,2022-01-12 15:11:55Z,u01, 129,40,movements,el-ex, rt, d,97345.68894316668, -1.1220133517237452, -0.23795104940336356, -0.18244561806097756, -0.02522643655538559, -0.48803550004959106, -0.24539341032505035, -0.8755889534950256, 0.23571190237998962, -0.4216441810131073, 0.09404897689819336, -0.028009265661239624, -0.0031756162643432617, -0.14820774898859662, -0.5169258808651419, 0.8429913319975896,-0.013700020306073146,-0.78363037109375,0.2061767578125,-0.4274444580078125
20220112-1511,2022-01-12 15:11:55Z,u01, 130,40,movements,el-ex, rt, d,97345.71388816668, -1.1352570036101277, -0.2331825024055603, -0.18501152890251768, 0.0020012902095913887, -0.5235123038291931, -0.18316338956356049, -0.8821052312850952, 0.23107506334781647, -0.41048115491867065, 0.10293036699295044, -0.011943578720092773, 0.0007065534591674805, -0.14699143687761995, -0.5226403576894526, 0.839650604555142,-0.015084788239725644,-0.7791748046875,0.2191314697265625,-0.4097747802734375
20220112-1511,2022-01-12 15:11:55Z,u01, 131,40,movements,el-ex, rt, d,97345.73883316667, -1.1486929413809293, -0.22977052944331888, -0.18678909378041106, -0.020509345456957817, -0.5167617797851562, -0.1308399885892868, -0.888254702091217, 0.22775408625602722, -0.3989132344722748, 0.08944177627563477, -0.000901639461517334, 0.04196453094482422, -0.1461524244701353, -0.5283775714382389, 0.8361865567145034,-0.01577214503613411,-0.7943878173828125,0.2249755859375,-0.3633575439453125
20220112-1511,2022-01-12 15:11:55Z,u01, 132,40,movements,el-ex, rt, d,97345.76377816667, -1.16131174183127, -0.2272763393231585, -0.1885555874296039, -0.010094821453094482, -0.46112358570098877, -0.115086130797863, -0.8937360644340515, 0.22532474994659424, -0.3878980278968811, 0.07522386312484741, 0.003633439540863037, 0.054203689098358154, -0.14569634070788, -0.5336886310953678, 0.832877206455738,-0.016273138615885974,-0.818511962890625,0.2289581298828125,-0.3336944580078125
20220112-1511,2022-01-12 15:11:55Z,u01, 133,40,movements,el-ex, rt, d,97345.78872316667, -1.1722649507456135, -0.22489084186165778, -0.18967872770153713, 0.005472753196954727, -0.40415871143341064, -0.11395175755023956, -0.8984239101409912, 0.2229999601840973, -0.3782932162284851, 0.07396084070205688, -0.019188284873962402, 0.04879504442214966, -0.14510967987825557, -0.5383275765945902, 0.8299825998482423,-0.016604262368779044,-0.8248291015625,0.2071380615234375,-0.3296356201171875
20220112-1511,2022-01-12 15:11:55Z,u01, 134,40,movements,el-ex, rt, d,97345.81366716667, -1.1817717097189033, -0.22236091670806438, -0.19047447080211818, 0.015345824882388115, -0.34993767738342285, -0.11084771156311035, -0.902498722076416, 0.22053302824497223, -0.3699479401111603, 0.07774579524993896, -0.029172539710998535, 0.04785031080245972, -0.14437099268351095, -0.5423864410875419, 0.8274580294927029,-0.01695179627884086,-0.8247528076171875,0.1913604736328125,-0.3220977783203125
20220112-1511,2022-01-12 15:11:55Z,u01, 135,40,movements,el-ex, rt, d,97345.83861216667, -1.1899686481549772, -0.21988196521558703, -0.19090126472061245, 0.024449840188026428, -0.30701735615730286, -0.09695373475551605, -0.9060055017471313, 0.21811443567276, -0.3627399206161499, 0.08222919702529907, -0.04102092981338501, 0.05112504959106445, -0.1435474588251091, -0.5459158916177963, 0.8252715277768122,-0.017234183762727173,-0.823028564453125,0.1781158447265625,-0.31195068359375
20220112-1511,2022-01-12 15:11:55Z,u01, 136,40,movements,el-ex, rt, d,97345.86355716667, -1.1972772143852322, -0.2175044393128526, -0.19114192005689476, 0.03463989496231079, -0.2830084264278412, -0.08518335968255997, -0.9091125726699829, 0.21579353511333466, -0.3562968969345093, 0.08463436365127563, -0.03224554657936096, 0.05095338821411133, -0.14271079294426403, -0.5490766644593477, 0.823312132551652,-0.01748163876254022,-0.8244781494140625,0.1835479736328125,-0.3053436279296875
20220112-1511,2022-01-12 15:11:55Z,u01, 137,40,movements,el-ex, rt, d,97345.88850216668, -1.2043343442149257, -0.2153912081945258, -0.19108582950840408, 0.03617953509092331, -0.29001960158348083, -0.07054276764392853, -0.9120280742645264, 0.2137296199798584, -0.3500349819660187, 0.08321636915206909, -0.02781650424003601, 0.038694798946380615, -0.14190054803684823, -0.552129284660247, 0.8214069251334115,-0.017556189354063112,-0.829864501953125,0.1881866455078125,-0.3154144287109375
20220112-1511,2022-01-12 15:11:55Z,u01, 138,40,movements,el-ex, rt, d,97345.91344716668, -1.211460064044761, -0.21351446041615363, -0.19078667240093522, 0.033866677433252335, -0.2896644175052643, -0.060211632400751114, -0.9148730635643005, 0.21189585328102112, -0.3436677157878876, 0.08047664165496826, -0.024197489023208618, 0.05767238140106201, -0.14112111309087277, -0.5552035361086871, 0.8194686680811397,-0.0174645905385426,-0.8343963623046875,0.1876983642578125,-0.2859954833984375
20220112-1511,2022-01-12 15:11:55Z,u01, 139,40,movements,el-ex, rt, d,97345.93839116667, -1.2186297608333074, -0.21194998486903138, -0.19072608078980802, 0.015597691759467125, -0.28623631596565247, -0.05645038187503815, -0.9176236391067505, 0.2103666514158249, -0.33721357583999634, 0.07716935873031616, -0.02123388648033142, 0.070993572473526, -0.1405354734735232, -0.5582499419232267, 0.8174991245515248,-0.017383436892711657,-0.841339111328125,0.1897125244140625,-0.26629638671875
20220112-1511,2022-01-12 15:11:55Z,u01, 140,40,movements,el-ex, rt, d,97345.96333616668, -1.225843537001201, -0.21068417631818886, -0.19107149796714915, -0.004246652591973543, -0.2889683246612549, -0.03939057141542435, -0.9202820658683777, 0.2091289907693863, -0.33067503571510315, 0.08484804630279541, -0.02046932280063629, 0.057863324880599976, -0.14018539747603972, -0.5612579890665242, 0.8154970043638581,-0.01738286775439085,-0.8354339599609375,0.18865966796875,-0.2728118896484375
20220112-1511,2022-01-12 15:11:55Z,u01, 141,40,movements,el-ex, rt, d,97345.98828116668, -1.2332381757135247, -0.20999570205691961, -0.19143405882169387, -0.004899859428405762, -0.28864914178848267, -0.020697176456451416, -0.9228377342224121, 0.20845569670200348, -0.3239085376262665, 0.052476346492767334, -0.012792244553565979, 0.0679577887058258, -0.14007498297286664, -0.5642913583228198, 0.8134236446336118,-0.01721177343413799,-0.861663818359375,0.1923980712890625,-0.264862060546875
20220112-1511,2022-01-12 15:11:55Z,u01, 142,40,movements,el-ex, rt, d,97346.01322616667, -1.2403247147683292, -0.20978727446957665, -0.1920503839623316, -0.029429670423269272, -0.27396175265312195, -0.013760109432041645, -0.925150990486145, 0.20825184881687164, -0.3173748254776001, 0.03890526294708252, -0.004653796553611755, 0.07768991589546204, -0.1402265193764315, -0.5671411796229979, 0.8114169840187102,-0.017026197860146752,-0.8862457275390625,0.2035980224609375,-0.23968505859375
20220112-1511,2022-01-12 15:11:55Z,u01, 143,40,movements,el-ex, rt, d,97346.03817116667, -1.2469147827826683, -0.20962666557137297, -0.19310049906279947, -0.03454377129673958, -0.23851193487644196, -0.02523413859307766, -0.9272541403770447, 0.2080947458744049, -0.31128180027008057, 0.0580524206161499, -0.027964726090431213, 0.060259610414505005, -0.14051696195018304, -0.5697491432941739, 0.8095373153636148,-0.017036177934147467,-0.878326416015625,0.184661865234375,-0.248443603515625
20220112-1511,2022-01-12 15:11:55Z,u01, 144,40,movements,el-ex, rt, d,97346.06311516667, -1.2526918681771988, -0.2093758093407085, -0.19398402491727865, -0.029980644583702087, -0.21513937413692474, -0.021197453141212463, -0.9290865063667297, 0.207849383354187, -0.30593612790107727, 0.08516865968704224, -0.03641688823699951, 0.0454992949962616, -0.14071845692241972, -0.5720404335548386, 0.8078842515015743,-0.01706091722426467,-0.8439178466796875,0.1714324951171875,-0.26043701171875
20220112-1511,2022-01-12 15:11:55Z,u01, 145,40,movements,el-ex, rt, d,97346.08806016667, -1.2581948925427437, -0.20916156533797953, -0.19497969922625585, -0.03353576362133026, -0.21017377078533173, -0.02349616028368473, -0.9307984709739685, 0.20763981342315674, -0.30083245038986206, 0.06155085563659668, -0.016141951084136963, 0.034231036901474, -0.14096563254469055, -0.5742059415566786, 0.8063018516491073,-0.017138354032045333,-0.86260986328125,0.1889190673828125,-0.27166748046875
20220112-1511,2022-01-12 15:11:55Z,u01, 146,40,movements,el-ex, rt, d,97346.11300516667, -1.2637357964184914, -0.20882545389917853, -0.19623842493992472, -0.05043485388159752, -0.20189428329467773, -0.03124862164258957, -0.9325175285339355, 0.2073110193014145, -0.29569146037101746, 0.031714797019958496, -0.008580535650253296, 0.035498738288879395, -0.1412421287331973, -0.57637221076795, 0.8047016412699036,-0.017353830841281948,-0.9008026123046875,0.19873046875,-0.26019287109375
20220112-1511,2022-01-12 15:11:55Z,u01, 147,40,movements,el-ex, rt, d,97346.13795016667, -1.2691426052486225, -0.20827258357873588, -0.19760124329729165, -0.03879784047603607, -0.19955216348171234, -0.033841077238321304, -0.9342119693756104, 0.206770122051239, -0.2906792461872101, 0.0226670503616333, -0.004804760217666626, 0.03662055730819702, -0.14146406858447091, -0.5784879378841645, 0.8031357904116366,-0.017683679062252045,-0.909820556640625,0.2024383544921875,-0.256256103515625
20220112-1511,2022-01-12 15:11:55Z,u01, 148,40,movements,el-ex, rt, d,97346.16289516668, -1.274071381971783, -0.20789353455911416, -0.19869791806437231, -0.04596523940563202, -0.18585558235645294, -0.012049028649926186, -0.9357081055641174, 0.20639924705028534, -0.2860940992832184, 0.032204627990722656, 0.0003421306610107422, 0.03594166040420532, -0.14167587308634785, -0.5804144200926039, 0.8017026925930998,-0.017887742429983144,-0.90350341796875,0.2067413330078125,-0.250152587890625
20220112-1511,2022-01-12 15:11:55Z,u01, 149,40,movements,el-ex, rt, d,97346.18783916667, -1.2789308920108395, -0.20829231080272495, -0.2001894167209351, -0.08055920153856277, -0.167133629322052, 0.006319792941212654, -0.9370084404945374, 0.20678941905498505, -0.28151994943618774, 0.003933429718017578, 0.019437402486801147, 0.05030369758605957, -0.1423102694224986, -0.5822266006882539, 0.8002720425926214,-0.018020849687959972,-0.926483154296875,0.2225189208984375,-0.235504150390625
20220112-1511,2022-01-12 15:11:55Z,u01, 150,40,movements,el-ex, rt, d,97346.21278416667, -1.2831160986389656, -0.20921087366778657, -0.20247045674170902, -0.11020800471305847, -0.12221509218215942, 0.007882336154580116, -0.9379959106445312, 0.20768804848194122, -0.2775419056415558, -0.004722714424133301, 0.01203852891921997, 0.057571351528167725, -0.14337471673569202, -0.5836717741839159, 0.7990206582339504,-0.018358499551325513,-0.942718505859375,0.2197265625,-0.219970703125
20220112-1511,2022-01-12 15:11:55Z,u01, 151,40,movements,el-ex, rt, d,97346.23772916668, -1.2866109698934642, -0.21033282913762769, -0.20538791992537317, -0.12743176519870758, -0.08504648506641388, 0.008625291287899017, -0.9387359619140625, 0.20878539979457855, -0.2741965651512146, -0.0007630586624145508, -0.01519709825515747, 0.040889859199523926, -0.1447002904878243, -0.5847764941801781, 0.7979598822788856,-0.018934283668413876,-0.9419403076171875,0.1913909912109375,-0.2319183349609375
20220112-1511,2022-01-12 15:11:55Z,u01, 152,40,movements,el-ex, rt, d,97346.26267416668, -1.2893971028860625, -0.21166375163934828, -0.20830259231001083, -0.11357048153877258, -0.05513212829828262, -0.006963655352592468, -0.939228355884552, 0.21008680760860443, -0.27150261402130127, -0.0030934810638427734, -0.009769409894943237, 0.03927922248840332, -0.14610191030919073, -0.5855791377736079, 0.7971018539466855,-0.01949300662809711,-0.94232177734375,0.2003173828125,-0.2322235107421875
20220112-1511,2022-01-12 15:11:55Z,u01, 153,40,movements,el-ex, rt, d,97346.287620125, -1.2933157478323292, -0.21356028788852352, -0.21179222151430033, -0.13408860564231873, -0.04476910084486008, -0.00868871808052063, -0.9399001002311707, 0.21194064617156982, -0.2677103877067566, -0.00493931770324707, -0.008357912302017212, 0.040446192026138306, -0.14790597553020463, -0.5867440903646894, 0.7958984051708862,-0.02002203135584457,-0.9456024169921875,0.2047271728515625,-0.2281951904296875
20220112-1511,2022-01-12 15:11:55Z,u01, 154,40,movements,el-ex, rt, d,97346.31256412501, -1.2966876425598606, -0.21383092216352104, -0.2157448211432244, -0.14961999654769897, -0.04708811640739441, -0.003991634119302034, -0.9407423734664917, 0.21220512688159943, -0.2645241320133209, -0.001015007495880127, -0.006745487451553345, 0.028898030519485474, -0.14920712619337345, -0.5877713518286121, 0.7948649053254644,-0.02126157993002825,-0.9417572021484375,0.2054595947265625,-0.235626220703125
20220112-1511,2022-01-12 15:11:55Z,u01, 155,40,movements,el-ex, rt, d,97346.337509125, -1.3009446408188203, -0.2133883885785578, -0.21986056284647282, -0.1373135894536972, -0.05085662007331848, -0.0192122645676136, -0.9419503211975098, 0.21177265048027039, -0.26054200530052185, -0.00574260950088501, -0.007014960050582886, 0.008482217788696289, -0.1502923111470561, -0.589186907864951, 0.7935712573335783,-0.02271152896263523,-0.948394775390625,0.206695556640625,-0.2487945556640625
20220112-1511,2022-01-12 15:11:55Z,u01, 156,40,movements,el-ex, rt, d,97346.362454125, -1.3044411720431568, -0.2135362600209626, -0.22340058362700194, -0.11533316224813461, -0.048016294836997986, -0.02577635832130909, -0.942825198173523, 0.21191716194152832, -0.25723859667778015, -0.006057858467102051, -0.007632464170455933, -0.0017181336879730225, -0.1514344161086551, -0.5902951143286921, 0.7924976413376001,-0.023806460219727044,-0.948883056640625,0.20428466796875,-0.2589569091796875
20220112-1511,2022-01-12 15:11:55Z,u01, 157,40,movements,el-ex, rt, d,97346.387399125, -1.3081960087243414, -0.21312329245021092, -0.2266227692149846, -0.09321577847003937, -0.05372777581214905, -0.03499042987823486, -0.94386887550354, 0.21151354908943176, -0.2537193298339844, -0.007730245590209961, 0.007266968488693237, -0.01971796154975891, -0.15227168609731392, -0.5915688206740203, 0.7913523000631331,-0.024923172360203527,-0.9485626220703125,0.2191009521484375,-0.2733917236328125
20220112-1511,2022-01-12 15:11:55Z,u01, 158,40,movements,el-ex, rt, d,97346.41234412501, -1.3099325693061041, -0.21255103187999944, -0.22851587981576024, -0.030182478949427605, -0.02839631959795952, -0.029600724577903748, -0.9444249868392944, 0.2109542042016983, -0.2521110773086548, -0.0003992915153503418, 0.005201816558837891, -0.030847787857055664, -0.1526317323714063, -0.5921554000519943, 0.7908188447383783,-0.025714443916688756,-0.94482421875,0.216156005859375,-0.282958984375
20220112-1511,2022-01-12 15:11:55Z,u01, 159,40,movements,el-ex, rt, d,97346.437288125, -1.3099547112610939, -0.21130853720243054, -0.22867797628683004, 0.015716003254055977, 0.018087757751345634, -0.017531078308820724, -0.9446830153465271, 0.20973950624465942, -0.2521575391292572, 0.018504977226257324, 0.0013658255338668823, -0.01761767268180847, -0.15219785725507934, -0.5922474454113023, 0.7908189975066314,-0.02615663704936122,-0.93048095703125,0.2124176025390625,-0.27459716796875
20220112-1511,2022-01-12 15:11:55Z,u01, 160,40,movements,el-ex, rt, d,97346.462233125, -1.3077494908863987, -0.2110501859607454, -0.2278656817195379, 0.058571990579366684, 0.11658050864934921, -0.005284799262881279, -0.9441769123077393, 0.20948690176010132, -0.25425422191619873, 0.03649252653121948, -0.019728586077690125, 0.0038119256496429443, -0.15182837722905634, -0.5914566994051083, 0.7914839484614726,-0.02608183150823412,-0.907684326171875,0.18975830078125,-0.2504425048828125
20220112-1511,2022-01-12 15:11:55Z,u01, 161,40,movements,el-ex, rt, d,97346.48717812501, -1.3023840810916567, -0.21081302937723748, -0.2257470591653764, 0.085172638297081, 0.19434867799282074, 0.00620101485401392, -0.9428471326828003, 0.20925499498844147, -0.2593296468257904, 0.11170077323913574, -0.05871176719665527, -0.012536048889160156, -0.15104113745958714, -0.589509755948353, 0.7930973405014532,-0.02572107570634513,-0.8437042236328125,0.1528472900390625,-0.2552032470703125
20220112-1511,2022-01-12 15:11:55Z,u01, 162,40,movements,el-ex, rt, d,97346.51212312501, -1.2965498568240306, -0.2105221313800627, -0.22324499191027436, 0.11667067557573318, 0.22282272577285767, 0.03274906799197197, -0.9413765668869019, 0.20897053182125092, -0.2648424506187439, 0.11831742525100708, -0.05000445246696472, -0.03726613521575928, -0.15011720223319727, -0.5874041259118704, 0.7948480584926321,-0.025255356691520958,-0.82305908203125,0.158966064453125,-0.3021087646484375
20220112-1511,2022-01-12 15:11:55Z,u01, 163,40,movements,el-ex, rt, d,97346.537068125, -1.2896993030807666, -0.21085551426551655, -0.2196075914907392, 0.13281303644180298, 0.2567990720272064, 0.0691789761185646, -0.9394731521606445, 0.20929653942584991, -0.27126577496528625, 0.07063770294189453, 0.021355316042900085, -0.0006151497364044189, -0.149096747455593, -0.5849250184523062, 0.796897904502719,-0.024219538812616237,-0.8595428466796875,0.2182464599609375,-0.2771148681640625
20220112-1511,2022-01-12 15:11:56Z,u01, 164,40,movements,el-ex, rt, d,97346.56201212501, -1.2821879035000825, -0.21163411424079018, -0.2159150003568445, 0.13905774056911469, 0.2966037392616272, 0.08718860894441605, -0.9372526407241821, 0.2100578397512436, -0.27826836705207825, 0.048122942447662354, 0.04265826940536499, 0.022271811962127686, -0.14823587152062506, -0.5821442638030885, 0.7991257992056922,-0.02307021233191392,-0.889129638671875,0.252716064453125,-0.2559967041015625
20220112-1511,2022-01-12 15:11:56Z,u01, 165,40,movements,el-ex, rt, d,97346.58695712501, -1.2731082979679222, -0.2127247201831801, -0.21174158769866883, 0.13766059279441833, 0.3380810022354126, 0.10705193132162094, -0.9344679713249207, 0.211123988032341, -0.2866992950439453, 0.0843244194984436, 0.012905552983283997, 0.049654215574264526, -0.14735207613863674, -0.5787380362193928, 0.801796077419636,-0.021744423565844384,-0.8567962646484375,0.2305450439453125,-0.23724365234375
20220112-1511,2022-01-12 15:11:56Z,u01, 166,40,movements,el-ex, rt, d,97346.611902125, -1.2633939635937932, -0.21426828604359435, -0.20769811706744234, 0.11973761022090912, 0.359329491853714, 0.10953259468078613, -0.9313269853591919, 0.21263250708580017, -0.29566437005996704, 0.0977240800857544, -0.01968514919281006, 0.042979031801223755, -0.1466931998821998, -0.5750207973901067, 0.8046222728985332,-0.02037554809680181,-0.8336029052734375,0.1929473876953125,-0.252685546875
20220112-1511,2022-01-12 15:11:56Z,u01, 167,40,movements,el-ex, rt, d,97346.636847125, -1.2541196087783069, -0.21605792536182714, -0.20458793412955736, 0.08098854869604111, 0.33512017130851746, 0.10857638716697693, -0.9281817674636841, 0.2143808752298355, -0.30416998267173767, 0.04575073719024658, -0.03241986036300659, 0.027543574571609497, -0.14641944043789817, -0.571381090483784, 0.807287734733535,-0.01927291638406381,-0.8669281005859375,0.185333251953125,-0.28094482421875
20220112-1511,2022-01-12 15:11:56Z,u01, 168,40,movements,el-ex, rt, d,97346.661792125, -1.2450018952372548, -0.2180487453262239, -0.20194518621488827, 0.06947094202041626, 0.3544590473175049, 0.10972161591053009, -0.9249637722969055, 0.21632498502731323, -0.31248292326927185, -2.4080276489257812e-05, -0.04245102405548096, 0.05305314064025879, -0.14637328850201287, -0.5677441281426512, 0.8098809017621361,-0.01828717934315982,-0.92498779296875,0.1738739013671875,-0.259429931640625
20220112-1511,2022-01-12 15:11:56Z,u01, 169,40,movements,el-ex, rt, d,97346.686736125, -1.2351303951848662, -0.22015863228329965, -0.19938912043695028, 0.06055325269699097, 0.3872487545013428, 0.11253397911787033, -0.9214010238647461, 0.21838442981243134, -0.3214472830295563, 0.04266256093978882, -0.044449493288993835, 0.0545712411403656, -0.1464046872890486, -0.5637748064844018, 0.812663744799113,-0.01735722619806135,-0.8909912109375,0.172943115234375,-0.2583465576171875
20220112-1511,2022-01-12 15:11:56Z,u01, 170,40,movements,el-ex, rt, d,97346.711681125, -1.224612562392721, -0.22221865832665008, -0.19705757670108134, 0.051652565598487854, 0.4130087196826935, 0.10949531197547913, -0.9175441265106201, 0.22039426863193512, -0.33096712827682495, 0.07680004835128784, -0.042369961738586426, 0.04608571529388428, -0.1464862789652723, -0.5595160467466798, 0.8156032880133346,-0.01658139606422393,-0.8407440185546875,0.1780242919921875,-0.284881591796875
20220112-1511,2022-01-12 15:11:56Z,u01, 171,40,movements,el-ex, rt, d,97346.736626125, -1.2136485299559425, -0.22452005930280153, -0.1949911570667704, 0.029124950990080833, 0.42558109760284424, 0.11930812895298004, -0.9133827090263367, 0.22263848781585693, -0.3408287763595581, 0.0812140703201294, -0.00729118287563324, 0.07685187458992004, -0.1467474231848088, -0.5550232457315046, 0.8186344203434204,-0.01587905594612471,-0.8324737548828125,0.2101287841796875,-0.2644195556640625
20220112-1511,2022-01-12 15:11:56Z,u01, 172,40,movements,el-ex, rt, d,97346.76157112501, -1.2025581709511675, -0.22759712538911506, -0.19372884805781826, -0.029759302735328674, 0.43587547540664673, 0.14429651200771332, -0.9089033007621765, 0.2256372720003128, -0.3506891131401062, 0.07847410440444946, -0.0034692883491516113, 0.09542500972747803, -0.14755483610936865, -0.5503480827791964, 0.821651191105392,-0.015299357655955803,-0.8304290771484375,0.22216796875,-0.2552642822265625
20220112-1511,2022-01-12 15:11:56Z,u01, 173,40,movements,el-ex, rt, d,97346.78651612501, -1.1917416857823908, -0.2317757912969017, -0.19328029080948814, -0.048280321061611176, 0.42318111658096313, 0.1768883913755417, -0.9041731953620911, 0.22970619797706604, -0.36014750599861145, 0.11260807514190674, 0.00176963210105896, 0.05251520872116089, -0.14904438229668096, -0.5456299269592212, 0.8245343503050065,-0.014733644153321901,-0.79296875,0.233734130859375,-0.299072265625
20220112-1511,2022-01-12 15:11:56Z,u01, 174,40,movements,el-ex, rt, d,97346.81146012501, -1.1810269154805166, -0.23671021065416792, -0.19234806326421813, -0.0440102145075798, 0.41596606373786926, 0.21603339910507202, -0.8992029428482056, 0.23450584709644318, -0.3693794310092926, 0.11609125137329102, -0.019951999187469482, 0.05123382806777954, -0.15072158111707554, -0.5409189289633313, 0.8273453438857755,-0.01376523111468858,-0.783111572265625,0.2145538330078125,-0.318145751953125
20220112-1511,2022-01-12 15:11:56Z,u01, 175,40,movements,el-ex, rt, d,97346.83640512501, -1.170325101204752, -0.24285029501162156, -0.19115180729771705, -0.06606088578701019, 0.41440632939338684, 0.266224205493927, -0.8938556909561157, 0.2404702603816986, -0.37841272354125977, 0.09176212549209595, -0.01110011339187622, 0.045984864234924316, -0.1528347827658023, -0.5361298007010616, 0.8300924578472868,-0.012369900003893597,-0.7991790771484375,0.222381591796875,-0.32452392578125
20220112-1511,2022-01-12 15:11:56Z,u01, 176,40,movements,el-ex, rt, d,97346.86135012501, -1.1604991648353642, -0.24983600550906293, -0.1907952579798198, -0.13432754576206207, 0.3598594665527344, 0.2528913617134094, -0.8885321617126465, 0.24724505841732025, -0.38649776577949524, 0.08015197515487671, -0.0013344138860702515, 0.009697407484054565, -0.15554076605387515, -0.5315620324707495, 0.8325424044091073,-0.011046224487348433,-0.808380126953125,0.24591064453125,-0.376800537109375
20220112-1511,2022-01-12 15:11:56Z,u01, 177,40,movements,el-ex, rt, d,97346.886295125, -1.1520503749783138, -0.25642259613269214, -0.19144301431388305, -0.10341684520244598, 0.3415466248989105, 0.21906960010528564, -0.8837280869483948, 0.25362175703048706, -0.3933202028274536, 0.019866943359375, -0.03041619062423706, 0.0028021633625030518, -0.15836931639238042, -0.5275026674418989, 0.8345997563638603,-0.010168895275440293,-0.855072021484375,0.225799560546875,-0.395111083984375
20220112-1511,2022-01-12 15:11:56Z,u01, 178,40,movements,el-ex, rt, d,97346.911240125, -1.1434650451862047, -0.2619111070067826, -0.19129120104497588, -0.0814790278673172, 0.33416467905044556, 0.1930503249168396, -0.8790387511253357, 0.25892695784568787, -0.40030980110168457, 0.019312679767608643, -0.01612907648086548, 0.010905623435974121, -0.16054411431526946, -0.5235176152433954, 0.8367011173404909,-0.009290923000241536,-0.8597259521484375,0.2427978515625,-0.389404296875
20220112-1511,2022-01-12 15:11:56Z,u01, 179,40,movements,el-ex, rt, d,97346.936184125, -1.1352900079974744, -0.2669819999774047, -0.19105802882273815, -0.08426429331302643, 0.31129854917526245, 0.18710482120513916, -0.8745352029800415, 0.2638215720653534, -0.4069233536720276, 0.025764822959899902, 0.026660025119781494, -0.008268177509307861, -0.16253650346432574, -0.519730895220414, 0.8386835072209318,-0.008477275311855326,-0.8500213623046875,0.283294677734375,-0.4121246337890625
20220112-1511,2022-01-12 15:11:56Z,u01, 180,40,movements,el-ex, rt, d,97346.961129125, -1.1279689099429626, -0.2722795625597952, -0.19135966754669453, -0.1095920205116272, 0.27820849418640137, 0.18456657230854034, -0.870257556438446, 0.2689277231693268, -0.4127102494239807, 0.035937368869781494, 0.03556147217750549, -0.01812148094177246, -0.16477224170133828, -0.516231514661987, 0.8404134733622204,-0.007773553028263602,-0.834320068359375,0.3044891357421875,-0.4308319091796875
20220112-1511,2022-01-12 15:11:56Z,u01, 181,40,movements,el-ex, rt, d,97346.986074125, -1.1208533733232042, -0.2771666587564704, -0.19145205721765388, -0.05972805619239807, 0.3007073998451233, 0.16844378411769867, -0.8661050796508789, 0.2736315429210663, -0.41831550002098083, -0.0021201372146606445, 0.0013166069984436035, 0.0024220943450927734, -0.16679112795770973, -0.5128576488429585, 0.8420852267125449,-0.00709080257048611,-0.86395263671875,0.278106689453125,-0.4251861572265625
20220112-1511,2022-01-12 15:11:56Z,u01, 182,40,movements,el-ex, rt, d,97347.011019125, -1.1129426468906025, -0.28131766943149267, -0.19104058920503283, -0.06632576882839203, 0.31449300050735474, 0.14510118961334229, -0.8617425560951233, 0.2776217758655548, -0.42464813590049744, -0.00690990686416626, 0.010860919952392578, -0.0005683600902557373, -0.16837965028945362, -0.5092388693684147, 0.8439681542293387,-0.006472761670977267,-0.86865234375,0.288482666015625,-0.4252166748046875
20220112-1511,2022-01-12 15:11:56Z,u01, 183,40,movements,el-ex, rt, d,97347.03596412501, -1.1052927336517626, -0.2850651509134081, -0.19112058942000223, -0.06696546077728271, 0.288102924823761, 0.1284409761428833, -0.8575331568717957, 0.2812199592590332, -0.43075788021087646, 0.0013623833656311035, 0.027602702379226685, -0.044370174407958984, -0.16993230036822304, -0.5057114495607838, 0.8457784107502051,-0.006159805512371164,-0.86004638671875,0.3093719482421875,-0.4671783447265625
20220112-1511,2022-01-12 15:11:56Z,u01, 184,40,movements,el-ex, rt, d,97347.060908125, -1.0982870915820744, -0.28861034442406286, -0.19072319328194984, -0.025957539677619934, 0.2639819383621216, 0.13951633870601654, -0.8536012768745422, 0.2846203148365021, -0.43629834055900574, -0.005316019058227539, 0.022157669067382812, -0.058971285820007324, -0.17128684263963193, -0.5025053653064475, 0.847418044280781,-0.005654468899503384,-0.858917236328125,0.3067779541015625,-0.495269775390625
20220112-1511,2022-01-12 15:11:56Z,u01, 185,40,movements,el-ex, rt, d,97347.08585312501, -1.0912644406527685, -0.2915619484882966, -0.18894565127892482, 0.026560761034488678, 0.26917076110839844, 0.12421134114265442, -0.8497672080993652, 0.28744861483573914, -0.4418925344944, -0.05716949701309204, 0.03878435492515564, -0.013810992240905762, -0.17205417449188515, -0.4994507945662312, 0.8490723573190955,-0.0047294787029466545,-0.9015045166015625,0.3291778564453125,-0.4612884521484375
20220112-1511,2022-01-12 15:11:56Z,u01, 186,40,movements,el-ex, rt, d,97347.11079812501, -1.0837652171549728, -0.29329141710104994, -0.18707555886369767, 0.029643304646015167, 0.28115114569664, 0.06337688863277435, -0.8459889888763428, 0.2891046404838562, -0.4480193555355072, -0.03261220455169678, 0.008228123188018799, -0.01412343978881836, -0.17229478311057345, -0.4962910716467696, 0.8508776593341355,-0.0041295451422134755,-0.87860107421875,0.297332763671875,-0.4621429443359375
20220112-1511,2022-01-12 15:11:56Z,u01, 187,40,movements,el-ex, rt, d,97347.135743125, -1.0764993794495006, -0.29376020829658045, -0.18584535910786532, 0.05020856484770775, 0.28105276823043823, 0.020704124122858047, -0.8425919413566589, 0.2895534038543701, -0.4540899097919464, -0.024137794971466064, -0.03776809573173523, -0.04122552275657654, -0.1721718637835795, -0.4932665598277609, 0.8526593912728496,-0.004109868620998602,-0.858795166015625,0.254058837890625,-0.501953125
20220112-1511,2022-01-12 15:11:56Z,u01, 188,40,movements,el-ex, rt, d,97347.160688125, -1.0685985054167793, -0.2933302742338172, -0.18387931282554254, 0.09458965063095093, 0.3077627420425415, 0.03211956471204758, -0.8390870690345764, 0.28914183378219604, -0.46079277992248535, -0.037316858768463135, -0.015917956829071045, -0.010886788368225098, -0.17149183951974215, -0.49009606978327436, 0.8546227229736708,-0.004060221632817551,-0.87640380859375,0.273223876953125,-0.4716796875
20220112-1511,2022-01-12 15:11:56Z,u01, 189,40,movements,el-ex, rt, d,97347.18563212501, -1.059881990764229, -0.2936868607090805, -0.18098770197834368, 0.0714746043086052, 0.31416282057762146, 0.10456793755292892, -0.8349487781524658, 0.2894831895828247, -0.4680386483669281, 0.00839531421661377, -0.0007106363773345947, 0.005758553743362427, -0.17091951314176013, -0.48658728837451337, 0.8567422907183762,-0.00347806568762693,-0.839813232421875,0.286834716796875,-0.45745849609375
20220112-1511,2022-01-12 15:11:56Z,u01, 190,40,movements,el-ex, rt, d,97347.210577125, -1.0512897754166788, -0.29599630511842884, -0.17817370059006443, 0.033405981957912445, 0.3165630102157593, 0.1565636247396469, -0.8303139209747314, 0.29169297218322754, -0.4748621881008148, 0.015433430671691895, -0.0023557543754577637, 0.007256746292114258, -0.17119989689210402, -0.48296946907115307, 0.8587347080033543,-0.0024200436522207047,-0.81488037109375,0.289337158203125,-0.4676055908203125
20220112-1511,2022-01-12 15:11:56Z,u01, 191,40,movements,el-ex, rt, d,97347.235522125, -1.042491281146986, -0.2992300131812806, -0.1756013768187307, 0.007124579511582851, 0.3195880949497223, 0.1505288928747177, -0.8252847790718079, 0.2947845160961151, -0.48167121410369873, 0.026365041732788086, -0.027969300746917725, 0.03529071807861328, -0.17194197144792986, -0.47916630130947285, 0.8607172068792078,-0.0012545792459229266,-0.7999420166015625,0.264495849609375,-0.44708251953125
20220112-1511,2022-01-12 15:11:56Z,u01, 192,40,movements,el-ex, rt, d,97347.260467125, -1.0344612406489833, -0.30223653216943047, -0.1739536520628417, -0.02996193617582321, 0.2767292857170105, 0.12051400542259216, -0.820624828338623, 0.2976561188697815, -0.4878275990486145, 0.015357375144958496, -0.016482383012771606, 0.030109882354736328, -0.17282089532302494, -0.4756249911860067, 0.8625042784754844,-0.00048506354486144154,-0.805267333984375,0.2811737060546875,-0.4577178955078125
20220112-1511,2022-01-12 15:11:56Z,u01, 193,40,movements,el-ex, rt, d,97347.28541279167, -1.02847109517582, -0.3056926828457994, -0.17398204157936722, -0.12280063331127167, 0.20207378268241882, 0.11771748960018158, -0.8168019652366638, 0.30095380544662476, -0.4922006130218506, -0.010209202766418457, 0.02883446216583252, 0.023435473442077637, -0.17429581166409047, -0.4727797275757204, 0.8637710228747353,-0.0001581354939718671,-0.8210296630859375,0.320068359375,-0.4662628173828125
20220112-1511,2022-01-12 15:11:56Z,u01, 194,40,movements,el-ex, rt, d,97347.31035679167, -1.024839597765417, -0.3101797470484398, -0.17587363226777367, -0.17425979673862457, 0.14422757923603058, 0.11560780555009842, -0.8138469457626343, 0.3052298128604889, -0.4944574534893036, -0.04322409629821777, 0.06372776627540588, 0.007534325122833252, -0.17665077677089616, -0.470707747375394, 0.864424042537921,-0.00018328409264251055,-0.8570709228515625,0.36895751953125,-0.4869232177734375
20220112-1511,2022-01-12 15:11:56Z,u01, 195,40,movements,el-ex, rt, d,97347.33530179167, -1.0219677570656485, -0.3148180873586316, -0.17846584109569738, -0.19545572996139526, 0.16161276400089264, 0.09264875203371048, -0.8112069368362427, 0.3096435070037842, -0.4960486590862274, -0.0709037184715271, 0.06305241584777832, -0.018630146980285645, -0.17923327875686965, -0.46888281812435273, 0.8648839564923164,-0.0004142509557163998,-0.882049560546875,0.374969482421875,-0.514801025390625
20220112-1511,2022-01-12 15:11:56Z,u01, 196,40,movements,el-ex, rt, d,97347.36024679168, -1.0182150222803683, -0.3190871620847283, -0.18232495842299778, -0.23443008959293365, 0.2464904934167862, 0.04695197194814682, -0.8082071542739868, 0.3136999309062958, -0.4983910024166107, -0.035741329193115234, 0.03999882936477661, -0.019629478454589844, -0.18195134825902834, -0.46658139564927925, 0.8655597549823996,-0.0013712476013135189,-0.8439483642578125,0.35369873046875,-0.5180206298828125
20220112-1511,2022-01-12 15:11:56Z,u01, 197,40,movements,el-ex, rt, d,97347.38519179168, -1.0119586883227214, -0.32282900766950773, -0.18661440592466375, -0.18311551213264465, 0.3468799591064453, 0.043249644339084625, -0.8040724396705627, 0.31725069880485535, -0.5028117895126343, 0.021311700344085693, -0.003056943416595459, -0.07062864303588867, -0.18453555468523863, -0.463185417251632, 0.8668320296520021,-0.0028843376668866716,-0.7905120849609375,0.3176422119140625,-0.5567779541015625
20220112-1511,2022-01-12 15:11:56Z,u01, 198,40,movements,el-ex, rt, d,97347.41013679167, -1.0036715834592354, -0.3260164939255058, -0.18868924576843574, -0.086304672062397, 0.3569120764732361, 0.10624565184116364, -0.7990210056304932, 0.32027190923690796, -0.5089120268821716, 0.0003911256790161133, -0.007192015647888184, -0.08004659414291382, -0.18635981258442708, -0.45914486043611874, 0.8685861339200953,-0.0037757107035028548,-0.7986297607421875,0.313079833984375,-0.588958740234375
20220112-1511,2022-01-12 15:11:56Z,u01, 199,40,movements,el-ex, rt, d,97347.43508179167, -0.9957817734657531, -0.32977936618031584, -0.18857380546843996, -0.08567656576633453, 0.25560998916625977, 0.1504131257534027, -0.7939640283584595, 0.32383430004119873, -0.5145412087440491, -0.018688678741455078, 0.08885496854782104, -0.11946135759353638, -0.18792695785819416, -0.4554260175763573, 0.8702057901865309,-0.0035526759804667685,-0.813323974609375,0.3955535888671875,-0.627471923828125
20220112-1511,2022-01-12 15:11:56Z,u01, 200,40,movements,el-ex, rt, d,97347.46002579168, -0.9907986345871709, -0.333724887305448, -0.18779561553828883, -0.029118113219738007, 0.12708920240402222, 0.14993049204349518, -0.7903152108192444, 0.32756468653678894, -0.517786979675293, -0.030256807804107666, 0.10586124658584595, -0.1186416745185852, -0.18943086510062654, -0.4530148554232854, 0.8711406875777439,-0.0027341209279345136,-0.8205718994140625,0.4334259033203125,-0.6364288330078125
20220112-1511,2022-01-12 15:11:56Z,u01, 201,40,movements,el-ex, rt, d,97347.48497079167, -0.9882507245899419, -0.3369559047990885, -0.18604190933411577, -0.008717501536011696, 0.03482586145401001, 0.12566855549812317, -0.7881054878234863, 0.33061572909355164, -0.5192139744758606, -0.024364113807678223, 0.06145891547203064, -0.08170747756958008, -0.19041527771090408, -0.4518130450965755, 0.8715532558853695,-0.0014368708949522024,-0.810333251953125,0.393310546875,-0.612945556640625
20220112-1511,2022-01-12 15:11:56Z,u01, 202,40,movements,el-ex, rt, d,97347.50991579167, -0.9870721038411064, -0.33872241745681525, -0.18406696451513285, 0.046796225011348724, 0.013202056288719177, 0.05829990282654762, -0.7870043516159058, 0.3322823643684387, -0.5198197960853577, -0.054365336894989014, 0.06549903750419617, -0.04791378974914551, -0.19072574047921426, -0.45134665418783687, 0.8717280863530896,-0.0002654236234794216,-0.84136962890625,0.3977813720703125,-0.5677337646484375
20220112-1511,2022-01-12 15:11:56Z,u01, 203,40,movements,el-ex, rt, d,97347.53486079167, -0.9860440383597106, -0.3389074886945798, -0.18257897042891322, 0.048993032425642014, 0.01878051459789276, -0.006411781534552574, -0.7864182591438293, 0.33245691657066345, -0.5205946564674377, -0.054585278034210205, 0.035249412059783936, -0.033192455768585205, -0.19046939777852462, -0.45102559221489585, 0.8719502683697029,0.0003295136464632198,-0.842193603515625,0.3742523193359375,-0.5523834228515625
20220112-1511,2022-01-12 15:11:56Z,u01, 204,40,movements,el-ex, rt, d,97347.55980479167, -0.984845744007899, -0.3376985338996103, -0.1817087793400924, 0.07917586714029312, 0.03920383006334305, -0.04396974295377731, -0.7861282229423523, 0.3313165009021759, -0.5217585563659668, -0.044880807399749756, 0.020093441009521484, -0.03970372676849365, -0.1897549921168868, -0.4506814492079576, 0.872283990002515,0.0003062136925373049,-0.8310089111328125,0.351409912109375,-0.56146240234375
20220112-1511,2022-01-12 15:11:57Z,u01, 205,40,movements,el-ex, rt, d,97347.58474979167, -0.9831337209111939, -0.3355281658810717, -0.18027881560419423, 0.10044603794813156, 0.039540521800518036, -0.0578138530254364, -0.7858303189277649, 0.3292679190635681, -0.5235010385513306, -0.028378725051879883, 0.026277095079421997, -0.04351538419723511, -0.18850183554608624, -0.4502405298663538, 0.8727831824867724,0.0002503833144981704,-0.8184356689453125,0.354736328125,-0.567138671875
20220112-1511,2022-01-12 15:11:57Z,u01, 206,40,movements,el-ex, rt, d,97347.60969479167, -0.9820962043795384, -0.33303678631608896, -0.1790387532676012, 0.09380151331424713, 0.012004898861050606, -0.06895851343870163, -0.7859665155410767, 0.3269144594669342, -0.5247699618339539, -0.019865453243255615, 0.029210418462753296, -0.050715088844299316, -0.18715291271004747, -0.45009867375530394, 0.8731465572789272,0.00010066172143302632,-0.8058319091796875,0.3561248779296875,-0.5754852294921875
20220112-1511,2022-01-12 15:11:57Z,u01, 207,40,movements,el-ex, rt, d,97347.63463979168, -0.9818806388539912, -0.3301358411395506, -0.17804357407428933, 0.11500976979732513, -0.019052019342780113, -0.08268171548843384, -0.7866386771202087, 0.3241715431213379, -0.5254639387130737, -0.028318047523498535, 0.037873774766922, -0.05226421356201172, -0.1856823922547059, -0.45032220104516407, 0.8733452353835908,-0.00017557236291443346,-0.8115386962890625,0.361968994140625,-0.5792236328125
20220112-1511,2022-01-12 15:11:57Z,u01, 208,40,movements,el-ex, rt, d,97347.65958479168, -0.9819998030384273, -0.3265438742582155, -0.17687908884634654, 0.10991021245718002, -0.03318008780479431, -0.11149153113365173, -0.7876645922660828, 0.3207714557647705, -0.5260134935379028, -0.04125398397445679, 0.04450872540473938, -0.05296587944030762, -0.1838759551918947, -0.4507581309912383, 0.8735024349288965,-0.0005110621905890511,-0.82891845703125,0.3652801513671875,-0.5789794921875
20220112-1511,2022-01-12 15:11:57Z,u01, 209,40,movements,el-ex, rt, d,97347.68452879167, -0.9826190927988726, -0.32270548925244447, -0.17615452206953058, 0.12060274183750153, -0.04962816834449768, -0.12882964313030243, -0.7890086770057678, 0.3171335458755493, -0.5262048244476318, -0.05063676834106445, 0.037328094244003296, -0.07259559631347656, -0.18206210257687308, -0.4513878245674454, 0.8735566784143078,-0.0010518435469760168,-0.8382568359375,0.357147216796875,-0.593231201171875
20220112-1511,2022-01-12 15:11:57Z,u01, 210,40,movements,el-ex, rt, d,97347.70947379168, -0.9833875635516243, -0.31854597007651225, -0.17545542070463518, 0.10899731516838074, -0.051692720502614975, -0.13093173503875732, -0.7905040979385376, 0.31318601965904236, -0.5263249278068542, -0.05466508865356445, 0.04556339979171753, -0.06545650959014893, -0.18011538426932092, -0.4521017376946351, 0.873590205557757,-0.001667831749755877,-0.8451690673828125,0.3587493896484375,-0.5917816162109375
20220112-1511,2022-01-12 15:11:57Z,u01, 211,40,movements,el-ex, rt, d,97347.73441879168, -0.9842134476167783, -0.3147671371084649, -0.17484003851356367, 0.11025026440620422, -0.04188869148492813, -0.11100024729967117, -0.7919185161590576, 0.3095950484275818, -0.5263232588768005, -0.08120477199554443, 0.0616360604763031, -0.07821458578109741, -0.17835100291619643, -0.4528016157789051, 0.8735885190664159,-0.002225830603588441,-0.8686676025390625,0.3742523193359375,-0.6077423095703125
20220112-1511,2022-01-12 15:11:57Z,u01, 212,40,movements,el-ex, rt, d,97347.75936379167, -0.9849145633486656, -0.31158207407600214, -0.1743759728643441, 0.07587092369794846, -0.03425434231758118, -0.09033077955245972, -0.7931049466133118, 0.30656492710113525, -0.5263104438781738, -0.09207278490066528, 0.05676215887069702, -0.09258592128753662, -0.17687600306518458, -0.45338688802291616, 0.8735833928809005,-0.00272059197770258,-0.8851776123046875,0.3633270263671875,-0.618896484375
20220112-1511,2022-01-12 15:11:57Z,u01, 213,40,movements,el-ex, rt, d,97347.78430879167, -0.9853656598670781, -0.3092676414107191, -0.17383499263839636, 0.06019901484251022, -0.02891417220234871, -0.04980812594294548, -0.7939314842224121, 0.30436110496520996, -0.5263432264328003, -0.10281234979629517, 0.05386948585510254, -0.10308164358139038, -0.17575774269976704, -0.4538034879134357, 0.8735918300799945,-0.0029968380995470945,-0.893951416015625,0.3609466552734375,-0.627655029296875
20220112-1511,2022-01-12 15:11:57Z,u01, 214,40,movements,el-ex, rt, d,97347.80925279167, -0.9862384869035461, -0.30782793377142925, -0.17358460094722264, 0.013377781957387924, -0.05525829270482063, -0.04379670321941376, -0.794755220413208, 0.3029893934726715, -0.5258913636207581, -0.13094985485076904, 0.05791154503822327, -0.10423547029495239, -0.17508249727219716, -0.45431315694532637, 0.8734620161982672,-0.003154691012114741,-0.9257049560546875,0.36090087890625,-0.630126953125
20220112-1511,2022-01-12 15:11:57Z,u01, 215,40,movements,el-ex, rt, d,97347.83419779167, -0.9881373597051492, -0.3067835254788969, -0.17430915371396993, -0.01544943917542696, -0.08982845395803452, -0.059438712894916534, -0.7960161566734314, 0.3019939064979553, -0.5245550870895386, -0.15015095472335815, 0.04418224096298218, -0.0980948805809021, -0.1748009881037515, -0.4551561096205511, 0.8730778464063992,-0.003554641340285325,-0.9441680908203125,0.348785400390625,-0.6239471435546875
20220112-1511,2022-01-12 15:11:57Z,u01, 216,40,movements,el-ex, rt, d,97347.85914279167, -0.9911403513410407, -0.30584107784907044, -0.17556929219671757, -0.011178893968462944, -0.12740692496299744, -0.05953159183263779, -0.7978255748748779, 0.3010953366756439, -0.5223179459571838, -0.15232408046722412, 0.037588804960250854, -0.11021977663040161, -0.1746885902017843, -0.4564262580823708, 0.8724347911725566,-0.0040679944653578826,-0.9501495361328125,0.33868408203125,-0.632537841796875
20220112-1511,2022-01-12 15:11:57Z,u01, 217,40,movements,el-ex, rt, d,97347.88408779167, -0.9941916349850446, -0.3046892483369359, -0.17647983617993948, -0.013355329632759094, -0.13477742671966553, -0.05995017662644386, -0.7997058033943176, 0.2999967634677887, -0.5200698971748352, -0.14095282554626465, 0.06334558129310608, -0.08664995431900024, -0.17440826971067833, -0.4577628435653784, 0.8717884143400436,-0.004475534293853611,-0.9469451904296875,0.3598480224609375,-0.61029052734375
20220112-1511,2022-01-12 15:11:57Z,u01, 218,40,movements,el-ex, rt, d,97347.90903279168, -0.9975371367371823, -0.30381597635911234, -0.17763543522334158, -0.027275770902633667, -0.13074906170368195, -0.05466320365667343, -0.8016610741615295, 0.2991635799407959, -0.5175334811210632, -0.11432415246963501, 0.06364470720291138, -0.08021420240402222, -0.17430610276224126, -0.4591847713154364, 0.8710585154430921,-0.004897856866391659,-0.915985107421875,0.3628082275390625,-0.597747802734375
20220112-1511,2022-01-12 15:11:57Z,u01, 219,40,movements,el-ex, rt, d,97347.93397679167, -1.00068033638426, -0.30335807214421423, -0.1788508014566646, -0.034399330615997314, -0.11062994599342346, -0.03333394229412079, -0.8033989667892456, 0.2987266182899475, -0.515084981918335, -0.07948988676071167, 0.05172199010848999, -0.06424534320831299, -0.17439713487189845, -0.46048143751628184, 0.8703532873224391,-0.005263638909815294,-0.88568115234375,0.3536376953125,-0.5803070068359375
20220112-1511,2022-01-12 15:11:57Z,u01, 220,40,movements,el-ex, rt, d,97347.95892179167, -1.0035279895403504, -0.30324151295003715, -0.18007129946345257, -0.04076478257775307, -0.10649318993091583, -0.021233804523944855, -0.8048919439315796, 0.29861539602279663, -0.5128138065338135, -0.06911635398864746, 0.043028950691223145, -0.06376993656158447, -0.1746362488364223, -0.46162243114973067, 0.8696988147226593,-0.005574353225393069,-0.8740081787109375,0.341644287109375,-0.5765838623046875
20220112-1511,2022-01-12 15:11:57Z,u01, 221,40,movements,el-ex, rt, d,97347.98386679168, -1.0064525049197335, -0.3035439702381598, -0.1812946456235823, -0.04852909594774246, -0.11265867203474045, -0.015262997709214687, -0.8063117861747742, 0.29890403151512146, -0.5104093551635742, -0.053810954093933105, 0.027084767818450928, -0.05196845531463623, -0.17505675762793516, -0.46276393463633014, 0.8690059534932696,-0.005776920931959972,-0.862945556640625,0.3255767822265625,-0.5648345947265625
20220112-1511,2022-01-12 15:11:57Z,u01, 222,40,movements,el-ex, rt, d,97348.00881179167, -1.0096758096055398, -0.30388413189650537, -0.18231393333857893, -0.02724381536245346, -0.1296345293521881, -0.002789882943034172, -0.8078666925430298, 0.29922860860824585, -0.5077536106109619, -0.045404911041259766, 0.01968008279800415, -0.048322319984436035, -0.17544777914700854, -0.464048794594211, 0.8682411011563692,-0.005854260267410594,-0.853271484375,0.31890869140625,-0.5560760498046875
20220112-1511,2022-01-12 15:11:57Z,u01, 223,40,movements,el-ex, rt, d,97348.03375679167, -1.0134708608796195, -0.30406051979777693, -0.18306013852087932, -0.027138154953718185, -0.16611357033252716, -0.01754579320549965, -0.8097430467605591, 0.29939693212509155, -0.5046561360359192, -0.04412364959716797, 0.019664376974105835, -0.04310375452041626, -0.17570762439395868, -0.4656165535518222, 0.8673491015638469,-0.005801745857675844,-0.8531646728515625,0.3180389404296875,-0.5494384765625
20220112-1511,2022-01-12 15:11:57Z,u01, 224,40,movements,el-ex, rt, d,97348.05870079168, -1.018237928870086, -0.30379525413519354, -0.18404903217237722, -0.03128080070018768, -0.1939786821603775, -0.045327555388212204, -0.8122071027755737, 0.29914382100105286, -0.5008319616317749, -0.05476689338684082, 0.01855948567390442, -0.04225873947143555, -0.17583908574027232, -0.46761591055627594, 0.8662456267568935,-0.005876472074581307,-0.866973876953125,0.3177032470703125,-0.5430908203125
20220112-1511,2022-01-12 15:11:57Z,u01, 225,40,movements,el-ex, rt, d,97348.08364579167, -1.0236236241730208, -0.3028112150798628, -0.1854524178837782, -0.01845564879477024, -0.21106493473052979, -0.08195100724697113, -0.8151437044143677, 0.2982046902179718, -0.4966033399105072, -0.057048797607421875, 0.003736257553100586, -0.03127431869506836, -0.17576512277264558, -0.46989886867952313, 0.8650218005172339,-0.0062530840124137566,-0.8701934814453125,0.30438232421875,-0.52935791015625
20220112-1511,2022-01-12 15:11:57Z,u01, 226,40,movements,el-ex, rt, d,97348.10859079167, -1.0292701991054578, -0.30124973682621575, -0.186973846857727, -0.01933988556265831, -0.21172021329402924, -0.08567530661821365, -0.8183327913284302, 0.2967138886451721, -0.4922321140766144, -0.047313690185546875, -0.006628990173339844, -0.02891641855239868, -0.1754777902063507, -0.47232561744600265, 0.8637534270996321,-0.006801653710249045,-0.8656463623046875,0.2900848388671875,-0.521148681640625
20220112-1511,2022-01-12 15:11:57Z,u01, 227,40,movements,el-ex, rt, d,97348.13353579167, -1.034946410282474, -0.29962021452589943, -0.18879887837562245, -0.03223547711968422, -0.21714912354946136, -0.10020877420902252, -0.8215282559394836, 0.29515737295150757, -0.4878253936767578, -0.018895387649536133, 0.011513829231262207, -0.03617656230926514, -0.17523824341000047, -0.47474083419096247, 0.862471269475135,-0.007497288583595274,-0.84454345703125,0.3001708984375,-0.521270751953125
20220112-1511,2022-01-12 15:11:57Z,u01, 228,40,movements,el-ex, rt, d,97348.15848079167, -1.040978023030091, -0.2977147295625294, -0.19084152563910203, -0.03703136369585991, -0.22519946098327637, -0.1123041957616806, -0.8249393701553345, 0.29333624243736267, -0.48314470052719116, -0.012661337852478027, 0.02790704369544983, -0.03353297710418701, -0.17494056395152932, -0.47730854576559284, 0.8611056738635413,-0.008326259640085043,-0.8376007080078125,0.3212432861328125,-0.5166778564453125
20220112-1511,2022-01-12 15:11:57Z,u01, 229,40,movements,el-ex, rt, d,97348.18342479167, -1.047203272653266, -0.2954140770060169, -0.19339521226398992, -0.0465572252869606, -0.2305087447166443, -0.12248892337083817, -0.8285133838653564, 0.2911360263824463, -0.4783361256122589, 0.00199049711227417, 0.0187852680683136, -0.026104092597961426, -0.1746058738471625, -0.47994242189971337, 0.8596968464999748,-0.009459700669867677,-0.8287506103515625,0.312652587890625,-0.504425048828125
20220112-1511,2022-01-12 15:11:57Z,u01, 230,40,movements,el-ex, rt, d,97348.20836979167, -1.053541038293934, -0.29290157997589533, -0.19585581398643556, -0.03496231883764267, -0.23959165811538696, -0.13323764503002167, -0.8321614265441895, 0.2887314260005951, -0.47343581914901733, 0.019630849361419678, 0.012995898723602295, -0.02522122859954834, -0.17416864729087836, -0.4826462176895675, 0.858257285191063,-0.010599463642097073,-0.812530517578125,0.301727294921875,-0.4986572265625
20220112-1511,2022-01-12 15:11:57Z,u01, 231,40,movements,el-ex, rt, d,97348.23331479168, -1.059332022265942, -0.2909831500680262, -0.19807847799187028, -0.0298302099108696, -0.25644293427467346, -0.14358735084533691, -0.8353706002235413, 0.28689417243003845, -0.4688791334629059, 0.03442150354385376, 0.00596773624420166, -0.013771504163742065, -0.17392964944933056, -0.4850865036757967, 0.856916830322274,-0.011536399631319139,-0.803497314453125,0.2914276123046875,-0.4826507568359375
20220112-1511,2022-01-12 15:11:57Z,u01, 232,40,movements,el-ex, rt, d,97348.25825979168, -1.0652602525699357, -0.28924750137708044, -0.20028936920812995, -0.02961719036102295, -0.2824450433254242, -0.15887048840522766, -0.8385700583457947, 0.2852310538291931, -0.46415916085243225, 0.04319024085998535, 0.00888216495513916, -0.013929188251495361, -0.17377231113328134, -0.48756907860278537, 0.8555266038791586,-0.012411167873415396,-0.795379638671875,0.2941131591796875,-0.47808837890625
20220112-1511,2022-01-12 15:11:57Z,u01, 233,40,movements,el-ex, rt, d,97348.28320412501, -1.0734802447818337, -0.2860174569973595, -0.2028283243407638, -0.018949631601572037, -0.3199617862701416, -0.1626969277858734, -0.8431622982025146, 0.28213372826576233, -0.4576876163482666, 0.0423961877822876, 0.006989836692810059, -0.013808846473693848, -0.1730905975459089, -0.4911169339761517, 0.8536149703850722,-0.01361359139788726,-0.7979583740234375,0.2867889404296875,-0.476898193359375
20220112-1511,2022-01-12 15:11:57Z,u01, 234,40,movements,el-ex, rt, d,97348.30814812501, -1.0825677735833137, -0.2826163098223875, -0.20531260134183926, -0.018699027597904205, -0.34600403904914856, -0.16610762476921082, -0.8481292128562927, 0.2788691222667694, -0.4504540264606476, 0.03181445598602295, 0.005112200975418091, 0.002059429883956909, -0.1723429343015921, -0.495046361109516, 0.8514745285417913,-0.01476843379860504,-0.816314697265625,0.2839813232421875,-0.448394775390625
20220112-1511,2022-01-12 15:11:57Z,u01, 235,40,movements,el-ex, rt, d,97348.33309312501, -1.092308844681341, -0.27923381234027556, -0.20800396542933366, -0.03503808751702309, -0.3790193200111389, -0.17299090325832367, -0.8533093333244324, 0.2756192088127136, -0.4426029324531555, 0.03893232345581055, -0.004668861627578735, 0.0007695555686950684, -0.17167390640188263, -0.4992260012123528, 0.8491448571252735,-0.015957512936241425,-0.8153839111328125,0.268890380859375,-0.43621826171875
20220112-1511,2022-01-12 15:11:57Z,u01, 236,40,movements,el-ex, rt, d,97348.358038125, -1.1026397468911577, -0.27544120233843883, -0.21073769528078742, -0.010125813074409962, -0.38517308235168457, -0.185254767537117, -0.8587628602981567, 0.27197152376174927, -0.43423259258270264, 0.03988462686538696, 0.0034038424491882324, 0.004117995500564575, -0.17086572821088855, -0.5036751036356991, 0.8466519808874425,-0.017229439796864143,-0.818878173828125,0.2753753662109375,-0.43011474609375
20220112-1511,2022-01-12 15:11:57Z,u01, 237,40,movements,el-ex, rt, d,97348.382983125, -1.112801360494228, -0.2713622210819833, -0.21305577523469915, -0.009101761505007744, -0.3781779110431671, -0.18214832246303558, -0.8641188144683838, 0.26804405450820923, -0.4259708523750305, 0.049131572246551514, -0.01242879033088684, 0.032004326581954956, -0.16984934008083089, -0.5081001589712781, 0.8441836540898257,-0.0184255160535734,-0.8184814453125,0.2561798095703125,-0.3955230712890625
20220112-1511,2022-01-12 15:11:57Z,u01, 238,40,movements,el-ex, rt, d,97348.407928125, -1.1224553768814778, -0.2675243788967981, -0.21520425460843856, -0.0028240587562322617, -0.3463606536388397, -0.16913218796253204, -0.8691114783287048, 0.2643446922302246, -0.4180517792701721, 0.05374270677566528, -0.0029768645763397217, 0.03322523832321167, -0.16890059364498322, -0.5122955256660475, 0.8418100923933554,-0.01953926735834638,-0.81536865234375,0.2613677978515625,-0.38482666015625
20220112-1511,2022-01-12 15:11:57Z,u01, 239,40,movements,el-ex, rt, d,97348.432872125, -1.1311939907297197, -0.26390671650883835, -0.21690101963225847, 0.009388932026922703, -0.32256317138671875, -0.1488490253686905, -0.8735911250114441, 0.26085400581359863, -0.4108453691005707, 0.06992584466934204, -0.030278414487838745, 0.031145811080932617, -0.1679311418199825, -0.5161166961742067, 0.8396445488750879,-0.020490466257662876,-0.8047027587890625,0.2352294921875,-0.37664794921875
20220112-1511,2022-01-12 15:11:57Z,u01, 240,40,movements,el-ex, rt, d,97348.457817125, -1.139388280381435, -0.2603793507545023, -0.21797917940726974, 0.022743219509720802, -0.3142234981060028, -0.1447855681180954, -0.8777586221694946, 0.25744712352752686, -0.4040554165840149, 0.08236366510391235, -0.03588953614234924, 0.03265663981437683, -0.16684361695256605, -0.5197456165227912, 0.837602365184528,-0.021212379187990738,-0.7953948974609375,0.2215576171875,-0.37139892578125
20220112-1511,2022-01-12 15:11:57Z,u01, 241,40,movements,el-ex, rt, d,97348.482762125, -1.1475780684084353, -0.256982933513229, -0.21909749638382534, 0.012631862424314022, -0.3196486234664917, -0.13750235736370087, -0.8818303942680359, 0.2541637122631073, -0.39721009135246277, 0.06789606809616089, -0.0236491858959198, 0.026742130517959595, -0.1658287438159354, -0.5233505369439505, 0.8355383168534687,-0.021924899211762938,-0.806640625,0.225982666015625,-0.37066650390625
20220112-1511,2022-01-12 15:11:57Z,u01, 242,40,movements,el-ex, rt, d,97348.50770712501, -1.1558443034386825, -0.2537942893432737, -0.22005902065093508, 0.012799309566617012, -0.31931689381599426, -0.12432223558425903, -0.8858208656311035, 0.2510785162448883, -0.3902319371700287, 0.03708118200302124, -0.005732417106628418, 0.04341509938240051, -0.16486684492203388, -0.5269752894436059, 0.8334320160262549,-0.022517289457362866,-0.8487396240234375,0.2453460693359375,-0.3468170166015625
20220112-1511,2022-01-12 15:11:57Z,u01, 243,40,movements,el-ex, rt, d,97348.53265212501, -1.1637625739525888, -0.2513025872660703, -0.22132389405601546, -0.025447677820920944, -0.29552850127220154, -0.09977588057518005, -0.8894547820091248, 0.24866583943367004, -0.3834521174430847, 0.03194129467010498, -0.011696815490722656, 0.06606948375701904, -0.1642733302208573, -0.5303661201064621, 0.8313804318928346,-0.023079738256344573,-0.86175537109375,0.2399749755859375,-0.317718505859375
20220112-1511,2022-01-12 15:11:57Z,u01, 244,40,movements,el-ex, rt, d,97348.557596125, -1.1709819782346882, -0.24931977072454764, -0.22310834038270516, -0.030874334275722504, -0.24749025702476501, -0.10882117599248886, -0.8926522731781006, 0.24674482643604279, -0.3772119879722595, 0.04839867353439331, -0.0442301481962204, 0.053527504205703735, -0.16402428251676668, -0.5333760737750655, 0.8294821100935065,-0.023778341129225056,-0.8442535400390625,0.2025146484375,-0.3236846923828125
20220112-1511,2022-01-12 15:11:58Z,u01, 245,40,movements,el-ex, rt, d,97348.58254112501, -1.1766371277340357, -0.24667935241129774, -0.22444387880887334, 0.00706832017749548, -0.18522247672080994, -0.12079328298568726, -0.8953696489334106, 0.2441851794719696, -0.37240684032440186, 0.09652620553970337, -0.0704791247844696, 0.035096168518066406, -0.16337574082294098, -0.535821752052802, 0.828008500883933,-0.02460502950000676,-0.8056640625,0.1728973388671875,-0.336517333984375
20220112-1511,2022-01-12 15:11:58Z,u01, 246,40,movements,el-ex, rt, d,97348.60748612501, -1.181172049335413, -0.24365887305305786, -0.22544155300174346, 0.007616730406880379, -0.17489567399024963, -0.1217830553650856, -0.8977274298667908, 0.2412550300359726, -0.3686210513114929, 0.110160231590271, -0.04562206566333771, 0.02596983313560486, -0.1624737783023382, -0.5378584871979877, 0.826837693266771,-0.02549356294644134,-0.787567138671875,0.1956329345703125,-0.3426513671875
20220112-1511,2022-01-12 15:11:58Z,u01, 247,40,movements,el-ex, rt, d,97348.632431125, -1.185902013066154, -0.2411356311834369, -0.22681860813027974, -0.03233814239501953, -0.19482490420341492, -0.10417316108942032, -0.9000223875045776, 0.23880554735660553, -0.3645981550216675, 0.09309172630310059, -0.039190053939819336, 0.05270862579345703, -0.16188296790010992, -0.5399026027753282, 0.8255925115529779,-0.026387331103569223,-0.8067169189453125,0.1995697021484375,-0.3151092529296875
