SessionID,LoggingTime,UID,RecNo,Hertz,Activity,MoveType,Wrist,Side,TimeStamp,DMRoll,DMPitch,DMYaw,DMRotX,DMRotY,DMRotZ,DMGrvX,DMGrvY,DMGrvZ,DMUAccelX,DMUAccelY,DMUAccelZ,DMQuatX,DMQuatY,DMQuatW,DMQuatZ,AccelroX,AceelroY,AceelroZ
20220111-1138,2022-01-11 11:38:49Z,u01, 1,40,movements,el-ex, rt, d,76829.31262304167, -1.8316557525955552, 0.3439629876351719, 2.8763340998856095, -0.05700235068798065, -0.3197510242462158, -0.9561789631843567, -0.909575879573822, -0.33722057938575745, 0.24280400574207306, -0.3248142600059509, 0.004456996917724609, 0.14904163777828217, -0.7882905566461245, 0.0, -0.2138935864774467,-0.576929329061159,-1.2343902587890625,-0.332763671875,0.391845703125
20220111-1138,2022-01-11 11:38:49Z,u01, 2,40,movements,el-ex, rt, d,76829.33756404168, -1.8428007002800157, 0.36513269827972894, 2.885996548029578, 0.24194860458374023, -0.33421534299850464, -0.8682931661605835, -0.8997344374656677, -0.35707324743270874, 0.2509514391422272, -0.2060546875, 0.07245105504989624, -0.001592397689819336, -0.790818214255965, -0.0090704344412037, -0.21920838568471038,-0.5713772467535323,-1.14227294921875,-0.2843780517578125,0.25177001953125
20220111-1138,2022-01-11 11:38:49Z,u01, 3,40,movements,el-ex, rt, d,76829.36250404167, -1.8558183089040854, 0.38238659728480484, 2.895576511202941, 0.03069590963423252, 0.18873503804206848, -1.0905767679214478, -0.8903460502624512, -0.3731357455253601, 0.26087093353271484, -0.20766115188598633, 0.023495882749557495, 0.020134925842285156, -0.7938250686927314, -0.016649973784295502, -0.22316343127339403,-0.5654755790470803,-1.0980072021484375,-0.349639892578125,0.281005859375
20220111-1138,2022-01-11 11:38:49Z,u01, 4,40,movements,el-ex, rt, d,76829.38744404167, -1.8688381551430044, 0.39573304529775594, 2.8972034012144188, -0.186758890748024, -0.4951273798942566, -0.4777769446372986, -0.8820345997810364, -0.3854846954345703, 0.2709539830684662, -0.08422797918319702, 0.017549604177474976, -0.00986093282699585, -0.7969213242653381, -0.019834021009501157, -0.2279442674342603,-0.5590744487513305,-0.9442901611328125,-0.3890533447265625,0.2531585693359375
20220111-1138,2022-01-11 11:38:49Z,u01, 5,40,movements,el-ex, rt, d,76829.41238404167, -1.8801946799230025, 0.40640820012161105, 2.8963921541473403, -0.0919385626912117, -0.4415375292301178, -0.31045305728912354, -0.8749311566352844, -0.395312637090683, 0.2796842157840729, -0.0777207612991333, 0.08633747696876526, -0.027120858430862427, -0.7996154991550024, -0.021381228852539513, -0.2323940679850482,-0.553308984100892,-0.9526519775390625,-0.3089752197265625,0.2525634765625
20220111-1138,2022-01-11 11:38:49Z,u01, 6,40,movements,el-ex, rt, d,76829.43732404168, -1.8915610618234653, 0.41170983041653453, 2.8989357785592142, 0.10471401363611221, -0.37731969356536865, -0.1620466113090515, -0.8696944713592529, -0.40017685294151306, 0.28894585371017456, -0.032435476779937744, -0.015731871128082275, -0.11017400026321411, -0.8024713616600316, -0.022641453473500384, -0.23386500608629243,-0.548483468596035,-0.90521240234375,-0.400360107421875,0.1944580078125
20220111-1138,2022-01-11 11:38:49Z,u01, 7,40,movements,el-ex, rt, d,76829.46226504167, -1.9008315748583997, 0.4140807809914503, 2.8997707742394874, -0.133656844496727, -0.318097859621048, -0.001096806488931179, -0.8660784959793091, -0.4023485779762268, 0.296687513589859, -0.029642879962921143, -0.03704351186752319, -0.06635621190071106, -0.804881110740697, -0.022586731133759974, -0.23466014319483613,-0.5446014808143514,-0.895721435546875,-0.43939208984375,0.2303314208984375
20220111-1138,2022-01-11 11:38:49Z,u01, 8,40,movements,el-ex, rt, d,76829.48720504167, -1.9046790642152676, 0.4133329239081815, 2.8940943246130963, -0.3328714668750763, -0.16327506303787231, 0.16787616908550262, -0.8652147054672241, -0.40166381001472473, 0.30011609196662903, -0.06082594394683838, 0.004431784152984619, -0.02455770969390869, -0.8060227878302453, -0.019629493063231696, -0.23595312078494438,-0.5424647951636765,-0.9256591796875,-0.4353485107421875,0.2708587646484375
20220111-1138,2022-01-11 11:38:49Z,u01, 9,40,movements,el-ex, rt, d,76829.51214504168, -1.9015455602610913, 0.4102331512275676, 2.883679057603316, -0.23781082034111023, 0.0807560384273529, 0.31620606780052185, -0.8673241138458252, -0.3988231420516968, 0.2978063225746155, -0.02920585870742798, 0.04541438817977905, -0.01300114393234253, -0.8054074753957563, -0.014898479242444862, -0.23754956681028822,-0.5428322904230336,-0.8965301513671875,-0.3534088134765625,0.2848052978515625
20220111-1138,2022-01-11 11:38:49Z,u01, 10,40,movements,el-ex, rt, d,76829.53708504167, -1.8941829674215702, 0.4030240289581247, 2.8744621418312706, -0.22654323279857635, 0.21305522322654724, 0.4450015723705292, -0.8721969723701477, -0.39220187067985535, 0.292318731546402, 0.02383875846862793, -0.004923373460769653, -0.018347233533859253, -0.8037788303661992, -0.009948059413259047, -0.23722235420924637,-0.5454963304438769,-0.843658447265625,-0.37744140625,0.282196044921875
20220111-1138,2022-01-11 11:38:49Z,u01, 11,40,movements,el-ex, rt, d,76829.56202604168, -1.8823282811421693, 0.3926625003053624, 2.863808746569555, -0.28112590312957764, 0.4184936583042145, 0.5864088535308838, -0.8794220089912415, -0.38264963030815125, 0.2831892669200897, 0.00788581371307373, -0.002466946840286255, -0.07837057113647461, -0.800985969564763, -0.004013375359085303, -0.23610510754970943,-0.5501451937029431,-0.8715362548828125,-0.3851165771484375,0.2048187255859375
20220111-1138,2022-01-11 11:38:49Z,u01, 12,40,movements,el-ex, rt, d,76829.58696604166, -1.8655336090404413, 0.3794042026717989, 2.850437896798448, -0.3419364392757416, 0.4855210483074188, 0.7303445935249329, -0.8888304829597473, -0.3703671097755432, 0.26983049511909485, 0.09520566463470459, -0.0514468252658844, 0.04526349902153015, -0.7968088179179779, 0.0033103524554674024, -0.2347196094689953,-0.5567687236489464,-0.79296875,-0.406982421875,0.3132171630859375
20220111-1138,2022-01-11 11:38:49Z,u01, 13,40,movements,el-ex, rt, d,76829.61190604167, -1.8467085466338398, 0.3633945434668211, 2.837161771960733, -0.2732624411582947, 0.6621570587158203, 0.7725239992141724, -0.8993426561355591, -0.3554491400718689, 0.25463423132896423, 0.04707831144332886, 0.11533689498901367, 0.05003795027732849, -0.7919539959517577, 0.01122407737995168, -0.23241328269814218,-0.5645059033271093,-0.852264404296875,-0.2401123046875,0.3046722412109375
20220111-1138,2022-01-11 11:38:49Z,u01, 14,40,movements,el-ex, rt, d,76829.63684604167, -1.8250367976518937, 0.34452894140550244, 2.8266842173436166, 0.02190088853240013, 0.7265355587005615, 0.8994497060775757, -0.9109783172607422, -0.3377533257007599, 0.23673027753829956, 0.12283134460449219, 0.12416079640388489, 0.042215585708618164, -0.7861410655333223, 0.018637650998531596, -0.22842512272050433,-0.5739832954258349,-0.800018310546875,-0.1497802734375,0.2896270751953125
20220111-1138,2022-01-11 11:38:49Z,u01, 15,40,movements,el-ex, rt, d,76829.66178604167, -1.806001173721394, 0.32090997533717364, 2.8236209517661806, -0.010489975102245808, 0.7388131618499756, 0.9859182238578796, -0.9228208065032959, -0.315430223941803, 0.22114504873752594, 0.11567682027816772, -0.02517637610435486, -0.012099787592887878, -0.7809906515524491, 0.02502257983365347, -0.22064487912345018,-0.5837320718637697,-0.8071441650390625,-0.340606689453125,0.20904541015625
20220111-1138,2022-01-11 11:38:49Z,u01, 16,40,movements,el-ex, rt, d,76829.68672704167, -1.7848842144065764, 0.29563441109114874, 2.8143817140099565, -0.13474847376346588, 0.7235624194145203, 1.1186089515686035, -0.9347785115242004, -0.29134678840637207, 0.2032393515110016, 0.12121033668518066, -0.19412687420845032, 0.012840300798416138, -0.77488498305694, 0.03424824072140725, -0.2142339984153066,-0.5937037661203934,-0.80322265625,-0.4864044189453125,0.217681884765625
20220111-1138,2022-01-11 11:38:49Z,u01, 17,40,movements,el-ex, rt, d,76829.71166704167, -1.7637074577198557, 0.26953246556092025, 2.805035056749675, -0.13626262545585632, 0.7278274893760681, 1.0728862285614014, -0.9460155367851257, -0.26628080010414124, 0.18479500710964203, 0.08830380439758301, 0.011855751276016235, -0.014644265174865723, -0.7684203643114753, 0.04390494547607754, -0.20775776324574832,-0.6036880378879639,-0.8577117919921875,-0.254425048828125,0.1701507568359375
20220111-1138,2022-01-11 11:38:49Z,u01, 18,40,movements,el-ex, rt, d,76829.73660704168, -1.7460155719033132, 0.2437754143896019, 2.794856808233383, -0.303140789270401, 0.4464366137981415, 1.1249892711639404, -0.9555748105049133, -0.2413681298494339, 0.16916991770267487, 0.15947794914245605, 0.16717985272407532, 0.17132999002933502, -0.7626545327465675, 0.05424964307708535, -0.20178426025098414,-0.6121260036030594,-0.80126953125,-0.039093017578125,0.304107666015625
20220111-1138,2022-01-11 11:38:50Z,u01, 19,40,movements,el-ex, rt, d,76829.76154704168, -1.7332468831521097, 0.21655427099687605, 2.78244714817109, -0.40969786047935486, 0.39636704325675964, 1.168595790863037, -0.96378493309021, -0.21486565470695496, 0.15795937180519104, 0.08109456300735474, -0.01979924738407135, 0.1625666469335556, -0.7579963561159354, 0.06649218665750245, -0.19599267176868077,-0.6185524203782944,-0.8826904296875,-0.2346649169921875,0.320526123046875
20220111-1138,2022-01-11 11:38:50Z,u01, 20,40,movements,el-ex, rt, d,76829.78648804167, -1.7164570770920209, 0.18900715925827072, 2.7701717896415725, -0.11752042174339294, 0.7889705896377563, 1.1008822917938232, -0.971790075302124, -0.18788382411003113, 0.14256134629249573, 0.12530875205993652, 0.046099185943603516, -0.07646036148071289, -0.7517474628596739, 0.07846287472294883, -0.19035357189990243,-0.6264861028217562,-0.9041900634765625,-0.20330810546875,0.1350250244140625
20220111-1138,2022-01-11 11:38:50Z,u01, 21,40,movements,el-ex, rt, d,76829.81142804168, -1.6967605039842284, 0.16447984999474138, 2.7719881533701036, 0.4305013120174408, 0.6831291913986206, 0.8327620625495911, -0.9786876440048218, -0.16373921930789948, 0.123935766518116, 0.4703563451766968, 0.17814353108406067, -0.18574917316436768, -0.7449245277610257, 0.08399602874844975, -0.18166450621326147,-0.6364197886231169,-0.508331298828125,0.014404296875,-0.0618133544921875
20220111-1138,2022-01-11 11:38:50Z,u01, 22,40,movements,el-ex, rt, d,76829.83636804167, -1.686012080103775, 0.14487439972930052, 2.775901596965038, -0.12610265612602234, 0.29543614387512207, 0.6690168380737305, -0.9829634428024292, -0.14436814188957214, 0.1137566789984703, 0.6061172485351562, -0.09423352777957916, 0.02139042317867279, -0.7410284640495398, 0.08806335791224446, -0.17377580749683183,-0.6425912874454073,-0.35565185546875,-0.1620941162109375,0.0663604736328125
20220111-1138,2022-01-11 11:38:50Z,u01, 23,40,movements,el-ex, rt, d,76829.86130804167, -1.679406856068529, 0.13325795039306548, 2.762794837409891, -0.6652931571006775, 0.19810990989208221, 0.4206978976726532, -0.9852943420410156, -0.13286390900611877, 0.10743612051010132, 0.4768103361129761, -0.3341313600540161, 0.1123361736536026, -0.7378796792485353, 0.09618544262293316, -0.17410354186660565,-0.6449573838353247,-0.50848388671875,-0.4669952392578125,0.2197723388671875
20220111-1138,2022-01-11 11:38:50Z,u01, 24,40,movements,el-ex, rt, d,76829.88624766667, -1.6734259687295587, 0.12739993635547267, 2.747480936821045, -0.2022930085659027, 0.11546322703361511, 0.1606580764055252, -0.9866763353347778, -0.1270555853843689, 0.10161927342414856, 0.5936405658721924, 0.1280474066734314, -0.03242063522338867, -0.7349491313108549, 0.10324442020412888, -0.17723747564448442,-0.6463568391814095,-0.421478271484375,-0.0783843994140625,0.09326171875
20220111-1138,2022-01-11 11:38:50Z,u01, 25,40,movements,el-ex, rt, d,76829.91118866667, -1.6724510666374264, 0.12638458446948353, 2.7525484683603585, 0.46574923396110535, 0.05940075218677521, -0.0903611034154892, -0.9869028329849243, -0.12604840099811554, 0.10067035257816315, 0.6065928339958191, 0.31473860144615173, -0.10434770584106445, -0.7348507916415941, 0.10163410825803915, -0.1752838639256827,-0.6472560229479276,-0.38031005859375,0.188690185546875,-0.0036773681640625
20220111-1138,2022-01-11 11:38:50Z,u01, 26,40,movements,el-ex, rt, d,76829.93612866667, -1.6748101716068617, 0.12998173492413093, 2.7682159466486413, 0.549932062625885, -0.09747181832790375, -0.337827205657959, -0.9862053394317627, -0.12961603701114655, 0.1029505506157875, 0.5744315981864929, 0.09281183779239655, -0.0684351772069931, -0.7365278790252499, 0.09487864468459006, -0.17139086404730083,-0.6474179090862675,-0.4033203125,0.0077667236328125,0.01544189453125
20220111-1138,2022-01-11 11:38:50Z,u01, 27,40,movements,el-ex, rt, d,76829.96106866667, -1.6818478112188873, 0.138255261598732, 2.7749944470145294, -0.04689009115099907, -0.37723463773727417, -0.4087268114089966, -0.9843568801879883, -0.13781523704528809, 0.10976588726043701, 0.5435762405395508, -0.11209318041801453, 0.04973411560058594, -0.7394193356954537, 0.09023297841030309, -0.17186030223131607,-0.6446557999745274,-0.4407806396484375,-0.249908447265625,0.1595001220703125
20220111-1138,2022-01-11 11:38:50Z,u01, 28,40,movements,el-ex, rt, d,76829.98600866667, -1.6940009192837107, 0.1520775232199411, 2.77217502155609, -0.1894250363111496, -0.6203227043151855, -0.6245180368423462, -0.9809656739234924, -0.15149199962615967, 0.1214747354388237, 0.43982821702957153, 0.060076624155044556, 0.02293429523706436, -0.7436627348507585, 0.08776732819303623, -0.17722708025597306,-0.6386336995727075,-0.5239410400390625,-0.14141845703125,0.170501708984375
20220111-1138,2022-01-11 11:38:50Z,u01, 29,40,movements,el-ex, rt, d,76830.01094966667, -1.7103384567156361, 0.16944421219447614, 2.774154870251923, 0.13877181708812714, -0.6695101261138916, -0.7736243605613708, -0.9760975241661072, -0.1686345487833023, 0.13709774613380432, 0.39319664239883423, 0.1294042319059372, -0.021237865090370178, -0.749462759287943, 0.08279155994905052, -0.1822164812683005,-0.6310690774050352,-0.5829010009765625,-0.0392303466796875,0.1158599853515625
20220111-1138,2022-01-11 11:38:50Z,u01, 30,40,movements,el-ex, rt, d,76830.03588966667, -1.7297629983369238, 0.19136863792205308, 2.7815144866095705, 0.033954787999391556, -0.7822428941726685, -1.0736092329025269, -0.9693663716316223, -0.1902027279138565, 0.15540823340415955, 0.3160002827644348, -0.1247844249010086, 0.08455143868923187, -0.7563913877071227, 0.07467384067308702, -0.18716675749056078,-0.6223057506736998,-0.6372528076171875,-0.3181915283203125,0.194000244140625
20220111-1138,2022-01-11 11:38:50Z,u01, 31,40,movements,el-ex, rt, d,76830.06082966668, -1.7508233225423653, 0.2187647791045862, 2.7832194816412428, -0.16427506506443024, -0.7951667308807373, -1.0818618535995483, -0.9603900909423828, -0.21702401340007782, 0.17478851974010468, 0.19285798072814941, -0.014451786875724792, 0.11149677634239197, -0.7634640322158095, 0.06720812307329926, -0.19598083971023478,-0.6117165046604369,-0.7675323486328125,-0.231475830078125,0.286285400390625
20220111-1138,2022-01-11 11:38:50Z,u01, 32,40,movements,el-ex, rt, d,76830.08576966666, -1.7683128093906775, 0.243559002356925, 2.787925746700137, 0.15954875946044922, -0.5241259336471558, -0.9986024498939514, -0.9516164064407349, -0.2411581128835678, 0.19044296443462372, 0.16562116146087646, -0.000174790620803833, -0.06324581801891327, -0.7692289635795918, 0.05923076115517273, -0.20317711481618136,-0.6029074561145251,-0.8056182861328125,-0.247589111328125,0.1782684326171875
20220111-1138,2022-01-11 11:38:50Z,u01, 33,40,movements,el-ex, rt, d,76830.11070966667, -1.7848935963225263, 0.2693190131417536, 2.796008922470699, -0.01815585047006607, -0.7433959245681763, -1.0960590839385986, -0.9419441223144531, -0.2660750448703766, 0.20480655133724213, 0.2777899503707886, 0.09609213471412659, 0.04949644207954407, -0.7745556768138472, 0.049666661169271153, -0.20988694563521249,-0.5945959471999466,-0.664154052734375,-0.16998291015625,0.254302978515625
20220111-1138,2022-01-11 11:38:50Z,u01, 34,40,movements,el-ex, rt, d,76830.13565066668, -1.8054330725547914, 0.29465958786482577, 2.8010632004177776, -0.06177050620317459, -0.6310130953788757, -0.9479650259017944, -0.930681049823761, -0.29041412472724915, 0.22246967256069183, -0.050062477588653564, 0.03887295722961426, 0.23862043023109436, -0.7806887646320466, 0.041951072400308875, -0.21740098559930465,-0.584381813443958,-0.92205810546875,-0.2425384521484375,0.4481964111328125
20220111-1138,2022-01-11 11:38:50Z,u01, 35,40,movements,el-ex, rt, d,76830.16059066667, -1.8165436917915523, 0.3155375755292852, 2.8056299304574472, 0.10709135234355927, -0.228150874376297, -0.8210986852645874, -0.9220686554908752, -0.31032755970954895, 0.23127040266990662, -0.0768783688545227, 0.017847120761871338, 0.008811324834823608, -0.7838476064833507, 0.03490172518413437, -0.22369683735717785,-0.5782079476675659,-0.9989471435546875,-0.29248046875,0.240081787109375
20220111-1138,2022-01-11 11:38:50Z,u01, 36,40,movements,el-ex, rt, d,76830.18553066667, -1.8261289111910866, 0.3342149982962794, 2.8170192030048105, 0.2864307463169098, -0.32127735018730164, -0.8346062302589417, -0.9140413999557495, -0.3280276954174042, 0.2385922223329544, 0.11440455913543701, 0.14115330576896667, -0.129919171333313, -0.7865326017464453, 0.02574052475948868, -0.22730030593446404,-0.5736187846804089,-0.8207855224609375,-0.200836181640625,0.0903472900390625
20220111-1138,2022-01-11 11:38:50Z,u01, 37,40,movements,el-ex, rt, d,76830.21047066667, -1.8401861207752206, 0.35334814354198607, 2.826199629813587, -0.07452691346406937, -0.5891029834747314, -0.8182227611541748, -0.9043808579444885, -0.3460410237312317, 0.24970073997974396, 0.08635735511779785, 0.15535202622413635, -0.05646350979804993, -0.7902728638397156, 0.017865297494614796, -0.2317545825987159,-0.5669561644010005,-0.818023681640625,-0.1906890869140625,0.1932373046875
20220111-1138,2022-01-11 11:38:50Z,u01, 38,40,movements,el-ex, rt, d,76830.23541166667, -1.8549097023514407, 0.37143491788382815, 2.8261506336167304, -0.08836176991462708, -0.451481431722641, -0.5883610248565674, -0.8944518566131592, -0.36295285820961, 0.2611916661262512, -0.13440251350402832, -0.13703185319900513, -0.012977004051208496, -0.7939751769816004, 0.014115791725400895, -0.23850575051332076,-0.5590341247001303,-1.002960205078125,-0.4473724365234375,0.316558837890625
20220111-1138,2022-01-11 11:38:50Z,u01, 39,40,movements,el-ex, rt, d,76830.26035166667, -1.8653570024804944, 0.3839878146304634, 2.831743703408538, 0.01822129637002945, -0.33935028314590454, -0.5119503736495972, -0.8872443437576294, -0.37462085485458374, 0.2691778540611267, -0.054238200187683105, -0.05103832483291626, -0.255338191986084, -0.7965559303350571, 0.009358536395760175, -0.24166019509765638,-0.5540861259441917,-0.9414825439453125,-0.4256591796875,0.0138397216796875
20220111-1138,2022-01-11 11:38:50Z,u01, 40,40,movements,el-ex, rt, d,76830.28529166667, -1.8801172495587841, 0.3962965450918735, 2.8385174939028377, 0.20928522944450378, -0.5253598690032959, -0.5511484146118164, -0.8787156343460083, -0.38600456714630127, 0.28081899881362915, -0.010948002338409424, 0.16681206226348877, -0.14068233966827393, -0.8002417096451391, 0.004764794713674525, -0.24444036162750918,-0.5475759610083653,-0.86865234375,-0.2329559326171875,0.1107025146484375
20220111-1138,2022-01-11 11:38:50Z,u01, 41,40,movements,el-ex, rt, d,76830.31023166668, -1.8953538957839358, 0.4051824048435285, 2.8473812951554933, 0.07169906795024872, -0.49658459424972534, -0.31268110871315, -0.8710497617721558, -0.394186407327652, 0.2930692136287689, -0.019651591777801514, 0.0390838086605072, -0.05095800757408142, -0.8040736304020392, 0.0004431384222953749, -0.24541678637794767,-0.5415127654250969,-0.8907012939453125,-0.3551025390625,0.2421112060546875
20220111-1138,2022-01-11 11:38:50Z,u01, 42,40,movements,el-ex, rt, d,76830.33517166667, -1.9088190914127248, 0.4115018877822213, 2.845532965150785, -0.2310316413640976, -0.5469233989715576, -0.10408823192119598, -0.8646570444107056, -0.39998629689216614, 0.3039388656616211, -0.09605139493942261, -0.1819685995578766, 0.04762357473373413, -0.8074456278055229, 0.000995614368583031, -0.2483460342905835,-0.5351211848772804,-0.9442596435546875,-0.56402587890625,0.381500244140625
20220111-1138,2022-01-11 11:38:50Z,u01, 43,40,movements,el-ex, rt, d,76830.36011266668, -1.919775303847766, 0.4125522907462756, 2.842769049944003, 0.004790211096405983, -0.3968191146850586, 0.06498681008815765, -0.8608800768852234, -0.40094879269599915, 0.31325003504753113, -0.12828612327575684, -0.03324007987976074, -0.08156061172485352, -0.8103178132061207, 0.003171257952065465, -0.2494772577531049,-0.5302226782150681,-0.989166259765625,-0.4341888427734375,0.231689453125
20220111-1138,2022-01-11 11:38:50Z,u01, 44,40,movements,el-ex, rt, d,76830.38505266666, -1.9279646974154616, 0.40835155842713194, 2.846184004247069, 0.3288731575012207, -0.18280096352100372, 0.19497503340244293, -0.8598562479019165, -0.3970969617366791, 0.32087552547454834, -0.018439650535583496, 0.06907880306243896, -0.0035996437072753906, -0.81266329401032, 0.0040170368364738085, -0.24692728076351664,-0.5278153910563372,-0.9072265625,-0.299652099609375,0.284149169921875
20220111-1138,2022-01-11 11:38:50Z,u01, 45,40,movements,el-ex, rt, d,76830.40999266667, -1.9331896167709255, 0.39935212710896706, 2.850827679452474, 0.07373306155204773, -0.05607324838638306, 0.33926787972450256, -0.8614746928215027, -0.388821542263031, 0.3266175389289856, 0.012582540512084961, -0.0929136574268341, 0.14855635166168213, -0.8144200759065008, 0.005357575741087139, -0.2421794296061785,-0.5272952716352145,-0.8488922119140625,-0.4817352294921875,0.4751739501953125
20220111-1138,2022-01-11 11:38:50Z,u01, 46,40,movements,el-ex, rt, d,76830.43493266667, -1.928476840747462, 0.3926823136034206, 2.842085288147801, -0.3992210924625397, 0.22537267208099365, 0.4036789834499359, -0.8654144406318665, -0.3826679289340973, 0.32345473766326904, -0.06245720386505127, -0.07442435622215271, 0.1167612075805664, -0.8134015025603255, 0.010264832884536279, -0.2419017455795813,-0.5289197673111252,-0.91619873046875,-0.4690704345703125,0.474578857421875
20220111-1138,2022-01-11 11:38:50Z,u01, 47,40,movements,el-ex, rt, d,76830.45987366667, -1.9139830316273774, 0.3839703329545119, 2.833246826158574, 0.051882922649383545, 0.6563585996627808, 0.41847410798072815, -0.8731178045272827, -0.37460464239120483, 0.31198805570602417, -0.04349285364151001, -0.04215863347053528, -0.006034165620803833, -0.8098024863005628, 0.014627153360299405, -0.24095265391332082,-0.5347408353654739,-0.9166107177734375,-0.4167633056640625,0.3059539794921875
20220111-1138,2022-01-11 11:38:50Z,u01, 48,40,movements,el-ex, rt, d,76830.48481366667, -1.8929996247934737, 0.37225353794967975, 2.830072007799363, -0.05593768507242203, 0.93876051902771, 0.5757215023040771, -0.8835746049880981, -0.3637155592441559, 0.2949694097042084, -0.0049294233322143555, 0.016303420066833496, 0.1499309539794922, -0.8044881934735606, 0.016836124984389522, -0.2374425463862393,-0.5441841096778159,-0.88311767578125,-0.356842041015625,0.4112548828125
20220111-1138,2022-01-11 11:38:50Z,u01, 49,40,movements,el-ex, rt, d,76830.50975366667, -1.861010713789001, 0.358480321876096, 2.8142888908184127, -0.6510059237480164, 1.1587649583816528, 0.8481446504592896, -0.8972718715667725, -0.35085156559944153, 0.2679668962955475, 0.012628376483917236, 0.020453065633773804, 0.14362356066703796, -0.7958847908912641, 0.023470245149778968, -0.23683316492947867,-0.5567104776003862,-0.8846435546875,-0.3303985595703125,0.411590576171875
20220111-1138,2022-01-11 11:38:50Z,u01, 50,40,movements,el-ex, rt, d,76830.53469366668, -1.82320680606177, 0.34196513643473364, 2.792548498927003, -0.44428324699401855, 1.2364404201507568, 0.7920845746994019, -0.9122452735900879, -0.33533909916877747, 0.23527823388576508, 0.08758419752120972, -0.03804337978363037, -0.1710846871137619, -0.7852226822284152, 0.03262595344075486, -0.23725726241248135,-0.5710251416860657,-0.827362060546875,-0.3631591796875,0.07476806640625
20220111-1138,2022-01-11 11:38:50Z,u01, 51,40,movements,el-ex, rt, d,76830.55963366668, -1.7891970798122023, 0.3260208830115916, 2.780080982742759, -0.2915716767311096, 1.1874845027923584, 0.7188170552253723, -0.9248207211494446, -0.32027605175971985, 0.2052554488182068, -0.00099104642868042, -0.07103556394577026, -0.022897720336914062, -0.7753384253000328, 0.03844542972354992, -0.23553302787485006,-0.584719098943862,-0.925811767578125,-0.3913116455078125,0.1823577880859375
20220111-1138,2022-01-11 11:38:50Z,u01, 52,40,movements,el-ex, rt, d,76830.58457466667, -1.7543331262671942, 0.30890655798350175, 2.7668791640356623, -0.4058312177658081, 1.2709888219833374, 0.8348165154457092, -0.9366657733917236, -0.3040171265602112, 0.17386934161186218, -0.16225683689117432, 0.027100682258605957, 0.07698510587215424, -0.76480067277121, 0.04488434409766978, -0.2338881563686398,-0.5986330759947038,-1.0914764404296875,-0.317535400390625,0.27496337890625
20220111-1138,2022-01-11 11:38:50Z,u01, 53,40,movements,el-ex, rt, d,76830.60951466668, -1.7197653942302291, 0.28842590616986835, 2.7540871063402825, -0.15678566694259644, 1.1736133098602295, 0.9064326882362366, -0.9480748772621155, -0.2844434976577759, 0.14228792488574982, -0.14199769496917725, 0.053669631481170654, -0.04022194445133209, -0.7539242717656969, 0.052365604786680064, -0.2311986054096127,-0.6127015528732765,-1.0900726318359375,-0.23077392578125,0.1020660400390625
20220111-1138,2022-01-11 11:38:50Z,u01, 54,40,movements,el-ex, rt, d,76830.63445466667, -1.6903022979139122, 0.26736036192230644, 2.747922540904215, -0.22676292061805725, 1.0581713914871216, 0.7968728542327881, -0.9575926065444946, -0.2641865015029907, 0.11498595029115677, -0.2678254246711731, -0.0773356556892395, -0.14724302291870117, -0.7443787427978015, 0.05825172113508087, -0.22640306257506024,-0.6254986866810394,-1.194915771484375,-0.33978271484375,-0.036651611328125
20220111-1138,2022-01-11 11:38:50Z,u01, 55,40,movements,el-ex, rt, d,76830.65939466667, -1.6641352035755272, 0.25023934422015925, 2.7348291075098445, -0.6362708806991577, 0.7971502542495728, 0.6683874726295471, -0.9646358489990234, -0.2476358562707901, 0.09030041843652725, -0.3882235884666443, -0.03820699453353882, -0.044051170349121094, -0.7353991427844553, 0.06586584539837398, -0.22530281469250682,-0.6356795189006976,-1.3528594970703125,-0.2858428955078125,0.0462493896484375
20220111-1138,2022-01-11 11:38:50Z,u01, 56,40,movements,el-ex, rt, d,76830.68433466667, -1.6412512477778418, 0.23668135915257138, 2.7174580421395165, -0.4931131899356842, 0.7513018250465393, 0.5139118432998657, -0.9697097539901733, -0.23447780311107635, 0.06843409687280655, -0.5764634013175964, -0.09828588366508484, 0.03349459916353226, -0.7271237671762512, 0.07421640840504007, -0.22693281667889667,-0.6436493604390512,-1.5321197509765625,-0.311920166015625,0.108184814453125
20220111-1138,2022-01-11 11:38:50Z,u01, 57,40,movements,el-ex, rt, d,76830.70927566667, -1.6224967368003724, 0.22696562454796745, 2.710852883114584, 0.007607501931488514, 0.5968037843704224, 0.2683083713054657, -0.9730517268180847, -0.22502200305461884, 0.05035204440355301, -0.537492036819458, -0.15391477942466736, -0.03674125671386719, -0.7205021368598189, 0.07779905627006972, -0.22643012609920432,-0.6508097600694596,-1.5105438232421875,-0.378936767578125,0.01361083984375
20220111-1138,2022-01-11 11:38:50Z,u01, 58,40,movements,el-ex, rt, d,76830.73421566667, -1.6118231877863076, 0.22446958844189932, 2.7140906326578467, 0.23957549035549164, 0.3181598484516144, -0.071705661714077, -0.9740920066833496, -0.22258928418159485, 0.03998637571930885, -0.5100541710853577, -0.06545087695121765, -0.055367227643728256, -0.7170586588997534, 0.07628936639002398, -0.22492836957280474,-0.6552969705289227,-1.4799652099609375,-0.300506591796875,-0.018585205078125
20220111-1138,2022-01-11 11:38:51Z,u01, 59,40,movements,el-ex, rt, d,76830.75915566667, -1.6092790745522625, 0.22983404820010497, 2.721133135307639, 0.24860967695713043, 0.06861548870801926, -0.36477383971214294, -0.972983181476593, -0.22781594097614288, 0.03746156021952629, -0.5642786622047424, -0.06612937152385712, -0.013291720300912857, -0.7166590757704613, 0.0716278560976179, -0.22454717279981626,-0.6563898814526209,-1.537261962890625,-0.2939453125,0.024169921875
20220111-1138,2022-01-11 11:38:51Z,u01, 60,40,movements,el-ex, rt, d,76830.78409566668, -1.6111050332422394, 0.24118553769224543, 2.7260796711300785, 0.1010860875248909, -0.12773524224758148, -0.5445583462715149, -0.9702667593955994, -0.23885402083396912, 0.039131395518779755, -0.4852234125137329, -0.12593787908554077, 0.04036689177155495, -0.7177682975797457, 0.0661390075774087, -0.22674160781819253,-0.6549981769373314,-1.4967041015625,-0.382904052734375,0.0805206298828125
20220111-1138,2022-01-11 11:38:51Z,u01, 61,40,movements,el-ex, rt, d,76830.80903666667, -1.6201982615036945, 0.25689969074841773, 2.729982190872237, 0.23205138742923737, -0.5113194584846497, -0.7398690581321716, -0.9660022258758545, -0.25408321619033813, 0.04776123911142349, -0.4140482544898987, -0.05325925350189209, 0.026365868747234344, -0.7212750374266603, 0.060356779338297306, -0.23055697643825854,-0.65035585973235,-1.3800506591796875,-0.307342529296875,0.074127197265625
20220111-1138,2022-01-11 11:38:51Z,u01, 62,40,movements,el-ex, rt, d,76830.83397666668, -1.637420710342007, 0.2767470359131555, 2.742948006855501, 0.643933117389679, -0.5504628419876099, -0.9062579870223999, -0.9598150253295898, -0.27322790026664734, 0.064041867852211, -0.48416978120803833, -0.013271093368530273, -0.0628364160656929, -0.7276230246742603, 0.050849471765260834, -0.23270983515774407,-0.6432923774887375,-1.4615936279296875,-0.2914886474609375,0.0167236328125
20220111-1138,2022-01-11 11:38:51Z,u01, 63,40,movements,el-ex, rt, d,76830.85891666666, -1.6572643103532079, 0.2993833135289796, 2.760266795333928, 0.43857133388519287, -0.6504807472229004, -0.9833415746688843, -0.9519485831260681, -0.29493099451065063, 0.08251883834600449, -0.37056106328964233, -0.019827216863632202, -0.06639028340578079, -0.7346615797128102, 0.03913797212502368, -0.23457496480003698,-0.63538576840661,-1.322509765625,-0.31475830078125,0.0161285400390625
20220111-1138,2022-01-11 11:38:51Z,u01, 64,40,movements,el-ex, rt, d,76830.88385666667, -1.6785118441734348, 0.32318959789464535, 2.7713826596578457, 0.2669336795806885, -0.7706584930419922, -0.9989268779754639, -0.9427316784858704, -0.3175926208496094, 0.10194139927625656, -0.3318197727203369, -0.16327285766601562, 0.03520454466342926, -0.7416862605065837, 0.029532845656573714, -0.2390287205289019,-0.6260148708253201,-1.2701873779296875,-0.4832916259765625,0.1224517822265625
20220111-1138,2022-01-11 11:38:51Z,u01, 65,40,movements,el-ex, rt, d,76830.90879579168, -1.6997376054740108, 0.3462915100157174, 2.7807169644301797, 0.3199789524078369, -0.6718674302101135, -0.9114752411842346, -0.9328292012214661, -0.33941179513931274, 0.12095124274492264, -0.30836641788482666, -0.06871500611305237, 0.014577269554138184, -0.7483568536364134, 0.020919849029774507, -0.24400329414307426,-0.6164306372414883,-1.2411956787109375,-0.4081268310546875,0.135528564453125
20220111-1138,2022-01-11 11:38:51Z,u01, 66,40,movements,el-ex, rt, d,76830.93373679167, -1.721307272516312, 0.36675576069393945, 2.7959520139780687, 0.5021299123764038, -0.6486538648605347, -0.867321789264679, -0.9229421019554138, -0.358588844537735, 0.13997143507003784, -0.13662821054458618, 0.014289528131484985, -0.07367205619812012, -0.7548924581565031, 0.011094762552901871, -0.24644111823772014,-0.6076850124466364,-1.0803070068359375,-0.345733642578125,0.0557098388671875
20220111-1138,2022-01-11 11:38:51Z,u01, 67,40,movements,el-ex, rt, d,76830.95867679168, -1.7432387496247472, 0.38478521326897985, 2.811516221508626, 0.40448102355003357, -0.6296872496604919, -0.7284306287765503, -0.9131321310997009, -0.37536007165908813, 0.15904229879379272, -0.1148676872253418, -0.023596227169036865, -0.0701904296875, -0.7612601429349019, 0.00203600721779984, -0.24814089994525582,-0.5990867367387518,-1.0279998779296875,-0.398956298828125,0.0888519287109375
20220111-1138,2022-01-11 11:38:51Z,u01, 68,40,movements,el-ex, rt, d,76830.98361679167, -1.7618119921987736, 0.398732089183062, 2.8235781151442185, 0.24361060559749603, -0.4920969605445862, -0.5389643907546997, -0.9047927856445312, -0.3882502019405365, 0.17496274411678314, -0.0654069185256958, 0.011815845966339111, -0.05788205564022064, -0.7664586237101267, -0.004748457502193937, -0.24960906338266137,-0.5917888109874001,-0.9879302978515625,-0.3809967041015625,0.11138916015625
20220111-1138,2022-01-11 11:38:51Z,u01, 69,40,movements,el-ex, rt, d,76831.00855679167, -1.775763438937387, 0.4084947844623826, 2.831289274280097, 0.21138952672481537, -0.3938218653202057, -0.3681088387966156, -0.8985098600387573, -0.3972284197807312, 0.18678808212280273, -0.0005227327346801758, -0.007297337055206299, -0.050679683685302734, -0.7702672554323703, -0.00907703483787975, -0.2509430623453516,-0.586202698294569,-0.8990325927734375,-0.4045257568359375,0.1361083984375
20220111-1138,2022-01-11 11:38:51Z,u01, 70,40,movements,el-ex, rt, d,76831.03349779166, -1.7877577088537981, 0.4150791150020858, 2.8385305701613652, 0.2297385334968567, -0.331697016954422, -0.24132965505123138, -0.8936312198638916, -0.40326231718063354, 0.19698403775691986, -0.0015408992767333984, 0.03332829475402832, -0.016121625900268555, -0.77352250131555, -0.01244813907682607, -0.25130530677371543,-0.5816817070008324,-0.891265869140625,-0.377410888671875,0.19354248046875
20220111-1138,2022-01-11 11:38:51Z,u01, 71,40,movements,el-ex, rt, d,76831.05843779167, -1.7977564902239809, 0.4170388041291787, 2.8465514244154457, 0.2700943946838379, -0.2034820020198822, -0.02841677889227867, -0.8908452391624451, -0.40505483746528625, 0.20573103427886963, 0.0021886825561523438, 0.046931058168411255, -0.04426264762878418, -0.7763008096857195, -0.014918885397931125, -0.2497687852571167,-0.578575849765981,-0.8886566162109375,-0.358123779296875,0.161468505859375
20220111-1138,2022-01-11 11:38:51Z,u01, 72,40,movements,el-ex, rt, d,76831.08337779167, -1.8029531616172714, 0.41524312209040165, 2.848338766100195, -0.14426161348819733, -0.1664687842130661, 0.11774130165576935, -0.8904704451560974, -0.403412401676178, 0.21052466332912445, 0.05988883972167969, -0.05923408269882202, 0.056702375411987305, -0.7778527140468481, -0.01440449465134458, -0.24862661917070353,-0.5769942941486301,-0.8306884765625,-0.4344329833984375,0.2359466552734375
20220111-1138,2022-01-11 11:38:51Z,u01, 73,40,movements,el-ex, rt, d,76831.10831779167, -1.8045314279770415, 0.4126974813162677, 2.840569894240572, -0.23913949728012085, -0.15706591308116913, 0.23434734344482422, -0.8911332488059998, -0.40108180046081543, 0.21216697990894318, -0.02715587615966797, -0.10019993782043457, 0.09606051445007324, -0.7784442961023701, -0.010390754314336004, -0.2499327986058785,-0.5757170133481382,-0.9182891845703125,-0.50128173828125,0.3082275390625
20220111-1138,2022-01-11 11:38:51Z,u01, 74,40,movements,el-ex, rt, d,76831.13325779168, -1.8037104455191977, 0.40542441909655164, 2.8366173908200203, 0.020016435533761978, 0.07229830324649811, 0.4015243351459503, -0.8941218852996826, -0.39440882205963135, 0.212103009223938, -0.08572125434875488, 0.03417932987213135, 0.10000014305114746, -0.7784643994062157, -0.006684796318510211, -0.24837508893183063,-0.5764185060956486,-0.996368408203125,-0.388641357421875,0.3256072998046875
20220111-1138,2022-01-11 11:38:51Z,u01, 75,40,movements,el-ex, rt, d,76831.15819879167, -1.7974476208188268, 0.39502679670811564, 2.828998060107129, -0.4766780436038971, 0.17353510856628418, 0.5372456312179565, -0.8993801474571228, -0.3848329186439514, 0.20740950107574463, 0.0018125176429748535, 0.0693269670009613, 0.054629549384117126, -0.7769833981560682, -0.0012442507024345573, -0.24671806659055887,-0.5791591697459129,-0.8975677490234375,-0.3155059814453125,0.2620391845703125
20220111-1138,2022-01-11 11:38:51Z,u01, 76,40,movements,el-ex, rt, d,76831.18313879168, -1.786266823306197, 0.3833460146461098, 2.809700925620735, -0.5784569382667542, 0.17638728022575378, 0.6604346036911011, -0.9059725999832153, -0.37402570247650146, 0.19828858971595764, 0.019024968147277832, -0.12681350111961365, -0.019699811935424805, -0.7739971102322349, 0.008530597265006101, -0.24803983741593894,-0.5825220524224414,-0.868499755859375,-0.4865875244140625,0.14697265625
20220111-1138,2022-01-11 11:38:51Z,u01, 77,40,movements,el-ex, rt, d,76831.20807879168, -1.774240634879605, 0.3682363184412428, 2.7926402084739985, -0.3313162326812744, 0.3159659504890442, 0.8255215883255005, -0.913722574710846, -0.3599705398082733, 0.18849951028823853, -0.0507548451423645, -0.1244196891784668, 0.040122851729393005, -0.7706559124939731, 0.018417830002941615, -0.2475745364923057,-0.5869046136862437,-0.9644775390625,-0.4843902587890625,0.2286224365234375
20220111-1138,2022-01-11 11:38:51Z,u01, 78,40,movements,el-ex, rt, d,76831.23301879167, -1.760737587649639, 0.3470932808874439, 2.7859600138871032, 0.1646808385848999, 0.5293692350387573, 0.9359428286552429, -0.9234533309936523, -0.3401658833026886, 0.17754215002059937, 0.023093223571777344, 0.0402849018573761, 0.01828908920288086, -0.7668707232506387, 0.02608382740544052, -0.24198746962481063,-0.5938611137718103,-0.930450439453125,-0.306304931640625,0.1995086669921875
20220111-1138,2022-01-11 11:38:51Z,u01, 79,40,movements,el-ex, rt, d,76831.25795879167, -1.7484541736961725, 0.32207852679002585, 2.7877120725642826, 0.18462476134300232, 0.47719159722328186, 1.0211477279663086, -0.9336493015289307, -0.31653890013694763, 0.16763751208782196, 0.08272755146026611, 0.005229055881500244, 0.06664587557315826, -0.7634100093423344, 0.03199870473989991, -0.23254179566148825,-0.6017521361325,-0.850921630859375,-0.311309814453125,0.234283447265625
20220111-1138,2022-01-11 11:38:51Z,u01, 80,40,movements,el-ex, rt, d,76831.28289979167, -1.7341336690153462, 0.2940688950726122, 2.7863059811160933, 0.14323896169662476, 0.6565757393836975, 1.1794750690460205, -0.9443338513374329, -0.28984883427619934, 0.15563148260116577, 0.07581889629364014, 0.05750328302383423, -0.025001049041748047, -0.759090353193921, 0.0399697313247836, -0.22305227306407624,-0.6102720087317768,-0.8877410888671875,-0.266998291015625,0.171417236328125
20220111-1138,2022-01-11 11:38:51Z,u01, 81,40,movements,el-ex, rt, d,76831.30783979167, -1.7169515658997039, 0.26425132120737077, 2.783098083848912, 0.03809170797467232, 0.5917609333992004, 1.204930305480957, -0.9549967050552368, -0.2611866593360901, 0.1405801922082901, 0.17222082614898682, 0.12304884195327759, -0.009385108947753906, -0.7535818422810323, 0.04903575689371342, -0.2136232988914091,-0.6197378361183387,-0.78277587890625,-0.1381378173828125,0.131195068359375
20220111-1138,2022-01-11 11:38:51Z,u01, 82,40,movements,el-ex, rt, d,76831.33277979167, -1.6992877489041738, 0.23390983997154755, 2.778908567117412, -0.04550694674253464, 0.7595900893211365, 1.252416729927063, -0.9647483229637146, -0.23178264498710632, 0.12464863061904907, 0.15795516967773438, 0.10588240623474121, -0.004363656044006348, -0.7475783006180445, 0.058745197047717024, -0.20446387096908553,-0.629182120491053,-0.8264617919921875,-0.1217193603515625,0.13360595703125
20220111-1138,2022-01-11 11:38:51Z,u01, 83,40,movements,el-ex, rt, d,76831.35771979167, -1.6793360290359978, 0.20390602714711858, 2.770644692924024, -0.3371591567993164, 0.6437612771987915, 1.1799349784851074, -0.9735203385353088, -0.2024959772825241, 0.10608252137899399, 0.2945805788040161, 0.07387962937355042, 0.05176961421966553, -0.7403867641510917, 0.06977606267113223, -0.19695976703445178,-0.6388783888362481,-0.6789398193359375,-0.1286163330078125,0.1578521728515625
20220111-1138,2022-01-11 11:38:51Z,u01, 84,40,movements,el-ex, rt, d,76831.38266079167, -1.6631743675518567, 0.17629975496130013, 2.755628312695403, -0.4790753424167633, 0.4879819452762604, 1.1317720413208008, -0.9803017973899841, -0.1753878891468048, 0.09081684052944183, 0.34137046337127686, 0.011630550026893616, 0.09662211686372757, -0.7338420741826377, 0.0829712650625104, -0.19255652091857922,-0.6461529781665368,-0.627227783203125,-0.1512451171875,0.2067108154296875
20220111-1138,2022-01-11 11:38:51Z,u01, 85,40,movements,el-ex, rt, d,76831.40760079167, -1.647709020573311, 0.15119682669048354, 2.7449098640976897, -0.14157964289188385, 0.6091732382774353, 0.9547832608222961, -0.9856690764427185, -0.1506214141845703, 0.07596030086278915, 0.36860352754592896, 0.049089446663856506, 0.08434844762086868, -0.7274403622679259, 0.09386517710538289, -0.18782114459454305,-0.6532558395558041,-0.6170654296875,-0.101531982421875,0.160308837890625
20220111-1138,2022-01-11 11:38:51Z,u01, 86,40,movements,el-ex, rt, d,76831.43254079168, -1.632547473759065, 0.12976012857960698, 2.744417980882763, 0.12531615793704987, 0.5523625016212463, 0.738147497177124, -0.9897028803825378, -0.12939628958702087, 0.061193086206912994, 0.5991085171699524, 0.09649838507175446, -0.0030876435339450836, -0.7215370907845591, 0.0999038054095241, -0.1811539374572389,-0.6607469953736285,-0.4303131103515625,-0.033203125,0.062408447265625
20220111-1138,2022-01-11 11:38:51Z,u01, 87,40,movements,el-ex, rt, d,76831.45748079167, -1.6225345973600491, 0.11467394254715414, 2.74335177400403, -0.1850050836801529, 0.1776682734489441, 0.4738311469554901, -0.9921027421951294, -0.11442277580499649, 0.051375530660152435, 0.7303687930107117, 0.02129838615655899, 0.014343973249197006, -0.7174691524938773, 0.10452645523054899, -0.17671687283128817,-0.6656450327792007,-0.2617340087890625,-0.0931243896484375,0.0657196044921875
20220111-1138,2022-01-11 11:38:51Z,u01, 88,40,movements,el-ex, rt, d,76831.48242079167, -1.6224043658045426, 0.10681078374561874, 2.733534918540605, -0.4768712520599365, -0.13810239732265472, 0.21835684776306152, -0.9929772019386292, -0.10660780966281891, 0.051291149109601974, 0.612499475479126, -0.1247459203004837, 0.07120632380247116, -0.716510943916494, 0.11071423509350509, -0.1772319394541616,-0.6655397174173917,-0.3476104736328125,-0.2111053466796875,0.1214447021484375
20220111-1138,2022-01-11 11:38:51Z,u01, 89,40,movements,el-ex, rt, d,76831.50736179166, -1.6246974819686353, 0.10384646288105909, 2.7241825498987065, -0.23398888111114502, -0.16305628418922424, 0.05718041956424713, -0.993168294429779, -0.10365991294384003, 0.05358482152223587, 0.6145215034484863, -0.03476780652999878, 0.03235268592834473, -0.7165915239057519, 0.11527792180712731, -0.1791713305568961,-0.6641575244443758,-0.3786468505859375,-0.138427734375,0.0859375
20220111-1138,2022-01-11 11:38:51Z,u01, 90,40,movements,el-ex, rt, d,76831.53230179167, -1.6329765142055177, 0.1069025578830235, 2.719650009320298, -0.19433286786079407, -0.5262194871902466, -0.2977493107318878, -0.9923697710037231, -0.10669905692338943, 0.061785388737916946, 0.7005454897880554, -0.024938516318798065, -0.026095155626535416, -0.7192313666649235, 0.1166144704225911, -0.18126637081367475,-0.6604920512758423,-0.2773590087890625,-0.098358154296875,0.0461883544921875
20220111-1138,2022-01-11 11:38:51Z,u01, 91,40,movements,el-ex, rt, d,76831.55724179167, -1.6474226275466517, 0.12105690411998046, 2.7123478878747997, -0.43242955207824707, -0.7004784941673279, -0.8034728765487671, -0.9897686243057251, -0.1207614466547966, 0.07599110156297684, 0.5918805003166199, -0.023693501949310303, -0.011324405670166016, -0.724281550904637, 0.11580925755098809, -0.1878172216581911,-0.6532450712873958,-0.39788818359375,-0.1444549560546875,0.064666748046875
20220111-1138,2022-01-11 11:38:51Z,u01, 92,40,movements,el-ex, rt, d,76831.58218179167, -1.6643617910914215, 0.14685366770366426, 2.706882623153179, -0.039863910526037216, -0.5926035046577454, -1.1052933931350708, -0.9849093556404114, -0.14632639288902283, 0.09242336452007294, 0.29393041133880615, 0.07166516780853271, 0.0650014877319336, -0.7307099024376731, 0.11079134491173437, -0.19776360252576672,-0.6439548593435279,-0.6552734375,-0.0540008544921875,0.192779541015625
20220111-1138,2022-01-11 11:38:51Z,u01, 93,40,movements,el-ex, rt, d,76831.60712179168, -1.6787509659431252, 0.17451022272368805, 2.714007513508052, 0.16500721871852875, -0.5655835866928101, -1.1954201459884644, -0.9790786504745483, -0.17362582683563232, 0.10610860586166382, 0.32501065731048584, 0.050411105155944824, -0.0008077621459960938, -0.7368652068763482, 0.10041897956953666, -0.20455216159010348,-0.6364778960814759,-0.6540679931640625,-0.1232147216796875,0.1053009033203125
20220111-1138,2022-01-11 11:38:51Z,u01, 94,40,movements,el-ex, rt, d,76831.63206279167, -1.6958505934223393, 0.20580022842389492, 2.717738165817636, -0.13023275136947632, -0.6773456335067749, -1.318631887435913, -0.9712533354759216, -0.2043505609035492, 0.12209650874137878, 0.27070724964141846, 0.08549988269805908, 0.07901428639888763, -0.7435475467362715, 0.09047265603628196, -0.21372157437747535,-0.627116205748721,-0.66326904296875,-0.1327667236328125,0.1705322265625
20220111-1138,2022-01-11 11:38:51Z,u01, 95,40,movements,el-ex, rt, d,76831.65700279168, -1.7122620440455965, 0.23771185044436957, 2.7211018821502813, 0.17867954075336456, -0.49248629808425903, -1.185149073600769, -0.9621706008911133, -0.2354794442653656, 0.1370294839143753, 0.04557520151138306, 0.08104528486728668, 0.10370837152004242, -0.7496872282066628, 0.08052205006608226, -0.2233995538887837,-0.6177198981107679,-0.916595458984375,-0.1544342041015625,0.2407379150390625
20220111-1138,2022-01-11 11:38:51Z,u01, 96,40,movements,el-ex, rt, d,76831.68194279168, -1.723803102221619, 0.2621246438035449, 2.7337480421559848, 0.3469182252883911, -0.25886768102645874, -0.9478206038475037, -0.9545579552650452, -0.2591331899166107, 0.14720436930656433, 0.04257059097290039, 0.0036705434322357178, -0.042178139090538025, -0.7542073106721474, 0.06909065253119723, -0.227850587871076,-0.6119493053498282,-0.9610748291015625,-0.2620849609375,0.1356353759765625
20220111-1138,2022-01-11 11:38:51Z,u01, 97,40,movements,el-ex, rt, d,76831.70688279167, -1.735448185246952, 0.2857954010600791, 2.7365471792295275, -0.4303436875343323, -0.6779506206512451, -0.9129850268363953, -0.9464617371559143, -0.2819206714630127, 0.15726038813591003, 0.15796387195587158, 0.1371147632598877, 0.03254365921020508, -0.7581724993869045, 0.061681869234175346, -0.23514503660736116,-0.605042640576991,-0.7884979248046875,-0.144805908203125,0.1898040771484375
20220111-1138,2022-01-11 11:38:51Z,u01, 98,40,movements,el-ex, rt, d,76831.73182379168, -1.7481882217983533, 0.3073867125263888, 2.7289602339548917, -0.31439459323883057, -0.3610132336616516, -0.6667583584785461, -0.9381704330444336, -0.30256888270378113, 0.16819176077842712, -0.14250290393829346, 0.009417027235031128, 0.026098385453224182, -0.7619722122302497, 0.05911198056006661, -0.24482811743529595,-0.5966266704705714,-1.0669708251953125,-0.254119873046875,0.2166290283203125
20220111-1138,2022-01-11 11:38:52Z,u01, 99,40,movements,el-ex, rt, d,76831.75676379167, -1.7549093255120198, 0.3229359524206795, 2.7307166593275403, 0.07989471405744553, -0.22353674471378326, -0.657859742641449, -0.9322803616523743, -0.3173521161079407, 0.17361104488372803, -0.013779699802398682, -0.06336989998817444, -0.11539877951145172, -0.7641076593286676, 0.054267926312528025, -0.24972847822235023,-0.5923091170865408,-0.9460601806640625,-0.3807220458984375,0.0582122802734375
20220111-1138,2022-01-11 11:38:52Z,u01, 100,40,movements,el-ex, rt, d,76831.78170379167, -1.764531510015806, 0.33954707021534336, 2.734155191945072, -0.04203695058822632, -0.4315454065799713, -0.6570970416069031, -0.9252654910087585, -0.33306005597114563, 0.18153336644172668, 0.06238114833831787, 0.058005183935165405, -0.009811058640480042, -0.7670602779292823, 0.04883865025034939, -0.25447089827085967,-0.5869222360788562,-0.8412628173828125,-0.2790374755859375,0.15106201171875
20220111-1138,2022-01-11 11:38:52Z,u01, 101,40,movements,el-ex, rt, d,76831.80664379167, -1.7755433935623541, 0.3528671862674087, 2.735044079963691, -0.15609464049339294, -0.3879150450229645, -0.3673136830329895, -0.9187849760055542, -0.3455897569656372, 0.19079209864139557, -0.046028077602386475, 0.040429264307022095, 0.06644055247306824, -0.7702668769564742, 0.04566167339037552, -0.258776992258556,-0.5810665324074266,-0.964813232421875,-0.3051605224609375,0.257232666015625
20220111-1138,2022-01-11 11:38:52Z,u01, 102,40,movements,el-ex, rt, d,76831.83158379167, -1.7822267330073613, 0.36046537934041145, 2.731844799279239, -0.17389224469661713, -0.21518899500370026, -0.2317057102918625, -0.9148956537246704, -0.35270974040031433, 0.1963716447353363, -0.12203055620193481, -0.05294516682624817, -0.05634176731109619, -0.7720938092134857, 0.04535385052152319, -0.26230900045454153,-0.5770686275089685,-1.0323944091796875,-0.4098663330078125,0.16741943359375
20220111-1138,2022-01-11 11:38:52Z,u01, 103,40,movements,el-ex, rt, d,76831.85652479167, -1.7841644450858338, 0.36735329962962415, 2.7304527091540036, -0.008671834133565426, 0.0039207823574543, -0.30003517866134644, -0.9121174216270447, -0.3591465651988983, 0.19762493669986725, -0.07852894067764282, 0.003052234649658203, -0.0892876386642456, -0.7725797944873829, 0.043965112203101175, -0.26516710092618245,-0.5752164499155911,-0.9906463623046875,-0.3560943603515625,0.10833740234375
20220111-1138,2022-01-11 11:38:52Z,u01, 104,40,movements,el-ex, rt, d,76831.88146479167, -1.7846144628758862, 0.37414674717307195, 2.7337028134996704, 0.0747707262635231, 0.02016686275601387, -0.2564450800418854, -0.9096229076385498, -0.36547842621803284, 0.19751307368278503, -0.027922749519348145, 0.03814697265625, 0.04278227686882019, -0.7727267825295301, 0.04061839295843023, -0.2666880271598753,-0.5745614405232935,-0.9284820556640625,-0.3316192626953125,0.2221221923828125
20220111-1138,2022-01-11 11:38:52Z,u01, 105,40,movements,el-ex, rt, d,76831.90640579167, -1.7831837421237586, 0.3784183823506768, 2.7335589549755133, -0.2047099620103836, 0.1304594725370407, -0.06221229210495949, -0.9083701372146606, -0.36945122480392456, 0.19588057696819305, -0.14326542615890503, 0.03857964277267456, 0.08752080798149109, -0.77227531683375, 0.0391295273802546, -0.2683061801212102,-0.5745183984734072,-1.0516357421875,-0.33087158203125,0.2834014892578125
20220111-1138,2022-01-11 11:38:52Z,u01, 106,40,movements,el-ex, rt, d,76831.93134579167, -1.775812461224064, 0.3788718549761125, 2.7293109381760403, -0.03280330449342728, 0.3247879445552826, 0.020480724051594734, -0.9096254706382751, -0.3698725700378418, 0.18914537131786346, -0.1072356104850769, -0.00846913456916809, -0.14967092871665955, -0.7700662356073612, 0.03963181363352303, -0.2698378906734026,-0.5767277344720552,-1.0426177978515625,-0.375885009765625,0.0632476806640625
20220111-1138,2022-01-11 11:38:52Z,u01, 107,40,movements,el-ex, rt, d,76831.95628579168, -1.7681149697619445, 0.3799397577870811, 2.7296436175099807, 0.026626698672771454, 0.29010048508644104, -0.0655658096075058, -0.9106663465499878, -0.37086451053619385, 0.18206042051315308, -0.030587196350097656, 0.015517860651016235, -0.10636164247989655, -0.7678390333474542, 0.038123870600638876, -0.2702758483693016,-0.5795865906923809,-0.941253662109375,-0.3553466796875,0.0756988525390625
20220111-1138,2022-01-11 11:38:52Z,u01, 108,40,movements,el-ex, rt, d,76831.98122679167, -1.7613528485190815, 0.3798689961624923, 2.7307251674291093, 0.05031178891658783, 0.30223384499549866, 0.10814952105283737, -0.9119023084640503, -0.370798796415329, 0.17590323090553284, -0.0801323652267456, 0.02103695273399353, 0.006042450666427612, -0.7658955691125406, 0.036818361565844504, -0.2700629658476718,-0.5823351233611584,-0.9822540283203125,-0.3369140625,0.18731689453125
20220111-1138,2022-01-11 11:38:52Z,u01, 109,40,movements,el-ex, rt, d,76832.00616679167, -1.7530478251240469, 0.3752502821202689, 2.7308075353421675, -0.06799770891666412, 0.337570458650589, 0.18408310413360596, -0.9150063991546631, -0.3665054142475128, 0.16863250732421875, -0.08093470335006714, -0.009242236614227295, -0.029869213700294495, -0.763502350524274, 0.037153941281737546, -0.2685393660997644,-0.5861486818903905,-0.995941162109375,-0.3757476806640625,0.138763427734375
20220111-1138,2022-01-11 11:38:52Z,u01, 110,40,movements,el-ex, rt, d,76832.03110679168, -1.7434808963348911, 0.37105601791840587, 2.728297965615584, 0.1125701367855072, 0.3847591280937195, 0.16506187617778778, -0.9180842041969299, -0.36259979009628296, 0.16013388335704803, -0.08661556243896484, -0.03721100091934204, -0.2017751783132553, -0.760663554277782, 0.03818242282182194, -0.26796141894935205,-0.5900252371646197,-1.0075531005859375,-0.375244140625,-0.0239410400390625
20220111-1138,2022-01-11 11:38:52Z,u01, 111,40,movements,el-ex, rt, d,76832.05604679167, -1.7357981010726222, 0.3679781751904106, 2.734934561866075, 0.2991057336330414, 0.38289692997932434, 0.06462648510932922, -0.9203836917877197, -0.35972967743873596, 0.1532583236694336, -0.07355839014053345, -0.03564074635505676, -0.1462545543909073, -0.7585243217014714, 0.03563729153456957, -0.26504356927603157,-0.5942412259599146,-0.9939422607421875,-0.3953704833984375,0.0070037841796875
20220111-1138,2022-01-11 11:38:52Z,u01, 112,40,movements,el-ex, rt, d,76832.08098779168, -1.7286803219596998, 0.36245380889656686, 2.7409067215673564, 0.18204455077648163, 0.3673226237297058, 0.29927054047584534, -0.9233999252319336, -0.354569673538208, 0.14701366424560547, -0.0999765396118164, -0.03758120536804199, -0.032999977469444275, -0.7565279430865666, 0.03423889793553597, -0.26142501965763254,-0.598456505416745,-1.0206298828125,-0.3953857421875,0.1120758056640625
20220111-1138,2022-01-11 11:38:52Z,u01, 113,40,movements,el-ex, rt, d,76832.10592779166, -1.7198749571195386, 0.3519221082336996, 2.7419450909579557, 0.0390712171792984, 0.38247987627983093, 0.5013558864593506, -0.928300142288208, -0.34470275044441223, 0.139424130320549, -0.07186782360076904, -0.029488563537597656, -0.03294835984706879, -0.7539265062482009, 0.036150860506386495, -0.2575330665567798,-0.603294923859649,-1.0001678466796875,-0.3741912841796875,0.106475830078125
20220111-1138,2022-01-11 11:38:52Z,u01, 114,40,movements,el-ex, rt, d,76832.13086779167, -1.7095463382898444, 0.33832593815708434, 2.7404789007358366, 0.07017310708761215, 0.39191684126853943, 0.5894511938095093, -0.9342460632324219, -0.3319084048271179, 0.13046495616436005, -0.02412790060043335, -0.03378376364707947, -0.055071353912353516, -0.7507623669531327, 0.03985401972262698, -0.2533628264368384,-0.6087485643315795,-0.9622955322265625,-0.355804443359375,0.0853729248046875
20220111-1138,2022-01-11 11:38:52Z,u01, 115,40,movements,el-ex, rt, d,76832.15580779167, -1.7000793196681359, 0.3235302672699992, 2.7426882800459316, 0.1685892641544342, 0.41694918274879456, 0.555128812789917, -0.9402065873146057, -0.3179156482219696, 0.12223449349403381, -0.05338478088378906, -0.024537354707717896, -0.014492258429527283, -0.7478578968786534, 0.042729546316090716, -0.24765798099767466,-0.6144496017145604,-0.99359130859375,-0.3424530029296875,0.1077423095703125
20220111-1138,2022-01-11 11:38:52Z,u01, 116,40,movements,el-ex, rt, d,76832.18074779167, -1.6899427402368938, 0.30828611812985096, 2.7429231408137347, 0.02525796927511692, 0.3911948502063751, 0.6549188494682312, -0.9460995197296143, -0.30342599749565125, 0.11326082050800323, -0.12970596551895142, -0.01055404543876648, 0.05412803590297699, -0.7446286137217624, 0.0464611369043188, -0.2424378353019088,-0.6201559012988412,-1.06072998046875,-0.3213043212890625,0.1704559326171875
20220111-1138,2022-01-11 11:38:52Z,u01, 117,40,movements,el-ex, rt, d,76832.20568879167, -1.6798229975853507, 0.2920886286512388, 2.741500246248532, 0.05860673636198044, 0.39141377806663513, 0.6393702626228333, -0.9519584774971008, -0.2879530191421509, 0.10420206189155579, -0.16669386625289917, 0.03249037265777588, 0.03573620319366455, -0.7412703363411639, 0.05117930094888201, -0.23743081538827918,-0.6257200081405669,-1.11865234375,-0.255462646484375,0.1399383544921875
20220111-1138,2022-01-11 11:38:52Z,u01, 118,40,movements,el-ex, rt, d,76832.23062879167, -1.671070359891446, 0.277669786499549, 2.744144930386701, 0.26998627185821533, 0.36292126774787903, 0.4628148078918457, -0.9568658471107483, -0.2741154432296753, 0.09627167880535126, -0.20437365770339966, -0.03472241759300232, -0.017231233417987823, -0.7383896158378827, 0.05400569814532569, -0.23176754797271462,-0.6309895790634885,-1.149810791015625,-0.2829742431640625,0.073333740234375
20220111-1138,2022-01-11 11:38:52Z,u01, 119,40,movements,el-ex, rt, d,76832.25556879168, -1.664789115241653, 0.2691000293845845, 2.7498793493194746, 0.2025272250175476, 0.2662898302078247, 0.1886436939239502, -0.9597553610801697, -0.26586395502090454, 0.09047668427228928, -0.3018260598182678, -0.05508941411972046, 0.06421685218811035, -0.7364215217978177, 0.0540525971952554, -0.2271164693809209,-0.6349643890903596,-1.2615814208984375,-0.320953369140625,0.154693603515625
20220111-1138,2022-01-11 11:38:52Z,u01, 120,40,movements,el-ex, rt, d,76832.28050879168, -1.6600496427186955, 0.2661788520713929, 2.7551755647543104, 0.19832855463027954, 0.2513866424560547, -0.009630639106035233, -0.9609429240226746, -0.2630468010902405, 0.08599581569433212, -0.44875568151474, -0.08253428339958191, 0.09675861150026321, -0.7350074548454562, 0.05255424290723537, -0.22453399298748009,-0.6376414778648776,-1.3888092041015625,-0.329010009765625,0.1699676513671875
20220111-1138,2022-01-11 11:38:52Z,u01, 121,40,movements,el-ex, rt, d,76832.30544879167, -1.6550493410278717, 0.26823649511449066, 2.757908235030674, 0.044194940477609634, 0.18384146690368652, -0.16509659588336945, -0.9608194828033447, -0.2650313973426819, 0.08114402741193771, -0.4751546382904053, -0.18284454941749573, 0.09146332740783691, -0.7335138233352703, 0.05029398834552051, -0.22450999836620664,-0.6395492637234961,-1.43597412109375,-0.4478759765625,0.172607421875
20220111-1138,2022-01-11 11:38:52Z,u01, 122,40,movements,el-ex, rt, d,76832.33038979168, -1.6521736315006978, 0.2748968186335228, 2.760221862266496, 0.16450460255146027, 0.0959995836019516, -0.34838512539863586, -0.9592682123184204, -0.27144762873649597, 0.0782354325056076, -0.4439758062362671, -0.11255505681037903, 0.052318692207336426, -0.7327491956620471, 0.046865061713972866, -0.22616507374830155,-0.6401028654804385,-1.4154815673828125,-0.3860015869140625,0.14544677734375
20220111-1138,2022-01-11 11:38:52Z,u01, 123,40,movements,el-ex, rt, d,76832.35532979167, -1.653997392694213, 0.2842937188812059, 2.768703602051659, 0.37721702456474304, -0.05605760216712952, -0.480063796043396, -0.9565396904945374, -0.2804795801639557, 0.07976926863193512, -0.4234957695007324, -0.1699751317501068, 0.06392265111207962, -0.7336361202113075, 0.040775961403135386, -0.22669082194743928,-0.6393173586511605,-1.380035400390625,-0.4504547119140625,0.1436920166015625
20220111-1138,2022-01-11 11:38:52Z,u01, 124,40,movements,el-ex, rt, d,76832.38026979167, -1.6601051341452355, 0.29753199416061127, 2.778913832614663, 0.2971789538860321, -0.18579550087451935, -0.6033698916435242, -0.9522526860237122, -0.293161541223526, 0.08527138084173203, -0.4747798442840576, -0.179006427526474, 0.09498060494661331, -0.7358878766268035, 0.03323740571367367, -0.22794706578302024,-0.6367138248146612,-1.4253692626953125,-0.4747161865234375,0.1841583251953125
20220111-1138,2022-01-11 11:38:52Z,u01, 125,40,movements,el-ex, rt, d,76832.40520979167, -1.6681941586815452, 0.31293945901136055, 2.7866583020300455, 0.20680919289588928, -0.26634132862091064, -0.6906380653381348, -0.9469234347343445, -0.30785664916038513, 0.09252104163169861, -0.44658535718917847, -0.09077915549278259, 0.015984170138835907, -0.7386330186482899, 0.026110973616541966, -0.23076735230839168,-0.6328395213766318,-1.3935089111328125,-0.3986358642578125,0.1085052490234375
20220111-1138,2022-01-11 11:38:52Z,u01, 126,40,movements,el-ex, rt, d,76832.43014979167, -1.6782535449188807, 0.33090425000167606, 2.7934323882441596, 0.14640823006629944, -0.3793785274028778, -0.8023258447647095, -0.9402939081192017, -0.324898362159729, 0.10143208503723145, -0.38439786434173584, -0.122153639793396, 0.058205366134643555, -0.7418658180307048, 0.018739002875958033, -0.23483168673901153,-0.6278041668193853,-1.3275146484375,-0.4354248046875,0.1425323486328125
20220111-1138,2022-01-11 11:38:52Z,u01, 127,40,movements,el-ex, rt, d,76832.45509079167, -1.690598618611563, 0.35120582377250187, 2.7978268387836605, 0.009679773822426796, -0.45482543110847473, -0.8439804315567017, -0.9322283267974854, -0.3440302610397339, 0.11222048848867416, -0.4215161204338074, -0.12662705779075623, 0.10280632972717285, -0.7456347983309153, 0.01178952776643244, -0.24052018411276335,-0.6213209892848313,-1.3537445068359375,-0.4706573486328125,0.21502685546875
20220111-1138,2022-01-11 11:38:52Z,u01, 128,40,movements,el-ex, rt, d,76832.48003079167, -1.7035285004361624, 0.3720705634581294, 2.801833201503947, 0.09398170560598373, -0.45610007643699646, -0.8679516315460205, -0.9233822822570801, -0.36354508996009827, 0.12328740954399109, -0.4498322606086731, -0.00768589973449707, 0.07957813888788223, -0.7494126255081007, 0.004941866796668304, -0.24660520215961396,-0.6144444928181971,-1.3727569580078125,-0.3914642333984375,0.2008209228515625
20220111-1138,2022-01-11 11:38:52Z,u01, 129,40,movements,el-ex, rt, d,76832.50497079168, -1.7153586781538726, 0.3928921555889589, 2.805462689349007, -0.08201725035905838, -0.3670167326927185, -0.7782852649688721, -0.914169430732727, -0.38286179304122925, 0.13308285176753998, -0.41636645793914795, 0.012942999601364136, 0.03558778762817383, -0.7526872869529905, -0.0018087243040876277, -0.25286918031036143,-0.6078780713155683,-1.330535888671875,-0.3699188232421875,0.168670654296875
20220111-1138,2022-01-11 11:38:52Z,u01, 130,40,movements,el-ex, rt, d,76832.52991079167, -1.7231005078661856, 0.41082444981741445, 2.804251414950151, -0.19017894566059113, -0.3211681544780731, -0.6590322852134705, -0.9061791300773621, -0.39936530590057373, 0.13909202814102173, -0.23687195777893066, -0.05624684691429138, -0.0979238748550415, -0.7546569144027383, -0.006241181817162822, -0.2596174498601199,-0.6025385471905738,-1.1727294921875,-0.4469757080078125,0.0410614013671875
20220111-1138,2022-01-11 11:38:52Z,u01, 131,40,movements,el-ex, rt, d,76832.55485179168, -1.7298769199658437, 0.4264820166981002, 2.8012254582390943, -0.18028077483177185, -0.30319660902023315, -0.5408739447593689, -0.8989309668540955, -0.41367051005363464, 0.14422111213207245, -0.15311670303344727, -0.08088210225105286, -0.08140075206756592, -0.7563224540464089, -0.009322126295004618, -0.26610970426212865,-0.5975575507205519,-1.0520477294921875,-0.4945526123046875,0.0628204345703125
20220111-1138,2022-01-11 11:38:52Z,u01, 132,40,movements,el-ex, rt, d,76832.57979179166, -1.7367061572525493, 0.43952951650489563, 2.799233650041583, -0.19160576164722443, -0.34333425760269165, -0.4676288366317749, -0.8925256729125977, -0.42551374435424805, 0.1494525820016861, -0.06680965423583984, -0.052544087171554565, -0.005058765411376953, -0.7580136947532425, -0.011896675012246116, -0.271370184524961,-0.5929856352864427,-0.9646759033203125,-0.4879302978515625,0.123504638671875
20220111-1138,2022-01-11 11:38:52Z,u01, 133,40,movements,el-ex, rt, d,76832.60473179167, -1.744416800051141, 0.44932988403332336, 2.796929078698566, 0.019769292324781418, -0.2802051305770874, -0.2567760646343231, -0.8871965408325195, -0.4343620240688324, 0.1556021273136139, -0.11139965057373047, -0.061334967613220215, -0.029000043869018555, -0.7600186073027828, -0.013144560065946831, -0.2755805063463992,-0.5884338148315493,-0.99859619140625,-0.495697021484375,0.1266021728515625
20220111-1138,2022-01-11 11:38:52Z,u01, 134,40,movements,el-ex, rt, d,76832.62967179167, -1.7512595177493628, 0.45164368740261496, 2.8024214306474984, 0.2536872327327728, -0.13565415143966675, -0.006743373814970255, -0.8851199150085449, -0.4364449977874756, 0.16148844361305237, 0.04817533493041992, -0.023775309324264526, -0.15392017364501953, -0.7619173372349854, -0.01503966471415108, -0.27483967490885747,-0.5862754661684397,-0.8772735595703125,-0.4663238525390625,0.0072784423828125
20220111-1138,2022-01-11 11:38:52Z,u01, 135,40,movements,el-ex, rt, d,76832.65461179167, -1.75863695163795, 0.44948668154598814, 2.807120571926606, 0.06236495450139046, -0.2776021659374237, 0.1126755028963089, -0.8848270177841187, -0.4345032572746277, 0.16818927228450775, 0.10617119073867798, 0.015207111835479736, -0.10225608944892883, -0.7641110813601512, -0.01512909209970198, -0.27274871917440824,-0.584391419484763,-0.778656005859375,-0.4192962646484375,0.0659332275390625
20220111-1138,2022-01-11 11:38:52Z,u01, 136,40,movements,el-ex, rt, d,76832.67955279167, -1.7629780551049086, 0.4433064280155797, 2.806372912489287, 0.03491632267832756, -0.048054665327072144, 0.37929022312164307, -0.8867077827453613, -0.4289286136627197, 0.17253845930099487, 0.027103960514068604, 0.031376153230667114, 0.00011467933654785156, -0.7655838283166956, -0.012273119581886205, -0.2707784537095633,-0.5834464925788831,-0.865386962890625,-0.3924560546875,0.16400146484375
20220111-1138,2022-01-11 11:38:52Z,u01, 137,40,movements,el-ex, rt, d,76832.70449279167, -1.7616774942981128, 0.4310516236123762, 2.8040574987440117, -0.027232669293880463, 0.018011700361967087, 0.5927587747573853, -0.8920258283615112, -0.41782647371292114, 0.17236949503421783, 0.13978266716003418, -0.03909802436828613, 0.04075004160404205, -0.7655889302174118, -0.007637942367361261, -0.2670404448949337,-0.5852390665711351,-0.7522430419921875,-0.4569244384765625,0.2131195068359375
20220111-1138,2022-01-11 11:38:52Z,u01, 138,40,movements,el-ex, rt, d,76832.72943279168, -1.7593886471032165, 0.4159328603191046, 2.797535050878992, -0.1597580909729004, -0.0060068173334002495, 0.7021620273590088, -0.8985205292701721, -0.40404343605041504, 0.1714920699596405, 0.17954176664352417, 0.11401966214179993, -0.048506274819374084, -0.7653402353225693, -0.0005983124070714219, -0.26350421548904124,-0.5872132525339677,-0.7117919921875,-0.3162384033203125,0.1530914306640625
20220111-1138,2022-01-11 11:38:53Z,u01, 139,40,movements,el-ex, rt, d,76832.75437279168, -1.7565595872821467, 0.3973092153973458, 2.794881101305415, 0.23784705996513367, 0.12273997813463211, 0.788157045841217, -0.906241238117218, -0.38693857192993164, 0.1703098714351654, 0.1782444715499878, 0.08428049087524414, -0.07672774791717529, -0.7649304467692738, 0.006028681378459577, -0.25757667513497196,-0.5903383449423754,-0.727996826171875,-0.3026580810546875,0.0935821533203125
20220111-1138,2022-01-11 11:38:53Z,u01, 140,40,movements,el-ex, rt, d,76832.77931279167, -1.7530249667728244, 0.3757049277847673, 2.7962698824157646, 0.007688430137932301, 0.21750828623771667, 0.8775484561920166, -0.9148465394973755, -0.366928368806839, 0.16858142614364624, 0.15454673767089844, 0.0034945011138916016, 0.07017280161380768, -0.7642949290554931, 0.011998988445231062, -0.24937819916841797,-0.5945754279312544,-0.7531585693359375,-0.389801025390625,0.2003936767578125
20220111-1138,2022-01-11 11:38:53Z,u01, 141,40,movements,el-ex, rt, d,76832.80425379168, -1.743922552362038, 0.3532239907081237, 2.7879010497488994, -0.14941507577896118, 0.26320114731788635, 1.0064412355422974, -0.9242362976074219, -0.3459245562553406, 0.16162757575511932, 0.13883590698242188, 0.056739985942840576, 0.08231461048126221, -0.7618129775350602, 0.021325504431736364, -0.24382996807376695,-0.5997775812197514,-0.785400390625,-0.2891845703125,0.2439422607421875
20220111-1138,2022-01-11 11:38:53Z,u01, 142,40,movements,el-ex, rt, d,76832.82919379167, -1.733372624932665, 0.3266988117932567, 2.782074291004925, 0.11865739524364471, 0.4433552026748657, 1.172057867050171, -0.9346179962158203, -0.3209182024002075, 0.1532997488975525, 0.07850837707519531, 0.017359882593154907, 0.025563716888427734, -0.7587465158217299, 0.03088034145939189, -0.23615447231350184,-0.6062847721447429,-0.854400634765625,-0.275909423828125,0.2252349853515625
20220111-1138,2022-01-11 11:38:53Z,u01, 143,40,movements,el-ex, rt, d,76832.85413379167, -1.7226512697340015, 0.2960519425576083, 2.7825213596943814, 0.29554715752601624, 0.4396625757217407, 1.2668124437332153, -0.9454885721206665, -0.29174619913101196, 0.14469102025032043, 0.05707615613937378, 0.006712079048156738, -0.05956222116947174, -0.7555048906634918, 0.03946983155923195, -0.22515591084662845,-0.6139701099721058,-0.8884124755859375,-0.2850341796875,0.0851287841796875
20220111-1138,2022-01-11 11:38:53Z,u01, 144,40,movements,el-ex, rt, d,76832.87907379167, -1.709836007102784, 0.2616445139914202, 2.7887815977046704, 0.4031464457511902, 0.6702409386634827, 1.3469152450561523, -0.9566437602043152, -0.2586694359779358, 0.13387525081634521, 0.055368244647979736, 0.08908328413963318, -0.07398463785648346, -0.7514844397874885, 0.046997482759400355, -0.21108663609540645,-0.6233014633686036,-0.9188385009765625,-0.2092132568359375,0.0121002197265625
20220111-1138,2022-01-11 11:38:53Z,u01, 145,40,movements,el-ex, rt, d,76832.90401429168, -1.6931387473379702, 0.22753418294864688, 2.7845703237172894, -0.18352250754833221, 0.6051037907600403, 1.4101440906524658, -0.9669437408447266, -0.22557595372200012, 0.11889201402664185, 0.12600141763687134, 0.10106423497200012, 0.05786573886871338, -0.745699812730064, 0.05811880091086824, -0.20056408747037607,-0.6327148366158969,-0.8409423828125,-0.12451171875,0.1767578125
20220111-1138,2022-01-11 11:38:53Z,u01, 146,40,movements,el-ex, rt, d,76832.92895529167, -1.6765107312218246, 0.1943314691613781, 2.774199773235692, -0.38460487127304077, 0.48740410804748535, 1.3174059391021729, -0.9756994247436523, -0.1931106299161911, 0.10353144258260727, 0.2917853593826294, 0.10251924395561218, 0.09182678163051605, -0.7393717827327843, 0.07137988552789759, -0.1924964303849361,-0.6412326528696071,-0.7089691162109375,-0.088104248046875,0.1755218505859375
20220111-1138,2022-01-11 11:38:53Z,u01, 147,40,movements,el-ex, rt, d,76832.95389529168, -1.6646729364181647, 0.16410322326277174, 2.7629030047071717, -0.23143969476222992, 0.4088175892829895, 1.1535979509353638, -0.9822213053703308, -0.16336767375469208, 0.09247943758964539, 0.28603899478912354, -0.04091699421405792, 0.07094217091798782, -0.7342301106405706, 0.08453320603300873, -0.18579734550435129,-0.6474872313596034,-0.6961822509765625,-0.20428466796875,0.163421630859375
20220111-1138,2022-01-11 11:38:53Z,u01, 148,40,movements,el-ex, rt, d,76832.97883529167, -1.6523044335642074, 0.1383909166609664, 2.7556544698659704, -0.11021637171506882, 0.4355335831642151, 0.9599027633666992, -0.9871511459350586, -0.137949600815773, 0.08063947409391403, 0.39381301403045654, 0.09420265257358551, -0.015225045382976532, -0.7289397519391589, 0.09469200810335648, -0.1795531905527967,-0.6537897137338868,-0.6202545166015625,-0.0536956787109375,0.0975494384765625
20220111-1138,2022-01-11 11:38:53Z,u01, 149,40,movements,el-ex, rt, d,76833.00377529167, -1.6422760954210578, 0.11733352442802976, 2.7540771082536537, 0.033940572291612625, 0.3652338981628418, 0.7178542017936707, -0.9905881881713867, -0.11706448346376419, 0.07092785090208054, 0.44484245777130127, 0.054808661341667175, 0.01384996622800827, -0.7246827718126649, 0.10148303524187752, -0.1730858977711497,-0.6592247222865555,-0.545745849609375,-0.062255859375,0.08477783203125
20220111-1138,2022-01-11 11:38:53Z,u01, 150,40,movements,el-ex, rt, d,76833.02871529167, -1.6340133523392604, 0.10154585661107805, 2.7514552601192, -0.12046434730291367, 0.2807881832122803, 0.5530473589897156, -0.992861270904541, -0.10137142986059189, 0.0628494843840599, 0.43609875440597534, -0.16158325970172882, 0.08845661580562592, -0.7210835454855014, 0.10706662174606324, -0.1687911367218084,-0.663388784452819,-0.5477752685546875,-0.232177734375,0.1423797607421875
20220111-1138,2022-01-11 11:38:53Z,u01, 151,40,movements,el-ex, rt, d,76833.05365629167, -1.6269768274281857, 0.0909104757246519, 2.7454926473422265, -0.27372506260871887, 0.17337453365325928, 0.34347856044769287, -0.9942991733551025, -0.09078530222177505, 0.05591906979680061, 0.4669402837753296, -0.06721942871809006, 0.08856630325317383, -0.7178887746618692, 0.11222852859298899, -0.16740154710401206,-0.6663460811756486,-0.5273590087890625,-0.1580047607421875,0.1444854736328125
20220111-1138,2022-01-11 11:38:53Z,u01, 152,40,movements,el-ex, rt, d,76833.07859629167, -1.625729972628153, 0.08592920279137486, 2.7424031997558305, 0.046928077936172485, -0.04934237524867058, 0.033270686864852905, -0.9948074221611023, -0.08582349121570587, 0.05470343306660652, 0.49578404426574707, 0.04081011563539505, 0.013137098401784897, -0.7170383830087115, 0.11492464734055258, -0.1667450990247079,-0.6669664942255127,-0.4857177734375,-0.057281494140625,0.0853729248046875
20220111-1138,2022-01-11 11:38:53Z,u01, 153,40,movements,el-ex, rt, d,76833.10353629167, -1.6291699783417908, 0.08785306207921371, 2.7462333334204576, 0.23256684839725494, -0.20942431688308716, -0.21498799324035645, -0.994446873664856, -0.08774009346961975, 0.05811551958322525, 0.4862528443336487, 0.054842136800289154, -0.05634545534849167, -0.7185035341401451, 0.11318317695305391, -0.16595184824321202,-0.6658846657563389,-0.5081939697265625,-0.03289794921875,0.00177001953125
20220111-1138,2022-01-11 11:38:53Z,u01, 154,40,movements,el-ex, rt, d,76833.12847629168, -1.6386830717487366, 0.09708894702637809, 2.7511539631769937, -0.015666594728827477, -0.5266604423522949, -0.6007669568061829, -0.992997944355011, -0.09693648666143417, 0.06751514971256256, 0.47509944438934326, -0.14860790967941284, -0.004343867301940918, -0.7223988391368301, 0.10907561755332568, -0.16705961472570147,-0.6620675584075367,-0.50433349609375,-0.21893310546875,0.029937744140625
20220111-1138,2022-01-11 11:38:53Z,u01, 155,40,movements,el-ex, rt, d,76833.15341629167, -1.6544291407746883, 0.11874777954369638, 2.742592337942303, -0.6329802870750427, -0.7842267751693726, -0.9809998273849487, -0.98948734998703, -0.11846889555454254, 0.08294709026813507, 0.3669896721839905, -0.06472809612751007, 0.16264307498931885, -0.7281389762534789, 0.10624112083862669, -0.17672706862132032,-0.6536773806362892,-0.62249755859375,-0.183197021484375,0.2455902099609375
20220111-1138,2022-01-11 11:38:53Z,u01, 156,40,movements,el-ex, rt, d,76833.17835729168, -1.6714271507367446, 0.14493037597850286, 2.7378851255758745, 0.17998476326465607, -0.6266816854476929, -1.066675066947937, -0.984510064125061, -0.14442352950572968, 0.09940783679485321, 0.27805864810943604, 0.13803008198738098, -0.11855769157409668, -0.7345422957433427, 0.10075482039178324, -0.1867180866234562,-0.6445405168975993,-0.7205963134765625,-0.0140533447265625,0.0505218505859375
20220111-1138,2022-01-11 11:38:53Z,u01, 157,40,movements,el-ex, rt, d,76833.20329729166, -1.689659047832085, 0.17096126974965842, 2.75207294305692, 0.4120737612247467, -0.7133870720863342, -1.156541109085083, -0.978468656539917, -0.1701296865940094, 0.11685428768396378, 0.3824756145477295, 0.06310456991195679, -0.14619696140289307, -0.7420090329691846, 0.08859874335849105, -0.1906505242835128,-0.6365730170871842,-0.5959930419921875,-0.107025146484375,-0.0293426513671875
20220111-1138,2022-01-11 11:38:53Z,u01, 158,40,movements,el-ex, rt, d,76833.22823729167, -1.7131832911313676, 0.20225463949719202, 2.7557761784244965, -0.3832208812236786, -1.074491024017334, -1.3131643533706665, -0.9697024822235107, -0.20087851583957672, 0.13901372253894806, 0.293265163898468, -0.034915536642074585, 0.09821462631225586, -0.7504870923624825, 0.07922112522910102, -0.19980238644551304,-0.6249576929962711,-0.6224212646484375,-0.2335662841796875,0.1822357177734375
20220111-1138,2022-01-11 11:38:53Z,u01, 159,40,movements,el-ex, rt, d,76833.25317729167, -1.7352521963928664, 0.23407523081012507, 2.752830480244266, -0.05842600762844086, -0.6538470983505249, -1.1477890014648438, -0.9596046209335327, -0.2319435328245163, 0.1592508852481842, 0.04909759759902954, 0.05979393422603607, 0.10126230120658875, -0.7578956754478231, 0.07224673360981093, -0.21144456490910846,-0.6129156536254259,-0.9105072021484375,-0.172149658203125,0.2605133056640625
20220111-1138,2022-01-11 11:38:53Z,u01, 160,40,movements,el-ex, rt, d,76833.27811829167, -1.7509325043380493, 0.25960019202657947, 2.7627084880316257, 0.25337323546409607, -0.5471780896186829, -1.0631767511367798, -0.9508538842201233, -0.25669416785240173, 0.17316021025180817, 0.24952971935272217, 0.20740830898284912, -0.1006658524274826, -0.7633765240849375, 0.061938582709506806, -0.21723276706353625,-0.605169064742496,-0.7568511962890625,-0.049072265625,0.0560150146484375
20220111-1138,2022-01-11 11:38:53Z,u01, 161,40,movements,el-ex, rt, d,76833.30305829167, -1.7718010788350234, 0.286406408419316, 2.7689801287322213, -0.24554197490215302, -0.9092618227005005, -1.1440677642822266, -0.9399518370628357, -0.2825068533420563, 0.19152110815048218, 0.24097728729248047, 0.061513811349868774, 0.05359601974487305, -0.7700147031689701, 0.053272013505272886, -0.22459321560069892,-0.5948086368743017,-0.698974609375,-0.2209930419921875,0.2451171875
20220111-1138,2022-01-11 11:38:53Z,u01, 162,40,movements,el-ex, rt, d,76833.32799829167, -1.792712070723359, 0.31427348111330855, 2.7697372738533623, -0.03214220702648163, -0.585027277469635, -0.959493100643158, -0.9276998043060303, -0.3091256320476532, 0.209318608045578, -0.17735689878463745, 0.02044457197189331, 0.08822774887084961, -0.7762027717744286, 0.04656778769106262, -0.23413605677311608,-0.583541726775616,-1.06781005859375,-0.33349609375,0.2961273193359375
20220111-1138,2022-01-11 11:38:53Z,u01, 163,40,movements,el-ex, rt, d,76833.35293829167, -1.8055601726272983, 0.3322652925431854, 2.78049756446907, 0.43257400393486023, -0.3272976279258728, -0.7180028557777405, -0.9193753004074097, -0.3261852562427521, 0.21989069879055023, -0.06838703155517578, 0.20823487639427185, -0.10404612123966217, -0.7800522707039075, 0.03825969640277754, -0.23741190272759613,-0.5776591815722101,-0.987762451171875,-0.117950439453125,0.1158447265625
20220111-1138,2022-01-11 11:38:53Z,u01, 164,40,movements,el-ex, rt, d,76833.37787829168, -1.8215864560376314, 0.3482147728144482, 2.7910669256513585, -0.033142924308776855, -0.6594560742378235, -0.7189007997512817, -0.9105775356292725, -0.34122025966644287, 0.2332751452922821, 0.06733107566833496, 0.03375568985939026, -0.018080472946166992, -0.7846473371210471, 0.031082651877099188, -0.24004435567034987,-0.5707373496872237,-0.8203125,-0.254730224609375,0.212310791015625
20220111-1138,2022-01-11 11:38:53Z,u01, 165,40,movements,el-ex, rt, d,76833.40281929167, -1.836993203070442, 0.3674262385636686, 2.788683587045519, -0.4072805345058441, -0.5912591218948364, -0.6795381903648376, -0.9003840088844299, -0.3592146635055542, 0.2455059140920639, -0.06784701347351074, -0.0520859956741333, 0.07332643866539001, -0.7886506523674017, 0.027983969575888334, -0.24768343865020864,-0.562049678607971,-0.968231201171875,-0.4113006591796875,0.3188323974609375
20220111-1138,2022-01-11 11:38:53Z,u01, 166,40,movements,el-ex, rt, d,76833.42775929168, -1.8492596133986763, 0.3829585360438501, 2.791080664428329, 0.1906246542930603, -0.3367440402507782, -0.558539092540741, -0.8918324708938599, -0.37366631627082825, 0.2549671232700348, -0.12290745973587036, 0.027078211307525635, 0.002265453338623047, -0.7917801487225358, 0.023827749364534634, -0.2526854571952373,-0.5555776055363522,-1.0255279541015625,-0.3962860107421875,0.275543212890625
20220111-1138,2022-01-11 11:38:53Z,u01, 167,40,movements,el-ex, rt, d,76833.45269929167, -1.8611728869234303, 0.3926223265463234, 2.80410841069555, 0.43771806359291077, -0.2326863706111908, -0.4809204638004303, -0.8852303624153137, -0.38261252641677856, 0.2645271122455597, -0.07453209161758423, 0.08653104305267334, -0.06373682618141174, -0.7949632065329468, 0.01723546226576017, -0.25260053617132516,-0.5512978241253604,-0.9597625732421875,-0.29608154296875,0.2007904052734375
20220111-1138,2022-01-11 11:38:53Z,u01, 168,40,movements,el-ex, rt, d,76833.47763929167, -1.8712953067146092, 0.4015364413849613, 2.81426354450201, 0.02862074226140976, -0.26580536365509033, -0.458280086517334, -0.879214882850647, -0.3908330500125885, 0.27245378494262695, -0.02535688877105713, 0.03501325845718384, 0.04054969549179077, -0.7975511862510902, 0.01178984704069419, -0.25311344462825036,-0.54745484201643,-0.898834228515625,-0.356842041015625,0.2726898193359375
20220111-1138,2022-01-11 11:38:53Z,u01, 169,40,movements,el-ex, rt, d,76833.50257929167, -1.8767250397217912, 0.4143959359185727, 2.8123748403700555, -0.2898814380168915, -0.1675221472978592, -0.44022777676582336, -0.8728572726249695, -0.4026370644569397, 0.27568697929382324, -0.10806912183761597, 0.021869301795959473, 0.11939343810081482, -0.7985958658751462, 0.00938777883076719, -0.25847915299048396,-0.5434564560546216,-0.980926513671875,-0.380767822265625,0.39508056640625
20220111-1138,2022-01-11 11:38:53Z,u01, 170,40,movements,el-ex, rt, d,76833.52752029167, -1.875392559751875, 0.4256761351433968, 2.8128868046709727, 0.034749340265989304, 0.2389984130859375, -0.4274289309978485, -0.8688356280326843, -0.4129366874694824, 0.2731441259384155, -0.10227936506271362, 0.04985380172729492, -0.040081530809402466, -0.7978347490659841, 0.005636499068843559, -0.26261945867698266,-0.5426406532900903,-1.0041961669921875,-0.35858154296875,0.2576904296875
20220111-1138,2022-01-11 11:38:53Z,u01, 171,40,movements,el-ex, rt, d,76833.55246029167, -1.8719915031517338, 0.4333653873819219, 2.8219614151803847, 0.3064989745616913, 0.31777578592300415, -0.3800904452800751, -0.8667016625404358, -0.4199274480342865, 0.2692376375198364, -0.005383789539337158, -0.024179548025131226, -0.06605175137519836, -0.7966293276427157, -0.0007301240778453955, -0.2630663626590392,-0.5442216059075439,-0.8720855712890625,-0.4441070556640625,0.20318603515625
20220111-1138,2022-01-11 11:38:53Z,u01, 172,40,movements,el-ex, rt, d,76833.57740029167, -1.8664263850872254, 0.44059602683438615, 2.828315974332122, -0.055086638778448105, 0.31702297925949097, -0.3042305111885071, -0.8652593493461609, -0.42647865414619446, 0.26351869106292725, -0.010793447494506836, -0.03343644738197327, 0.037033528089523315, -0.7948090212332279, -0.006161775455799601, -0.2640542973102386,-0.5463661001509619,-0.859893798828125,-0.46783447265625,0.29962158203125
20220111-1138,2022-01-11 11:38:53Z,u01, 173,40,movements,el-ex, rt, d,76833.60234029168, -1.855930035823346, 0.44773533459850023, 2.825743722734396, -0.21760503947734833, 0.4677734673023224, -0.17690305411815643, -0.865033745765686, -0.43292519450187683, 0.2535593807697296, -0.06984174251556396, 0.055911093950271606, 0.025935888290405273, -0.7916465006113336, -0.008689276155922132, -0.2674043349575728,-0.5492860880520242,-0.93487548828125,-0.37701416015625,0.2794952392578125
20220111-1138,2022-01-11 11:38:53Z,u01, 174,40,movements,el-ex, rt, d,76833.62728029166, -1.840565394961632, 0.45075254192147707, 2.822474485506899, 0.0022427644580602646, 0.6382293105125427, 0.02914997935295105, -0.8675644397735596, -0.4356430470943451, 0.23988984525203705, -0.009266674518585205, 0.011296063661575317, -0.1031254231929779, -0.7872974152611603, -0.010377981116358126, -0.26936027351169284,-0.5545269704451736,-0.8986053466796875,-0.392913818359375,0.1702728271484375
20220111-1138,2022-01-11 11:38:53Z,u01, 175,40,movements,el-ex, rt, d,76833.65222129168, -1.8259897554246354, 0.44686940633200145, 2.8255804298426863, 0.20696485042572021, 0.6162097454071045, 0.18708521127700806, -0.8725988268852234, -0.4321444630622864, 0.22764477133750916, 0.07016974687576294, -0.06474268436431885, -0.1659231334924698, -0.7833706680071721, -0.012360433781770375, -0.26696941422487186,-0.5611638225067623,-0.80242919921875,-0.49688720703125,0.0617218017578125
20220111-1138,2022-01-11 11:38:53Z,u01, 176,40,movements,el-ex, rt, d,76833.67716129168, -1.8133951073923247, 0.43891521884802187, 2.8273931656950255, 0.0724959522485733, 0.45570093393325806, 0.41846349835395813, -0.8787056803703308, -0.4249577522277832, 0.21745581924915314, 0.07365208864212036, -0.04879710078239441, -0.08298017084598541, -0.7801135492804607, -0.012278569982301035, -0.26343958261206324,-0.5673372994587075,-0.798187255859375,-0.49114990234375,0.1285552978515625
20220111-1138,2022-01-11 11:38:53Z,u01, 177,40,movements,el-ex, rt, d,76833.70210129167, -1.8020011931617779, 0.4261189888421256, 2.8239247713043634, -0.06147030368447304, 0.33348649740219116, 0.629831850528717, -0.8863472938537598, -0.4133399724960327, 0.2086591273546219, 0.051264286041259766, 0.029352575540542603, -0.07155895233154297, -0.7773406490748216, -0.008430908311934382, -0.2596540551927111,-0.5729312674574631,-0.8350830078125,-0.3839874267578125,0.1371002197265625
20220111-1138,2022-01-11 11:38:53Z,u01, 178,40,movements,el-ex, rt, d,76833.72704129167, -1.7937627770075848, 0.4092117459208845, 2.8200334631067556, 0.2047141194343567, 0.21113422513008118, 0.7529553771018982, -0.8947243690490723, -0.3978862762451172, 0.20286647975444794, -0.046346187591552734, 0.04269218444824219, -0.0925149917602539, -0.7755166429058726, -0.002679040127629706, -0.2545340105342125,-0.5777362666510111,-0.917266845703125,-0.3350372314453125,0.12322998046875
20220111-1138,2022-01-11 11:38:54Z,u01, 179,40,movements,el-ex, rt, d,76833.75198129167, -1.7922689397663676, 0.3864971693162154, 2.8298412969778513, 0.7430216073989868, 0.18860481679439545, 0.8294441103935242, -0.9036120176315308, -0.3769463002681732, 0.2034628689289093, -0.1345503330230713, -0.09381791949272156, -0.07794401049613953, -0.7757133557280094, 0.00047194163444874704, -0.2433217771466394,-0.5822913365868712,-1.0381622314453125,-0.47076416015625,0.125518798828125
20220111-1138,2022-01-11 11:38:54Z,u01, 180,40,movements,el-ex, rt, d,76833.77692229167, -1.7916984963959939, 0.3616445046681389, 2.838090013228822, 0.22329941391944885, 0.1035284623503685, 0.9946761727333069, -0.9125881195068359, -0.3538128435611725, 0.20493708550930023, -0.2326144576072693, -0.16294124722480774, 0.09148000180721283, -0.7761722495381074, 0.0050181235171227745, -0.23171267086655117,-0.5863792544559283,-1.1301422119140625,-0.514801025390625,0.2606964111328125
20220111-1138,2022-01-11 11:38:54Z,u01, 181,40,movements,el-ex, rt, d,76833.80186229167, -1.78719275359272, 0.3374660645389844, 2.8295759781526746, -0.30496904253959656, 0.04298875480890274, 1.021304965019226, -0.9215896725654602, -0.33109715580940247, 0.20260104537010193, -0.3007919192314148, -0.11770960688591003, 0.16049706935882568, -0.7752823996557782, 0.015418362835684318, -0.22526439023211972,-0.5898774609906593,-1.222381591796875,-0.4488067626953125,0.36309814453125
20220111-1138,2022-01-11 11:38:54Z,u01, 182,40,movements,el-ex, rt, d,76833.82680229167, -1.7828266532989288, 0.3153092884766619, 2.8201038518971737, 0.0312800407409668, 0.07112285494804382, 0.8247292041778564, -0.9294101595878601, -0.31011053919792175, 0.2000703364610672, -0.3808773159980774, -0.03942251205444336, 0.16528606414794922, -0.7741963725176371, 0.02559580613840573, -0.21988331717836812,-0.592972265475684,-1.291595458984375,-0.3639068603515625,0.3598785400390625
20220111-1138,2022-01-11 11:38:54Z,u01, 183,40,movements,el-ex, rt, d,76833.85174229168, -1.7803208679830644, 0.2976929471141213, 2.81985510528854, 0.23271745443344116, 0.11325334012508392, 0.5603351593017578, -0.935107409954071, -0.29331541061401367, 0.19884632527828217, -0.44936811923980713, -0.11885496973991394, 0.15706488490104675, -0.7736037213999114, 0.030991021789109396, -0.21344672980176405,-0.5958331880987452,-1.3844757080078125,-0.41217041015625,0.3559112548828125
20220111-1138,2022-01-11 11:38:54Z,u01, 184,40,movements,el-ex, rt, d,76833.87668229167, -1.7782487212070277, 0.2883492141700533, 2.8194860756044355, -0.321060448884964, -0.0620909258723259, 0.15070143342018127, -0.9381586909294128, -0.28436997532844543, 0.19746415317058563, -0.5671514272689819, -0.16686296463012695, 0.1253354847431183, -0.7730360713880127, 0.033871917595777734, -0.21011525631846475,-0.5975948019924,-1.477569580078125,-0.47064208984375,0.3498992919921875
20220111-1138,2022-01-11 11:38:54Z,u01, 185,40,movements,el-ex, rt, d,76833.9016235, -1.7783627318896666, 0.29452744794730346, 2.7988317700594574, -1.0173981189727783, -0.20852942764759064, -0.24334658682346344, -0.9363988041877747, -0.29028767347335815, 0.19720523059368134, -0.7860283851623535, -0.20614171028137207, 0.1667167842388153, -0.7726641640505809, 0.03990867388122532, -0.21856346502103535,-0.5946656516828719,-1.7224273681640625,-0.496429443359375,0.363922119140625
20220111-1138,2022-01-11 11:38:54Z,u01, 186,40,movements,el-ex, rt, d,76833.9265635, -1.7731310410739083, 0.3033223242158346, 2.7931033247316135, 0.4775311052799225, 0.34693992137908936, -0.4682406783103943, -0.934880793094635, -0.2986924946308136, 0.19178317487239838, -0.5915780067443848, -0.304365336894989, 0.24972990155220032, -0.7709669187931356, 0.03875041537283036, -0.2236221053909903,-0.5950643788848915,-1.6239776611328125,-0.6383819580078125,0.498565673828125
20220111-1138,2022-01-11 11:38:54Z,u01, 187,40,movements,el-ex, rt, d,76833.95150350001, -1.7752982318253652, 0.3178616196160963, 2.8152637100789906, 0.5756276249885559, -0.07606160640716553, -0.9203338027000427, -0.930111825466156, -0.3125360310077667, 0.19290634989738464, -0.33815276622772217, -0.141428142786026, 0.07247444987297058, -0.7718718824454935, 0.02582577507746381, -0.2223633252563525,-0.5950640445787018,-1.2682647705078125,-0.4539642333984375,0.265380859375
20220111-1138,2022-01-11 11:38:54Z,u01, 188,40,movements,el-ex, rt, d,76833.97644350001, -1.782223976652288, 0.33973174469557316, 2.822920021215724, -0.15916946530342102, -0.09051331132650375, -0.8892539143562317, -0.9218490719795227, -0.33323419094085693, 0.197861447930336, -0.5896254777908325, -0.04846438765525818, 0.051268696784973145, -0.7737255709915399, 0.0167172915205418, -0.22810870665378277,-0.5907923953583688,-1.4928131103515625,-0.3426971435546875,0.2516937255859375
20220111-1138,2022-01-11 11:38:54Z,u01, 189,40,movements,el-ex, rt, d,76834.0013835, -1.7826109164751982, 0.36302070081230353, 2.82210858033903, -0.31844303011894226, -0.057485923171043396, -0.9540023803710938, -0.9139359593391418, -0.3550996780395508, 0.1965329796075821, -0.4308058023452759, -0.10437294840812683, 0.0298006534576416, -0.7734159268187966, 0.009710607318731856, -0.23694677056980654,-0.5878688053845614,-1.3447418212890625,-0.45947265625,0.2263336181640625
20220111-1138,2022-01-11 11:38:54Z,u01, 190,40,movements,el-ex, rt, d,76834.02632450001, -1.7849100508772944, 0.38858106009821414, 2.8206526109985566, -0.18710023164749146, -0.14459559321403503, -0.9989007115364075, -0.9043149948120117, -0.37887564301490784, 0.19664044678211212, -0.251248300075531, -0.09358224272727966, 0.0890498161315918, -0.7735076691001126, 0.0024723410876137386, -0.2467733640801326,-0.5837658983408291,-1.166778564453125,-0.4754486083984375,0.2689361572265625
20220111-1138,2022-01-11 11:38:54Z,u01, 191,40,movements,el-ex, rt, d,76834.0512645, -1.7893714310469082, 0.4122416562426067, 2.8245776962114464, 0.037437934428453445, -0.07313978672027588, -0.8939995765686035, -0.894425630569458, -0.40066418051719666, 0.19867317378520966, -0.2324206829071045, -0.06266891956329346, 0.10338973999023438, -0.7741454411612516, -0.005951559381529525, -0.25432214544758047,-0.5796409780014009,-1.1268463134765625,-0.4633331298828125,0.30206298828125
20220111-1138,2022-01-11 11:38:54Z,u01, 192,40,movements,el-ex, rt, d,76834.0762045, -1.793187783531833, 0.4314264913259974, 2.8307444243419533, 0.09520556032657623, -0.04458469897508621, -0.6995724439620972, -0.8859995007514954, -0.41816699504852295, 0.20035266876220703, -0.14100849628448486, -0.014740049839019775, 0.007533058524131775, -0.7745860553847229, -0.013884455319220945, -0.2595943023974301,-0.576571275203464,-1.0448760986328125,-0.4304046630859375,0.24273681640625
20220111-1138,2022-01-11 11:38:54Z,u01, 193,40,movements,el-ex, rt, d,76834.1011445, -1.796950183845188, 0.44527810595038464, 2.8379677449443417, 0.12847477197647095, -0.016772113740444183, -0.4973166882991791, -0.8795097470283508, -0.4307088851928711, 0.20236638188362122, -0.07512575387954712, -0.007157236337661743, -0.05516496300697327, -0.7750879991177337, -0.020537424660280468, -0.2626274548436365,-0.5743200148535411,-0.9546356201171875,-0.4378662109375,0.1472015380859375
20220111-1138,2022-01-11 11:38:54Z,u01, 194,40,movements,el-ex, rt, d,76834.1260845, -1.7995863347298027, 0.4546366705595811, 2.8427680228193535, 0.0326397530734539, -0.03607543557882309, -0.3298402726650238, -0.8750090599060059, -0.43913590908050537, 0.20376108586788177, 0.00237429141998291, -0.014416247606277466, -0.06862929463386536, -0.7754073550060541, -0.024979533125869646, -0.26471357770081894,-0.5727530964537175,-0.8804473876953125,-0.4665679931640625,0.126007080078125
20220111-1138,2022-01-11 11:38:54Z,u01, 195,40,movements,el-ex, rt, d,76834.1510255, -1.801114103715684, 0.46020886987489557, 2.8436429585552405, -0.038630299270153046, -0.06377683579921722, -0.114657923579216, -0.8723008036613464, -0.44413524866104126, 0.2045358568429947, 0.010789692401885986, 0.024594902992248535, -0.019355326890945435, -0.7755943670101073, -0.026857114423318007, -0.2665269943319514,-0.5715726613315881,-0.86151123046875,-0.4195404052734375,0.1851806640625
20220111-1138,2022-01-11 11:38:54Z,u01, 196,40,movements,el-ex, rt, d,76834.1759655, -1.803103316720456, 0.46076752749188593, 2.8429739148413504, -0.025359634310007095, -0.09390199184417725, 0.08413054049015045, -0.8716506958007812, -0.4446357190608978, 0.20621350407600403, -0.025291383266448975, -0.012929528951644897, -0.021017685532569885, -0.7761469898931365, -0.026506640047314234, -0.2669495447228831,-0.5706409757222594,-0.891998291015625,-0.4446868896484375,0.1867523193359375
20220111-1138,2022-01-11 11:38:54Z,u01, 197,40,movements,el-ex, rt, d,76834.20090550001, -1.804321579741432, 0.4555382130076263, 2.842127462633856, 0.03156769648194313, -0.07108428329229355, 0.27317503094673157, -0.8736491203308105, -0.43994569778442383, 0.20781052112579346, 0.028647780418395996, -0.09168583154678345, -0.11143609881401062, -0.7767307326688164, -0.02438501339170024, -0.2652861518509734,-0.5707171709646439,-0.845001220703125,-0.5316314697265625,0.09637451171875
20220111-1138,2022-01-11 11:38:54Z,u01, 198,40,movements,el-ex, rt, d,76834.22584550001, -1.8055804630203447, 0.4495460290334223, 2.838281392096849, -0.18307799100875854, -0.12989667057991028, 0.27855467796325684, -0.8759349584579468, -0.4345567226409912, 0.20951968431472778, -0.0012775659561157227, -0.07046341896057129, -0.05891549587249756, -0.7773833431321703, -0.0208561186120112, -0.26419458233739634,-0.5704747272464783,-0.8530731201171875,-0.5106658935546875,0.1232147216796875
20220111-1138,2022-01-11 11:38:54Z,u01, 199,40,movements,el-ex, rt, d,76834.2507855, -1.8039129226475619, 0.44236250833343077, 2.8335023972833935, 0.050630535930395126, 0.12196119874715805, 0.3378327190876007, -0.8792974352836609, -0.42807576060295105, 0.20877443253993988, -0.08871996402740479, -0.059884995222091675, -0.027057558298110962, -0.7772380364510614, -0.016978017293095837, -0.2629010212932075,-0.5713980103350018,-0.968017578125,-0.4879608154296875,0.1817169189453125
20220111-1138,2022-01-11 11:38:54Z,u01, 200,40,movements,el-ex, rt, d,76834.27572650001, -1.7995777625916782, 0.4329920239808593, 2.837243600137806, 0.30165019631385803, 0.3117515742778778, 0.3476506471633911, -0.8840625882148743, -0.419588565826416, 0.20586137473583221, -0.07026791572570801, 0.20236444473266602, -0.0820058286190033, -0.7763198513532338, -0.016067774321343542, -0.25834646751024604,-0.5747403733985997,-0.969024658203125,-0.2491607666015625,0.1190338134765625
20220111-1138,2022-01-11 11:38:54Z,u01, 201,40,movements,el-ex, rt, d,76834.3006665, -1.7927626910170351, 0.42266443819246396, 2.838255298188522, -0.0008952710777521133, 0.2972501218318939, 0.4819541275501251, -0.8896245956420898, -0.4101918637752533, 0.2007749378681183, -0.05289548635482788, 0.11108914017677307, -0.015655413269996643, -0.7747185213327776, -0.014095553902235047, -0.25420541202180874,-0.578784988346255,-0.9425201416015625,-0.299102783203125,0.18511962890625
20220111-1138,2022-01-11 11:38:54Z,u01, 202,40,movements,el-ex, rt, d,76834.3256065, -1.7797945111603104, 0.4095321409424153, 2.829715265325798, -0.2967486083507538, 0.4097660779953003, 0.6578325629234314, -0.8973459005355835, -0.39818018674850464, 0.1903228908777237, 0.013129651546478271, -0.048383504152297974, 0.054061755537986755, -0.7714225006869142, -0.008292639516792877, -0.2518004183040159,-0.5843244690784091,-0.9032135009765625,-0.4283599853515625,0.254852294921875
20220111-1138,2022-01-11 11:38:54Z,u01, 203,40,movements,el-ex, rt, d,76834.3505465, -1.7653167064635455, 0.3947378596831429, 2.817260868437086, -0.25942930579185486, 0.42539724707603455, 0.7136949896812439, -0.9056880474090576, -0.38456621766090393, 0.17843098938465118, 0.017672479152679443, 0.0744619369506836, 0.07988499104976654, -0.7676034917109958, -0.0006105644706187463, -0.2500285518795512,-0.590144130507504,-0.8880157470703125,-0.3101043701171875,0.2583160400390625
20220111-1138,2022-01-11 11:38:54Z,u01, 204,40,movements,el-ex, rt, d,76834.37548650001, -1.7505264111148562, 0.37605619343153884, 2.8136702125546593, 0.12397738546133041, 0.6268599033355713, 0.7995357513427734, -0.9151377081871033, -0.3672551214694977, 0.16627199947834015, 0.10706287622451782, 0.18225759267807007, -0.062298670411109924, -0.7636175004985685, 0.004930825921737658, -0.24432964345229474,-0.5976344237357835,-0.8451385498046875,-0.189697265625,0.105682373046875
20220111-1138,2022-01-11 11:38:54Z,u01, 205,40,movements,el-ex, rt, d,76834.4004275, -1.735367113291483, 0.35416622515145824, 2.8113128364866387, -0.05171604081988335, 0.5119689106941223, 0.9502298831939697, -0.9252632856369019, -0.34680846333503723, 0.15366104245185852, 0.20173734426498413, -0.08979126811027527, 0.028818726539611816, -0.7594126650850227, 0.011087319721834743, -0.23718355228512808,-0.6057338021813694,-0.7235260009765625,-0.4365997314453125,0.1824798583984375
20220111-1138,2022-01-11 11:38:54Z,u01, 206,40,movements,el-ex, rt, d,76834.4253675, -1.7176734215170681, 0.32967664800002794, 2.8013507846582346, -0.3354712426662445, 0.7168952822685242, 1.1084285974502563, -0.9359598755836487, -0.32373711466789246, 0.13846822082996368, 0.0723276138305664, -0.036416083574295044, 0.08192969858646393, -0.7541898169173857, 0.020780570304724855, -0.23154709462512543,-0.6141269141297955,-0.859588623046875,-0.42816162109375,0.23175048828125
20220111-1138,2022-01-11 11:38:54Z,u01, 207,40,movements,el-ex, rt, d,76834.45030750001, -1.6941401444891768, 0.30293388738407223, 2.7904990868893083, -0.18566568195819855, 0.8396661877632141, 1.109093427658081, -0.9472140669822693, -0.29832178354263306, 0.11742911487817764, 0.17971229553222656, 0.19889557361602783, 0.01401006430387497, -0.746829335466511, 0.03099193114038057, -0.22565319524746777,-0.6247928063824741,-0.7675018310546875,-0.09942626953125,0.131439208984375
20220111-1138,2022-01-11 11:38:54Z,u01, 208,40,movements,el-ex, rt, d,76834.4752475, -1.6741995568610049, 0.2755455282385856, 2.785729200615126, 0.20968469977378845, 0.7177797555923462, 1.1501654386520386, -0.9571370482444763, -0.2720719277858734, 0.09932531416416168, 0.2329854965209961, -0.0364760160446167, 0.03611159324645996, -0.7403288515257564, 0.03969697979939579, -0.21778643956725222,-0.6347490788153747,-0.6998138427734375,-0.221649169921875,0.150390625
20220111-1138,2022-01-11 11:38:54Z,u01, 209,40,movements,el-ex, rt, d,76834.5001875, -1.6552310710486127, 0.24596935872445622, 2.7897210566128017, 0.15699297189712524, 0.8601940274238586, 1.1851142644882202, -0.9664464592933655, -0.2434966266155243, 0.08179613202810287, 0.17308104038238525, -0.1627686321735382, 0.01721811294555664, -0.7340064675994865, 0.04617977386592148, -0.20646993175028228,-0.6453464773422763,-0.793365478515625,-0.4062652587890625,0.0990142822265625
20220111-1138,2022-01-11 11:38:54Z,u01, 210,40,movements,el-ex, rt, d,76834.5251285, -1.633892229631572, 0.21734847787768005, 2.7882763932038537, -0.0009372830390930176, 0.7975007891654968, 1.0796688795089722, -0.9745296239852905, -0.21564124524593353, 0.061570554971694946, 0.273983359336853, 0.10338231921195984, -0.01973104476928711, -0.7265245895477475, 0.054289020177845704, -0.1974196859559833,-0.6559269911690168,-0.7279815673828125,-0.1725006103515625,0.0524749755859375
20220111-1138,2022-01-11 11:38:54Z,u01, 211,40,movements,el-ex, rt, d,76834.5500685, -1.6172343460328473, 0.1919579803874212, 2.787480750996296, 0.020249195396900177, 0.45430052280426025, 0.9723916053771973, -0.9805743098258972, -0.19078128039836884, 0.045568689703941345, 0.3750750422477722, 0.22149726748466492, -0.04488205909729004, -0.720402719958408, 0.06167872729349311, -0.1892940436652472,-0.6643669112927895,-0.605499267578125,0.0307159423828125,0.0006866455078125
20220111-1138,2022-01-11 11:38:54Z,u01, 212,40,movements,el-ex, rt, d,76834.5750085, -1.610026301925132, 0.1679229166196593, 2.787420548389127, 0.07727290689945221, 0.22193273901939392, 0.935689389705658, -0.9851755499839783, -0.1671348512172699, 0.038668252527713776, 0.302115797996521, -0.2495826929807663, 0.05511224642395973, -0.7173066008925173, 0.0693207467646953, -0.1811743370791779,-0.6692098417746906,-0.6554107666015625,-0.3389892578125,0.1001739501953125
20220111-1138,2022-01-11 11:38:54Z,u01, 213,40,movements,el-ex, rt, d,76834.5999485, -1.603681470722602, 0.14620921184916685, 2.7829819231570156, -0.4961400032043457, 0.21650847792625427, 0.7970613241195679, -0.9887953400611877, -0.14568884670734406, 0.03252840414643288, 0.29201823472976685, -0.14682212471961975, 0.058825843036174774, -0.7142856323135622, 0.07784752797194738, -0.1753353448599772,-0.6730476357000925,-0.69677734375,-0.292510986328125,0.0913543701171875
20220111-1138,2022-01-11 11:38:54Z,u01, 214,40,movements,el-ex, rt, d,76834.62488850001, -1.5996139914251122, 0.1299389902409604, 2.7702030128566295, -0.3236369490623474, -0.01981004886329174, 0.5020192265510559, -0.9911580085754395, -0.12957364320755005, 0.028570769354701042, 0.5004812479019165, 0.19668184220790863, -0.02083456702530384, -0.7117570955274649, 0.08767679993609823, -0.17415090059362798,-0.6748229351436646,-0.510833740234375,0.04571533203125,0.0138702392578125
20220111-1138,2022-01-11 11:38:54Z,u01, 215,40,movements,el-ex, rt, d,76834.6498295, -1.6033229827786324, 0.12099149517794638, 2.766773976190779, 0.016002152115106583, -0.26939958333969116, 0.21733805537223816, -0.9921643733978271, -0.12069651484489441, 0.032283175736665726, 0.47411322593688965, 0.0363764762878418, -0.01966416835784912, -0.7124748056067505, 0.09231055701498608, -0.17202689648451774,-0.6739919572972846,-0.5180511474609375,-0.084320068359375,0.0126190185546875
20220111-1138,2022-01-11 11:38:54Z,u01, 216,40,movements,el-ex, rt, d,76834.67476950001, -1.609095896656504, 0.11741677971978755, 2.7639498096987762, -0.36461013555526733, -0.2498828023672104, 0.10224616527557373, -0.9923861026763916, -0.11714717000722885, 0.03802655637264252, 0.3871616721153259, -0.13463805615901947, 0.03581070527434349, -0.7141286413396224, 0.09504505307657324, -0.17145952465224412,-0.6720031359697163,-0.616943359375,-0.2510223388671875,0.0625
20220111-1138,2022-01-11 11:38:54Z,u01, 217,40,movements,el-ex, rt, d,76834.69970950001, -1.6150532517571061, 0.11789458588980035, 2.752437536209124, -0.3594360947608948, -0.3280979096889496, -0.14797745645046234, -0.9920861124992371, -0.11762166768312454, 0.043935369700193405, 0.44939208030700684, -0.021630048751831055, -0.027303338050842285, -0.7155871793512274, 0.09951217718326982, -0.17519591092386821,-0.668833850475482,-0.542694091796875,-0.139251708984375,0.016632080078125
20220111-1138,2022-01-11 11:38:54Z,u01, 218,40,movements,el-ex, rt, d,76834.7246495, -1.6242654214597954, 0.1269152658735697, 2.7508847459599255, -0.009249274618923664, -0.44076812267303467, -0.5822387337684631, -0.99053955078125, -0.1265748292207718, 0.05301378294825554, 0.4836425185203552, 0.2989380955696106, -0.08971118181943893, -0.7189869600151181, 0.0977989964111915, -0.17842066999760198,-0.6645745311005022,-0.4979705810546875,0.138092041015625,-0.0765533447265625
20220111-1138,2022-01-11 11:38:55Z,u01, 219,40,movements,el-ex, rt, d,76834.7495895, -1.637356398222522, 0.14458382891798183, 2.7465948217936216, -0.25677305459976196, -0.6719712615013123, -0.7604545950889587, -0.9873747229576111, -0.14408060908317566, 0.0658169537782669, 0.36213064193725586, 0.03351542353630066, 0.176935076713562, -0.7238600559840933, 0.0945256426185031, -0.18542248708415132,-0.657806955086319,-0.625244140625,-0.110565185546875,0.2427520751953125
20220111-1138,2022-01-11 11:38:55Z,u01, 220,40,movements,el-ex, rt, d,76834.7745305, -1.6494589702732645, 0.16378860097290926, 2.7492771812482295, 0.18136122822761536, -0.22187532484531403, -0.7643525004386902, -0.9835655689239502, -0.16305726766586304, 0.07752984762191772, 0.08895814418792725, -0.09718137979507446, 0.05804443359375, -0.7286888327763016, 0.08819018985880328, -0.19076858481747588,-0.6517993127040222,-0.898956298828125,-0.3668975830078125,0.1949920654296875
20220111-1138,2022-01-11 11:38:55Z,u01, 221,40,movements,el-ex, rt, d,76834.7994705, -1.6568437820934183, 0.18370914908285435, 2.7584533038393437, 0.39817601442337036, -0.30639246106147766, -1.0185645818710327, -0.9795352220535278, -0.18267755210399628, 0.08449515700340271, 0.2660191059112549, 0.26576167345046997, -0.1943584680557251, -0.732142797151119, 0.07883212061196787, -0.19452820670136528,-0.6480054925582457,-0.7135162353515625,0.0830841064453125,-0.10986328125
20220111-1138,2022-01-11 11:38:55Z,u01, 222,40,movements,el-ex, rt, d,76834.8244105, -1.6701005148856565, 0.2144068374368869, 2.7639243648716816, -0.2669771909713745, -0.6902732253074646, -1.3662724494934082, -0.9722890853881836, -0.21276788413524628, 0.09687101095914841, 0.35026443004608154, 0.3419334888458252, 0.11066378653049469, -0.7374518951758283, 0.06782483377007498, -0.2031701286299167,-0.640536091224681,-0.605865478515625,0.23638916015625,0.1171875
20220111-1138,2022-01-11 11:38:55Z,u01, 223,40,movements,el-ex, rt, d,76834.84935050001, -1.6894372801297346, 0.24600102185449507, 2.76366773130905, 0.28635549545288086, -0.5910434126853943, -1.1719942092895508, -0.9630759954452515, -0.2435273379087448, 0.1147993877530098, 0.10367053747177124, -0.1686735898256302, 0.21366119384765625, -0.7442258720624935, 0.05939313656639705, -0.21388551861384578,-0.6299628693274316,-0.859405517578125,-0.412200927734375,0.328460693359375
20220111-1138,2022-01-11 11:38:55Z,u01, 224,40,movements,el-ex, rt, d,76834.87429050001, -1.7015766170048376, 0.2734421201247642, 2.771288019379928, -0.16458187997341156, -0.4275657832622528, -1.080979347229004, -0.9546249508857727, -0.27004727721214294, 0.12556280195713043, 0.14139246940612793, 0.10287192463874817, -0.035383328795433044, -0.7486002151034653, 0.04877618928148264, -0.2209742609756064,-0.6232087243577566,-0.86993408203125,-0.2281646728515625,0.13104248046875
20220111-1138,2022-01-11 11:38:55Z,u01, 225,40,movements,el-ex, rt, d,76834.89923125, -1.7155116969406257, 0.30242203392672146, 2.769009536513575, -0.1236167624592781, -0.7312450408935547, -1.18146812915802, -0.9446390867233276, -0.2978332042694092, 0.13766616582870483, 0.24459654092788696, 0.18146973848342896, -0.039948970079422, -0.7530586076140766, 0.041663116678521794, -0.231739738248565,-0.6143805159072329,-0.700042724609375,-0.116363525390625,0.09771728515625
20220111-1138,2022-01-11 11:38:55Z,u01, 226,40,movements,el-ex, rt, d,76834.92417125001, -1.735684502004277, 0.33072079128799514, 2.7780979095398943, 0.2911261022090912, -0.5870798826217651, -1.1373885869979858, -0.9329802393913269, -0.32472485303878784, 0.15524692833423615, 0.07348322868347168, -0.01017501950263977, 0.04156088829040527, -0.7593683167292001, 0.031356375919282864, -0.2387720158718121,-0.6044538502849577,-0.8418121337890625,-0.3260040283203125,0.152557373046875
20220111-1138,2022-01-11 11:38:55Z,u01, 227,40,movements,el-ex, rt, d,76834.94911125001, -1.752898839539669, 0.3559796194956683, 2.790621654601624, 0.28634878993034363, -0.47280415892601013, -1.0452309846878052, -0.9218072891235352, -0.3485087454319, 0.16974389553070068, 0.01702219247817993, 0.031919389963150024, -0.023702144622802734, -0.7644946065417257, 0.020492570275973898, -0.24391941667086245,-0.5963483725108744,-0.90478515625,-0.31658935546875,0.1460418701171875
20220111-1138,2022-01-11 11:38:55Z,u01, 228,40,movements,el-ex, rt, d,76834.97405125, -1.766667268878498, 0.37929720815592266, 2.800498497447244, 0.04424211382865906, -0.40495195984840393, -0.9261001348495483, -0.9111625552177429, -0.37026771903038025, 0.18078820407390594, 0.10041743516921997, 0.22857463359832764, -0.08166719973087311, -0.7682933614568717, 0.010927674458487135, -0.24935133768713724,-0.589431673988587,-0.8482818603515625,-0.130950927734375,0.0994110107421875
20220111-1138,2022-01-11 11:38:55Z,u01, 229,40,movements,el-ex, rt, d,76834.99899125, -1.7807741407056965, 0.3997326582739165, 2.8036337351546328, -0.20882590115070343, -0.5949611663818359, -0.7388494610786438, -0.9009320735931396, -0.3891720771789551, 0.1920059621334076, 0.1670759916305542, 0.03226909041404724, 0.03606709837913513, -0.7719961026665215, 0.005000073649150505, -0.25582427627439186,-0.5818512437485148,-0.733856201171875,-0.356903076171875,0.2280731201171875
20220111-1138,2022-01-11 11:38:55Z,u01, 230,40,movements,el-ex, rt, d,76835.02393225, -1.794935842515718, 0.4169540409176234, 2.80486689674384, 0.18727967143058777, -0.4131675958633423, -0.6188441514968872, -0.8914555907249451, -0.40497732162475586, 0.20322512090206146, -0.021142125129699707, -0.20487073063850403, -0.02723023295402527, -0.775636329581423, 0.0009205191243126243, -0.2617429840553842,-0.5743501832494489,-0.8844146728515625,-0.62554931640625,0.1970977783203125
20220111-1138,2022-01-11 11:38:55Z,u01, 231,40,movements,el-ex, rt, d,76835.04887225, -1.8051963356453027, 0.43026398345950473, 2.814366337155311, 0.2456236630678177, -0.2135104089975357, -0.6166003942489624, -0.8840019106864929, -0.41711074113845825, 0.2110902965068817, -0.022232770919799805, 0.13302260637283325, -0.1135103702545166, -0.7781477294182693, -0.005590854985262794, -0.2639204116567645,-0.5699129815928299,-0.9062347412109375,-0.284088134765625,0.0975799560546875
20220111-1138,2022-01-11 11:38:55Z,u01, 232,40,movements,el-ex, rt, d,76835.07381225, -1.8167272778597379, 0.4429406518178595, 2.827137144695348, 0.39584872126579285, -0.26143479347229004, -0.5207204818725586, -0.8763100504875183, -0.42859816551208496, 0.2199643850326538, 0.012509942054748535, 0.14353340864181519, -0.02716967463493347, -0.7809055818902225, -0.012987021252675979, -0.2650192564851682,-0.565493254125268,-0.8661651611328125,-0.23553466796875,0.16973876953125
20220111-1138,2022-01-11 11:38:55Z,u01, 233,40,movements,el-ex, rt, d,76835.09875225, -1.8263627705599785, 0.4507676785711185, 2.8345115870349464, -0.04937625303864479, -0.23161691427230835, -0.2566163241863251, -0.8708775043487549, -0.43565666675567627, 0.2275426983833313, -0.0013453960418701172, -0.11884775757789612, 0.09836971759796143, -0.7832509330929865, -0.017009498735276796, -0.26590952565802584,-0.5617123683804806,-0.872222900390625,-0.55450439453125,0.3259124755859375
20220111-1138,2022-01-11 11:38:55Z,u01, 234,40,movements,el-ex, rt, d,76835.12369225001, -1.8289065660767652, 0.4563175615837435, 2.8308962103943465, -0.1924491971731186, -0.10329662263393402, -0.10789675265550613, -0.8679448962211609, -0.4406454563140869, 0.2291366308927536, -0.023855149745941162, -0.15635475516319275, 0.014591962099075317, -0.7837605831033982, -0.016960656866269908, -0.2690015157354983,-0.559526577672098,-0.893280029296875,-0.6378021240234375,0.266693115234375
20220111-1138,2022-01-11 11:38:55Z,u01, 235,40,movements,el-ex, rt, d,76835.14863325, -1.8308824512671775, 0.4581454898397073, 2.832734000482791, 0.3459373116493225, 0.01815684325993061, -0.05831615626811981, -0.8667103052139282, -0.44228559732437134, 0.23064354062080383, -0.05102944374084473, 0.05365955829620361, -0.08342686295509338, -0.7842184658982847, -0.01797693022758412, -0.26918253461118236,-0.5587655152850717,-0.9177398681640625,-0.3886260986328125,0.147216796875
20220111-1138,2022-01-11 11:38:55Z,u01, 236,40,movements,el-ex, rt, d,76835.17357325001, -1.8344774458592945, 0.4544878561435646, 2.846214710876839, 0.5177674293518066, 0.15628275275230408, 0.10745630413293839, -0.8674315810203552, -0.43900221586227417, 0.23417794704437256, -0.08580011129379272, 0.005545854568481445, -0.019517317414283752, -0.7852512809603629, -0.021665612541191426, -0.2640896457646532,-0.5596138126513499,-0.94940185546875,-0.400604248046875,0.2035675048828125
20220111-1138,2022-01-11 11:38:55Z,u01, 237,40,movements,el-ex, rt, d,76835.19851325, -1.8314794177870133, 0.4495784195777459, 2.8499902658356375, -0.22722461819648743, 0.2263241559267044, 0.18678468465805054, -0.8702018857002258, -0.43458589911460876, 0.2321290522813797, -0.11637043952941895, -0.0491940975189209, 0.027117758989334106, -0.7845883643816431, -0.022036897997854077, -0.26116945927058965,-0.5618950283051629,-0.986572265625,-0.4837799072265625,0.259246826171875
20220111-1138,2022-01-11 11:38:55Z,u01, 238,40,movements,el-ex, rt, d,76835.22345325, -1.8192388183083552, 0.4463837114484042, 2.8394138003482943, -0.319314181804657, 0.3955368995666504, 0.2324906587600708, -0.8743193745613098, -0.43170642852783203, 0.22180041670799255, -0.14408284425735474, -0.07822710275650024, 0.013368040323257446, -0.781381699280548, -0.01851616887726326, -0.2628403517603014,-0.5656985326404884,-1.0203704833984375,-0.53326416015625,0.24029541015625
20220111-1138,2022-01-11 11:38:55Z,u01, 239,40,movements,el-ex, rt, d,76835.24839325, -1.8058491573281537, 0.44054499978400014, 2.8336961826961726, 0.03725374490022659, 0.4742300510406494, 0.34394705295562744, -0.879646897315979, -0.4264324903488159, 0.21065744757652283, -0.138053297996521, -0.023579686880111694, 0.034642696380615234, -0.7778593955029747, -0.016232230253779234, -0.2621929841221977,-0.5708993368977299,-1.0177001953125,-0.45001220703125,0.24530029296875
20220111-1138,2022-01-11 11:38:55Z,u01, 240,40,movements,el-ex, rt, d,76835.27333425, -1.7928405888300043, 0.42981155669665677, 2.83164872705031, -0.040761031210422516, 0.4889410734176636, 0.5488863587379456, -0.8867266774177551, -0.41669949889183044, 0.20019352436065674, -0.22270935773849487, -0.07103240489959717, 0.09034895896911621, -0.774536691454846, -0.013772249498367473, -0.25873897042641747,-0.5770246288693959,-1.08984375,-0.47052001953125,0.2895050048828125
20220111-1138,2022-01-11 11:38:55Z,u01, 241,40,movements,el-ex, rt, d,76835.29827425, -1.7752469478111572, 0.41474560424934087, 2.822346301968993, -0.37564608454704285, 0.6156308650970459, 0.7663715481758118, -0.8961572051048279, -0.40295711159706116, 0.1858161836862564, -0.23749446868896484, -0.07116389274597168, 0.08310459554195404, -0.7699669146366253, -0.007683700344035926, -0.2558388471307066,-0.584498333951365,-1.1336517333984375,-0.47412109375,0.2689208984375
20220111-1138,2022-01-11 11:38:55Z,u01, 242,40,movements,el-ex, rt, d,76835.32321425, -1.7548713932779558, 0.39584160201494634, 2.8101153697195356, -0.14914317429065704, 0.6099300980567932, 0.8259342312812805, -0.9070844650268555, -0.38558486104011536, 0.16888341307640076, -0.09288471937179565, -0.06430518627166748, -0.037795230746269226, -0.7644877354622431, 0.0004601804077208893, -0.25254213137958903,-0.5931109179884448,-1.0132598876953125,-0.47344970703125,0.13934326171875
20220111-1138,2022-01-11 11:38:55Z,u01, 243,40,movements,el-ex, rt, d,76835.34815425001, -1.7398116178264091, 0.3768182264755686, 2.806673472659523, 0.22789892554283142, 0.4891948699951172, 0.734210193157196, -0.9165908098220825, -0.3679637908935547, 0.15641005337238312, -0.06091785430908203, 0.0063152313232421875, -0.0674208253622055, -0.76037399136397, 0.006034884698213838, -0.2467304911419941,-0.6007654441848861,-0.977508544921875,-0.3616485595703125,0.0889892578125
20220111-1138,2022-01-11 11:38:55Z,u01, 244,40,movements,el-ex, rt, d,76835.37309425001, -1.7313774330464082, 0.35864191453292094, 2.813208789518944, 0.2858731746673584, 0.34756696224212646, 0.6118044257164001, -0.9243273735046387, -0.35100287199020386, 0.14971862733364105, -0.10519826412200928, 0.18144726753234863, -0.02687014639377594, -0.7581478206003207, 0.008437786238832568, -0.23824207017366134,-0.6069442470282278,-1.0123748779296875,-0.194549560546875,0.0999908447265625
20220111-1138,2022-01-11 11:38:55Z,u01, 245,40,movements,el-ex, rt, d,76835.39803525001, -1.7252659903116485, 0.3418921252738807, 2.815651793220684, 0.14383497834205627, 0.26248225569725037, 0.6695037484169006, -0.9309044480323792, -0.33527031540870667, 0.1449512243270874, -0.18077468872070312, 0.0019115209579467773, 0.02835811674594879, -0.7565218680530594, 0.012258733522252596, -0.23149547369291051,-0.6115016832427878,-1.1116790771484375,-0.3333587646484375,0.173309326171875
20220111-1138,2022-01-11 11:38:55Z,u01, 246,40,movements,el-ex, rt, d,76835.42297525001, -1.7190533038410987, 0.32555859421241934, 2.8142868083116848, -0.013621319085359573, 0.18035386502742767, 0.6604014039039612, -0.9370784759521484, -0.3198380768299103, 0.1399553418159485, -0.23397254943847656, -0.24015948176383972, 0.07472050189971924, -0.7547679101874121, 0.017408912737210513, -0.22607643838412647,-0.6155580759993879,-1.1697235107421875,-0.544891357421875,0.22149658203125
20220111-1138,2022-01-11 11:38:55Z,u01, 247,40,movements,el-ex, rt, d,76835.44791525, -1.7146947037115876, 0.3097376238400512, 2.809465479945516, -0.14845819771289825, 0.06273942440748215, 0.5851082801818848, -0.9425698518753052, -0.30480876564979553, 0.1365782767534256, -0.27675992250442505, -0.17305070161819458, 0.09541629254817963, -0.7534696273024164, 0.02393024191906734, -0.22191174221455767,-0.6184383588771144,-1.219329833984375,-0.4778594970703125,0.23199462890625
20220111-1138,2022-01-11 11:38:55Z,u01, 248,40,movements,el-ex, rt, d,76835.47285525, -1.7116598059297952, 0.2974734635742182, 2.805416020442726, 0.03492900729179382, 0.1408383548259735, 0.43091511726379395, -0.9466100931167603, -0.2931055724620819, 0.1342317909002304, -0.4509880542755127, -0.11717268824577332, 0.048934683203697205, -0.7525065129324049, 0.029152125322654654, -0.21879085842193308,-0.6204953821283024,-1.3762969970703125,-0.393280029296875,0.1923370361328125
20220111-1138,2022-01-11 11:38:55Z,u01, 249,40,movements,el-ex, rt, d,76835.49779525, -1.708153838877118, 0.2899305797783764, 2.8067953734533253, 0.050670720636844635, 0.1223566085100174, 0.15465936064720154, -0.9492380023002625, -0.28588569164276123, 0.13121120631694794, -0.490153968334198, -0.194613516330719, 0.0690755695104599, -0.7514392092539668, 0.03073622438379503, -0.21569952499917405,-0.6227905160368392,-1.43939208984375,-0.480499267578125,0.200286865234375
20220111-1138,2022-01-11 11:38:55Z,u01, 250,40,movements,el-ex, rt, d,76835.52273625, -1.7057781718991858, 0.2895464631315108, 2.804914839690976, -0.14703413844108582, 0.11322244256734848, -0.10897020995616913, -0.9496558904647827, -0.2855176031589508, 0.12897053360939026, -0.5620933771133423, -0.2272997498512268, 0.07040071487426758, -0.7506695621294877, 0.03131258651920038, -0.21618416274178356,-0.6235215471875742,-1.51385498046875,-0.52105712890625,0.1920013427734375
