SessionID,LoggingTime,UID,RecNo,Hertz,Activity,MoveType,Wrist,Side,TimeStamp,DMRoll,DMPitch,DMYaw,DMRotX,DMRotY,DMRotZ,DMGrvX,DMGrvY,DMGrvZ,DMUAccelX,DMUAccelY,DMUAccelZ,DMQuatX,DMQuatY,DMQuatW,DMQuatZ,AccelroX,AceelroY,AceelroZ
20220111-1126,2022-01-11 11:26:20Z,u01, 1,40,movements,el-ex, rt, d,76080.2737335, -1.6607343997916773, 0.10127018742608372, 3.0490311382556983, 0.20076984167099, -0.9722856283187866, -1.0369511842727661, -0.9908553957939148, -0.10109717398881912, 0.0893566906452179, 0.12804734706878662, -0.1845930963754654, -0.042497046291828156, -0.7380232679363181, 5.551115123125783e-17, -0.06849186329511053,-0.671290093651651,-0.8397979736328125,-0.311920166015625,0.1117401123046875
20220111-1126,2022-01-11 11:26:20Z,u01, 2,40,movements,el-ex, rt, d,76080.2986755, -1.6856564366579503, 0.12682555103882978, 3.0639013180697376, 0.763003945350647, -0.937572717666626, -1.1499381065368652, -0.9854322075843811, -0.12648583948612213, 0.11368723958730698, 0.26884889602661133, 0.14485736191272736, -0.21859143674373627, -0.7461028295527083, -0.013198063794010395, -0.07305968612350316,-0.6616786863664393,-0.716583251953125,0.01837158203125,-0.1049041748046875
20220111-1126,2022-01-11 11:26:20Z,u01, 3,40,movements,el-ex, rt, d,76080.3236175, -1.7149106434987729, 0.15454262540534047, 3.082435414185453, 0.24592581391334534, -1.4051593542099, -1.039923906326294, -0.9778391122817993, -0.15392819046974182, 0.14190438389778137, -0.06938689947128296, 0.24836485087871552, 0.11345125734806061, -0.7550875892431301, -0.028194388094650746, -0.07764195737815544,-0.6503995550690496,-0.2351837158203125,0.042877197265625,0.0268402099609375
20220111-1126,2022-01-11 11:26:20Z,u01, 4,40,movements,el-ex, rt, d,76080.34855950001, -1.7464582270333937, 0.182835195650445, 3.084267379007966, -0.28470727801322937, -1.1415895223617554, -0.9189090728759766, -0.968199610710144, -0.18181824684143066, 0.17184700071811676, -0.0714426040649414, -0.06313107907772064, 0.2605869770050049, -0.764573975541178, -0.036744188669512345, -0.08826901869158349,-0.6374048811234817,-1.039642333984375,-0.2449493408203125,0.43243408203125
20220111-1126,2022-01-11 11:26:20Z,u01, 5,40,movements,el-ex, rt, d,76080.3735015, -1.7691991262651774, 0.19915764198337188, 3.0889355134790657, 0.13394387066364288, -0.6790607571601868, -0.5940985679626465, -0.9610040187835693, -0.19784370064735413, 0.19320768117904663, -0.10560059547424316, 0.008543163537979126, -0.0830392837524414, -0.771220122009839, -0.04270087897879543, -0.09348357657425099,-0.6282173117916717,-1.160369873046875,-0.30816650390625,0.1494293212890625
20220111-1126,2022-01-11 11:26:20Z,u01, 6,40,movements,el-ex, rt, d,76080.39844250001, -1.7898875774111973, 0.21608082345790422, 3.0911544572050547, -0.2928541600704193, -1.0033069849014282, -0.7994630932807922, -0.9533963799476624, -0.21440324187278748, 0.21228840947151184, 0.2117888331413269, 0.31813251972198486, -0.1747671514749527, -0.7770792866686989, -0.047874702659492396, -0.09978215515460698,-0.6195960213914424,-0.741607666015625,0.103729248046875,0.0375213623046875
20220111-1126,2022-01-11 11:26:20Z,u01, 7,40,movements,el-ex, rt, d,76080.4233845, -1.8156714790793504, 0.23624358058318828, 3.0895659383672722, 0.058736033737659454, -0.9195139408111572, -0.6662231683731079, -0.9432201981544495, -0.23405221104621887, 0.2357013076543808, -0.16037166118621826, -0.01764148473739624, 0.13121140003204346, -0.7843030912216494, -0.052147058992579765, -0.10874934675866554,-0.6085415809758843,-1.0062713623046875,-0.15179443359375,0.36328125
20220111-1126,2022-01-11 11:26:20Z,u01, 8,40,movements,el-ex, rt, d,76080.4483265, -1.8336436838390937, 0.24714814912400987, 3.0991298056522787, 0.26709145307540894, -0.421179860830307, -0.34702765941619873, -0.9363116025924683, -0.24463976919651031, 0.2519359290599823, -0.2547893524169922, -0.17821179330348969, 0.039155811071395874, -0.7890344023723437, -0.05824662913058154, -0.11062242983374476,-0.6014936710289008,-1.19110107421875,-0.4228515625,0.2910919189453125
20220111-1126,2022-01-11 11:26:20Z,u01, 9,40,movements,el-ex, rt, d,76080.4732685, -1.8469274963166444, 0.25492225575260796, 3.105999376040027, 0.022186344489455223, -0.525273323059082, -0.4534846544265747, -0.9310245513916016, -0.2521701753139496, 0.2638246417045593, 0.03374671936035156, -0.04056966304779053, -0.0363008975982666, -0.7924631051154785, -0.06256631286154285, -0.11202882566874797,-0.5962693988282246,-0.9114227294921875,-0.352569580078125,0.2034912109375
20220111-1126,2022-01-11 11:26:20Z,u01, 10,40,movements,el-ex, rt, d,76080.49821050001, -1.8601997406075403, 0.2670467426901549, 3.105741956498236, -0.16410334408283234, -0.5243799686431885, -0.41796252131462097, -0.9244428873062134, -0.2638840079307556, 0.27526506781578064, -0.013606607913970947, 0.12153470516204834, 0.0499606728553772, -0.7958426236621412, -0.06532267083779525, -0.11732703350403495,-0.5904252296540564,-0.93804931640625,-0.1423492431640625,0.325225830078125
20220111-1126,2022-01-11 11:26:20Z,u01, 11,40,movements,el-ex, rt, d,76080.5231525, -1.8696016245034388, 0.27562096281050436, 3.1071211370092158, 0.06146780773997307, -0.11667121201753616, -0.20919588208198547, -0.9196178317070007, -0.27214452624320984, 0.2832677662372589, -0.19676101207733154, 0.03949373960494995, 0.08506408333778381, -0.7981416003364703, -0.06785181795857725, -0.12063898334245227,-0.5863551984159021,-1.1249237060546875,-0.2007293701171875,0.394287109375
20220111-1126,2022-01-11 11:26:20Z,u01, 12,40,movements,el-ex, rt, d,76080.54809350001, -1.8707470934033008, 0.27791334555268615, 3.109869473676976, 0.059145864099264145, -0.022770684212446213, -0.07778872549533844, -0.918694257736206, -0.2743496596813202, 0.2841358780860901, -0.030494093894958496, -0.07330664992332458, -0.07095548510551453, -0.7982668469835279, -0.06955560591398874, -0.12078464725367907,-0.5859549179814549,-0.949188232421875,-0.34765625,0.2131805419921875
20220111-1126,2022-01-11 11:26:20Z,u01, 13,40,movements,el-ex, rt, d,76080.5730355, -1.8730145501321687, 0.28057922169125515, 3.112169956026081, -0.045384444296360016, -0.06879790127277374, -0.18638983368873596, -0.9173458218574524, -0.27691227197647095, 0.28599944710731506, 0.007098257541656494, 0.00493970513343811, -0.043812096118927, -0.7987123421987783, -0.07112187362357003, -0.12125190938728625,-0.5850624358259202,-0.8998565673828125,-0.3181610107421875,0.2012176513671875
20220111-1126,2022-01-11 11:26:20Z,u01, 14,40,movements,el-ex, rt, d,76080.5979775, -1.8728791004368397, 0.2842958312651034, 3.1104620580374127, -0.12961652874946594, 0.059432707726955414, -0.05982743203639984, -0.9163957834243774, -0.28048160672187805, 0.2855670750141144, -0.013200044631958008, 0.10921698808670044, 0.05513104796409607, -0.7985395032803496, -0.07154155877868684, -0.12322598607254953,-0.5848347724184209,-0.929595947265625,-0.1712646484375,0.3406982421875
20220111-1126,2022-01-11 11:26:20Z,u01, 15,40,movements,el-ex, rt, d,76080.6229195, -1.8683838512983202, 0.2854305521958167, 3.1053568618609484, -0.24155285954475403, 0.1606508046388626, 0.10864746570587158, -0.9173653721809387, -0.2815706133842468, 0.2813512682914734, -0.010399401187896729, 0.0862429141998291, 0.05370113253593445, -0.7973450266423316, -0.07011810297804755, -0.12501256055608373,-0.5862560402255832,-0.9280548095703125,-0.15869140625,0.3785858154296875
20220111-1126,2022-01-11 11:26:20Z,u01, 16,40,movements,el-ex, rt, d,76080.64786150001, -1.8612254258955463, 0.282628863910472, 3.101601229020244, 0.06411495804786682, 0.3046373426914215, 0.15417373180389404, -0.9201081991195679, -0.27888116240501404, 0.2750020921230316, 0.0011475682258605957, -0.07242190837860107, -0.09598609805107117, -0.7955151219149768, -0.06824028413626243, -0.12475724232396093,-0.5890115348943843,-0.9189605712890625,-0.3513031005859375,0.17901611328125
20220111-1126,2022-01-11 11:26:20Z,u01, 17,40,movements,el-ex, rt, d,76080.6728035, -1.855414636461925, 0.27731446058745746, 3.108485072133358, 0.422750324010849, 0.3362431824207306, 0.051301419734954834, -0.9230999946594238, -0.2737736999988556, 0.27006325125694275, 0.042271196842193604, -0.14050239324569702, -0.1695842742919922, -0.7938301605666362, -0.06975169971105522, -0.12042079587548679,-0.5920026590451675,-0.876068115234375,-0.44866943359375,0.0581207275390625
20220111-1126,2022-01-11 11:26:20Z,u01, 18,40,movements,el-ex, rt, d,76080.69774450001, -1.8483156804495995, 0.27297650530804085, 3.113974186694514, 0.09386086463928223, 0.38397395610809326, 0.2123265266418457, -0.9261273741722107, -0.26959893107414246, 0.2638263404369354, 0.02436351776123047, -0.024407416582107544, -0.016908764839172363, -0.7917477753542335, -0.07105372323530612, -0.11682740063550412,-0.5953470635909283,-0.901763916015625,-0.29400634765625,0.246917724609375
20220111-1126,2022-01-11 11:26:20Z,u01, 19,40,movements,el-ex, rt, d,76080.7226865, -1.8351695240924684, 0.26599721276319493, 3.1095432903962745, -0.3394402861595154, 0.5638298988342285, 0.38219743967056274, -0.9313092827796936, -0.26287153363227844, 0.2521144449710846, -0.005427837371826172, 0.06806254386901855, 0.06714513897895813, -0.7883131826995959, -0.06796728594551782, -0.11494679092848437,-0.6006080571871721,-0.9365234375,-0.2113800048828125,0.3126373291015625
20220111-1126,2022-01-11 11:26:20Z,u01, 20,40,movements,el-ex, rt, d,76080.7476285, -1.815659881748557, 0.2579969079525745, 3.0942252693521923, -0.4124051034450531, 0.6757429838180542, 0.5815394520759583, -0.938060462474823, -0.25514426827430725, 0.23440039157867432, 0.005397677421569824, 0.04178065061569214, 0.003499239683151245, -0.7832770115266467, -0.06064091768074731, -0.1158163860001084,-0.6077715076714288,-0.9326629638671875,-0.2133636474609375,0.2378997802734375
20220111-1126,2022-01-11 11:26:20Z,u01, 21,40,movements,el-ex, rt, d,76080.7725705, -1.7966250913761084, 0.24385968780433478, 3.0901216317500344, 0.28286048769950867, 0.7657082676887512, 0.530225396156311, -0.9457734227180481, -0.24144990742206573, 0.2172892838716507, -0.02538752555847168, -0.10387179255485535, -0.14348265528678894, -0.7781615836839504, -0.05576009792919223, -0.11102588975705946,-0.6156530032138889,-0.948577880859375,-0.3319854736328125,0.0661773681640625
20220111-1126,2022-01-11 11:26:20Z,u01, 22,40,movements,el-ex, rt, d,76080.79751250001, -1.7787324469072743, 0.22812982421456288, 3.0960676305772177, 0.39753544330596924, 0.7992014288902283, 0.6259912252426147, -0.9531081318855286, -0.22615620493888855, 0.20109222829341888, -0.14325100183486938, -0.13829998672008514, -0.07320846617221832, -0.7730574943951622, -0.05411309427534322, -0.10262002410878546,-0.6236368671827078,-1.0963592529296875,-0.3644561767578125,0.1278839111328125
20220111-1126,2022-01-11 11:26:21Z,u01, 23,40,movements,el-ex, rt, d,76080.8224545, -1.7593812411344931, 0.21031012862686577, 3.10103681259645, 0.2149038314819336, 0.8178415894508362, 0.6690073609352112, -0.9606274366378784, -0.2087632119655609, 0.1833384484052658, -0.2583972215652466, -0.06604757905006409, -0.015186652541160583, -0.7674844694768441, -0.05134992073241179, -0.09371315015151127,-0.6320986441756402,-1.2051849365234375,-0.292449951171875,0.150482177734375
20220111-1126,2022-01-11 11:26:21Z,u01, 24,40,movements,el-ex, rt, d,76080.84739550001, -1.7391236156922785, 0.1952873238688345, 3.097772740810594, -0.24968788027763367, 0.7495095133781433, 0.5693021416664124, -0.9671270251274109, -0.19404840469360352, 0.1643490344285965, -0.3250788450241089, -0.002576380968093872, 0.060382381081581116, -0.7616023111242617, -0.04622162164175275, -0.08853490747726589,-0.6403023408755242,-1.292205810546875,-0.196624755859375,0.2247314453125
20220111-1126,2022-01-11 11:26:21Z,u01, 25,40,movements,el-ex, rt, d,76080.87233750001, -1.7205276504265659, 0.1834313182884291, 3.0887491618192033, -0.15630464255809784, 0.5864748954772949, 0.4676041007041931, -0.9722223877906799, -0.18240439891815186, 0.1466698795557022, -0.391592800617218, -0.04663003981113434, -0.04320015013217926, -0.7561434756431595, -0.03977413985094014, -0.08655898659704708,-0.6474353431884072,-1.35125732421875,-0.2183074951171875,0.1391754150390625
20220111-1126,2022-01-11 11:26:21Z,u01, 26,40,movements,el-ex, rt, d,76080.8972795, -1.7082261877875582, 0.17475358260655532, 3.0930289531803323, 0.5246691107749939, 0.4773731827735901, 0.1324002742767334, -0.9754843711853027, -0.17386548221111298, 0.13491110503673553, -0.5014748573303223, -0.01261216402053833, -0.032356977462768555, -0.7522825745263173, -0.03907021394011184, -0.0816659437740167,-0.6525910732701641,-1.476959228515625,-0.1864776611328125,0.1025543212890625
20220111-1126,2022-01-11 11:26:21Z,u01, 27,40,movements,el-ex, rt, d,76080.9222215, -1.7003271296747382, 0.17253747290225557, 3.1056631303229034, 0.3344338834285736, 0.30867594480514526, -0.09411070495843887, -0.9768991470336914, -0.1716827005147934, 0.1272510141134262, -0.6263568997383118, -0.1339813470840454, 0.13507792353630066, -0.7494945768024495, -0.04339796448224553, -0.07654002130932036,-0.6561371631075914,-1.5823822021484375,-0.2698822021484375,0.2219085693359375
20220111-1126,2022-01-11 11:26:21Z,u01, 28,40,movements,el-ex, rt, d,76080.94716350001, -1.6975037011751075, 0.1780342180517106, 3.1063041533260556, -0.1936907023191452, -0.07659296691417694, -0.3469584882259369, -0.9763038754463196, -0.1770952045917511, 0.12437120079994202, -0.7020561695098877, -0.2228224128484726, 0.14412237703800201, -0.7484049985821479, -0.04555828022578284, -0.07831951972836149,-0.6570239942030547,-1.6783599853515625,-0.3999176025390625,0.26849365234375
20220111-1126,2022-01-11 11:26:21Z,u01, 29,40,movements,el-ex, rt, d,76080.97210550001, -1.7020157276361894, 0.19040953446651243, 3.107859856932927, 0.23030182719230652, -0.2773708701133728, -0.6811772584915161, -0.9734851121902466, -0.1892610490322113, 0.12847837805747986, -0.7213236689567566, -0.0928739607334137, 0.006851643323898315, -0.7494904087216175, -0.050033167172986615, -0.08253839531533552,-0.6549412732698967,-1.7107086181640625,-0.2981414794921875,0.1536407470703125
20220111-1126,2022-01-11 11:26:21Z,u01, 30,40,movements,el-ex, rt, d,76080.99704650001, -1.714917805917039, 0.20949460241309376, 3.1178760767891016, 0.21593154966831207, -0.5859084725379944, -0.9018518924713135, -0.9679953455924988, -0.20796558260917664, 0.14048293232917786, -0.653281569480896, -0.09081679582595825, 0.0014542490243911743, -0.7527960086687746, -0.05949480754991937, -0.08677461049752389,-0.6497913102944807,-1.62127685546875,-0.2987823486328125,0.141937255859375
20220111-1126,2022-01-11 11:26:21Z,u01, 31,40,movements,el-ex, rt, d,76081.02198850001, -1.7328795310868232, 0.23284069639859312, 3.1227575965089955, -0.08636622875928879, -0.7649232149124146, -1.008398175239563, -0.9602617621421814, -0.23074248433113098, 0.1570197343826294, -0.49432802200317383, -0.13549897074699402, 0.09148478507995605, -0.7575448282223181, -0.0680860006568555, -0.09456830545765432,-0.6422981841254465,-1.493621826171875,-0.3633575439453125,0.249114990234375
20220111-1126,2022-01-11 11:26:21Z,u01, 32,40,movements,el-ex, rt, d,76081.046930875, -1.7542996401038216, 0.2587669801817401, 3.125415814233568, -0.01692374050617218, -0.880663275718689, -1.0679682493209839, -0.9504756331443787, -0.25588878989219666, 0.17639988660812378, -0.38283729553222656, -0.10678210854530334, 0.07283709943294525, -0.7631350980979976, -0.07632013386133057, -0.10433296052501057,-0.6331782044541756,-1.33331298828125,-0.3626708984375,0.249237060546875
20220111-1126,2022-01-11 11:26:21Z,u01, 33,40,movements,el-ex, rt, d,76081.071872875, -1.7776576001843856, 0.28381737968540405, 3.133435476742527, 0.24775205552577972, -0.8142553567886353, -1.021080493927002, -0.9395269155502319, -0.28002235293388367, 0.19717222452163696, -0.2891414761543274, -0.07475981116294861, 0.05737476050853729, -0.7688874318209896, -0.08601295926969876, -0.11234320848488022,-0.6235326535906525,-1.2515716552734375,-0.36279296875,0.2551422119140625
20220111-1126,2022-01-11 11:26:21Z,u01, 34,40,movements,el-ex, rt, d,76081.09681487501, -1.8010718986417882, 0.30664825591825023, -3.1368817794995016, 0.2935178875923157, -0.7393903136253357, -0.9329978823661804, -0.9281855821609497, -0.30186495184898376, 0.2175983190536499, -0.2417362928390503, 0.049866050481796265, 0.015937328338623047, -0.7742411156574993, -0.09669463613640139, -0.11823742428376277,-0.6141829817962717,-1.169921875,-0.2519989013671875,0.2335357666015625
20220111-1126,2022-01-11 11:26:21Z,u01, 35,40,movements,el-ex, rt, d,76081.121755875, -1.8211343921698888, 0.3258845540392158, -3.1257467359071995, 0.13808926939964294, -0.5839275121688843, -0.776555061340332, -0.9178372621536255, -0.32014691829681396, 0.23469287157058716, -0.1537264585494995, 0.014025062322616577, -0.007809996604919434, -0.7785768380069591, -0.10566241583519309, -0.12333274833142091,-0.6061704422356897,-1.0912322998046875,-0.288177490234375,0.220062255859375
20220111-1126,2022-01-11 11:26:21Z,u01, 36,40,movements,el-ex, rt, d,76081.14669787501, -1.835673309748362, 0.3411576083942832, -3.1195239549805702, 0.10331755131483078, -0.43044692277908325, -0.5465272068977356, -0.9095025062561035, -0.3345782160758972, 0.24670299887657166, -0.09133660793304443, -0.0982525646686554, 0.04303072392940521, -0.7815757573823058, -0.11176239406685823, -0.1282182202195729,-0.6001737218015921,-1.0008392333984375,-0.432830810546875,0.28973388671875
20220111-1126,2022-01-11 11:26:21Z,u01, 37,40,movements,el-ex, rt, d,76081.171639875, -1.846873835937378, 0.3519119126912886, -3.1150260860271977, -0.005979013163596392, -0.3346365690231323, -0.35128137469291687, -0.9031681418418884, -0.3446931838989258, 0.25587859749794006, -0.0820002555847168, 0.07513141632080078, 0.04336142539978027, -0.7838910747620527, -0.11599175347659513, -0.13173394875332187,-0.5955727057054818,-0.9874420166015625,-0.303192138671875,0.3148956298828125
20220111-1126,2022-01-11 11:26:21Z,u01, 38,40,movements,el-ex, rt, d,76081.196581875, -1.8551269022476646, 0.3569739797175224, -3.1098886558030707, 0.2553008794784546, -0.2164420783519745, -0.14342652261257172, -0.8993391990661621, -0.3494405746459961, 0.26283085346221924, -0.031401097774505615, 0.10734468698501587, -0.026258736848831177, -0.785662208832579, -0.11895511800552316, -0.13268701821170376,-0.5924344942675436,-0.9307403564453125,-0.242095947265625,0.236572265625
20220111-1126,2022-01-11 11:26:21Z,u01, 39,40,movements,el-ex, rt, d,76081.221523875, -1.862346005209218, 0.35509220072273356, -3.1044119817321443, 0.06263590604066849, -0.2189362645149231, 0.1548716127872467, -0.8980466723442078, -0.3476768136024475, 0.2695049047470093, 0.0007688999176025391, -0.03068011999130249, 0.03701353073120117, -0.7876120620585407, -0.12008205253122967, -0.1307558291983974,-0.590042708018625,-0.8957061767578125,-0.3796539306640625,0.28314208984375
20220111-1126,2022-01-11 11:26:21Z,u01, 40,40,movements,el-ex, rt, d,76081.24646587501, -1.8673901245257163, 0.3487225597294889, -3.1098745661734726, -0.26342225074768066, -0.3146260976791382, 0.4330344796180725, -0.8987753987312317, -0.3416975438594818, 0.2746729850769043, -0.004010677337646484, 0.03562149405479431, 0.037353843450546265, -0.7898994549462406, -0.11573824098918639, -0.13013848623053983,-0.5879858533558546,-0.9027862548828125,-0.3060760498046875,0.3120269775390625
20220111-1126,2022-01-11 11:26:21Z,u01, 41,40,movements,el-ex, rt, d,76081.271406875, -1.8731320224889756, 0.33668952747117525, -3.120533722489605, -0.17984530329704285, -0.3841331899166107, 0.6868209838867188, -0.9010435342788696, -0.33036431670188904, 0.2810330390930176, -0.041537463665008545, 0.08289730548858643, -0.0001189112663269043, -0.7930512087088979, -0.10763969470061957, -0.12880835674693922,-0.58556957715027,-0.939117431640625,-0.2599334716796875,0.30548095703125
20220111-1126,2022-01-11 11:26:21Z,u01, 42,40,movements,el-ex, rt, d,76081.29634887501, -1.8794099612655244, 0.31971881718301964, -3.1273738070558332, 0.08873684704303741, -0.3054206371307373, 0.7369278073310852, -0.9044735431671143, -0.31429964303970337, 0.2883457839488983, 0.016167879104614258, 0.08407506346702576, -0.057770371437072754, -0.7964017976331826, -0.0995844552827021, -0.1243744456822701,-0.5834021731782928,-0.8883056640625,-0.230224609375,0.2305755615234375
20220111-1126,2022-01-11 11:26:21Z,u01, 43,40,movements,el-ex, rt, d,76081.321290875, -1.885714931408555, 0.3002506451029824, -3.1311107129716422, 0.09025194495916367, -0.28835901618003845, 0.8443264961242676, -0.9082841277122498, -0.2957596480846405, 0.29588210582733154, 0.05725562572479248, -0.08719024062156677, -0.029204338788986206, -0.7996665654195977, -0.09205669381444798, -0.11798563105713925,-0.5814966551587604,-0.8339996337890625,-0.352813720703125,0.2655029296875
20220111-1126,2022-01-11 11:26:21Z,u01, 44,40,movements,el-ex, rt, d,76081.346232875, -1.8870989368234763, 0.2818852468611053, -3.139979792421788, -0.22886310517787933, -0.032564058899879456, 0.7874042987823486, -0.9128826856613159, -0.2781669795513153, 0.2987782657146454, 0.019419550895690918, 0.027465105056762695, -0.0025136470794677734, -0.8015512585602379, -0.08309456966153456, -0.1132676060538888,-0.5811895961080887,-0.893463134765625,-0.250701904296875,0.2962646484375
20220111-1126,2022-01-11 11:26:21Z,u01, 45,40,movements,el-ex, rt, d,76081.371174875, -1.881687986606946, 0.2644128355957026, 3.1329319681177017, -0.018794244155287743, 0.24242551624774933, 0.811115026473999, -0.9189733266830444, -0.2613425552845001, 0.2952761948108673, 0.07583373785018921, 0.1253257393836975, -0.03793680667877197, -0.8013328236371522, -0.07418760266342084, -0.10904696557190136,-0.5834986325257416,-0.8614044189453125,-0.1294708251953125,0.2691192626953125
20220111-1126,2022-01-11 11:26:21Z,u01, 46,40,movements,el-ex, rt, d,76081.39611687501, -1.8714915607896698, 0.24490882899855476, 3.1255790138342263, -0.049708981066942215, 0.44415682554244995, 0.8861456513404846, -0.9266291260719299, -0.24246788024902344, 0.2873460054397583, 0.08127701282501221, 0.020147353410720825, -0.0048296451568603516, -0.799567977907047, -0.06606096745191564, -0.10304574724093218,-0.5879698623774593,-0.8453521728515625,-0.222320556640625,0.2825164794921875
20220111-1126,2022-01-11 11:26:21Z,u01, 47,40,movements,el-ex, rt, d,76081.421057875, -1.8555042304165643, 0.22320127136148313, 3.118488571774316, -0.05962902307510376, 0.6939506530761719, 0.9467910528182983, -0.9359360933303833, -0.22135260701179504, 0.27390962839126587, 0.10395067930221558, -0.08858391642570496, -0.0823051929473877, -0.7960140025741504, -0.05758921908857828, -0.09600363108551685,-0.5948347961527927,-0.8520050048828125,-0.3194427490234375,0.184783935546875
20220111-1126,2022-01-11 11:26:21Z,u01, 48,40,movements,el-ex, rt, d,76081.44599987501, -1.8349890783343246, 0.20155089391594266, 3.107397616772927, -0.30440980195999146, 0.7451313734054565, 0.9733898043632507, -0.9457630515098572, -0.20018906891345978, 0.2558440864086151, 0.1683584451675415, 0.0038542449474334717, 0.04240414500236511, -0.790982409042388, -0.04763264694951275, -0.09021568601661273,-0.6032735205219926,-0.77740478515625,-0.1963348388671875,0.298248291015625
20220111-1126,2022-01-11 11:26:21Z,u01, 49,40,movements,el-ex, rt, d,76081.470941875, -1.8127730249332477, 0.17883250420962096, 3.09491101623816, -0.1936844289302826, 0.889798641204834, 1.0273586511611938, -0.9553828835487366, -0.17788082361221313, 0.23580071330070496, 0.1145472526550293, 0.006722971796989441, 0.0729760229587555, -0.7852071085055583, -0.03674443554562212, -0.08461581056696027,-0.6123232774946635,-0.8363494873046875,-0.160888671875,0.3079071044921875
20220111-1126,2022-01-11 11:26:21Z,u01, 50,40,movements,el-ex, rt, d,76081.495883875, -1.7872804234386983, 0.15352088312167025, 3.0858673262291076, -0.06144992634654045, 1.0860044956207275, 1.0797427892684937, -0.9651719927787781, -0.15291854739189148, 0.2122708410024643, 0.0905686616897583, -0.16472364962100983, 0.07181718945503235, -0.7780998589032622, -0.02638238534352505, -0.07714642395900623,-0.6228266093990311,-0.874603271484375,-0.3176422119140625,0.284088134765625
20220111-1126,2022-01-11 11:26:21Z,u01, 51,40,movements,el-ex, rt, d,76081.520825875, -1.7569174565668493, 0.12904951045099977, 3.0796552343851973, -0.0727100744843483, 1.187905192375183, 0.9437968730926514, -0.9745575785636902, -0.12869161367416382, 0.18350966274738312, 0.31231099367141724, 0.09448142349720001, -0.054435744881629944, -0.7690602180377357, -0.01735537559962702, -0.06933427912228679,-0.6351675658537098,-0.71417236328125,-0.0806732177734375,0.0961761474609375
20220111-1126,2022-01-11 11:26:21Z,u01, 52,40,movements,el-ex, rt, d,76081.54576787501, -1.7280671070273335, 0.10618063122787122, 3.072609972558746, -0.14882612228393555, 1.1016359329223633, 0.9251949787139893, -0.9820961356163025, -0.10598122328519821, 0.15574118494987488, 0.3817390203475952, 0.08983741700649261, 0.010625258088111877, -0.7601332173422992, -0.008251440609357397, -0.06269235866070766,-0.6466831919972711,-0.6003570556640625,-0.016143798828125,0.1663665771484375
20220111-1126,2022-01-11 11:26:21Z,u01, 53,40,movements,el-ex, rt, d,76081.570708875, -1.7009240238075487, 0.08425016802734495, 3.063342452446129, -0.29295915365219116, 1.0257081985473633, 0.9008165001869202, -0.9880282282829285, -0.0841505378484726, 0.12930049002170563, 0.3715274930000305, -0.057115308940410614, 0.028841480612754822, -0.751430393870012, 0.0016145180488487676, -0.057405853608159696,-0.657308292549876,-0.61163330078125,-0.1295928955078125,0.1961212158203125
20220111-1126,2022-01-11 11:26:21Z,u01, 54,40,movements,el-ex, rt, d,76081.59565087501, -1.6766371671765754, 0.06395594946993129, 3.053798479106064, -0.2391161322593689, 0.8143233060836792, 0.7760706543922424, -0.9923708438873291, -0.06391235440969467, 0.1054273322224617, 0.4714664816856384, -0.055548712611198425, -0.02943875640630722, -0.7433620071226335, 0.011251307179640402, -0.053079461550492923,-0.6666848588301801,-0.520904541015625,-0.1194610595703125,0.07598876953125
20220111-1126,2022-01-11 11:26:21Z,u01, 55,40,movements,el-ex, rt, d,76081.620592875, -1.6592120988546561, 0.0486890055930461, 3.0482936954256528, -0.08581006526947021, 0.5517425537109375, 0.4847826361656189, -0.9949132800102234, -0.04866977035999298, 0.08819596469402313, 0.5488075017929077, 0.02219579368829727, -0.0653078630566597, -0.7374110068092405, 0.0179719446200175, -0.04941219509494482,-0.6733946406001199,-0.4620208740234375,-0.0462188720703125,0.0202484130859375
20220111-1126,2022-01-11 11:26:21Z,u01, 56,40,movements,el-ex, rt, d,76081.645534875, -1.6491166694703443, 0.04016701268454961, 3.04733289814154, 0.05312974750995636, 0.2571181654930115, 0.18440979719161987, -0.9961304664611816, -0.04015621170401573, 0.07817719131708145, 0.5977234244346619, 0.026835288852453232, -0.005209676921367645, -0.733927095509459, 0.020966972088429847, -0.046706211251181184,-0.67729606095522,-0.398406982421875,-0.0133209228515625,0.072967529296875
20220111-1126,2022-01-11 11:26:21Z,u01, 57,40,movements,el-ex, rt, d,76081.670476875, -1.6457739815101122, 0.038902488026939845, 3.04945390235424, 0.13947319984436035, 0.01925586350262165, -0.09889853000640869, -0.9964358806610107, -0.03889267519116402, 0.07485073804855347, 0.5504978895187378, 0.030546102672815323, -0.00963485985994339, -0.7328051666271721, 0.02054162333594539, -0.04555903734408312,-0.6786006930085755,-0.45257568359375,-0.0270843505859375,0.081695556640625
20220111-1126,2022-01-11 11:26:21Z,u01, 58,40,movements,el-ex, rt, d,76081.695417875, -1.6496777929343478, 0.04390819418346768, 3.0552720213775753, 0.23862044513225555, -0.3177005350589752, -0.3440845310688019, -0.9959295392036438, -0.04389408603310585, 0.0787237286567688, 0.6080664992332458, -0.0006005428731441498, -0.04649723321199417, -0.7342205009286856, 0.01679648382744725, -0.04538330962777959,-0.6771841653969728,-0.3878631591796875,-0.04449462890625,0.0322265625
20220111-1126,2022-01-11 11:26:21Z,u01, 59,40,movements,el-ex, rt, d,76081.720359875, -1.662147502605164, 0.05582331674396244, 3.0566424784266704, -0.25058600306510925, -0.6559017300605774, -0.629086434841156, -0.9942790865898132, -0.055794328451156616, 0.09108206629753113, 0.4896252155303955, -0.10582679510116577, 0.05378483980894089, -0.7385007398817651, 0.012557443947381841, -0.04920780758724014,-0.6723373243414975,-0.475555419921875,-0.1957244873046875,0.1248626708984375
20220111-1126,2022-01-11 11:26:21Z,u01, 60,40,movements,el-ex, rt, d,76081.74530187501, -1.6800608150565963, 0.07529290475358016, 3.055269826478715, 0.2471279501914978, -0.7658699750900269, -0.923943281173706, -0.9912203550338745, -0.07522178441286087, 0.1087382584810257, 0.45275288820266724, 0.19894006848335266, -0.029835209250450134, -0.7445266828710444, 0.007010557201444667, -0.05677952633725908,-0.6651368165455447,-0.5384674072265625,0.12371826171875,0.0789031982421875
20220111-1126,2022-01-11 11:26:21Z,u01, 61,40,movements,el-ex, rt, d,76081.770243875, -1.7024894731143219, 0.10115231842443265, 3.0692848216275093, 0.42799732089042664, -0.9874937534332275, -1.2555058002471924, -0.9862735271453857, -0.10097990930080414, 0.13064157962799072, 0.6531285643577576, 0.48530304431915283, -0.09620262682437897, -0.751853059535091, -0.006145391724232008, -0.061788828521037786,-0.6564001587374058,-0.3638916015625,0.430267333984375,0.0013275146484375
20220111-1126,2022-01-11 11:26:21Z,u01, 62,40,movements,el-ex, rt, d,76081.795185875, -1.7298278894281607, 0.13108133109328857, 3.0799980489798213, 0.025443855673074722, -1.1381176710128784, -1.2675367593765259, -0.978910505771637, -0.1307062804698944, 0.1570035070180893, 0.5227948427200317, -0.10960441827774048, 0.19866347312927246, -0.7603536188726534, -0.01908207448615107, -0.06975203104653072,-0.6454710908455539,-0.45611572265625,-0.2403106689453125,0.3556671142578125
20220111-1126,2022-01-11 11:26:22Z,u01, 63,40,movements,el-ex, rt, d,76081.820127875, -1.7586432516265136, 0.1632526611139505, 3.087736406938258, 0.09795347601175308, -0.9514620304107666, -1.3200342655181885, -0.9693463444709778, -0.16252847015857697, 0.18426115810871124, -0.05132937431335449, -0.40259605646133423, 0.10249711573123932, -0.768863250584588, -0.03130300038374639, -0.07989683863860714,-0.6336291625377952,-0.9513397216796875,-0.6611328125,0.2795867919921875
20220111-1126,2022-01-11 11:26:22Z,u01, 64,40,movements,el-ex, rt, d,76081.845068875, -1.781469780239454, 0.1906257086106383, 3.1013039193612624, 0.7014768719673157, -0.7682706713676453, -1.0392004251480103, -0.9601765871047974, -0.18947330117225647, 0.205330491065979, 0.04866236448287964, 0.08849065005779266, -0.06954266130924225, -0.7750534207146473, -0.044242975307752175, -0.08659107705249963,-0.6243690115967431,-0.9115142822265625,-0.100982666015625,0.1357879638671875
20220111-1126,2022-01-11 11:26:22Z,u01, 65,40,movements,el-ex, rt, d,76081.870010875, -1.8069199695951697, 0.21063583037149317, 3.120404179976314, 0.1311788111925125, -1.0924081802368164, -0.7788458466529846, -0.9507635235786438, -0.2090817242860794, 0.22876518964767456, 0.349719762802124, 0.2912045121192932, -0.025594562292099, -0.7817662406798787, -0.05678152695599964, -0.0890871780522502,-0.6145574679828321,-0.59283447265625,0.17938232421875,0.163726806640625
20220111-1126,2022-01-11 11:26:22Z,u01, 66,40,movements,el-ex, rt, d,76081.89495287501, -1.8366774511759223, 0.23073259800945656, 3.1154931701368156, -0.6929531097412109, -1.1314924955368042, -0.702092170715332, -0.939291775226593, -0.22869077324867249, 0.2557961940765381, -0.12763333320617676, -0.08408394455909729, 0.22336021065711975, -0.7901569734429037, -0.05958236577320647, -0.09932852067860776,-0.6018603060975112,-1.066925048828125,-0.312774658203125,0.479156494140625
20220111-1126,2022-01-11 11:26:22Z,u01, 67,40,movements,el-ex, rt, d,76081.919894875, -1.8518128251202468, 0.24733365200420215, 3.110185733523941, 0.005160557106137276, -0.3040845990180969, -0.4942801296710968, -0.9315364360809326, -0.24481962621212006, 0.2688928246498108, -0.28072869777679443, 0.05907437205314636, -0.06433364748954773, -0.7941292708837417, -0.06168562927077914, -0.10793348059462765,-0.5948983056886514,-1.321685791015625,-0.22998046875,0.306732177734375
20220111-1126,2022-01-11 11:26:22Z,u01, 68,40,movements,el-ex, rt, d,76081.944836875, -1.864797846885796, 0.2561207592461128, 3.125885242402922, 0.6049314737319946, -0.4693504571914673, -0.5230901837348938, -0.9258716106414795, -0.2533297538757324, 0.2803315818309784, 0.10049313306808472, 0.025378704071044922, -0.21549710631370544, -0.7970491042214942, -0.06984638344861638, -0.10719682583792456,-0.590205931076371,-0.82537841796875,-0.2279510498046875,0.0648345947265625
20220111-1126,2022-01-11 11:26:22Z,u01, 69,40,movements,el-ex, rt, d,76081.969778875, -1.8814781028517507, 0.26627342090183637, 3.132522852720992, -0.3399646282196045, -0.672062873840332, -0.3899340331554413, -0.9185706973075867, -0.2631380259990692, 0.29493412375450134, -0.041512250900268555, -0.0380094051361084, 0.07167339324951172, -0.8011897770440313, -0.07457888645484823, -0.10990328338660055,-0.5834845110683484,-0.9066619873046875,-0.3023223876953125,0.306671142578125
20220111-1126,2022-01-11 11:26:22Z,u01, 70,40,movements,el-ex, rt, d,76081.994719875, -1.8928570996503664, 0.27736985829491206, 3.124773404429934, -0.40049612522125244, -0.3731675148010254, -0.3073262572288513, -0.9123291969299316, -0.2738269865512848, 0.3044242262840271, -0.22730392217636108, 0.049797505140304565, 0.10052868723869324, -0.80419416319062, -0.07405314293039489, -0.11702420979679257,-0.5780079500736985,-1.1396331787109375,-0.224029541015625,0.4049530029296875
20220111-1126,2022-01-11 11:26:22Z,u01, 71,40,movements,el-ex, rt, d,76082.019661875, -1.8991158240793233, 0.28515695781756756, 3.1238692769748275, 0.18527446687221527, -0.17592674493789673, -0.2654644250869751, -0.9083600640296936, -0.2813080847263336, 0.3094313144683838, -0.14016282558441162, 0.01295173168182373, -0.05660855770111084, -0.8056083687340767, -0.07556988171251167, -0.1206473943520249,-0.5750900434698099,-1.071319580078125,-0.2441864013671875,0.2912750244140625
20220111-1126,2022-01-11 11:26:22Z,u01, 72,40,movements,el-ex, rt, d,76082.04460387501, -1.90534431926921, 0.2886957093411121, 3.132934160014997, 0.24225831031799316, -0.14730508625507355, -0.1986199915409088, -0.9054691195487976, -0.2847021520137787, 0.31475409865379333, -0.04594683647155762, -0.050182461738586426, -0.11912131309509277, -0.8068445481125852, -0.07986819224801328, -0.11971227146037786,-0.572967560552989,-0.951416015625,-0.3348846435546875,0.1956329345703125
20220111-1126,2022-01-11 11:26:22Z,u01, 73,40,movements,el-ex, rt, d,76082.06954562501, -1.910547576018373, 0.28977579031382195, 3.1348378330539743, -0.052094608545303345, -0.2200501412153244, 0.10616200417280197, -0.9035288095474243, -0.28573736548423767, 0.31935861706733704, -0.03171294927597046, -0.06422299146652222, -0.01990494132041931, -0.8081938884340898, -0.08063461016969947, -0.1198123870448777,-0.5709340705566996,-0.9141082763671875,-0.3229827880859375,0.29083251953125
20220111-1126,2022-01-11 11:26:22Z,u01, 74,40,movements,el-ex, rt, d,76082.094487625, -1.9134425600336653, 0.2856992027154033, 3.1329349080051694, -0.05011957511305809, -0.034909769892692566, 0.17533795535564423, -0.903689980506897, -0.281828373670578, 0.3223615884780884, -0.13541823625564575, -0.12213277816772461, -0.05745390057563782, -0.8093294508337967, -0.07852794949824976, -0.11882308853949139,-0.5698247001928214,-1.0391082763671875,-0.403961181640625,0.2649078369140625
20220111-1126,2022-01-11 11:26:22Z,u01, 75,40,movements,el-ex, rt, d,76082.119429625, -1.9115527902584635, 0.2836083008010611, 3.1289010203947063, -0.03303423523902893, 0.08040983229875565, 0.09914804250001907, -0.9048507809638977, -0.27982160449028015, 0.3208494484424591, -0.07299315929412842, -0.027963370084762573, -0.04065248370170593, -0.8090649525879975, -0.07641088743732166, -0.11905475877153168,-0.570439347706583,-0.98486328125,-0.3220977783203125,0.28155517578125
20220111-1126,2022-01-11 11:26:22Z,u01, 76,40,movements,el-ex, rt, d,76082.144370625, -1.908481100130985, 0.27853110840689016, 3.133600864915426, 0.4300491213798523, 0.27714046835899353, 0.20734187960624695, -0.9071609377861023, -0.27494367957115173, 0.31853511929512024, -0.04999220371246338, -0.02954542636871338, -0.04908040165901184, -0.8082899866612057, -0.07703804827035049, -0.11554360406994521,-0.5721730383490683,-0.9571533203125,-0.3044891357421875,0.2694549560546875
20220111-1126,2022-01-11 11:26:22Z,u01, 77,40,movements,el-ex, rt, d,76082.169312625, -1.900606068015918, 0.2695150874622286, 3.1377242757584036, -0.041243258863687515, 0.41500118374824524, 0.3346690237522125, -0.9119498133659363, -0.26626405119895935, 0.3121716380119324, 0.019798874855041504, -0.018678605556488037, 0.00943782925605774, -0.806365251264886, -0.07655651829111243, -0.11042029847262083,-0.5759527684876624,-0.898101806640625,-0.2952728271484375,0.3248291015625
20220111-1126,2022-01-11 11:26:22Z,u01, 78,40,movements,el-ex, rt, d,76082.194254625, -1.8877969331348927, 0.26438290225777983, 3.1274661992950827, -0.45655712485313416, 0.4498472511768341, 0.2685173451900482, -0.9171598553657532, -0.26131364703178406, 0.3008870780467987, -0.04736340045928955, 0.030616015195846558, -0.028243064880371094, -0.8033117422808715, -0.07165037836174049, -0.11084857731810271,-0.5807487431924638,-0.9645233154296875,-0.2306976318359375,0.27264404296875
20220111-1126,2022-01-11 11:26:22Z,u01, 79,40,movements,el-ex, rt, d,76082.21919662501, -1.871077851936336, 0.26058746979961867, 3.1190205337337416, -0.006129181943833828, 0.7008492946624756, 0.22298356890678406, -0.9230027794837952, -0.257648229598999, 0.285802960395813, -0.1526198387145996, 0.05585074424743652, -0.06661054491996765, -0.7989155749484098, -0.0680836617653594, -0.1112128216320099,-0.5871373518978658,-1.079376220703125,-0.203338623046875,0.217315673828125
20220111-1126,2022-01-11 11:26:22Z,u01, 80,40,movements,el-ex, rt, d,76082.244138625, -1.8525010742798993, 0.2545999908741436, 3.1201574380672006, 0.09958246350288391, 0.7870611548423767, 0.2543689012527466, -0.9296176433563232, -0.25185832381248474, 0.26903223991394043, -0.12850302457809448, 0.059292376041412354, 0.0055953264236450195, -0.7936764459427958, -0.06777767527596468, -0.10786699056846785,-0.5948517308165717,-1.0581207275390625,-0.19256591796875,0.274627685546875
20220111-1126,2022-01-11 11:26:22Z,u01, 81,40,movements,el-ex, rt, d,76082.26907962501, -1.8309197293718706, 0.24693002403424535, 3.1154118950274845, -0.39527252316474915, 0.8570695519447327, 0.4145924746990204, -0.9370459318161011, -0.24442826211452484, 0.24939821660518646, -0.13695907592773438, -0.030275672674179077, -0.009865909814834595, -0.7877227071967388, -0.06474602983093353, -0.10554816288699514,-0.6034570089145797,-1.0777435302734375,-0.2727508544921875,0.2489166259765625
20220111-1126,2022-01-11 11:26:22Z,u01, 82,40,movements,el-ex, rt, d,76082.294021625, -1.804643638319872, 0.2405404597498115, 3.0935327896753715, -1.0343236923217773, 0.812187135219574, 0.47929298877716064, -0.9447750449180603, -0.23822756111621857, 0.2250504046678543, -0.10683012008666992, -0.030678093433380127, 0.0005202293395996094, -0.7806609193631318, -0.05562128870090183, -0.1089141652247832,-0.6128723160199645,-1.051605224609375,-0.2689056396484375,0.2255706787109375
20220111-1126,2022-01-11 11:26:22Z,u01, 83,40,movements,el-ex, rt, d,76082.318963625, -1.7783821825414756, 0.2344129190793492, 3.0656264629209953, -0.86433345079422, 0.7716934680938721, 0.48186853528022766, -0.9517692923545837, -0.23227199912071228, 0.20046156644821167, -0.19465398788452148, 0.05041775107383728, 0.09030985832214355, -0.7734759942068674, -0.0443358794780655, -0.11450536414403989,-0.6218180478936771,-1.127166748046875,-0.194610595703125,0.2911376953125
20220111-1126,2022-01-11 11:26:22Z,u01, 84,40,movements,el-ex, rt, d,76082.343905625, -1.7560734123162056, 0.22482674825503085, 3.0514753611421805, 0.00786722730845213, 0.7447536587715149, 0.4891178607940674, -0.9581487774848938, -0.2229374796152115, 0.1795826107263565, -0.22158455848693848, 0.03913009166717529, 0.01310528814792633, -0.7670806662373031, -0.0371289232985757, -0.1148168787587851,-0.6300998539701513,-1.1797332763671875,-0.183807373046875,0.19268798828125
20220111-1126,2022-01-11 11:26:22Z,u01, 85,40,movements,el-ex, rt, d,76082.36884762501, -1.7391066655556109, 0.21358247774159914, 3.055211685356251, 0.21243399381637573, 0.6425383687019348, 0.31899040937423706, -0.9634681940078735, -0.21196232736110687, 0.16371047496795654, -0.21681439876556396, -0.11275994777679443, -0.018965721130371094, -0.7619489934823753, -0.03590215996809126, -0.10905968246267644,-0.637378059005157,-1.1744384765625,-0.3055267333984375,0.139312744140625
20220111-1126,2022-01-11 11:26:22Z,u01, 86,40,movements,el-ex, rt, d,76082.393789625, -1.7266929255050174, 0.20649691223701755, 3.054900711096648, -0.07626429200172424, 0.35690927505493164, 0.2644785940647125, -0.9668854475021362, -0.20503249764442444, 0.15196727216243744, -0.262759268283844, -0.14175395667552948, 0.024210557341575623, -0.7581666608273645, -0.03416069028941887, -0.10626979933640718,-0.6424352298447478,-1.229644775390625,-0.3467864990234375,0.176177978515625
20220111-1126,2022-01-11 11:26:22Z,u01, 87,40,movements,el-ex, rt, d,76082.41873062501, -1.7187085197528462, 0.20055648914635396, 3.052306089791461, 0.023317590355873108, 0.24521635472774506, 0.21711967885494232, -0.9692556858062744, -0.19921469688415527, 0.14441947638988495, -0.33912450075149536, -0.017063379287719727, 0.10118593275547028, -0.7557823424119949, -0.0316668199190307, -0.10474280482661835,-0.6456153752955165,-1.309326171875,-0.233184814453125,0.239837646484375
20220111-1126,2022-01-11 11:26:22Z,u01, 88,40,movements,el-ex, rt, d,76082.443672625, -1.7139266968317288, 0.19715298303406403, 3.0541281126032405, 0.1273316740989685, 0.1744144856929779, 0.040093109011650085, -0.9706005454063416, -0.195878267288208, 0.13987892866134644, -0.32802915573120117, -0.015196561813354492, 0.11538517475128174, -0.7542862685167592, -0.0314910498267954, -0.10280307146438,-0.6476820100152343,-1.2986297607421875,-0.2110748291015625,0.2552642822265625
20220111-1126,2022-01-11 11:26:22Z,u01, 89,40,movements,el-ex, rt, d,76082.468614625, -1.7113692395150275, 0.19781682771627687, 3.0567347205896436, 0.08952543884515762, 0.022219892591238022, -0.12604767084121704, -0.9708260893821716, -0.19652920961380005, 0.13737794756889343, -0.2828511595726013, -0.11790861189365387, 0.07015679776668549, -0.7534000902624716, -0.03282187416494725, -0.10216550225885418,-0.6487473474538532,-1.2618408203125,-0.3151092529296875,0.2193450927734375
20220111-1126,2022-01-11 11:26:22Z,u01, 90,40,movements,el-ex, rt, d,76082.493556625, -1.7139789384483555, 0.20192203183780666, 3.0622093789194107, 0.3545468747615814, -0.12086635828018188, -0.2609558701515198, -0.9696575999259949, -0.20055268704891205, 0.1397947371006012, -0.3000871539115906, -0.05133940279483795, 0.06563423573970795, -0.7540520531183031, -0.03609528457305666, -0.10197195266716325,-0.64784585927588,-1.269744873046875,-0.25189208984375,0.2054290771484375
20220111-1126,2022-01-11 11:26:22Z,u01, 91,40,movements,el-ex, rt, d,76082.51849862501, -1.71940161551302, 0.2087557044153123, 3.0732748312622453, 0.3069624900817871, -0.16647851467132568, -0.45016729831695557, -0.9675074219703674, -0.20724277198314667, 0.14484451711177826, -0.34609127044677734, -0.06894135475158691, 0.1864999681711197, -0.7554066709792141, -0.04222583455536455, -0.10106068341260799,-0.6460375616291303,-1.299957275390625,-0.2750396728515625,0.3149261474609375
20220111-1126,2022-01-11 11:26:22Z,u01, 92,40,movements,el-ex, rt, d,76082.543439625, -1.7263510997299831, 0.22151057091743154, 3.0799075044726276, 0.1057690903544426, -0.23436802625656128, -0.5945534706115723, -0.9637874960899353, -0.2197035402059555, 0.15114280581474304, -0.440219521522522, 0.011253207921981812, 0.1712447553873062, -0.7571109395662277, -0.04852242303278814, -0.10387472777794537,-0.6431475022622362,-1.4040069580078125,-0.2084503173828125,0.3223876953125
20220111-1126,2022-01-11 11:26:22Z,u01, 93,40,movements,el-ex, rt, d,76082.56838162501, -1.7334734561544867, 0.23589149729980122, 3.0858547687919535, 0.20715120434761047, -0.24321749806404114, -0.6203648447990417, -0.959469199180603, -0.2337098866701126, 0.1574752777814865, -0.405246376991272, -0.1474088728427887, 0.06272411346435547, -0.7587536830320356, -0.05504988503512703, -0.10756995956813475,-0.6400710984415153,-1.37615966796875,-0.336761474609375,0.20391845703125
20220111-1126,2022-01-11 11:26:22Z,u01, 94,40,movements,el-ex, rt, d,76082.593323625, -1.7420223939971529, 0.251828985382408, 3.0907171057773715, -0.0555318184196949, -0.3523642420768738, -0.668157160282135, -0.9542961120605469, -0.24917566776275635, 0.16501620411872864, -0.4113348722457886, -0.23420751094818115, 0.1333235502243042, -0.7607361175593084, -0.06155209750376789, -0.1122885707086686,-0.636304298624895,-1.365631103515625,-0.4833831787109375,0.29833984375
20220111-1126,2022-01-11 11:26:22Z,u01, 95,40,movements,el-ex, rt, d,76082.618265625, -1.7512735269152973, 0.2687718072290788, 3.0921236122736016, 0.017173442989587784, -0.3206014335155487, -0.6482574343681335, -0.9484390616416931, -0.2655475437641144, 0.17305463552474976, -0.3940291404724121, -0.160874605178833, 0.10380077362060547, -0.7629171294715724, -0.06696841665819614, -0.11855825050658736,-0.6319941793675226,-1.36529541015625,-0.4285888671875,0.296600341796875
20220111-1126,2022-01-11 11:26:22Z,u01, 96,40,movements,el-ex, rt, d,76082.643207625, -1.7604099117965868, 0.28278477764434995, 3.0989562091659817, 0.29314082860946655, -0.3050677478313446, -0.5894497036933899, -0.9430708885192871, -0.2790308892726898, 0.18099337816238403, -0.2807447910308838, -0.1813419759273529, 0.024969562888145447, -0.7649168273401503, -0.07347745337938755, -0.12205062594429594,-0.6281773513370124,-1.22381591796875,-0.4603729248046875,0.205963134765625
20220111-1126,2022-01-11 11:26:22Z,u01, 97,40,movements,el-ex, rt, d,76082.66814962501, -1.7709622033936763, 0.294843260895322, 3.1102658972971238, 0.3206333518028259, -0.22489961981773376, -0.5202034711837769, -0.9377430081367493, -0.2905898690223694, 0.19025185704231262, -0.296647310256958, -0.062498509883880615, -0.030873984098434448, -0.7671838873183674, -0.08096179782797003, -0.12351546757774562,-0.6241939274623688,-1.2333831787109375,-0.3704986572265625,0.1624603271484375
20220111-1126,2022-01-11 11:26:22Z,u01, 98,40,movements,el-ex, rt, d,76082.693090625, -1.7783568021985865, 0.3051447517068317, 3.1194465488460086, 0.23702087998390198, -0.15950196981430054, -0.43141770362854004, -0.9333315491676331, -0.3004312515258789, 0.19655346870422363, -0.23108184337615967, -0.0734853744506836, -0.07674157619476318, -0.7685466677225015, -0.08725111266739638, -0.12490976690037703,-0.6213861891709166,-1.1644134521484375,-0.3739166259765625,0.11981201171875
20220111-1126,2022-01-11 11:26:22Z,u01, 99,40,movements,el-ex, rt, d,76082.71803262501, -1.7840621116075497, 0.31469926640257606, 3.1275104191522267, 0.188180610537529, -0.10991290956735611, -0.45098400115966797, -0.9293467998504639, -0.3095305263996124, 0.20125839114189148, -0.2213945984840393, -0.059045493602752686, -0.016123682260513306, -0.7694064910470475, -0.09296692544706142, -0.12633108656769076,-0.6192019591935393,-1.14105224609375,-0.3665313720703125,0.176788330078125
20220111-1126,2022-01-11 11:26:22Z,u01, 100,40,movements,el-ex, rt, d,76082.742974625, -1.7883744193334097, 0.32322336225515746, 3.135756243449313, 0.3127831220626831, -0.009825190529227257, -0.3344342112541199, -0.9258604645729065, -0.31762465834617615, 0.20468716323375702, -0.23385322093963623, -0.040499091148376465, -0.08748449385166168, -0.7698310476042974, -0.09850757006966893, -0.12726379113573938,-0.6176246930225368,-1.1597137451171875,-0.358123779296875,0.1172027587890625
20220111-1126,2022-01-11 11:26:22Z,u01, 101,40,movements,el-ex, rt, d,76082.767916625, -1.7910790972058839, 0.3274713735225616, -3.1361704461193707, 0.32348212599754333, 0.03177258372306824, -0.20315183699131012, -0.9239785671234131, -0.32164981961250305, 0.2068939208984375, -0.06090003252029419, 0.023386240005493164, -0.17605599761009216, -0.7698277679591582, -0.10398156080848497, -0.12556051131276907,-0.6170799415542999,-1.0081024169921875,-0.303924560546875,0.0181884765625
20220111-1126,2022-01-11 11:26:22Z,u01, 102,40,movements,el-ex, rt, d,76082.792858625, -1.792245462148943, 0.32999247045160346, -3.134226953389106, -0.185287207365036, -0.048819128423929214, -0.0068099526688456535, -0.9229425191879272, -0.3240359127521515, 0.20779266953468323, -0.12445127964019775, -0.04811069369316101, -0.01789712905883789, -0.7699222342141407, -0.10543287638826693, -0.1259934484570045,-0.6166273505169193,-1.047393798828125,-0.3721466064453125,0.1898956298828125
20220111-1126,2022-01-11 11:26:23Z,u01, 103,40,movements,el-ex, rt, d,76082.81780062501, -1.7895750052129802, 0.3286956391957193, 3.141378620859284, -0.1911829560995102, 0.10362440347671509, 0.25938650965690613, -0.9239035248756409, -0.32280877232551575, 0.20541828870773315, -0.22172629833221436, 0.13378292322158813, -0.09236598014831543, -0.7695757714531494, -0.10228525699851443, -0.12769351832795056,-0.6172399644286288,-1.171783447265625,-0.195037841796875,0.1467437744140625
20220111-1126,2022-01-11 11:26:23Z,u01, 104,40,movements,el-ex, rt, d,76082.842741625, -1.7856475012781174, 0.3205069904091553, 3.137385750383089, -0.08819745481014252, 0.02341878041625023, 0.4321250021457672, -0.9272546768188477, -0.3150477707386017, 0.2023448646068573, -0.005347132682800293, 0.10969498753547668, -0.14274418354034424, -0.7690753055915382, -0.09846627859058693, -0.12558139275250363,-0.6189158316413014,-0.9326019287109375,-0.205352783203125,0.059600830078125
20220111-1126,2022-01-11 11:26:23Z,u01, 105,40,movements,el-ex, rt, d,76082.86768362501, -1.7832519477211073, 0.3093603468572126, 3.126236385285966, -0.6551258563995361, -0.071917325258255, 0.6000668406486511, -0.9311118125915527, -0.3044494092464447, 0.20085103809833527, 0.06741869449615479, -0.0332886278629303, 0.03704856336116791, -0.7695247232117444, -0.09086923108311862, -0.12463821958465254,-0.6197093709185881,-0.8545379638671875,-0.323089599609375,0.1851806640625
20220111-1126,2022-01-11 11:26:23Z,u01, 106,40,movements,el-ex, rt, d,76082.892625625, -1.7788895320516689, 0.29594546667758803, 3.1031226172122155, -0.5657529234886169, -0.01703210547566414, 0.881639301776886, -0.9358910322189331, -0.2916443347930908, 0.19761323928833008, 0.019189059734344482, -0.1289946436882019, 0.06163343787193298, -0.7698780547145303, -0.07806664135889058, -0.1264754799567589,-0.6206425045390436,-0.9167022705078125,-0.4206390380859375,0.259246826171875
20220111-1126,2022-01-11 11:26:23Z,u01, 107,40,movements,el-ex, rt, d,76082.917567625, -1.7742621106208483, 0.2748036757704304, 3.0935249748108857, 0.12694765627384186, 0.13901735842227936, 0.8714009523391724, -0.9426246285438538, -0.2713579833507538, 0.19448305666446686, 0.21507036685943604, 0.1437792181968689, -0.09079968929290771, -0.769813429187904, -0.0680353648750519, -0.12119318840044391,-0.6229531992728363,-0.7713470458984375,-0.17486572265625,0.132904052734375
20220111-1126,2022-01-11 11:26:23Z,u01, 108,40,movements,el-ex, rt, d,76082.942509625, -1.7697067764681154, 0.2544891936907889, 3.091138896576896, -0.0656876191496849, 0.18704259395599365, 0.8183411359786987, -0.9487094283103943, -0.2517510950565338, 0.19123701751232147, 0.26000410318374634, 0.08800902962684631, 0.034440264105796814, -0.769349312110271, -0.06099297138782678, -0.11401586637382055,-0.625605121096293,-0.6887054443359375,-0.1637420654296875,0.225677490234375
20220111-1126,2022-01-11 11:26:23Z,u01, 109,40,movements,el-ex, rt, d,76082.967450625, -1.7599728528076937, 0.2351975007081604, 3.079979079991802, -0.27100688219070435, 0.45508643984794617, 0.9094701409339905, -0.9551187753677368, -0.23303505778312683, 0.18287281692028046, 0.006190121173858643, -0.061078086495399475, 0.05279909074306488, -0.7673464408990935, -0.05114535323072966, -0.10987549015037984,-0.6296751958348473,-0.912139892578125,-0.3183135986328125,0.2884063720703125
20220111-1126,2022-01-11 11:26:23Z,u01, 110,40,movements,el-ex, rt, d,76082.992392625, -1.7409052314052045, 0.21207587931476177, 3.0742082884484505, 0.09357404708862305, 0.852845311164856, 0.9680402874946594, -0.9634857177734375, -0.21048972010612488, 0.16549691557884216, 0.14898687601089478, 0.16205833852291107, -0.029617562890052795, -0.762192275595974, -0.04256048351027569, -0.10246893062099233,-0.6377708156058532,-0.8144989013671875,-0.048431396484375,0.1358795166015625
20220111-1126,2022-01-11 11:26:23Z,u01, 111,40,movements,el-ex, rt, d,76083.01733462501, -1.7197669090039078, 0.18775701745724444, 3.068379447841299, -0.23935018479824066, 0.7961803078651428, 1.0082390308380127, -0.9715444445610046, -0.18665580451488495, 0.1458117663860321, 0.27638453245162964, -0.030675113201141357, 0.05621445178985596, -0.756163039560967, -0.03351628315708177, -0.09476221552697306,-0.6466175460978646,-0.655242919921875,-0.1784820556640625,0.20318603515625
20220111-1126,2022-01-11 11:26:23Z,u01, 112,40,movements,el-ex, rt, d,76083.042276625, -1.6946133663471439, 0.16382950691345502, 3.056786007513222, -0.18283650279045105, 1.0518192052841187, 1.016411542892456, -0.9790568947792053, -0.16309762001037598, 0.1218472346663475, 0.2249065637588501, 0.05784249305725098, 0.006189107894897461, -0.7486116899099853, -0.022453356392247215, -0.08924002368683404,-0.6565916577630453,-0.754150390625,-0.105255126953125,0.1280364990234375
20220111-1126,2022-01-11 11:26:23Z,u01, 113,40,movements,el-ex, rt, d,76083.067218875, -1.6667451118029744, 0.1384558477014156, 3.05581481189232, 0.23040297627449036, 1.091569423675537, 1.0362770557403564, -0.9858746528625488, -0.13801389932632446, 0.09488482773303986, 0.4361921548843384, 0.20115481317043304, 0.042856208980083466, -0.7397453397949647, -0.014806988226228501, -0.07991462299440516,-0.6679604385488562,-0.58563232421875,0.0935211181640625,0.1300201416015625
20220111-1126,2022-01-11 11:26:23Z,u01, 114,40,movements,el-ex, rt, d,76083.092159875, -1.6418707691717336, 0.11126487369175413, 3.056646106190074, -0.12525933980941772, 0.9041690230369568, 1.0912591218948364, -0.991307258605957, -0.11103544384241104, 0.07057549059391022, 0.4910021424293518, -0.12340056151151657, 0.03890620917081833, -0.7316016583920313, -0.006838002948685362, -0.06954684839136932,-0.6781411499106746,-0.50030517578125,-0.23443603515625,0.1094818115234375
20220111-1126,2022-01-11 11:26:23Z,u01, 115,40,movements,el-ex, rt, d,76083.117101875, -1.6197483445061163, 0.08629256438986495, 3.049843762685129, -0.27686643600463867, 0.8743528127670288, 0.9364187717437744, -0.9950857162475586, -0.0861855074763298, 0.04875040054321289, 0.3906087279319763, -0.0777091458439827, -0.10349904745817184, -0.7241292563170836, 0.003467032257214231, -0.06279801472131175,-0.6867905615101288,-0.6162261962890625,-0.263641357421875,-0.0513916015625
20220111-1126,2022-01-11 11:26:23Z,u01, 116,40,movements,el-ex, rt, d,76083.142043875, -1.599116566704942, 0.06650344038350796, 3.0472823181042936, 0.08399342000484467, 0.6927056312561035, 0.6069605350494385, -0.9973893761634827, -0.0664544329047203, 0.028253860771656036, 0.5721880197525024, 0.1437554955482483, -0.056726932525634766, -0.7169475894451834, 0.010634118385007718, -0.05665011607164894,-0.6947401486180752,-0.425201416015625,0.077301025390625,-0.028472900390625
20220111-1126,2022-01-11 11:26:23Z,u01, 117,40,movements,el-ex, rt, d,76083.16698587501, -1.586530619911383, 0.05594732067612122, 3.0477258496599657, -0.12438292056322098, 0.3464979827404022, 0.2572881579399109, -0.9983117580413818, -0.055918138474226, 0.015709025785326958, 0.6205499172210693, -0.05832446366548538, 0.06102728843688965, -0.7125050702062035, 0.013821651074440333, -0.0528106697567422,-0.6995402136599409,-0.364105224609375,-0.0656280517578125,0.0591583251953125
20220111-1126,2022-01-11 11:26:23Z,u01, 118,40,movements,el-ex, rt, d,76083.191927875, -1.5805198648312442, 0.05369367250909121, 3.0377381670511245, -0.5679579377174377, 0.09412437677383423, -0.058647383004426956, -0.998511552810669, -0.05366787686944008, 0.009709371253848076, 0.565726637840271, -0.08726230263710022, 0.10341918468475342, -0.7103031594109397, 0.018002982669060974, -0.055557223038512404,-0.7014689244666403,-0.4327850341796875,-0.14093017578125,0.113128662109375
20220111-1126,2022-01-11 11:26:23Z,u01, 119,40,movements,el-ex, rt, d,76083.216869875, -1.581329031066129, 0.059041558326502264, 3.032539631704547, 0.22953617572784424, -0.20943710207939148, -0.3839509189128876, -0.9982020258903503, -0.05900726094841957, 0.010514155961573124, 0.6101711988449097, 0.09195102006196976, -0.0821542739868164, -0.7105866288983729, 0.017992241463150982, -0.0592665263337977,-0.7008782166356144,-0.3943939208984375,0.033203125,-0.0751190185546875
20220111-1126,2022-01-11 11:26:23Z,u01, 120,40,movements,el-ex, rt, d,76083.241810875, -1.5933305709478989, 0.07238811224477161, 3.0415984908344043, 0.19271314144134521, -0.715639054775238, -0.7273671627044678, -0.9971276521682739, -0.07232490926980972, 0.022473322227597237, 0.5430721640586853, -0.11761645972728729, 0.02817046083509922, -0.7149318577034873, 0.01044510079824379, -0.06075706773907452,-0.6964708866265363,-0.4540557861328125,-0.18994140625,0.0506439208984375
20220111-1126,2022-01-11 11:26:23Z,u01, 121,40,movements,el-ex, rt, d,76083.266752875, -1.61506320291215, 0.09441516728638094, 3.03928742059675, -0.24759630858898163, -0.9844976663589478, -1.0209777355194092, -0.9945710301399231, -0.09427496045827866, 0.044055331498384476, 0.3555176258087158, 0.01784367859363556, 0.14062166213989258, -0.7225018715206736, 0.004325671101902628, -0.06936032756000182,-0.6878673848517998,-0.628173828125,-0.13470458984375,0.17620849609375
20220111-1126,2022-01-11 11:26:23Z,u01, 122,40,movements,el-ex, rt, d,76083.291694875, -1.6408199106272259, 0.12189422326752627, 3.0420168031166495, 0.3546707034111023, -1.0457552671432495, -1.1178300380706787, -0.9901474714279175, -0.12159259617328644, 0.06944721937179565, 0.3606768250465393, 0.18729698657989502, 0.026408419013023376, -0.7312298420046308, -0.0051504252532723616, -0.07836988161355557,-0.6775945645614695,-0.6294708251953125,0.065704345703125,0.095855712890625
20220111-1126,2022-01-11 11:26:23Z,u01, 123,40,movements,el-ex, rt, d,76083.31663687501, -1.6706083970303385, 0.14857637682484992, 3.052937309887927, 0.07911311089992523, -1.2928072214126587, -1.1217796802520752, -0.984060525894165, -0.1480303406715393, 0.09854859858751297, 0.524221658706665, 0.0685930848121643, -0.14035773277282715, -0.7409358459357367, -0.016981463195098745, -0.08463003030328203,-0.6660055628231245,-0.475555419921875,-0.0577392578125,-0.0703277587890625
20220111-1126,2022-01-11 11:26:23Z,u01, 124,40,movements,el-ex, rt, d,76083.341578875, -1.7062857815875434, 0.1786735922990762, 3.0472262846901725, -0.652417778968811, -1.5526787042617798, -1.1438153982162476, -0.9750616550445557, -0.1777244359254837, 0.13292495906352997, 0.3717901110649109, -0.0017341822385787964, -0.015584930777549744, -0.7522788817340442, -0.023215520694712832, -0.09803101065632114,-0.6510971845803595,-0.603271484375,-0.1794586181640625,0.117340087890625
20220111-1126,2022-01-11 11:26:23Z,u01, 125,40,movements,el-ex, rt, d,76083.36651987501, -1.7385136195050246, 0.2077036822557507, 3.03981959541242, -0.0883520171046257, -1.035626769065857, -1.0898776054382324, -0.964776873588562, -0.20621348917484283, 0.16334421932697296, -0.0026454925537109375, -0.08152151107788086, 0.041260719299316406, -0.7621537188136823, -0.02817483407672977, -0.11173300268624775,-0.6370585065913393,-0.9530029296875,-0.299713134765625,0.23974609375
20220111-1126,2022-01-11 11:26:23Z,u01, 126,40,movements,el-ex, rt, d,76083.391461875, -1.7623354885847868, 0.2329184247594354, 3.0533104153329487, 0.6717790365219116, -0.7813579440116882, -1.1213208436965942, -0.9552030563354492, -0.23081812262535095, 0.18522953987121582, 0.1958189606666565, 0.16171111166477203, -0.14162005484104156, -0.7687724863432797, -0.04004542210527917, -0.11744147884611017,-0.6273696558191268,-0.7593841552734375,-0.0691070556640625,0.043609619140625
20220111-1126,2022-01-11 11:26:23Z,u01, 127,40,movements,el-ex, rt, d,76083.416403875, -1.7892254852983964, 0.2589678970907881, 3.072612985345634, 0.244146466255188, -1.0022530555725098, -1.1752138137817383, -0.9436862468719482, -0.25608301162719727, 0.20947061479091644, 0.12268710136413574, 0.142511785030365, 0.1020527184009552, -0.7757639358800807, -0.05408901666844984, -0.12205083253035925,-0.6167401156705739,-0.7388763427734375,-0.0573272705078125,0.2449493408203125
20220111-1126,2022-01-11 11:26:23Z,u01, 128,40,movements,el-ex, rt, d,76083.441345875, -1.8120232502459825, 0.28492524452860823, 3.080176769705653, -0.028019500896334648, -0.4912041425704956, -0.9049087166786194, -0.9318955540657043, -0.28108569979667664, 0.2292626053094864, -0.2557722330093384, 0.08389639854431152, 0.16700804233551025, -0.7813981788689355, -0.06362538814027557, -0.13044214070497986,-0.6069213125347586,-1.1876678466796875,-0.1971893310546875,0.396270751953125
20220111-1126,2022-01-11 11:26:23Z,u01, 129,40,movements,el-ex, rt, d,76083.46628787501, -1.8225695251338847, 0.30130218792884494, 3.0911535409326922, 0.6064590811729431, -0.2829834222793579, -0.6712478399276733, -0.9248432517051697, -0.29676398634910583, 0.23789890110492706, 0.03508806228637695, -0.022327810525894165, -0.1877281665802002, -0.7834108914736169, -0.0722275983418989, -0.13384689888512588,-0.6026072349302898,-0.96478271484375,-0.2841033935546875,0.100677490234375
20220111-1126,2022-01-11 11:26:23Z,u01, 130,40,movements,el-ex, rt, d,76083.491229875, -1.8399838017234258, 0.3131406388966335, 3.1147916649117477, 0.5659191012382507, -0.48851636052131653, -0.6683754324913025, -0.9171093106269836, -0.3080480694770813, 0.253015398979187, 0.06783568859100342, -0.0797082781791687, -0.07393836975097656, -0.7870601904367245, -0.08392824660149906, -0.13206620894668294,-0.5966998943616608,-0.849273681640625,-0.38775634765625,0.1790771484375
20220111-1126,2022-01-11 11:26:23Z,u01, 131,40,movements,el-ex, rt, d,76083.51617087501, -1.853579106949256, 0.3269152300247687, 3.120115209392927, -0.37688687443733215, -0.45931875705718994, -0.49542996287345886, -0.9094235301017761, -0.3211231827735901, 0.26425084471702576, -0.20658892393112183, 0.013506054878234863, 0.11285468935966492, -0.7900406540016837, -0.08922551705011628, -0.1364891885298367,-0.5909696922394925,-1.0795745849609375,-0.3150787353515625,0.368988037109375
20220111-1126,2022-01-11 11:26:23Z,u01, 132,40,movements,el-ex, rt, d,76083.541112875, -1.859447780757551, 0.3384035342362364, 3.1145797023898703, -0.2112787365913391, -0.11002948880195618, -0.2833020091056824, -0.9042608737945557, -0.3319815993309021, 0.2685154974460602, -0.26791930198669434, 0.04552832245826721, 0.013360023498535156, -0.7912978042581935, -0.09003075395956511, -0.142911157881101,-0.5876382054415893,-1.17218017578125,-0.2864532470703125,0.2818756103515625
20220111-1126,2022-01-11 11:26:23Z,u01, 133,40,movements,el-ex, rt, d,76083.566054875, -1.8602549982995376, 0.3440851233544155, 3.11187130977156, -0.07870887219905853, -0.10092128068208694, -0.1536085158586502, -0.9022214412689209, -0.3373355567455292, 0.2687026262283325, -0.014648616313934326, -0.16940876841545105, -0.10137486457824707, -0.7912942358814565, -0.09058002821704048, -0.14598255064867577,-0.5868030085480684,-0.9390716552734375,-0.4538421630859375,0.1743927001953125
20220111-1126,2022-01-11 11:26:23Z,u01, 134,40,movements,el-ex, rt, d,76083.590996875, -1.8647361494653525, 0.3460528282516819, 3.11770574874723, 0.296822726726532, -0.049928002059459686, -0.08908984065055847, -0.9003713726997375, -0.33918729424476624, 0.2725500762462616, -0.06351113319396973, -0.17926061153411865, -0.011624902486801147, -0.7922116452680883, -0.0931437226348833, -0.14525492885104013,-0.5853426566506748,-0.9638824462890625,-0.5184478759765625,0.26092529296875
20220111-1126,2022-01-11 11:26:23Z,u01, 135,40,movements,el-ex, rt, d,76083.61593887501, -1.8637918789167416, 0.3460810302871489, 3.123831528167593, 0.12933872640132904, 0.22670026123523712, -0.09931199252605438, -0.9006191492080688, -0.3392138183116913, 0.2716970145702362, -0.09321635961532593, 0.1089128851890564, 0.0672159492969513, -0.7916441075967842, -0.09564576157693327, -0.14342740960438194,-0.5861570930724339,-1.0047149658203125,-0.25030517578125,0.3546295166015625
20220111-1126,2022-01-11 11:26:23Z,u01, 136,40,movements,el-ex, rt, d,76083.640879875, -1.8577981920528401, 0.3481516641364909, 3.127642832618891, 0.1402149796485901, 0.4055534303188324, -0.1335282176733017, -0.9015558958053589, -0.34116095304489136, 0.26609474420547485, -0.11388611793518066, 0.10785403847694397, 0.015261918306350708, -0.7895604773389643, -0.09819176236610339, -0.14283436527059012,-0.5886858755179767,-1.01544189453125,-0.233306884765625,0.2813568115234375
20220111-1126,2022-01-11 11:26:23Z,u01, 137,40,movements,el-ex, rt, d,76083.66582187501, -1.84722928211731, 0.34977039439085583, 3.130864531098889, 0.08777594566345215, 0.48480603098869324, -0.03168614208698273, -0.9037851691246033, -0.3426821231842041, 0.256400465965271, -0.03253984451293945, 0.0182344913482666, -0.06853437423706055, -0.7861686477340157, -0.10069307715438464, -0.14199375855321994,-0.5929902742709046,-0.9559478759765625,-0.2974395751953125,0.195037841796875
20220111-1126,2022-01-11 11:26:23Z,u01, 138,40,movements,el-ex, rt, d,76083.690763875, -1.8360833906991152, 0.34854536642204537, 3.132160139079869, 0.01090765930712223, 0.4406833350658417, 0.10632152855396271, -0.9069911241531372, -0.34153100848197937, 0.24642114341259003, -0.002783477306365967, 0.0005123317241668701, -0.01302279531955719, -0.782868634073401, -0.1016231791765127, -0.14056451658615168,-0.5975206682883895,-0.9097747802734375,-0.3410186767578125,0.2333984375
20220111-1126,2022-01-11 11:26:23Z,u01, 139,40,movements,el-ex, rt, d,76083.715705875, -1.825371803537057, 0.3445657251729121, 3.130139363474278, -0.055640872567892075, 0.36217838525772095, 0.21003247797489166, -0.9108868837356567, -0.3377879559993744, 0.23703229427337646, -0.055696308612823486, -0.001720041036605835, -0.0074029117822647095, -0.7800248188627327, -0.10038641531141496, -0.13907666404731991,-0.6017819256332997,-0.946533203125,-0.3352203369140625,0.2354278564453125
20220111-1126,2022-01-11 11:26:23Z,u01, 140,40,movements,el-ex, rt, d,76083.740647875, -1.8154563964588935, 0.33928044566880594, 3.1270797381128337, -0.030029255896806717, 0.3651731014251709, 0.29204797744750977, -0.9149118065834045, -0.33280864357948303, 0.2284182608127594, -0.13484716415405273, 0.024443745613098145, -0.008645981550216675, -0.7775281980390651, -0.09828039011421119, -0.13745335910985632,-0.6057206187270825,-1.0497589111328125,-0.3083648681640625,0.2197723388671875
20220111-1126,2022-01-11 11:26:23Z,u01, 141,40,movements,el-ex, rt, d,76083.76558987501, -1.8054376858025687, 0.3304683496065082, 3.126273410497848, 0.1206074208021164, 0.39951783418655396, 0.40692511200904846, -0.9199708700180054, -0.3244860768318176, 0.2199140042066574, -0.14403963088989258, 0.047523826360702515, -0.05611100792884827, -0.775079810042407, -0.09595984154990017, -0.13379823861820853,-0.6100335450901243,-1.0734100341796875,-0.2696533203125,0.1893157958984375
20220111-1126,2022-01-11 11:26:23Z,u01, 142,40,movements,el-ex, rt, d,76083.790530875, -1.7961200374344028, 0.3184042457049948, 3.1283046622469395, 0.1728844791650772, 0.377469539642334, 0.46173056960105896, -0.9257284998893738, -0.31305140256881714, 0.21219183504581451, -0.11528706550598145, 0.031008005142211914, -0.040240779519081116, -0.7728681778328521, -0.09365201541523044, -0.12807472540524503,-0.614410989670204,-1.041015625,-0.28204345703125,0.1719512939453125
20220111-1126,2022-01-11 11:26:24Z,u01, 143,40,movements,el-ex, rt, d,76083.81547287501, -1.7876068412425612, 0.3058131679979242, 3.1271488141604005, 0.00045851338654756546, 0.3052808344364166, 0.5519022941589355, -0.9312772750854492, -0.3010687232017517, 0.20513507723808289, -0.14242279529571533, -0.043993592262268066, 0.057453304529190063, -0.7710347215975654, -0.08984984171377641, -0.12318894295301674,-0.618269364034298,-1.0689544677734375,-0.3304290771484375,0.2571563720703125
20220111-1126,2022-01-11 11:26:24Z,u01, 144,40,movements,el-ex, rt, d,76083.840414875, -1.7791300890429382, 0.29364522683335903, 3.123183052995025, -0.11758030951023102, 0.2560122013092041, 0.46577152609825134, -0.9364973902702332, -0.28944334387779236, 0.19797660410404205, -0.13848406076431274, -0.043961137533187866, 0.0947631299495697, -0.7692557217082254, -0.08505255293455621, -0.11937165215382867,-0.6219018555607068,-1.074981689453125,-0.333404541015625,0.2927398681640625
20220111-1126,2022-01-11 11:26:24Z,u01, 145,40,movements,el-ex, rt, d,76083.865356875, -1.771889898572442, 0.28230314716242877, 3.1186798774059126, 0.0435321107506752, 0.23885926604270935, 0.48262128233909607, -0.9410626888275146, -0.2785683572292328, 0.19183449447155, -0.1680833101272583, -0.11667999625205994, 0.04231153428554535, -0.7677794181664375, -0.08019982841997775, -0.11612853366996828,-0.6249774575485639,-1.1016693115234375,-0.385986328125,0.2493743896484375
20220111-1126,2022-01-11 11:26:24Z,u01, 146,40,movements,el-ex, rt, d,76083.890298875, -1.7659963018024765, 0.2706067678175489, 3.12091823604953, 0.28747186064720154, 0.27360183000564575, 0.42278704047203064, -0.9453088045120239, -0.26731616258621216, 0.186904177069664, -0.1899145245552063, -0.08059942722320557, 0.05506955087184906, -0.7664283462300141, -0.07771538217616841, -0.11071968439092855,-0.6279243617983873,-1.135223388671875,-0.3479156494140625,0.241973876953125
20220111-1126,2022-01-11 11:26:24Z,u01, 147,40,movements,el-ex, rt, d,76083.915239875, -1.7600045273818865, 0.25917555171026974, 3.124265818258733, 0.07344020903110504, 0.2614772319793701, 0.4413082003593445, -0.9493511915206909, -0.2562837302684784, 0.18179969489574432, -0.20682263374328613, -0.07046803832054138, 0.12300972640514374, -0.7649624810727436, -0.07571161177143748, -0.1050690106619332,-0.6309205526872814,-1.15496826171875,-0.3249359130859375,0.3074493408203125
20220111-1126,2022-01-11 11:26:24Z,u01, 148,40,movements,el-ex, rt, d,76083.940181875, -1.7530756343974405, 0.24815760481087898, 3.1212287743700498, -0.09355287253856659, 0.2459942102432251, 0.4225689172744751, -0.9533071517944336, -0.24561841785907745, 0.17571862041950226, -0.1999368667602539, -0.06929245591163635, 0.07090902328491211, -0.7633866600480521, -0.07141510662183931, -0.10157302228180776,-0.6338955761955918,-1.1532440185546875,-0.314910888671875,0.2466278076171875
20220111-1126,2022-01-11 11:26:24Z,u01, 149,40,movements,el-ex, rt, d,76083.96512387501, -1.7452965180808706, 0.24065673927731804, 3.1165756921023933, -0.1404237449169159, 0.297355055809021, 0.2175840139389038, -0.9564328193664551, -0.23834049701690674, 0.16861262917518616, -0.22188150882720947, -0.07122984528541565, 0.026760831475257874, -0.7614005855379965, -0.06764215379542804, -0.0999282507213165,-0.6369521730353507,-1.1663665771484375,-0.3055267333984375,0.1977996826171875
20220111-1126,2022-01-11 11:26:24Z,u01, 150,40,movements,el-ex, rt, d,76083.990065875, -1.7365294982162658, 0.24115221397307585, 3.1020922401064737, -1.1537290811538696, 0.06912115961313248, -0.007063684985041618, -0.9577574729919434, -0.23882165551185608, 0.16020165383815765, -0.3748382329940796, -0.10517250001430511, -0.026870504021644592, -0.7590547248561285, -0.0627435549028249, -0.1044521847619132,-0.639522330016252,-1.3325958251953125,-0.343994140625,0.133331298828125
20220111-1126,2022-01-11 11:26:24Z,u01, 151,40,movements,el-ex, rt, d,76084.015007875, -1.7261968234933287, 0.24501075557489027, 3.074557588305011, -0.6495480537414551, 0.3498767018318176, -0.0006712330505251884, -0.9584439992904663, -0.2425667643547058, 0.15015332400798798, -0.5947631597518921, -0.3014242947101593, 0.22342751920223236, -0.7564042796058089, -0.05412235422124578, -0.11442412502600102,-0.6417400392044617,-1.571014404296875,-0.56610107421875,0.3082275390625
20220111-1126,2022-01-11 11:26:24Z,u01, 152,40,movements,el-ex, rt, d,76084.03994887501, -1.7167321454336544, 0.24834918504447256, 3.075092076356036, 0.6593305468559265, 0.2636817395687103, -0.33799806237220764, -0.959015965461731, -0.24580413103103638, 0.14095686376094818, -0.3902425765991211, -0.253799170255661, 0.2976721525192261, -0.7532249400084085, -0.055951966457434665, -0.11524271902246291,-0.6451672039449559,-1.3492584228515625,-0.499603271484375,0.438629150390625
20220111-1126,2022-01-11 11:26:24Z,u01, 153,40,movements,el-ex, rt, d,76084.064890625, -1.7202916115061138, 0.2581727401662203, 3.104225937020174, 1.3296047449111938, 0.1762990802526474, -0.6653464436531067, -0.9560741186141968, -0.25531429052352905, 0.14400294423103333, -0.5139423608779907, -0.11751899123191833, 0.07686783373355865, -0.753069201825045, -0.06991601419838916, -0.10963645442003306,-0.644963851956745,-1.4615325927734375,-0.4278106689453125,0.2723236083984375
20220111-1126,2022-01-11 11:26:24Z,u01, 154,40,movements,el-ex, rt, d,76084.089832625, -1.7236185224771825, 0.271430385338921, 3.128170495610591, 0.04544133320450783, -0.09342308342456818, -0.6234683394432068, -0.9521604776382446, -0.2681097388267517, 0.14665472507476807, -0.37237870693206787, 0.09852352738380432, -0.16691851615905762, -0.7526166390080824, -0.08303949279366957, -0.10702168288776043,-0.6443748929586437,-1.3245391845703125,-0.169586181640625,-0.020263671875
20220111-1126,2022-01-11 11:26:24Z,u01, 155,40,movements,el-ex, rt, d,76084.114774625, -1.7268972905999642, 0.2878333674670739, 3.115747192270795, -0.9383126497268677, -0.3388751745223999, -0.5073375105857849, -0.9472023844718933, -0.28387540578842163, 0.14907200634479523, -0.48272931575775146, -0.19143590331077576, 0.07214976847171783, -0.7533717012142241, -0.08346907244973323, -0.11731343480677087,-0.6416397483942531,-1.412750244140625,-0.459869384765625,0.16998291015625
20220111-1126,2022-01-11 11:26:24Z,u01, 156,40,movements,el-ex, rt, d,76084.13971662501, -1.730226340403941, 0.3048220233607786, 3.1002780768974403, -0.3627297282218933, -0.3132365345954895, -0.7098898887634277, -0.9418028593063354, -0.300123393535614, 0.15143689513206482, -0.4210510849952698, -0.1600663959980011, 0.09332917630672455, -0.7542184722155558, -0.08290321296284775, -0.12877834296464213,-0.6385120312295383,-1.36285400390625,-0.4601898193359375,0.2447662353515625
20220111-1126,2022-01-11 11:26:24Z,u01, 157,40,movements,el-ex, rt, d,76084.164657625, -1.7394338238534846, 0.32385505997473873, 3.1018717504153743, 0.18708954751491547, -0.377681702375412, -0.7583638429641724, -0.9345675110816956, -0.3182235658168793, 0.1591143161058426, -0.2933683395385742, -0.08077853918075562, 0.05836905539035797, -0.7560665871066365, -0.08899705857764628, -0.1358144316193483,-0.6340325611518127,-1.239410400390625,-0.4177093505859375,0.2323760986328125
20220111-1126,2022-01-11 11:26:24Z,u01, 158,40,movements,el-ex, rt, d,76084.18959962501, -1.7530216947843131, 0.3400543090031507, 3.1142344599806377, 0.43133240938186646, -0.375088632106781, -0.6781867742538452, -0.927127480506897, -0.333538293838501, 0.17084133625030518, -0.23887282609939575, -0.0008885860443115234, -0.07062174379825592, -0.7588393469656639, -0.09789540935394386, -0.1386528247431395,-0.6287723528685984,-1.1660003662109375,-0.3344268798828125,0.1002197265625
20220111-1126,2022-01-11 11:26:24Z,u01, 159,40,movements,el-ex, rt, d,76084.214541625, -1.7656401334344594, 0.3531172632631871, 3.1239013569438367, 0.013041315600275993, -0.4195404648780823, -0.4984414577484131, -0.9205446839332581, -0.3458244204521179, 0.18166720867156982, -0.16150182485580444, -0.04814225435256958, -0.030818939208984375, -0.7614795848023208, -0.10479717701082564, -0.14121382246630612,-0.6238790331317563,-1.0887451171875,-0.3844757080078125,0.1318359375
20220111-1126,2022-01-11 11:26:24Z,u01, 160,40,movements,el-ex, rt, d,76084.239483625, -1.7780846834279247, 0.36311978997030253, 3.123917274173765, -0.07817667722702026, -0.5431221723556519, -0.27398720383644104, -0.9147816896438599, -0.35519230365753174, 0.19238704442977905, -0.22720128297805786, -0.033632129430770874, -0.005512714385986328, -0.7646817326927449, -0.107029748834367, -0.14567436404937262,-0.618534878980205,-1.1419830322265625,-0.388824462890625,0.1868743896484375
20220111-1126,2022-01-11 11:26:24Z,u01, 161,40,movements,el-ex, rt, d,76084.264425625, -1.7905326416522458, 0.3663275308253651, 3.1263215423274278, 0.2115250825881958, -0.4178824722766876, -0.005159658379852772, -0.9111995100975037, -0.35818904638290405, 0.2035096436738968, -0.1924229860305786, 0.045826345682144165, -0.022036999464035034, -0.7681690826381173, -0.10803278322958898, -0.14682918309067444,-0.6137478640504258,-1.14306640625,-0.282440185546875,0.1856689453125
20220111-1126,2022-01-11 11:26:24Z,u01, 162,40,movements,el-ex, rt, d,76084.289366625, -1.802321477564145, 0.36256265122207665, 3.129735741652225, -0.0400850847363472, -0.42828693985939026, 0.21375557780265808, -0.9100432991981506, -0.354671448469162, 0.21454516053199768, -0.08605057001113892, -0.0868111252784729, -0.014471977949142456, -0.7718499825811396, -0.10733212556487753, -0.1449730152676249,-0.609680520898541,-0.99609375,-0.4414825439453125,0.2000732421875
20220111-1126,2022-01-11 11:26:24Z,u01, 163,40,movements,el-ex, rt, d,76084.314308625, -1.8107748213440344, 0.3573429029818379, 3.1223082327556217, -0.28498950600624084, -0.39794105291366577, 0.3321208357810974, -0.9099826812744141, -0.3497862219810486, 0.22266721725463867, -0.1605737805366516, -0.02791452407836914, -0.01835218071937561, -0.775163173495511, -0.10225294843715826, -0.14565941012833802,-0.6061761771715966,-1.044464111328125,-0.4189605712890625,0.2140960693359375
20220111-1126,2022-01-11 11:26:24Z,u01, 164,40,movements,el-ex, rt, d,76084.33925062501, -1.814867535069384, 0.3471112835234238, 3.1178222974715437, 0.13391438126564026, -0.0770200714468956, 0.553327739238739, -0.912489116191864, -0.3401828110218048, 0.22724267840385437, -0.1386888027191162, -0.01632353663444519, -0.07004666328430176, -0.7772980634713649, -0.09710335914790302, -0.14326235119614905,-0.6048591101019323,-1.051177978515625,-0.35650634765625,0.157196044921875
20220111-1126,2022-01-11 11:26:24Z,u01, 165,40,movements,el-ex, rt, d,76084.364192625, -1.8140062361165101, 0.3327311708433857, 3.115352734967353, -0.12216247618198395, 0.04591450095176697, 0.5817805528640747, -0.9173377156257629, -0.32662561535835266, 0.2276112288236618, 0.01297992467880249, -0.014301449060440063, -0.04154565930366516, -0.7780574302527805, -0.0918272876925148, -0.13839630451814902,-0.6058388338515461,-0.9061431884765625,-0.3506317138671875,0.15997314453125
20220111-1126,2022-01-11 11:26:24Z,u01, 166,40,movements,el-ex, rt, d,76084.389134625, -1.8074213529680538, 0.3182781182750009, 3.105950508367008, -0.156454399228096, 0.3298671245574951, 0.7686201930046082, -0.9233098030090332, -0.312931627035141, 0.22264929115772247, -0.04934638738632202, -0.07426011562347412, 0.10187458992004395, -0.7773249530244644, -0.08420546252378647, -0.135363290312997,-0.608565610471692,-0.97265625,-0.3871917724609375,0.32452392578125
20220111-1126,2022-01-11 11:26:24Z,u01, 167,40,movements,el-ex, rt, d,76084.414075625, -1.7928206754689688, 0.297620666790574, 3.09853959793483, -0.08024805039167404, 0.6337125301361084, 0.9708372354507446, -0.932569682598114, -0.2932462990283966, 0.2105238437652588, 0.07467484474182129, -0.020092934370040894, 0.07498323917388916, -0.7742717534792348, -0.07592875842143598, -0.12907095816232877,-0.6148810820192647,-0.8918609619140625,-0.322998046875,0.2947998046875
20220111-1126,2022-01-11 11:26:24Z,u01, 168,40,movements,el-ex, rt, d,76084.439017625, -1.7728347857202127, 0.2739116292614038, 3.089642960783212, -0.12387541681528091, 0.7925586104393005, 1.0271832942962646, -0.9431379437446594, -0.2704992890357971, 0.19318589568138123, 0.1480940580368042, 0.049353718757629395, -0.013345971703529358, -0.7695394108144019, -0.06634790593467799, -0.1220133819806466,-0.6233134835398909,-0.7950439453125,-0.2211456298828125,0.179840087890625
20220111-1126,2022-01-11 11:26:24Z,u01, 169,40,movements,el-ex, rt, d,76084.463959625, -1.7497017347059844, 0.24907419990461582, 3.0836108645628073, -0.004386176820844412, 0.9376028776168823, 1.0457823276519775, -0.9536725282669067, -0.24650683999061584, 0.1724611073732376, 0.2289106845855713, 0.10925406217575073, -0.003653287887573242, -0.7634926229921175, -0.05752886074315805, -0.11372867977669765,-0.6331154236260991,-0.7313385009765625,-0.1160430908203125,0.159210205078125
20220111-1126,2022-01-11 11:26:24Z,u01, 170,40,movements,el-ex, rt, d,76084.48890162501, -1.7245465993179778, 0.22247159867213062, 3.079593939614678, -0.06071985512971878, 0.9948957562446594, 1.1108753681182861, -0.9638493657112122, -0.22064098715782166, 0.1493709534406662, 0.2417425513267517, -0.02028001844882965, 0.06699858605861664, -0.7565071878879291, -0.04880937286717468, -0.10429322618465281,-0.6437680582618823,-0.72210693359375,-0.2409210205078125,0.21636962890625
20220111-1126,2022-01-11 11:26:24Z,u01, 171,40,movements,el-ex, rt, d,76084.513843625, -1.6966286619472581, 0.1955738009417375, 3.07139495395607, -0.20444084703922272, 1.0895540714263916, 1.1033989191055298, -0.9731806516647339, -0.1943294256925583, 0.12310802936553955, 0.3260248899459839, 0.1574794352054596, -0.0203859806060791, -0.7483886719174926, -0.038319862461478116, -0.09628797288087926,-0.6551142096113827,-0.6947021484375,-0.0950775146484375,0.124847412109375
20220111-1126,2022-01-11 11:26:24Z,u01, 172,40,movements,el-ex, rt, d,76084.53878462501, -1.6706418787901123, 0.16979722536918376, 3.0616048555941373, -0.349031537771225, 0.8427337408065796, 1.0440149307250977, -0.9807102084159851, -0.16898249089717865, 0.0982462465763092, 0.4523746967315674, 0.22611141204833984, -0.002833127975463867, -0.740525130033231, -0.027306693310820807, -0.08955717380401151,-0.6654745420106387,-0.5283355712890625,0.05712890625,0.0954132080078125
20220111-1126,2022-01-11 11:26:24Z,u01, 173,40,movements,el-ex, rt, d,76084.563726625, -1.6476135477989724, 0.14339932258073776, 3.0470033733128714, -0.5797387957572937, 0.8859423995018005, 1.1775885820388794, -0.9868171215057373, -0.14290836453437805, 0.07595400512218475, 0.22793656587600708, -0.20027704536914825, 0.08789478987455368, -0.7333351655828927, -0.014019169304240908, -0.08454392435210384,-0.6744443833394698,-0.7348480224609375,-0.3133697509765625,0.1817626953125
20220111-1126,2022-01-11 11:26:24Z,u01, 174,40,movements,el-ex, rt, d,76084.588668625, -1.6215351612851132, 0.11448781315295231, 3.033749050146348, -0.1821994185447693, 1.030256986618042, 1.103805422782898, -0.9921749234199524, -0.11423786729574203, 0.050385043025016785, 0.32219207286834717, -0.01054847240447998, -0.0714881420135498, -0.7247015894132602, -0.00035845128261663417, -0.07847857293228133,-0.6845791442026707,-0.66998291015625,-0.124786376953125,-0.0211029052734375
20220111-1126,2022-01-11 11:26:24Z,u01, 175,40,movements,el-ex, rt, d,76084.613610625, -1.5966200373991624, 0.09036318944470703, 3.0364930299126254, 0.20062603056430817, 0.9285423755645752, 0.8553528189659119, -0.995587944984436, -0.09024026244878769, 0.02571549080312252, 0.586774468421936, 0.3056943714618683, -0.11104273796081543, -0.7161148857361106, 0.006100482218614867, -0.0689235587458572,-0.6945442758150565,-0.4384002685546875,0.2027740478515625,-0.1067962646484375
20220111-1126,2022-01-11 11:26:24Z,u01, 176,40,movements,el-ex, rt, d,76084.63855262501, -1.5774132077011846, 0.06999802690002795, 3.037656105438331, -0.22367554903030396, 0.642498254776001, 0.7082076072692871, -0.9975292086601257, -0.06994087994098663, 0.006600628606975079, 0.5824444890022278, -0.001577042043209076, 0.003073334228247404, -0.7093316815376369, 0.012201631799134638, -0.06137763486793657,-0.702091454317705,-0.4150848388671875,-0.0715179443359375,0.009674072265625
20220111-1126,2022-01-11 11:26:24Z,u01, 177,40,movements,el-ex, rt, d,76084.663493625, -1.5610228578044292, 0.05603775935520653, 3.021614095547645, -0.9585638642311096, 0.6109790205955505, 0.40123000741004944, -0.9983825087547302, -0.056008435785770416, -0.00975797139108181, 0.4597473740577698, -0.024847891181707382, 0.1920241117477417, -0.7032949485630047, 0.02229864788083613, -0.06226056666989471,-0.7078153091625061,-0.5465545654296875,-0.147369384765625,0.18310546875
20220111-1126,2022-01-11 11:26:24Z,u01, 178,40,movements,el-ex, rt, d,76084.68843562501, -1.5463852246489285, 0.049065451879294085, 3.007196498019082, 0.18106161057949066, 0.4944036602973938, 0.1571369171142578, -0.9984988570213318, -0.04904576763510704, -0.024379299953579903, 0.5363407731056213, 0.14157503843307495, 0.001674177125096321, -0.697816544217448, 0.029366992223626653, -0.06513582240578719,-0.7127039308442868,-0.462158203125,0.092529296875,-0.022705078125
20220111-1126,2022-01-11 11:26:24Z,u01, 179,40,movements,el-ex, rt, d,76084.713377625, -1.5381306371644374, 0.04969916961403664, 3.029903631403225, 1.1955620050430298, 0.17350588738918304, -0.2305963784456253, -0.998232364654541, -0.04967871308326721, -0.032619550824165344, 0.5960718393325806, -0.03120815008878708, -0.14140701293945312, -0.695161915874901, 0.02097939853313119, -0.057347720182191086,-0.7162547923143397,-0.4045257568359375,-0.0683135986328125,-0.1990203857421875
20220111-1126,2022-01-11 11:26:24Z,u01, 180,40,movements,el-ex, rt, d,76084.738319625, -1.542294140601139, 0.05941914173850593, 3.0487909633487655, 0.20705214142799377, -0.38171786069869995, -0.4844070076942444, -0.9978296756744385, -0.05938418209552765, -0.028448030352592468, 0.629146933555603, -0.01956477388739586, 0.056356191635131836, -0.6968889603166964, 0.011034561864711523, -0.05392896794250679,-0.7150633449841097,-0.368682861328125,-0.078948974609375,0.0279083251953125
20220111-1126,2022-01-11 11:26:24Z,u01, 181,40,movements,el-ex, rt, d,76084.763261625, -1.5557394214430673, 0.07308651291331628, 3.042465460953164, -0.5744675397872925, -0.6732074618339539, -0.649127185344696, -0.9972172379493713, -0.07302146404981613, -0.015016140416264534, 0.5234014391899109, -0.15573829412460327, 0.2144331932067871, -0.7017231611459405, 0.008748433603711692, -0.060879109935952636,-0.7097898990197247,-0.4390411376953125,-0.2264862060546875,0.21197509765625
20220111-1126,2022-01-11 11:26:24Z,u01, 182,40,movements,el-ex, rt, d,76084.788202625, -1.5748390056813004, 0.09034682965414398, 3.0289702430866177, -0.18265101313591003, -0.9893388152122498, -0.7422960996627808, -0.9959133267402649, -0.09022396802902222, 0.004026179667562246, 0.48062407970428467, -0.03975039720535278, -0.11260783672332764, -0.7084834266220835, 0.008020231054257865, -0.07162128225685999,-0.7020379551034484,-0.515289306640625,-0.129974365234375,-0.10858154296875
20220111-1126,2022-01-11 11:26:25Z,u01, 183,40,movements,el-ex, rt, d,76084.813144625, -1.6027522614841585, 0.11215961347899396, 3.036616238594709, 0.4746313691139221, -1.1412453651428223, -1.031659483909607, -0.9932092428207397, -0.11192460358142853, 0.03174973651766777, 0.4610285758972168, 0.2261672019958496, -0.10883724689483643, -0.7182430921480718, -0.0013151634781087829, -0.0766492476985331,-0.6915561566481532,-0.532440185546875,0.0826263427734375,-0.147552490234375
20220111-1126,2022-01-11 11:26:25Z,u01, 184,40,movements,el-ex, rt, d,76084.83808662501, -1.6334822874924686, 0.14173019388477878, 3.043286438911485, 0.006652127020061016, -1.2636094093322754, -1.3367174863815308, -0.9880285263061523, -0.1412561684846878, 0.062016770243644714, 0.4543677568435669, 0.2109888345003128, 0.03870641812682152, -0.7285927035652384, -0.01269082596652249, -0.08510159163424857,-0.6795213005497045,-0.533660888671875,0.069732666015625,0.1007232666015625
20220111-1126,2022-01-11 11:26:25Z,u01, 185,40,movements,el-ex, rt, d,76084.86302862501, -1.6654982190886507, 0.17567106492410273, 3.0463242396516024, 0.1263657808303833, -1.263292670249939, -1.3346213102340698, -0.9801974892616272, -0.17476890981197357, 0.09310506284236908, 0.306552529335022, 0.11051416397094727, -0.18677890300750732, -0.7389065599223359, -0.0238668509531898, -0.09673696760021988,-0.6664003129275602,-0.6711273193359375,-0.044281005859375,-0.032470703125
20220111-1126,2022-01-11 11:26:25Z,u01, 186,40,movements,el-ex, rt, d,76084.887970625, -1.6993842874231144, 0.20534567799415665, 3.0550028316827293, 0.15040333569049835, -1.4094970226287842, -1.1003448963165283, -0.9709080457687378, -0.20390558242797852, 0.12553977966308594, 0.33336520195007324, -0.009076625108718872, -0.1732998937368393, -0.7493504609022907, -0.035267172635869815, -0.10533218655233595,-0.6527903862126061,-0.637542724609375,-0.212982177734375,-0.047760009765625
20220111-1126,2022-01-11 11:26:25Z,u01, 187,40,movements,el-ex, rt, d,76084.91291162501, -1.7362853633779174, 0.23170233625191272, 3.0556226134518307, -0.4573124945163727, -1.38407564163208, -0.9940155148506165, -0.9599800109863281, -0.22963470220565796, 0.16033250093460083, -0.08524715900421143, -0.07853186130523682, 0.13533703982830048, -0.7605243726087251, -0.04205863930244841, -0.11571453285061928,-0.6375296002934137,-0.9622039794921875,-0.353851318359375,0.26751708984375
20220111-1126,2022-01-11 11:26:25Z,u01, 188,40,movements,el-ex, rt, d,76084.937853625, -1.7638678558675274, 0.256205334579664, 3.0535742678647377, 0.21730683743953705, -0.8978649377822876, -0.9576553702354431, -0.9493845701217651, -0.25341159105300903, 0.18561120331287384, -0.20282191038131714, 0.19960907101631165, 0.010662451386451721, -0.7684755496303957, -0.047443997504961644, -0.12626230626236418,-0.6255016004644576,-1.1522064208984375,-0.053802490234375,0.1962738037109375
20220111-1126,2022-01-11 11:26:25Z,u01, 189,40,movements,el-ex, rt, d,76084.962795625, -1.7900281599696404, 0.2749599374948183, 3.075750933362726, 1.0281975269317627, -0.7867036461830139, -0.8305002450942993, -0.9393998980522156, -0.2715083658695221, 0.20931048691272736, -0.10163092613220215, 0.06227988004684448, -0.15016746520996094, -0.7752589779419761, -0.06023921730450832, -0.12726309320548845,-0.6157506003297983,-1.052825927734375,-0.1318206787109375,0.06634521484375
20220111-1126,2022-01-11 11:26:25Z,u01, 190,40,movements,el-ex, rt, d,76084.98773762501, -1.8146947596088574, 0.28792134258611213, 3.094486562171089, -0.0833958089351654, -0.8519778251647949, -0.46710604429244995, -0.9304583072662354, -0.2839597463607788, 0.23154693841934204, -0.0697246789932251, -0.0974946916103363, 0.06735730171203613, -0.7815872751419972, -0.06996286356760206, -0.127353486215817,-0.6066362578571861,-1.00018310546875,-0.3814544677734375,0.2989044189453125
20220111-1126,2022-01-11 11:26:25Z,u01, 191,40,movements,el-ex, rt, d,76085.012678625, -1.8329084409230527, 0.2990062943771108, 3.089012115909717, -0.4715496003627777, -0.5719204545021057, -0.3219929337501526, -0.9229897856712341, -0.2945707440376282, 0.2476237565279007, -0.33921706676483154, -0.15873736143112183, 0.16843745112419128, -0.7867096699086971, -0.06999837796565861, -0.13396174974087327,-0.5985333679716871,-1.2217864990234375,-0.53125,0.4197845458984375
20220111-1126,2022-01-11 11:26:25Z,u01, 192,40,movements,el-ex, rt, d,76085.03762062501, -1.8379287812789797, 0.3086748550382024, 3.0794704564620847, -0.2147231251001358, -0.19028037786483765, -0.316059410572052, -0.9189450144767761, -0.3037963807582855, 0.2514908015727997, -0.2534639239311218, 0.13956612348556519, 0.05424949526786804, -0.7880417007493512, -0.06881626691948967, -0.14076480340901737,-0.5953484723716637,-1.1724090576171875,-0.1642303466796875,0.3057403564453125
20220111-1126,2022-01-11 11:26:25Z,u01, 193,40,movements,el-ex, rt, d,76085.06256262501, -1.845010475305809, 0.3155351077353716, 3.085738620693204, 0.4249993860721588, -0.17777138948440552, -0.28774428367614746, -0.9151134490966797, -0.3103252053260803, 0.2574217617511749, -0.13174647092819214, 0.08602097630500793, 0.0057465434074401855, -0.7895591724640775, -0.072850541612336, -0.14184071253146813,-0.5925963775760861,-1.0461273193359375,-0.185791015625,0.2557220458984375
20220111-1126,2022-01-11 11:26:25Z,u01, 194,40,movements,el-ex, rt, d,76085.087504625, -1.8510000806189575, 0.3177836070064258, 3.095365111469489, 0.12461971491575241, -0.09774418920278549, -0.09488241374492645, -0.9128820300102234, -0.3124619126319885, 0.2627045512199402, -0.10114067792892456, -0.0479048490524292, 0.0233059823513031, -0.790846394472168, -0.07690424718092842, -0.14009997018883655,-0.5907788043111935,-1.0140228271484375,-0.3603668212890625,0.2860107421875
20220111-1126,2022-01-11 11:26:25Z,u01, 195,40,movements,el-ex, rt, d,76085.112446625, -1.8536280877115558, 0.3198133808894963, 3.0931010147533944, -0.2798941731452942, -0.16032761335372925, -0.04290251061320305, -0.9115778207778931, -0.3143894076347351, 0.2649252414703369, -0.07000494003295898, -0.004778683185577393, 0.05267110466957092, -0.7915941613454998, -0.07642842862672616, -0.14166715658252718,-0.5894640468135033,-0.9726715087890625,-0.340240478515625,0.314453125
20220111-1126,2022-01-11 11:26:25Z,u01, 196,40,movements,el-ex, rt, d,76085.137387625, -1.8549404563215368, 0.32201391712152333, 3.0878337869222405, -0.03643935173749924, -0.06363523006439209, -0.01983613893389702, -0.9105628728866577, -0.31647759675979614, 0.265926718711853, -0.11697918176651001, 0.02863582968711853, -0.0002865791320800781, -0.7920559765953228, -0.07490449308755054, -0.14413371983385256,-0.5884403644246847,-1.0275421142578125,-0.287841796875,0.2656402587890625
20220111-1126,2022-01-11 11:26:25Z,u01, 197,40,movements,el-ex, rt, d,76085.162329625, -1.8571549763355801, 0.32091036118676913, 3.0942045511074454, 0.48799753189086914, 0.07063283026218414, -0.029807280749082565, -0.9103063941001892, -0.31543058156967163, 0.26804104447364807, -0.09677374362945557, 0.01626676321029663, -0.07750460505485535, -0.7925279144402053, -0.07694171959777774, -0.14190944267549524,-0.5880826969809956,-1.020294189453125,-0.3030853271484375,0.185821533203125
20220111-1126,2022-01-11 11:26:25Z,u01, 198,40,movements,el-ex, rt, d,76085.187271625, -1.8590425286425232, 0.3171217939934574, 3.1063662345645984, 0.3642323613166809, 0.06353291124105453, 0.0724235475063324, -0.9109378457069397, -0.3118331730365753, 0.2700965404510498, -0.030102133750915527, -0.007868945598602295, -0.055420756340026855, -0.7928222064232209, -0.08050603390699757, -0.13691263520244662,-0.5883932340657765,-0.9410400390625,-0.3197021484375,0.2146759033203125
20220111-1126,2022-01-11 11:26:25Z,u01, 199,40,movements,el-ex, rt, d,76085.21221362501, -1.8573909769844872, 0.3127004441867961, 3.107658571216251, -0.09777657687664032, 0.11699774116277695, 0.23011331260204315, -0.9126962423324585, -0.307629257440567, 0.2689788341522217, -0.05091142654418945, -0.04385694861412048, -0.012524515390396118, -0.792539176529411, -0.07981896022775797, -0.1347207383372773,-0.589373241342219,-0.962188720703125,-0.34967041015625,0.2689666748046875
20220111-1126,2022-01-11 11:26:25Z,u01, 200,40,movements,el-ex, rt, d,76085.237155625, -1.851578299287855, 0.30769755532980303, 3.1036171091288502, 0.01136315893381834, 0.2554268538951874, 0.21592386066913605, -0.9157117009162903, -0.3028651475906372, 0.2640923261642456, -0.04725515842437744, -0.0028752386569976807, -0.039299964904785156, -0.7912639117963316, -0.07712054225248127, -0.13371338845304742,-0.5916710007047247,-0.9629669189453125,-0.3057403564453125,0.22479248046875
20220111-1126,2022-01-11 11:26:25Z,u01, 201,40,movements,el-ex, rt, d,76085.26209662501, -1.8447309552660809, 0.30143361935562857, 3.1069837435648244, 0.3254894018173218, 0.3572264611721039, 0.19647400081157684, -0.9193069934844971, -0.2968894839286804, 0.25832414627075195, -0.039265453815460205, 0.03658980131149292, 0.011405378580093384, -0.789448154942134, -0.07703040824512436, -0.1299857967665343,-0.5949299674253068,-0.9544525146484375,-0.2632904052734375,0.2532501220703125
20220111-1126,2022-01-11 11:26:25Z,u01, 202,40,movements,el-ex, rt, d,76085.287038625, -1.836824038589573, 0.29299624963506893, 3.1128644355797945, 0.21859419345855713, 0.4364114999771118, 0.34159836173057556, -0.9237047433853149, -0.28882208466529846, 0.2516968548297882, -0.07130563259124756, -0.024517148733139038, 0.06072676181793213, -0.7873184612674853, -0.07731794744575093, -0.12461164111242984,-0.5988518001857277,-0.9950103759765625,-0.3133392333984375,0.3124237060546875
20220111-1126,2022-01-11 11:26:25Z,u01, 203,40,movements,el-ex, rt, d,76085.311980625, -1.8244815430754462, 0.28289292565336344, 3.1109180325740997, -0.10309634357690811, 0.4884251058101654, 0.4891982078552246, -0.9295179843902588, -0.27913475036621094, 0.24099716544151306, -0.10167074203491211, -0.03344148397445679, 0.09329219162464142, -0.7842096620538139, -0.07425490026557219, -0.12077296276350818,-0.6040820286406601,-1.0279541015625,-0.31622314453125,0.348541259765625
20220111-1126,2022-01-11 11:26:25Z,u01, 204,40,movements,el-ex, rt, d,76085.336922625, -1.8104060156633903, 0.270886148364666, 3.1059448195899835, 0.03434197977185249, 0.534784197807312, 0.5300868153572083, -0.9360065460205078, -0.2675853669643402, 0.22866925597190857, -0.11810106039047241, -0.012840628623962402, 0.0289904922246933, -0.7807093419063634, -0.06948059235641346, -0.1170958847991247,-0.6098801885316085,-1.054107666015625,-0.280426025390625,0.257659912109375
20220111-1126,2022-01-11 11:26:25Z,u01, 205,40,movements,el-ex, rt, d,76085.36186462501, -1.7961155391588797, 0.25713565559751295, 3.1057988126416416, 0.16018056869506836, 0.5875416398048401, 0.5528706908226013, -0.9426762461662292, -0.2543114125728607, 0.21607208251953125, -0.21719002723693848, -0.114783376455307, 0.1044996976852417, -0.776968499523889, -0.06599993530380216, -0.11132185095046543,-0.6160936672137551,-1.143463134765625,-0.3597564697265625,0.30120849609375
20220111-1126,2022-01-11 11:26:25Z,u01, 206,40,movements,el-ex, rt, d,76085.386805625, -1.7817168957762473, 0.24248226212711174, 3.1051305836860914, 0.07785843312740326, 0.5395845174789429, 0.6364769339561462, -0.9492316842079163, -0.2401130050420761, 0.20323528349399567, -0.2626059055328369, -0.1549217402935028, 0.1616327464580536, -0.7731615383515635, -0.061958645767585696, -0.10541000050268995,-0.6223109773772546,-1.2118377685546875,-0.3950347900390625,0.3648681640625
20220111-1126,2022-01-11 11:26:25Z,u01, 207,40,movements,el-ex, rt, d,76085.41174762501, -1.7692906569885793, 0.22718419330175257, 3.1034490559303123, 0.02149462327361107, 0.4106193780899048, 0.5451217293739319, -0.9551735520362854, -0.2252349704504013, 0.19212643802165985, -0.3523520231246948, -0.1297454684972763, 0.19347833096981049, -0.7699338871856042, -0.05714044626026926, -0.09968488906749157,-0.6276938967010366,-1.281494140625,-0.36553955078125,0.3735504150390625
20220111-1126,2022-01-11 11:26:25Z,u01, 208,40,movements,el-ex, rt, d,76085.436689625, -1.7609970321969541, 0.21501104049317632, 3.1034155604102933, 0.22598998248577118, 0.2567509710788727, 0.3791831135749817, -0.9593555927276611, -0.21335820853710175, 0.1847027838230133, -0.4533945918083191, -0.19881215691566467, 0.13547229766845703, -0.7677694534410233, -0.053679230378731235, -0.09480221689276053,-0.631396180731634,-1.412750244140625,-0.41217041015625,0.3201751708984375
20220111-1126,2022-01-11 11:26:25Z,u01, 209,40,movements,el-ex, rt, d,76085.461631625, -1.7577816545248752, 0.21062635444222136, 3.107747728893321, 0.07247261703014374, 0.07732082903385162, -0.07962118089199066, -0.9608543515205383, -0.20907245576381683, 0.18178927898406982, -0.6243811249732971, -0.21812783181667328, 0.06561659276485443, -0.7667907003892105, -0.05409864869600184, -0.09166937987349066,-0.633010237581177,-1.5550384521484375,-0.427764892578125,0.238372802734375
20220111-1126,2022-01-11 11:26:25Z,u01, 210,40,movements,el-ex, rt, d,76085.486572625, -1.7572760106475571, 0.21588837871625352, 3.108022801412126, -0.04904695227742195, -0.017946965992450714, -0.35301050543785095, -0.9598517417907715, -0.2142152637243271, 0.18109692633152008, -0.6712973713874817, -0.19417093694210052, 0.16779515147209167, -0.7664356651391327, -0.05590022100065811, -0.09357936283387758,-0.6330041757638754,-1.6311492919921875,-0.40838623046875,0.3488922119140625
20220111-1126,2022-01-11 11:26:25Z,u01, 211,40,movements,el-ex, rt, d,76085.511514625, -1.7607580578298194, 0.2278710116872032, 3.108515489784177, -0.08780460059642792, -0.2596229612827301, -0.5828261375427246, -0.9566259384155273, -0.22590407729148865, 0.18394018709659576, -0.5988091826438904, -0.08914411067962646, 0.10976088047027588, -0.7670742136814628, -0.0597263885000866, -0.09810409952763338,-0.631193647788199,-1.5562896728515625,-0.312469482421875,0.3246917724609375
20220111-1126,2022-01-11 11:26:25Z,u01, 212,40,movements,el-ex, rt, d,76085.536456625, -1.7689847502496256, 0.2451221017705733, 3.1097114785168234, -0.07975253462791443, -0.3670855164527893, -0.7733023762702942, -0.9511176943778992, -0.2426747828722, 0.19100792706012726, -0.594109296798706, -0.1279154121875763, 0.03836202621459961, -0.7689278507595093, -0.0652221194238497, -0.10458829252496621,-0.6273414388896495,-1.54522705078125,-0.3705902099609375,0.2293701171875
20220111-1126,2022-01-11 11:26:25Z,u01, 213,40,movements,el-ex, rt, d,76085.56139862501, -1.7803556293354692, 0.2670135260072993, 3.1128405655050764, -0.0265679769217968, -0.49017196893692017, -0.9896159172058105, -0.9434611201286316, -0.26385197043418884, 0.2006569802761078, -0.45694470405578613, -0.10644832253456116, -0.018619775772094727, -0.7713921969827335, -0.07268128684210212, -0.11240628060028679,-0.622122441651131,-1.4235992431640625,-0.36846923828125,0.1836700439453125
20220111-1126,2022-01-11 11:26:25Z,u01, 214,40,movements,el-ex, rt, d,76085.586340625, -1.7953312579419822, 0.29212863678630707, 3.1186247716936912, 0.013380969874560833, -0.5645595192909241, -1.0247628688812256, -0.9335942268371582, -0.28799131512641907, 0.21321983635425568, -0.408477246761322, -0.08374324440956116, -0.004098191857337952, -0.7745389723192398, -0.08184925872068638, -0.12087381689728022,-0.6154506871836086,-1.342071533203125,-0.371734619140625,0.2091217041015625
20220111-1126,2022-01-11 11:26:25Z,u01, 215,40,movements,el-ex, rt, d,76085.61128162501, -1.8108530794482969, 0.3158465330638476, 3.1250118762450136, 0.024603061378002167, -0.5221080780029297, -0.9408649206161499, -0.9232767224311829, -0.3106212317943573, 0.22599677741527557, -0.29593098163604736, -0.0797596275806427, -0.012251734733581543, -0.7776772118784471, -0.090645143320642, -0.12877073694667113,-0.6086211643044691,-1.2456207275390625,-0.3892974853515625,0.2238616943359375
20220111-1126,2022-01-11 11:26:25Z,u01, 216,40,movements,el-ex, rt, d,76085.636223625, -1.8256195234095747, 0.3375472248668539, 3.1313478924414877, 0.010167200118303299, -0.4890575706958771, -0.8494099378585815, -0.9130998849868774, -0.33117371797561646, 0.23784969747066498, -0.23472726345062256, -0.009814411401748657, -0.009593605995178223, -0.7804989160142599, -0.09872330447592276, -0.1359910646925089,-0.6021474341022461,-1.1478271484375,-0.3409881591796875,0.2282562255859375
20220111-1126,2022-01-11 11:26:25Z,u01, 217,40,movements,el-ex, rt, d,76085.661165625, -1.8396110198325004, 0.35491524973197097, 3.139376169219188, 0.19394755363464355, -0.4229182302951813, -0.6539490818977356, -0.9040006399154663, -0.3475109040737152, 0.24903631210327148, -0.1774355173110962, -0.009971976280212402, -0.050351738929748535, -0.7831093138654546, -0.10610354174021297, -0.14108585075535396,-0.5963024822670755,-1.0842132568359375,-0.3620147705078125,0.2035980224609375
20220111-1126,2022-01-11 11:26:25Z,u01, 218,40,movements,el-ex, rt, d,76085.686107625, -1.8501534344543271, 0.3671634300999746, -3.1366672395794923, 0.032909661531448364, -0.24100354313850403, -0.4166974127292633, -0.8971661925315857, -0.3589693605899811, 0.25735965371131897, -0.13837158679962158, 0.01885092258453369, -0.019978731870651245, -0.7849733413138803, -0.11178858123100444, -0.14434091669768923,-0.5920185417427608,-1.0355377197265625,-0.340118408203125,0.2373809814453125
20220111-1126,2022-01-11 11:26:25Z,u01, 219,40,movements,el-ex, rt, d,76085.71104962501, -1.8546434347393084, 0.3742346984377822, -3.136015635142455, -0.09676583856344223, -0.1334386169910431, -0.13994264602661133, -0.8935424089431763, -0.36556029319763184, 0.26066792011260986, -0.004300117492675781, -0.07309940457344055, 0.023298054933547974, -0.7857369953434313, -0.11380393521503845, -0.1471804016174269,-0.5899186597725422,-0.9127349853515625,-0.4181671142578125,0.2865447998046875
20220111-1126,2022-01-11 11:26:25Z,u01, 220,40,movements,el-ex, rt, d,76085.735990625, -1.856655476052318, 0.37624508980828497, -3.1372538078383894, -0.0822933241724968, -0.025479719042778015, -0.005473844241350889, -0.8923091292381287, -0.36743080615997314, 0.26225745677948, -0.04403114318847656, 0.034972310066223145, 0.03132152557373047, -0.7862488813743338, -0.11376037215474788, -0.14845041499299116,-0.58892592579915,-0.93634033203125,-0.33245849609375,0.2935791015625
20220111-1126,2022-01-11 11:26:25Z,u01, 221,40,movements,el-ex, rt, d,76085.76093262501, -1.8543991241526927, 0.3742696650679407, -3.138090497968871, 0.09339534491300583, 0.16563977301120758, 0.20540711283683777, -0.8935934901237488, -0.3655928373336792, 0.2604459524154663, 0.02248471975326538, 0.08661651611328125, -0.057641565799713135, -0.7857799388187758, -0.11301707770936753, -0.14779229818955916,-0.5898595410821643,-0.9060821533203125,-0.2534637451171875,0.2289886474609375
20220111-1126,2022-01-11 11:26:25Z,u01, 222,40,movements,el-ex, rt, d,76085.785874625, -1.8492515094161457, 0.3665808231844625, -3.138722235409369, -0.07430573552846909, 0.17743897438049316, 0.3651465177536011, -0.8975987434387207, -0.3584255278110504, 0.2566077709197998, 0.1130223274230957, -0.046466439962387085, -0.051697611808776855, -0.7848634537748049, -0.11087491702639501, -0.14467037474662237,-0.5922554708922918,-0.784576416015625,-0.4048919677734375,0.2049102783203125
20220111-1126,2022-01-11 11:26:26Z,u01, 223,40,movements,el-ex, rt, d,76085.810816625, -1.8404435996364576, 0.3585207151403838, 3.1330221788342643, -0.4024757146835327, 0.26704269647598267, 0.5646260976791382, -0.9025794863700867, -0.3508893847465515, 0.24945349991321564, -0.026451945304870605, -0.043611377477645874, 0.04569712281227112, -0.7834405377786156, -0.10463111999960162, -0.1444336045967666,-0.5953253134629828,-0.90728759765625,-0.3876953125,0.31622314453125
20220111-1126,2022-01-11 11:26:26Z,u01, 224,40,movements,el-ex, rt, d,76085.835757625, -1.8267312585911986, 0.3428489242221388, 3.1212964270909973, -0.1504337638616562, 0.47029221057891846, 0.8650104403495789, -0.9111236333847046, -0.33617156744003296, 0.2384168952703476, 0.01795029640197754, -0.05736789107322693, 0.11953893303871155, -0.7809804543795655, -0.09632224558531244, -0.14113337233712148,-0.6007270726681033,-0.8931732177734375,-0.3935394287109375,0.3579559326171875
20220111-1126,2022-01-11 11:26:26Z,u01, 225,40,movements,el-ex, rt, d,76085.860699625, -1.8106981372739692, 0.32108399946173133, 3.11409858390551, -0.0019202553667128086, 0.619651734828949, 0.910912275314331, -0.9217187166213989, -0.3155953586101532, 0.22546404600143433, 0.1045648455619812, 0.11384361982345581, -0.0846102237701416, -0.7778084873325933, -0.08801125777186702, -0.13411337025709627,-0.6076853898405176,-0.8336639404296875,-0.2597198486328125,0.1862335205078125
20220111-1126,2022-01-11 11:26:26Z,u01, 226,40,movements,el-ex, rt, d,76085.885641625, -1.792930625214925, 0.3001939312173476, 3.10824976279058, -0.1230967789888382, 0.6812753677368164, 0.8666643500328064, -0.931807279586792, -0.2957054674625397, 0.2104594111442566, 0.12164205312728882, 0.24461907148361206, -0.032175809144973755, -0.7737914353672553, -0.08047684058058929, -0.12708022325923923,-0.6153217076597447,-0.8101654052734375,-0.05108642578125,0.17828369140625
20220111-1126,2022-01-11 11:26:26Z,u01, 227,40,movements,el-ex, rt, d,76085.91058362501, -1.7716542198381315, 0.2782144413230422, 3.09857558478354, -0.3391719460487366, 0.8266619443893433, 1.03323233127594, -0.9422160387039185, -0.27463918924331665, 0.1918383240699768, 0.09950375556945801, -0.07312384247779846, 0.10581468045711517, -0.7686668174267415, -0.07120736020384882, -0.12083292702582316,-0.6240834155967436,-0.8409423828125,-0.2998199462890625,0.283477783203125
20220111-1126,2022-01-11 11:26:26Z,u01, 228,40,movements,el-ex, rt, d,76085.935525625, -1.7453987092421095, 0.25289875431746317, 3.0827311460882556, -0.3782197833061218, 0.9064391851425171, 1.14107346534729, -0.9534703493118286, -0.25021156668663025, 0.1681908369064331, 0.15954047441482544, -0.04860126972198486, 0.05068109929561615, -0.762006644589933, -0.05866252037953945, -0.11533209199002609,-0.6345100210839801,-0.7939300537109375,-0.2988128662109375,0.2188720703125
20220111-1126,2022-01-11 11:26:26Z,u01, 229,40,movements,el-ex, rt, d,76085.96046662501, -1.720844304740836, 0.22662359969943294, 3.0770210858761624, 0.17612150311470032, 0.948999285697937, 1.0027655363082886, -0.9634815454483032, -0.22468873858451843, 0.1456632763147354, 0.22999179363250732, 0.2807038426399231, -0.04773250222206116, -0.755243777442985, -0.04938091952929252, -0.10659080386357234,-0.6448306420666974,-0.736419677734375,0.01007080078125,0.0881500244140625
20220111-1126,2022-01-11 11:26:26Z,u01, 230,40,movements,el-ex, rt, d,76085.985408625, -1.697120935151255, 0.19967015859107431, 3.078860513942828, 0.1878233700990677, 0.9876043200492859, 1.1288458108901978, -0.9723219275474548, -0.19834604859352112, 0.1234857439994812, 0.2702346444129944, 0.10923473536968231, -0.0023005083203315735, -0.7482924498832311, -0.042441526095154336, -0.09537640073267606,-0.6551033555865411,-0.70208740234375,-0.089111328125,0.121185302734375
20220111-1126,2022-01-11 11:26:26Z,u01, 231,40,movements,el-ex, rt, d,76086.010350625, -1.6726727990704886, 0.17028973869781408, 3.070295601729338, -0.42912033200263977, 0.8677294850349426, 1.267820119857788, -0.9804257154464722, -0.16946791112422943, 0.10022930800914764, 0.22030919790267944, -0.31782153248786926, 0.052922964096069336, -0.7410656003346994, -0.03060115399397939, -0.08687704854837286,-0.665084717737148,-0.7387237548828125,-0.481201171875,0.226593017578125
20220111-1126,2022-01-11 11:26:26Z,u01, 232,40,movements,el-ex, rt, d,76086.035292625, -1.6490237587703322, 0.14216423626689675, 3.05064966947355, -0.604703962802887, 0.7266203165054321, 1.1260979175567627, -0.9868844151496887, -0.1416858434677124, 0.07735929638147354, 0.34027791023254395, 0.09809146821498871, -0.047131769359111786, -0.7337971721109595, -0.014878139489633124, -0.08287455323565435,-0.6741307252683639,-0.6466064453125,-0.0435943603515625,0.0302276611328125
20220111-1126,2022-01-11 11:26:26Z,u01, 233,40,movements,el-ex, rt, d,76086.06023325, -1.6326353323663272, 0.11859894886896148, 3.039768180404131, -0.28823643922805786, 0.4395272433757782, 0.8609130382537842, -0.9910773038864136, -0.11832111328840256, 0.06136547401547432, 0.5502967238426208, 0.27920976281166077, 0.003453727811574936, -0.728471223236203, -0.0035234289712007816, -0.07791994237610084,-0.6806215127962465,-0.44610595703125,0.2062835693359375,0.04315185546875
20220111-1126,2022-01-11 11:26:26Z,u01, 234,40,movements,el-ex, rt, d,76086.08517525, -1.6235569225412219, 0.09749587365420195, 3.0250310860739393, -0.7658477425575256, 0.2550966739654541, 0.8744571208953857, -0.993865966796875, -0.09734149277210236, 0.052485670894384384, 0.4038850665092468, -0.16454510390758514, 0.19148695468902588, -0.725373427599393, 0.008730725902872716, -0.07533223854616367,-0.6841652230542561,-0.5899810791015625,-0.2618865966796875,0.2439727783203125
20220111-1126,2022-01-11 11:26:26Z,u01, 235,40,movements,el-ex, rt, d,76086.11011725, -1.6132379270501775, 0.07645624529307306, 3.004191259665729, -0.6790744662284851, 0.33353689312934875, 0.844715416431427, -0.9961807727813721, -0.07638178020715714, 0.042304910719394684, 0.44396525621414185, 0.011303037405014038, -0.03861236572265625, -0.7215379212915229, 0.023140509348364535, -0.07499195246647639,-0.687912605571642,-0.6246185302734375,-0.150482177734375,0.0569000244140625
20220111-1126,2022-01-11 11:26:26Z,u01, 236,40,movements,el-ex, rt, d,76086.13505925001, -1.6072387501951337, 0.06050699652016825, 2.995806405279721, -0.11624965816736221, 0.08090244978666306, 0.4511158764362335, -0.9975073337554932, -0.060470081865787506, 0.03636768460273743, 0.6236670017242432, 0.1904902160167694, -0.09711301326751709, -0.7191619506225156, 0.031463181084333824, -0.07224514831459744,-0.6903599560107032,-0.37384033203125,0.1300201416015625,-0.0607452392578125
20220111-1126,2022-01-11 11:26:26Z,u01, 237,40,movements,el-ex, rt, d,76086.16000125, -1.6095122521542629, 0.05287921218509257, 2.992846336297065, -0.12911713123321533, -0.25440019369125366, 0.08769610524177551, -0.9978538751602173, -0.052854571491479874, 0.03865215182304382, 0.5526939630508423, 0.05689813941717148, -0.09723067283630371, -0.7197800697191288, 0.03525233204286421, -0.07049554038429506,-0.6897132057696045,-0.4273529052734375,-0.00323486328125,-0.0441741943359375
20220111-1126,2022-01-11 11:26:26Z,u01, 238,40,movements,el-ex, rt, d,76086.18494225001, -1.6188661230615884, 0.056514456846739086, 2.9886558719561953, -0.23274418711662292, -0.4957510232925415, -0.326354056596756, -0.9972500801086426, -0.05648437887430191, 0.047974564135074615, 0.5465055704116821, 0.07691588997840881, -0.027283668518066406, -0.7229816766067001, 0.03584380097367812, -0.07307658636525322,-0.6860556959722137,-0.45074462890625,0.0204315185546875,0.02069091796875
20220111-1126,2022-01-11 11:26:26Z,u01, 239,40,movements,el-ex, rt, d,76086.20988425, -1.6320623577972884, 0.06926787115712928, 2.9839586843639614, -0.18223057687282562, -0.5490204095840454, -0.6756336092948914, -0.9957302808761597, -0.06921249628067017, 0.06108088418841362, 0.42961394786834717, -0.2732252776622772, 0.1242218092083931, -0.72760348634977, 0.033669105237442765, -0.07905580033759929,-0.6805951444548207,-0.5449066162109375,-0.327484130859375,0.18817138671875
20220111-1126,2022-01-11 11:26:26Z,u01, 240,40,movements,el-ex, rt, d,76086.23482625, -1.64554640873589, 0.08911786086697183, 2.985116716793488, 0.4320369064807892, -0.5233924388885498, -0.8700487613677979, -0.9932502508163452, -0.08899994194507599, 0.07438413053750992, 0.3832648992538452, -0.016560345888137817, -0.049802303314208984, -0.7324352859612099, 0.027029938071904347, -0.08566227898191697,-0.674885122677896,-0.6099853515625,-0.105560302734375,0.0245819091796875
20220111-1126,2022-01-11 11:26:26Z,u01, 241,40,movements,el-ex, rt, d,76086.25976825, -1.6610414574095722, 0.11076105426147047, 3.0092280095610833, 1.0986403226852417, -0.5769463777542114, -0.9811437129974365, -0.9898278713226318, -0.11053472012281418, 0.08957044035196304, 0.4428308606147766, 0.20980843901634216, -0.2128157615661621, -0.7380061095433792, 0.011497883366286876, -0.08531456394230974,-0.6692803735429435,-0.5626373291015625,0.115264892578125,-0.1248931884765625
20220111-1126,2022-01-11 11:26:26Z,u01, 242,40,movements,el-ex, rt, d,76086.28470925, -1.6812041520036745, 0.13424992598224234, 3.0343498129409023, 0.5051398873329163, -0.7891437411308289, -1.1370381116867065, -0.9849680066108704, -0.13384702801704407, 0.10919221490621567, 0.46520793437957764, 0.09531858563423157, -0.1422429084777832, -0.744696407462847, -0.004834102854294697, -0.08557034559265392,-0.6618773089670746,-0.5197601318359375,-0.0385284423828125,-0.033050537109375
20220111-1126,2022-01-11 11:26:26Z,u01, 243,40,movements,el-ex, rt, d,76086.30965125, -1.7032307883868958, 0.16371496761137597, 3.040884145009781, -0.14051350951194763, -0.8937821984291077, -1.239625096321106, -0.9779890179634094, -0.16298460960388184, 0.13028199970722198, 0.3046644926071167, 0.10750365257263184, -0.002184629440307617, -0.7515871330184198, -0.01605567788363854, -0.0944851491308143,-0.652634278171969,-0.6251983642578125,-0.0382232666015625,0.1155242919921875
20220111-1126,2022-01-11 11:26:26Z,u01, 244,40,movements,el-ex, rt, d,76086.33459325001, -1.7249851221608352, 0.19363312692928328, 3.0454651194303115, 0.2808550000190735, -0.7026247382164001, -1.1706657409667969, -0.9696696996688843, -0.19242538511753082, 0.1507084220647812, 0.09936946630477905, 0.016689926385879517, -0.023419737815856934, -0.7580582010210768, -0.02649481728899955, -0.104438638539887,-0.6432249269599202,-0.87030029296875,-0.1757354736328125,0.127288818359375
20220111-1126,2022-01-11 11:26:26Z,u01, 245,40,movements,el-ex, rt, d,76086.35953525, -1.7447170129569491, 0.22018627988792033, 3.0592130214691187, 0.3397614359855652, -0.7228969931602478, -1.1180294752120972, -0.9611349701881409, -0.2184114158153534, 0.1688673496246338, 0.1751546859741211, 0.03449717164039612, -0.062437400221824646, -0.7634746692274305, -0.0392441947118185, -0.1103911489052885,-0.6351221873050805,-0.805023193359375,-0.1790924072265625,0.089599609375
20220111-1126,2022-01-11 11:26:26Z,u01, 246,40,movements,el-ex, rt, d,76086.38447725, -1.767392489852452, 0.24619120104873463, 3.0717072198374002, 0.218207448720932, -0.8583562970161438, -1.0711698532104492, -0.9511656761169434, -0.24371178448200226, 0.1894424855709076, 0.14005422592163086, 0.09994348883628845, -0.03383350372314453, -0.7694914579002098, -0.05103075466949086, -0.11685763256211212,-0.6257979266136136,-0.8111114501953125,-0.143768310546875,0.155609130859375
20220111-1126,2022-01-11 11:26:26Z,u01, 247,40,movements,el-ex, rt, d,76086.40941825, -1.791318627178597, 0.2692295896680085, 3.0811008843367595, 0.10900642722845078, -0.828996479511261, -0.8583914637565613, -0.9406315684318542, -0.26598885655403137, 0.21085941791534424, -0.06241995096206665, 0.10021743178367615, 0.05218668282032013, -0.7757419696698116, -0.06044917514191528, -0.12344811924151133,-0.6158982651915521,-0.9696044921875,-0.1464080810546875,0.2455291748046875
20220111-1126,2022-01-11 11:26:26Z,u01, 248,40,movements,el-ex, rt, d,76086.43436025, -1.811370692740227, 0.28592591915369053, 3.0893539643466985, 0.25053825974464417, -0.5793594717979431, -0.6422005891799927, -0.9317713379859924, -0.2820459008216858, 0.2285873144865036, -0.1426914930343628, 0.010378420352935791, -0.0038864612579345703, -0.7808517511890086, -0.06755887504497243, -0.12802233001547642,-0.6077142235519344,-1.074462890625,-0.27166748046875,0.224700927734375
20220111-1126,2022-01-11 11:26:26Z,u01, 249,40,movements,el-ex, rt, d,76086.45930225, -1.8279238585738613, 0.2983645616019174, 3.0999529182969523, 0.2618709206581116, -0.5639238357543945, -0.536442220211029, -0.9243954420089722, -0.2939574122428894, 0.24306805431842804, 0.03175628185272217, -0.033725082874298096, -0.07862424850463867, -0.7848527992809267, -0.07443191064092708, -0.1302493337556751,-0.6012495782836813,-0.92034912109375,-0.328582763671875,0.1630096435546875
20220111-1126,2022-01-11 11:26:26Z,u01, 250,40,movements,el-ex, rt, d,76086.48424425001, -1.8474069828974022, 0.3095128681612578, 3.1069580445327647, 0.030169639736413956, -0.7719321846961975, -0.43807971477508545, -0.9162749648094177, -0.3045946955680847, 0.2601197361946106, -0.0479888916015625, -0.011613219976425171, 0.04763472080230713, -0.7897958569680568, -0.07926140589666564, -0.13327493840686372,-0.5934458190396048,-0.964263916015625,-0.3162078857421875,0.3077545166015625
