SessionID,LoggingTime,UID,RecNo,Hertz,Activity,MoveType,Wrist,Side,TimeStamp,DMRoll,DMPitch,DMYaw,DMRotX,DMRotY,DMRotZ,DMGrvX,DMGrvY,DMGrvZ,DMUAccelX,DMUAccelY,DMUAccelZ,DMQuatX,DMQuatY,DMQuatW,DMQuatZ,AccelroX,AceelroY,AceelroZ
20220112-1348,2022-01-12 13:48:10Z,u01, 1,40,movements,el-ex, rt, d,93868.760025625, -1.853087275147431, 0.3434385082283131, 2.882503278501781, 0.6368152499198914, -0.30003422498703003, -0.34875473380088806, -0.9043333530426025, -0.3367267847061157, 0.26228952407836914, -0.11916500329971313, -0.09045818448066711, -0.05058923363685608, -0.7944462017789669, 2.7755575615628914e-17, -0.2119254791640432,-0.5691595784526381,-1.0341796875,-0.3864288330078125,0.207061767578125
20220112-1348,2022-01-12 13:48:10Z,u01, 2,40,movements,el-ex, rt, d,93868.78496862501, -1.8650608529567154, 0.34541167512918375, 2.901378888794188, 0.3884787857532501, -0.12877625226974487, -0.22311966121196747, -0.9004905223846436, -0.3385840654373169, 0.2729053795337677, -0.1346045732498169, -0.14606550335884094, -0.015230447053909302, -0.7977504181174104, -0.006852256448162869, -0.20734863359299754,-0.566174639413676,-1.03509521484375,-0.484649658203125,0.2576751708984375
20220112-1348,2022-01-12 13:48:10Z,u01, 3,40,movements,el-ex, rt, d,93868.80991162501, -1.8660163405805932, 0.3487423474806507, 2.900695457781183, -0.3393270671367645, 0.7111822962760925, -0.5078899264335632, -0.8991454243659973, -0.34171614050865173, 0.273436039686203, 0.058172643184661865, -0.005406022071838379, -0.03068411350250244, -0.7979110841967789, -0.007477860553319948, -0.20883295134360796,-0.5653942610679618,-1.0169219970703125,-0.3542022705078125,0.3049163818359375
20220112-1348,2022-01-12 13:48:10Z,u01, 4,40,movements,el-ex, rt, d,93868.83485362501, -1.8626653126928974, 0.3512251019347538, 2.892738716948554, -0.26252245903015137, 0.14803476631641388, -0.1119290143251419, -0.8992414474487305, -0.3440483808517456, 0.270176500082016, -0.039418160915374756, 0.06372922658920288, -0.02183997631072998, -0.7969059323758343, -0.005402462614826908, -0.21203043339726996,-0.5656454445850077,-0.93865966796875,-0.2803192138671875,0.2483367919921875
20220112-1348,2022-01-12 13:48:10Z,u01, 5,40,movements,el-ex, rt, d,93868.85979662501, -1.8583033439534198, 0.35244631677572913, 2.8916665489898796, 0.3061017692089081, 0.23647257685661316, 0.05241285264492035, -0.9000076651573181, -0.3451947867870331, 0.26613208651542664, -0.12466561794281006, -0.0028581321239471436, -0.09621050953865051, -0.795633292739824, -0.005806032246674475, -0.21279216396915734,-0.5671448162952745,-1.0069122314453125,-0.3285369873046875,0.177581787109375
20220112-1348,2022-01-12 13:48:10Z,u01, 6,40,movements,el-ex, rt, d,93868.884739625, -1.8525237138406634, 0.3471336783981796, 2.9029178432569718, 0.4523538649082184, 0.4917210042476654, 0.21932640671730042, -0.9032797813415527, -0.3402038514614105, 0.2614321708679199, -0.10473102331161499, -0.008917182683944702, -0.06128275394439697, -0.7941221028712885, -0.009283062410094495, -0.2075245940146174,-0.5711544204512866,-1.0080108642578125,-0.34912109375,0.2001495361328125
20220112-1348,2022-01-12 13:48:10Z,u01, 7,40,movements,el-ex, rt, d,93868.909682625, -1.8404727586326688, 0.3390574955216732, 2.9045230037366605, -0.38245248794555664, 0.4627029001712799, 0.28583666682243347, -0.9089833498001099, -0.33259838819503784, 0.2512519061565399, -0.005445420742034912, 0.06753799319267273, 0.012175709009170532, -0.7909172475218682, -0.008710226348761257, -0.20390806280397283,-0.5768843250538551,-0.9207000732421875,-0.300048828125,0.2662353515625
20220112-1348,2022-01-12 13:48:10Z,u01, 8,40,movements,el-ex, rt, d,93868.934624625, -1.8235498288505214, 0.3349306451571967, 2.879941977679978, -0.9629817605018616, 0.28260189294815063, 0.5617306232452393, -0.9144260287284851, -0.3287036716938019, 0.23617523908615112, -0.006914854049682617, 0.08419686555862427, -0.115875244140625, -0.7861853296359327, 0.0004963981421224617, -0.2094168483076716,-0.5814266135422911,-0.9213409423828125,-0.2445068359375,0.12030029296875
20220112-1348,2022-01-12 13:48:10Z,u01, 9,40,movements,el-ex, rt, d,93868.959567625, -1.807687748331662, 0.32453243904186163, 2.8647118924076493, -0.10756035894155502, 0.5978603959083557, 0.4858679473400116, -0.92132967710495, -0.31886565685272217, 0.22243152558803558, -0.17298465967178345, -0.08854392170906067, -0.03551164269447327, -0.7817617374918403, 0.008021685530131273, -0.20996480352433547,-0.5871105708580224,-1.080596923828125,-0.4078826904296875,0.1405487060546875
20220112-1348,2022-01-12 13:48:10Z,u01, 10,40,movements,el-ex, rt, d,93868.984510625, -1.789320686133712, 0.31203437355627633, 2.8594471885715547, -0.023459363728761673, 0.7165446281433105, 0.6166538596153259, -0.9290778040885925, -0.3069953918457031, 0.20632077753543854, -0.11834657192230225, -0.07271954417228699, 0.115258127450943, -0.7765402413519439, 0.012068118442648879, -0.20691553479917074,-0.595000482629451,-1.04742431640625,-0.3797149658203125,0.3215789794921875
20220112-1348,2022-01-12 13:48:10Z,u01, 11,40,movements,el-ex, rt, d,93869.00945362501, -1.7692702884761387, 0.2960549965821028, 2.8532152329373686, -0.2678433656692505, 0.7414839267730713, 0.7349079251289368, -0.9377174973487854, -0.29174911975860596, 0.18859541416168213, -0.10462552309036255, -0.023817837238311768, 0.13531804084777832, -0.7707088586461112, 0.0174803254902747, -0.20296665199046848,-0.6037439715394401,-1.0351409912109375,-0.318206787109375,0.341217041015625
20220112-1348,2022-01-12 13:48:10Z,u01, 12,40,movements,el-ex, rt, d,93869.034395625, -1.74638774007712, 0.27839467399460466, 2.8414257615521006, -0.28621578216552734, 0.825454831123352, 0.7588111758232117, -0.9467131495475769, -0.2748124897480011, 0.16796450316905975, -0.13054203987121582, -0.09214609861373901, 0.04005837440490723, -0.7637665887135319, 0.025354479803878643, -0.20025952274627473,-0.6131180660416343,-1.0772552490234375,-0.3669586181640625,0.2080230712890625
20220112-1348,2022-01-12 13:48:10Z,u01, 13,40,movements,el-ex, rt, d,93869.05933862501, -1.7256090316221724, 0.2608478232840924, 2.8375133132430057, 0.2532261610031128, 0.7601232528686523, 0.657516598701477, -0.9546167254447937, -0.25789979100227356, 0.14897888898849487, -0.2656592130661011, -0.15968748927116394, 0.059013500809669495, -0.7573377870566201, 0.030478217174423256, -0.19531452768568536,-0.6223847808121513,-1.18011474609375,-0.42889404296875,0.1959228515625
20220112-1348,2022-01-12 13:48:10Z,u01, 14,40,movements,el-ex, rt, d,93869.08428162501, -1.7079719120892962, 0.24624259823118266, 2.842878256646688, 0.19036388397216797, 0.7455068826675415, 0.4449639320373535, -0.9607247114181519, -0.24376162886619568, 0.13262087106704712, -0.4199821352958679, -0.10864008963108063, 0.13321758806705475, -0.7518744458707861, 0.031547596789953586, -0.18857739668666132,-0.6309739438688137,-1.380706787109375,-0.3524017333984375,0.265838623046875
20220112-1348,2022-01-12 13:48:11Z,u01, 15,40,movements,el-ex, rt, d,93869.109224625, -1.6905651565758362, 0.23888673780501454, 2.8421686997787967, -0.0938887894153595, 0.6372218132019043, 0.1624956727027893, -0.9646415114402771, -0.23662112653255463, 0.1160895973443985, -0.6070441007614136, -0.1624571830034256, 0.0922536700963974, -0.7463116413930347, 0.032614940869830716, -0.18641408898884387,-0.6381260067950558,-1.54559326171875,-0.3737335205078125,0.2517547607421875
20220112-1348,2022-01-12 13:48:11Z,u01, 16,40,movements,el-ex, rt, d,93869.13416662501, -1.6782974608815338, 0.23878435168401685, 2.8373066701455145, -0.4433111846446991, 0.12296956777572632, -0.18297317624092102, -0.9660172462463379, -0.2365216463804245, 0.10424984991550446, -0.7564252614974976, -0.2578936219215393, -0.1346912384033203, -0.7423041023249108, 0.033309817640177236, -0.18813572581590784,-0.6422460322388326,-1.722442626953125,-0.494415283203125,-0.0304412841796875
20220112-1348,2022-01-12 13:48:11Z,u01, 17,40,movements,el-ex, rt, d,93869.159109625, -1.6759341372932974, 0.2473211820168054, 2.8324716199554083, 0.2666877806186676, 0.2463802993297577, -0.41156548261642456, -0.9642177224159241, -0.24480754137039185, 0.1017509326338768, -0.9352114796638489, -0.09697405993938446, 0.1513158082962036, -0.7415188271422407, 0.03202026108145728, -0.19278758290935952,-0.6418390840431076,-1.9601287841796875,-0.42498779296875,0.187225341796875
20220112-1348,2022-01-12 13:48:11Z,u01, 18,40,movements,el-ex, rt, d,93869.184052625, -1.6723897122763176, 0.25945686574921784, 2.8452162412074755, 0.3791845440864563, 0.041762061417102814, -0.6956050992012024, -0.9615457057952881, -0.2565556466579437, 0.0980241596698761, -0.48126423358917236, -0.03441417217254639, 0.2174663543701172, -0.7405999790615359, 0.022885592549580336, -0.19308376697240298,-0.6432001484662935,-1.44281005859375,-0.2909698486328125,0.31549072265625
20220112-1348,2022-01-12 13:48:11Z,u01, 19,40,movements,el-ex, rt, d,93869.20899562501, -1.681590761187727, 0.2806380401610559, 2.8510547354062, -0.027664992958307266, -0.4677417278289795, -0.9769787788391113, -0.9549871683120728, -0.276968777179718, 0.106242336332798, -0.5643607974052429, -0.24607190489768982, -0.042994871735572815, -0.7435793201801639, 0.014524617974800563, -0.19870789237262731,-0.6382740958933353,-1.468170166015625,-0.5744171142578125,0.0695037841796875
20220112-1348,2022-01-12 13:48:11Z,u01, 20,40,movements,el-ex, rt, d,93869.233937625, -1.6910556020726646, 0.30486518788134537, 2.8548173009413693, 0.12406741082668304, -0.23667629063129425, -1.0027251243591309, -0.9469979405403137, -0.3001645803451538, 0.11443749815225601, -0.5350270867347717, 0.020577847957611084, 0.005969405174255371, -0.7464467206033076, 0.006003512516708942, -0.20615080050615703,-0.6326792524958943,-1.482025146484375,-0.2795867919921875,0.1204071044921875
20220112-1348,2022-01-12 13:48:11Z,u01, 21,40,movements,el-ex, rt, d,93869.258880625, -1.7003039718281674, 0.3290634245021274, 2.8618479306231723, 0.098133884370327, -0.34215331077575684, -0.9794185757637024, -0.938420295715332, -0.32315683364868164, 0.12221664935350418, -0.3123883605003357, -0.13981002569198608, 0.09682309627532959, -0.7490625814445234, -0.0036843248333603973, -0.21262138307213319,-0.6274422567213235,-1.268646240234375,-0.4346923828125,0.20361328125
20220112-1348,2022-01-12 13:48:11Z,u01, 22,40,movements,el-ex, rt, d,93869.28382362501, -1.7110920730734025, 0.35111652473689264, 2.8676781442124044, 0.1926305592060089, -0.32509949803352356, -0.8424498438835144, -0.9297633767127991, -0.3439464271068573, 0.13130445778369904, -0.26786839962005615, -0.11470222473144531, 0.08883392810821533, -0.7520030784563274, -0.011983344184989905, -0.21878027145980833,-0.621677507510185,-1.1976318359375,-0.458648681640625,0.2201385498046875
20220112-1348,2022-01-12 13:48:11Z,u01, 23,40,movements,el-ex, rt, d,93869.308765625, -1.722123817980536, 0.36958335726731867, 2.878551936537018, 0.4151957631111145, -0.25247448682785034, -0.7194980382919312, -0.9218212962150574, -0.3612269461154938, 0.14057157933712006, -0.19101738929748535, 0.011938035488128662, 0.03452277183532715, -0.7548829697505944, -0.020916223877156193, -0.22217198903545393,-0.616728229032024,-1.1251220703125,-0.3408203125,0.1848602294921875
20220112-1348,2022-01-12 13:48:11Z,u01, 24,40,movements,el-ex, rt, d,93869.33370862501, -1.733510662420885, 0.3829724323599219, 2.8940925892885168, 0.49972182512283325, -0.18984653055667877, -0.5354655981063843, -0.915306031703949, -0.3736792206764221, 0.15026186406612396, -0.16345977783203125, -0.022042185068130493, -0.03394424915313721, -0.7577847971561977, -0.029885358060716113, -0.22239647399069673,-0.6127061556333219,-1.078765869140625,-0.395721435546875,0.1163177490234375
20220112-1348,2022-01-12 13:48:11Z,u01, 25,40,movements,el-ex, rt, d,93869.358651625, -1.7409795244340023, 0.3928553194279152, 2.905150585962292, 0.14912475645542145, -0.10508909821510315, -0.3661075234413147, -0.9104739427566528, -0.3828277587890625, 0.15646077692508698, -0.13905608654022217, -0.0315093994140625, 0.04747273027896881, -0.7595407295476, -0.036445467407111326, -0.22274048556994236,-0.6100461028272527,-1.05389404296875,-0.411651611328125,0.201629638671875
20220112-1348,2022-01-12 13:48:11Z,u01, 26,40,movements,el-ex, rt, d,93869.383594625, -1.743935441527951, 0.39939419595796727, 2.9092469109885073, 0.10348694026470184, 0.012926952913403511, -0.2147151231765747, -0.9075220227241516, -0.388860285282135, 0.15871669352054596, -0.1352176070213318, 0.018727928400039673, -0.014628186821937561, -0.7601157659815945, -0.03977903920417293, -0.22393608495053674,-0.6086822594800443,-1.0427398681640625,-0.3701324462890625,0.1440887451171875
20220112-1348,2022-01-12 13:48:11Z,u01, 27,40,movements,el-ex, rt, d,93869.40853662501, -1.7443891824669078, 0.4021559749307254, 2.9141603676131487, 0.152780219912529, 0.11133720725774765, -0.058510538190603256, -0.9063886404037476, -0.3914032280445099, 0.1589423567056656, -0.10374301671981812, -0.010787874460220337, -0.02661837637424469, -0.7600435858140823, -0.04248445410853309, -0.22345898084466487,-0.6087649123550118,-1.0128173828125,-0.3785400390625,0.1307830810546875
20220112-1348,2022-01-12 13:48:11Z,u01, 28,40,movements,el-ex, rt, d,93869.433479625, -1.7411952810818139, 0.40135356821388957, 2.917043838649043, -0.0016845916397869587, 0.21808841824531555, 0.046688586473464966, -0.9072009325027466, -0.3906646966934204, 0.1560998409986496, -0.09733074903488159, -0.07895493507385254, -0.022829800844192505, -0.759040343703784, -0.043676998351422094, -0.22221822732124596,-0.610384261773279,-1.0045318603515625,-0.4696197509765625,0.133270263671875
20220112-1348,2022-01-12 13:48:11Z,u01, 29,40,movements,el-ex, rt, d,93869.458422625, -1.733304873360432, 0.3995852533998988, 2.9123743989846047, -0.2609274983406067, 0.2562786936759949, 0.14680905640125275, -0.9090848565101624, -0.38903629779815674, 0.14904844760894775, -0.11311662197113037, 0.025571972131729126, 0.054595112800598145, -0.7567973266620505, -0.04221410846138607, -0.22283257662609587,-0.6130427389063372,-1.01458740234375,-0.3913116455078125,0.190673828125
20220112-1348,2022-01-12 13:48:11Z,u01, 30,40,movements,el-ex, rt, d,93869.483366, -1.7235496341840657, 0.39483902583222386, 2.9043014507575386, -0.16103972494602203, 0.3266189694404602, 0.33870401978492737, -0.9123103022575378, -0.38465961813926697, 0.1404525488615036, -0.15574389696121216, 0.08418351411819458, 0.09763015806674957, -0.7541403757475892, -0.038711302056077423, -0.22339431863563425,-0.6163349189177252,-1.06805419921875,-0.30047607421875,0.2380828857421875
20220112-1348,2022-01-12 13:48:11Z,u01, 31,40,movements,el-ex, rt, d,93869.508308, -1.7120452814871165, 0.38394981162823244, 2.906614479914162, 0.3360481262207031, 0.6524485945701599, 0.43617263436317444, -0.91795814037323, -0.3745856285095215, 0.13052986562252045, -0.1249341368675232, -0.03261035680770874, -0.08594383299350739, -0.7509155319848853, -0.03729337477101294, -0.21852443578606556,-0.6220787374851096,-1.0681304931640625,-0.4147186279296875,0.069610595703125
20220112-1348,2022-01-12 13:48:11Z,u01, 32,40,movements,el-ex, rt, d,93869.533251, -1.6966550119259645, 0.371077262928215, 2.910035833891468, 0.04302199184894562, 0.6706262826919556, 0.6200659871101379, -0.9245657324790955, -0.3626195788383484, 0.11698296666145325, -0.01288837194442749, -0.034810781478881836, -0.06900954246520996, -0.746455611554588, -0.03599312276432559, -0.21253807862111662,-0.6295522205143593,-0.9374542236328125,-0.397430419921875,0.0479736328125
20220112-1348,2022-01-12 13:48:11Z,u01, 33,40,movements,el-ex, rt, d,93869.55819400001, -1.6776347980773743, 0.3515781536565972, 2.9071373311727102, -0.14607059955596924, 0.812118649482727, 0.9260740876197815, -0.9334772825241089, -0.34437984228134155, 0.10011249035596848, 0.06674766540527344, -0.05219602584838867, 0.011261343955993652, -0.7410335983538605, -0.03042122049560725, -0.20616030248622225,-0.6383115487424055,-0.8853912353515625,-0.453216552734375,0.1185302734375
20220112-1348,2022-01-12 13:48:11Z,u01, 34,40,movements,el-ex, rt, d,93869.58313700001, -1.653303388701675, 0.32706408458750436, 2.8962422839486055, -0.42348402738571167, 0.8092494606971741, 1.103545904159546, -0.9437682032585144, -0.3212641477584839, 0.07804471254348755, 0.17635786533355713, 0.1503809690475464, 0.005741126835346222, -0.7338916713081111, -0.020624551195639995, -0.2006487070422579,-0.6486275837072175,-0.7674102783203125,-0.1708831787109375,0.0837860107421875
20220112-1348,2022-01-12 13:48:11Z,u01, 35,40,movements,el-ex, rt, d,93869.60807900001, -1.6301436239490672, 0.2984953757929798, 2.886463270115516, -0.027863765135407448, 0.8185376524925232, 1.219266653060913, -0.9540972113609314, -0.2940824627876282, 0.05668966472148895, 0.28403812646865845, 0.19592270255088806, 0.03950154781341553, -0.7268100497505072, -0.009590789705344063, -0.19361553489414646,-0.6589143112141571,-0.6833038330078125,-0.07452392578125,0.0978851318359375
20220112-1348,2022-01-12 13:48:11Z,u01, 36,40,movements,el-ex, rt, d,93869.63302200001, -1.6105187253058781, 0.2669678346112035, 2.888520272155546, 0.13799408078193665, 0.7906203866004944, 1.2597304582595825, -0.9638143181800842, -0.26380789279937744, 0.03830516338348389, 0.3493887186050415, 0.04740780591964722, -0.012121200561523438, -0.7205212620705789, -0.001301308062271772, -0.18185885008169755,-0.6691597233566162,-0.6144256591796875,-0.216400146484375,0.02618408203125
20220112-1348,2022-01-12 13:48:11Z,u01, 37,40,movements,el-ex, rt, d,93869.657965, -1.5917117421495353, 0.2374648120838502, 2.8848643870549138, -0.35647815465927124, 0.6232211589813232, 1.1081856489181519, -0.971724808216095, -0.23523934185504913, 0.020326992496848106, 0.4669031500816345, 0.10497508943080902, 0.0022100210189819336, -0.7142053010738338, 0.008618812694608347, -0.17287036385777116,-0.6781978014413326,-0.5201568603515625,-0.169097900390625,0.01824951171875
20220112-1348,2022-01-12 13:48:11Z,u01, 38,40,movements,el-ex, rt, d,93869.68290700001, -1.575546757356899, 0.21143382959809923, 2.8737477210992686, -0.34653526544570923, 0.49535131454467773, 0.9603130221366882, -0.9777198433876038, -0.20986200869083405, 0.004644624888896942, 0.5400673747062683, 0.20348389446735382, -0.0012878184206783772, -0.7084550700584906, 0.020340261792536785, -0.16778558446336717,-0.6852193329623522,-0.437652587890625,-0.006378173828125,0.00335693359375
20220112-1348,2022-01-12 13:48:11Z,u01, 39,40,movements,el-ex, rt, d,93869.70785, -1.5623285846581514, 0.1911988529432261, 2.867924259106908, -0.14261330664157867, 0.42191511392593384, 0.6664962768554688, -0.9817419648170471, -0.19003604352474213, -0.008313336409628391, 0.6232824325561523, 0.18829654157161713, 0.03379535675048828, -0.7035861016812799, 0.02845925730009484, -0.16300144757888335,-0.6910768626639922,-0.36871337890625,0.0273284912109375,0.0147857666015625
20220112-1348,2022-01-12 13:48:11Z,u01, 40,40,movements,el-ex, rt, d,93869.732793, -1.5546197851036327, 0.17754553136912218, 2.86277622968778, -0.24699780344963074, 0.16077347099781036, 0.4102343022823334, -0.9841512441635132, -0.17661422491073608, -0.01592155173420906, 0.6101889610290527, 0.04062792658805847, 0.06091952323913574, -0.7006064200923268, 0.03449446450428323, -0.16023603434963968,-0.6944674512960295,-0.37396240234375,-0.135986328125,0.0449981689453125
20220112-1348,2022-01-12 13:48:11Z,u01, 41,40,movements,el-ex, rt, d,93869.757736, -1.5511963788143217, 0.1712951480387504, 2.8561828548800645, -0.2502994239330292, -0.01563904620707035, 0.11589435487985611, -0.9851755499839783, -0.17045868933200836, -0.01931186206638813, 0.6088327765464783, 0.055254846811294556, 0.06514912843704224, -0.6991725560900302, 0.0387531384620218, -0.16045740959489252,-0.6956359093192109,-0.38018798828125,-0.11785888671875,0.061279296875
20220112-1348,2022-01-12 13:48:11Z,u01, 42,40,movements,el-ex, rt, d,93869.782678, -1.553248372422984, 0.17173841550103808, 2.85494765399232, 0.09728357195854187, -0.14421992003917694, -0.1979953944683075, -0.9851373434066772, -0.17089544236660004, -0.017288919538259506, 0.5806117057800293, 0.07687081396579742, 0.0006871819496154785, -0.6998710682859127, 0.03919218935571925, -0.16099795084691576,-0.6947834275014111,-0.4045257568359375,-0.094024658203125,-0.0166015625
20220112-1348,2022-01-12 13:48:11Z,u01, 43,40,movements,el-ex, rt, d,93869.807621, -1.5584097286964975, 0.17832782138944542, 2.8566330954435517, 0.013378413394093513, -0.24317073822021484, -0.34661707282066345, -0.9840661287307739, -0.1773841679096222, -0.012189854867756367, 0.5694391131401062, 0.024369046092033386, 0.04392796754837036, -0.701826147390361, 0.03667603398924092, -0.16256614216137522,-0.6925800237775324,-0.4203033447265625,-0.1451873779296875,0.021484375
20220112-1348,2022-01-12 13:48:11Z,u01, 44,40,movements,el-ex, rt, d,93869.83256400001, -1.566628196930881, 0.18995451992974735, 2.854660799687786, -0.15550118684768677, -0.4592759609222412, -0.5747783780097961, -0.9820041656494141, -0.18881423771381378, -0.004093144554644823, 0.5878545045852661, 0.07740984857082367, 0.0617864727973938, -0.7048421925128704, 0.033925083718860674, -0.1670827061435725,-0.6885708681814046,-0.3941497802734375,-0.1114044189453125,0.0576934814453125
20220112-1348,2022-01-12 13:48:11Z,u01, 45,40,movements,el-ex, rt, d,93869.857506, -1.5802755911268649, 0.20632638454203595, 2.851631309543159, -0.026955194771289825, -0.684346079826355, -0.7082350254058838, -0.9787461757659912, -0.20486558973789215, 0.009278071112930775, 0.5095993876457214, 0.13632310926914215, 0.030821800231933594, -0.7097294361644396, 0.03038360019782721, -0.17352697721299368,-0.6820919066758871,-0.4522552490234375,-0.0416259765625,0.0751190185546875
20220112-1348,2022-01-12 13:48:11Z,u01, 46,40,movements,el-ex, rt, d,93869.88244900001, -1.6002111758105027, 0.22518588095020606, 2.855075739869833, 0.19998209178447723, -0.813298761844635, -0.9104778170585632, -0.9743310213088989, -0.22328755259513855, 0.02866806834936142, 0.3880120515823364, -0.031244292855262756, -0.0007140599191188812, -0.7167587230766733, 0.024309809444736763, -0.17860873559190638,-0.6736207589289579,-0.5863189697265625,-0.2545318603515625,0.0279541015625
20220112-1348,2022-01-12 13:48:11Z,u01, 47,40,movements,el-ex, rt, d,93869.90739200001, -1.621217731871779, 0.25022078387699737, 2.85985139908247, 0.0031908564269542694, -0.8161073327064514, -1.0624703168869019, -0.9676264524459839, -0.24761787056922913, 0.04883047193288803, 0.33865922689437866, 0.023222148418426514, 0.027173399925231934, -0.723992257810647, 0.015825510272927473, -0.18552722341864258,-0.6642020671070006,-0.6392974853515625,-0.2764129638671875,0.0734405517578125
20220112-1348,2022-01-12 13:48:11Z,u01, 48,40,movements,el-ex, rt, d,93869.932335, -1.643594228638509, 0.2768817823734554, 2.859717968688541, -0.029419517144560814, -0.9855617880821228, -1.069948673248291, -0.959364652633667, -0.2733575403690338, 0.06996336579322815, 0.33590590953826904, 0.1872522234916687, -0.07414448261260986, -0.731370757489139, 0.008859950586497578, -0.19479697466202434,-0.6535077055623667,-0.6234588623046875,-0.0861053466796875,-0.004180908203125
20220112-1348,2022-01-12 13:48:11Z,u01, 49,40,movements,el-ex, rt, d,93869.95727700001, -1.6700509074798124, 0.30398567688806055, 2.8638964250911285, 0.0671020969748497, -0.985173225402832, -1.0956918001174927, -0.9494549632072449, -0.29932552576065063, 0.09454843401908875, 0.17092108726501465, 0.18779906630516052, -0.027013182640075684, -0.7397794380413638, 0.000775701930311623, -0.20297991887405525,-0.6415020450236946,-0.750274658203125,-0.0810546875,0.04876708984375
20220112-1348,2022-01-12 13:48:11Z,u01, 50,40,movements,el-ex, rt, d,93869.98222, -1.6920401741574662, 0.3294242535668888, 2.86154711374256, -0.5485420823097229, -0.8780530095100403, -0.9641008973121643, -0.939282238483429, -0.32349830865859985, 0.11444351822137833, 0.13818079233169556, 0.011669754981994629, -0.03686799108982086, -0.7464588869517768, -0.004570488962715558, -0.21282837001392846,-0.6304618471752085,-0.8011016845703125,-0.31182861328125,0.07757568359375
20220112-1348,2022-01-12 13:48:11Z,u01, 51,40,movements,el-ex, rt, d,93870.007163, -1.70836585428497, 0.3579400416538085, 2.83815996105513, -1.401361107826233, -1.0979279279708862, -1.0687611103057861, -0.9277713894844055, -0.35034558176994324, 0.1284443736076355, 0.18639272451400757, -0.03297039866447449, -0.03643418848514557, -0.7511393563977999, -0.003443333939852522, -0.23037353975136587,-0.6186321244271138,-0.7396240234375,-0.416778564453125,0.0820770263671875
20220112-1348,2022-01-12 13:48:11Z,u01, 52,40,movements,el-ex, rt, d,93870.032106, -1.7244712332694294, 0.3891836156840372, 2.807003144000005, -0.9830103516578674, -1.0177127122879028, -1.0221807956695557, -0.9143154621124268, -0.37943321466445923, 0.14162397384643555, 0.07825601100921631, 0.2462698519229889, -0.0004804283380508423, -0.7555210014483625, -2.5769179014756283e-05, -0.2510863502006583,-0.6050979546201728,-0.8360595703125,-0.1331634521484375,0.141143798828125
20220112-1348,2022-01-12 13:48:11Z,u01, 53,40,movements,el-ex, rt, d,93870.057048, -1.7452813109134955, 0.41313865676134404, 2.80296579324813, 0.30257657170295715, -0.7837260365486145, -0.793738067150116, -0.9019587635993958, -0.4014858901500702, 0.15899507701396942, -0.03395438194274902, 0.2438168227672577, -0.05769215524196625, -0.7612387486773805, -0.0036204274729765007, -0.2608821585601869,-0.593669050254401,-0.940032958984375,-0.1044921875,0.09307861328125
20220112-1348,2022-01-12 13:48:11Z,u01, 54,40,movements,el-ex, rt, d,93870.081991, -1.7698131121728053, 0.4261465887936265, 2.8174767457872374, 0.4096318185329437, -0.7020953297615051, -0.4516829252243042, -0.8925919532775879, -0.41336509585380554, 0.18002386391162872, -0.010362029075622559, -0.08495637774467468, 0.019148945808410645, -0.7680553938232697, -0.010141166512414035, -0.26138061989929795,-0.5845238494381765,-0.9029541015625,-0.498321533203125,0.1991729736328125
20220112-1348,2022-01-12 13:48:12Z,u01, 55,40,movements,el-ex, rt, d,93870.10693400001, -1.7902816772517076, 0.43460200248820247, 2.8242521068513793, -0.2655821144580841, -0.734343945980072, -0.3777494430541992, -0.8852773904800415, -0.42104944586753845, 0.19748687744140625, -0.034980058670043945, -0.23980864882469177, 0.054786548018455505, -0.773680094226804, -0.012749561907303558, -0.26260886369306147,-0.5764486369365145,-0.9016571044921875,-0.713897705078125,0.2491607666015625
20220112-1348,2022-01-12 13:48:12Z,u01, 56,40,movements,el-ex, rt, d,93870.131876, -1.8016738997740995, 0.44603508376664197, 2.812382399190863, -0.46472615003585815, -0.5160380005836487, -0.2774655222892761, -0.8782265186309814, -0.4313919246196747, 0.20644403994083405, -0.13486558198928833, -0.01604151725769043, 0.0007853806018829346, -0.7766064485479005, -0.010219789405143898, -0.2702541116795246,-0.5689821468260975,-1.013092041015625,-0.4474334716796875,0.2072296142578125
20220112-1348,2022-01-12 13:48:12Z,u01, 57,40,movements,el-ex, rt, d,93870.15681900001, -1.8073122493344465, 0.4523652376314941, 2.8078009619768585, 0.10449983179569244, -0.12601928412914276, -0.09014556556940079, -0.8743762969970703, -0.4370940923690796, 0.21074838936328888, -0.11813163757324219, 0.0526030957698822, 0.002172619104385376, -0.7779981217913717, -0.009649817861068194, -0.27389737486648486,-0.5653371162451574,-1.021087646484375,-0.3385467529296875,0.2093353271484375
20220112-1348,2022-01-12 13:48:12Z,u01, 58,40,movements,el-ex, rt, d,93870.18176200001, -1.8121541059591928, 0.4509392616876478, 2.8145984909561887, 0.18828368186950684, -0.01423283014446497, 0.03891122341156006, -0.8739497065544128, -0.4358111023902893, 0.21512821316719055, -0.07861059904098511, -0.04526790976524353, 0.03142307698726654, -0.7793836271519179, -0.011192182832482911, -0.271479690104392,-0.5645657612876637,-0.9525604248046875,-0.4810791015625,0.246551513671875
20220112-1348,2022-01-12 13:48:12Z,u01, 59,40,movements,el-ex, rt, d,93870.206705, -1.8091333064901534, 0.44920146348063245, 2.809894098313432, -0.3649248778820038, 0.10046452283859253, 0.19760772585868835, -0.8753302097320557, -0.43424636125564575, 0.21266567707061768, -0.10217815637588501, -0.023013681173324585, 0.011851891875267029, -0.7786190713623031, -0.009229482839215847, -0.2721555111726396,-0.5653303139258679,-0.971771240234375,-0.442596435546875,0.249114990234375
20220112-1348,2022-01-12 13:48:12Z,u01, 60,40,movements,el-ex, rt, d,93870.23164700001, -1.8006167785698042, 0.4443492986657885, 2.8025255360850956, -0.00460781017318368, 0.33984121680259705, 0.3013288378715515, -0.8791511058807373, -0.42987045645713806, 0.20568090677261353, -0.1118767261505127, -0.03288283944129944, -0.07070192694664001, -0.7764047590056433, -0.006008455816891689, -0.2724362050628153,-0.568276374433436,-0.99102783203125,-0.4627532958984375,0.134979248046875
20220112-1348,2022-01-12 13:48:12Z,u01, 61,40,movements,el-ex, rt, d,93870.25659, -1.7904958531154787, 0.43414349912641564, 2.804693068645099, 0.22580109536647797, 0.5267510414123535, 0.45356088876724243, -0.8854234218597412, -0.4206335246562958, 0.197718545794487, -0.05200016498565674, -0.04083797335624695, -0.12385094165802002, -0.7738437677890625, -0.005009651768485668, -0.26806711756895674,-0.5738298400787698,-0.9440460205078125,-0.463958740234375,0.0809173583984375
20220112-1348,2022-01-12 13:48:12Z,u01, 62,40,movements,el-ex, rt, d,93870.281533, -1.7785092543487886, 0.41798879412963674, 2.8107562702365225, 0.5687456727027893, 0.6248177886009216, 0.7631004452705383, -0.8942629098892212, -0.4059232175350189, 0.18846826255321503, -0.033395230770111084, -0.05309164524078369, -0.03975626826286316, -0.7708563288018863, -0.0038275221950105076, -0.2604071833613978,-0.5813381124761632,-0.9276580810546875,-0.459014892578125,0.148712158203125
20220112-1348,2022-01-12 13:48:12Z,u01, 63,40,movements,el-ex, rt, d,93870.306475, -1.7635095875473825, 0.3957010824663703, 2.8163905068914263, -0.004389331676065922, 0.7383848428726196, 0.8906314373016357, -0.9056452512741089, -0.3854551911354065, 0.17672301828861237, -0.02002924680709839, 0.0724973976612091, -0.04412434995174408, -0.7670468381163, -0.000810749283257417, -0.25063496641640237,-0.5906103716813298,-0.935791015625,-0.3055419921875,0.1882171630859375
20220112-1348,2022-01-12 13:48:12Z,u01, 64,40,movements,el-ex, rt, d,93870.331418, -1.743902782317555, 0.37196298300935177, 2.80686788981301, -0.27196621894836426, 0.507280170917511, 1.0281895399093628, -0.9176921248435974, -0.36344486474990845, 0.16046446561813354, 0.005155622959136963, -0.11378896236419678, -0.22580277919769287, -0.7616873708961853, 0.008036191941693, -0.24490721776588747,-0.5998234534164794,-0.91253662109375,-0.47723388671875,-0.065338134765625
20220112-1348,2022-01-12 13:48:12Z,u01, 65,40,movements,el-ex, rt, d,93870.35636100001, -1.726948239707955, 0.3510834934599868, 2.79210836853629, -0.5417253971099854, 0.4407215416431427, 0.8354641795158386, -0.9275757670402527, -0.3439154028892517, 0.14603158831596375, -0.17110276222229004, -0.11419916152954102, -0.011281371116638184, -0.7567553173586743, 0.01836250422863503, -0.2419588025218255,-0.6069926609501518,-1.071136474609375,-0.4951171875,0.09381103515625
20220112-1348,2022-01-12 13:48:12Z,u01, 66,40,movements,el-ex, rt, d,93870.38130400001, -1.7101877722009644, 0.3331348788671376, 2.7757534769924286, -0.43158072233200073, 0.47215551137924194, 0.7601682543754578, -0.9358557462692261, -0.32700714468955994, 0.13130177557468414, -0.26638418436050415, 0.0487021803855896, 0.09883105754852295, -0.7515614320385544, 0.02839550528686796, -0.24073157970937734,-0.6135122757403726,-1.202239990234375,-0.2783050537109375,0.230133056640625
20220112-1348,2022-01-12 13:48:12Z,u01, 67,40,movements,el-ex, rt, d,93870.406246, -1.696185976469664, 0.3141266039342972, 2.7719208321734223, 0.4432009756565094, 0.5810977220535278, 0.7248369455337524, -0.9435999393463135, -0.3089859187602997, 0.11894167214632034, -0.48181527853012085, -0.06958463788032532, -0.02314707636833191, -0.7471840307441006, 0.0344508561105909, -0.23538061446324263,-0.6205845953540716,-1.3822021484375,-0.3452301025390625,0.113250732421875
20220112-1348,2022-01-12 13:48:12Z,u01, 68,40,movements,el-ex, rt, d,93870.43118900001, -1.684395282259551, 0.298221692820002, 2.78474898760271, 0.4935479462146759, 0.5893823504447937, 0.41400161385536194, -0.9496994614601135, -0.293820858001709, 0.10835134983062744, -0.5727460980415344, -0.16673508286476135, 0.002610437572002411, -0.7436709489765997, 0.03360349975824975, -0.22593851895400957,-0.6283120413006766,-1.5224456787109375,-0.4605560302734375,0.1109619140625
20220112-1348,2022-01-12 13:48:12Z,u01, 69,40,movements,el-ex, rt, d,93870.456132, -1.6736740792061269, 0.2902123893533467, 2.7922580945497146, 0.1460036337375641, 0.4799668490886688, 0.14770248532295227, -0.953116774559021, -0.28615573048591614, 0.09840191900730133, -0.7212299704551697, -0.2958906888961792, 0.17056453227996826, -0.7403766660357989, 0.032300932467518834, -0.22091148078695508,-0.6340323434704563,-1.6498260498046875,-0.5667266845703125,0.2432861328125
20220112-1348,2022-01-12 13:48:12Z,u01, 70,40,movements,el-ex, rt, d,93870.481075, -1.6622675613169144, 0.2904061033386679, 2.794353525458805, 0.07856224477291107, 0.4715607762336731, -0.23742422461509705, -0.954122006893158, -0.2863413393497467, 0.08751894533634186, -0.7156471014022827, -0.3030140697956085, 0.14175939559936523, -0.7367816785245336, 0.030203170262807943, -0.22049139437137688,-0.6384543642786523,-1.669769287109375,-0.58935546875,0.229278564453125
20220112-1348,2022-01-12 13:48:12Z,u01, 71,40,movements,el-ex, rt, d,93870.506017, -1.6542459660351403, 0.29947742621653595, 2.800040094095477, 0.38638031482696533, 0.27240148186683655, -0.522334635257721, -0.9521657228469849, -0.2950209379196167, 0.07964284718036652, -0.5758188366889954, -0.1866074502468109, 0.14279961585998535, -0.7343282557213663, 0.024154424300265487, -0.22196342316463102,-0.641023230739556,-1.5313568115234375,-0.474395751953125,0.21502685546875
20220112-1348,2022-01-12 13:48:12Z,u01, 72,40,movements,el-ex, rt, d,93870.53096, -1.652926654753577, 0.31502626019028984, 2.8114404559158843, 0.2797684073448181, 0.14844277501106262, -0.7259780764579773, -0.9475832581520081, -0.30984145402908325, 0.07800078392028809, -0.6245297193527222, -0.18111005425453186, 0.15068256855010986, -0.7340223423621619, 0.014546220419893868, -0.22376077774919642,-0.6410387259212119,-1.572113037109375,-0.4909515380859375,0.2286834716796875
20220112-1348,2022-01-12 13:48:12Z,u01, 73,40,movements,el-ex, rt, d,93870.555903, -1.6520740917155146, 0.3338860557233704, 2.817187692024938, 0.05084729194641113, 0.03303008899092674, -0.8275883793830872, -0.9416570067405701, -0.3277169466018677, 0.07670475542545319, -0.48250681161880493, -0.16556915640830994, 0.0510416105389595, -0.7337009850009474, 0.005936624759642961, -0.22850879816210612,-0.6398682114289252,-1.4630126953125,-0.5053863525390625,0.1311798095703125
20220112-1348,2022-01-12 13:48:12Z,u01, 74,40,movements,el-ex, rt, d,93870.580845, -1.6542704601629354, 0.35514423629103514, 2.817491066074381, -0.1781107783317566, -0.1868085265159607, -0.842914879322052, -0.9343315362930298, -0.34772560000419617, 0.0781741663813591, -0.39567017555236816, -0.13823625445365906, 0.05862069129943848, -0.7342246201502071, -0.0011365413970294835, -0.23581235809770318,-0.6366359260084679,-1.3300018310546875,-0.4859619140625,0.1367950439453125
20220112-1348,2022-01-12 13:48:12Z,u01, 75,40,movements,el-ex, rt, d,93870.605788, -1.6600507257132606, 0.375111774273035, 2.816094001338589, 0.002423301339149475, -0.30148184299468994, -0.7787220478057861, -0.9267627596855164, -0.36637651920318604, 0.08293800801038742, -0.3875071406364441, -0.1248343288898468, 0.03714846819639206, -0.7358153104413624, -0.006695644178618926, -0.2432089260747549,-0.6319653868573979,-1.313262939453125,-0.5219879150390625,0.1164398193359375
20220112-1348,2022-01-12 13:48:12Z,u01, 76,40,movements,el-ex, rt, d,93870.63073100001, -1.6688895563708452, 0.3928887568926883, 2.8206738516999073, 0.3061264455318451, -0.26985520124435425, -0.6477930545806885, -0.9193659424781799, -0.38285866379737854, 0.0904739499092102, -0.35535335540771484, -0.06326252222061157, 0.043879516422748566, -0.7382818955063026, -0.013297259164860603, -0.24799544481783134,-0.6271054865098042,-1.27471923828125,-0.4461212158203125,0.1343536376953125
20220112-1348,2022-01-12 13:48:12Z,u01, 77,40,movements,el-ex, rt, d,93870.65567400001, -1.6812485502388284, 0.4068371474358037, 2.8347733698617423, 0.523716390132904, -0.28594502806663513, -0.5424182415008545, -0.91278076171875, -0.3957066237926483, 0.1012306660413742, -0.21795654296875, -0.04583698511123657, -0.03683863580226898, -0.7417184124261565, -0.021659367723162348, -0.24856975143025817,-0.6225735356991904,-1.158905029296875,-0.4340362548828125,0.065826416015625
20220112-1348,2022-01-12 13:48:12Z,u01, 78,40,movements,el-ex, rt, d,93870.68061600001, -1.6953235402484108, 0.4165440922098402, 2.8503673816711244, 0.47020423412323, -0.3400057554244995, -0.375611275434494, -0.9074111580848694, -0.4046024680137634, 0.11358511447906494, -0.15102988481521606, -0.0598139762878418, -0.027647733688354492, -0.7456237414635247, -0.028944659729824712, -0.24732415947347647,-0.6180923046085007,-1.058441162109375,-0.46441650390625,0.0859375
20220112-1348,2022-01-12 13:48:12Z,u01, 79,40,movements,el-ex, rt, d,93870.70555900001, -1.7086661856520262, 0.4226129046541693, 2.863224832859426, 0.3577033281326294, -0.29578790068626404, -0.2350865751504898, -0.9033661484718323, -0.4101448655128479, 0.12534214556217194, -0.16094958782196045, 0.003650754690170288, -0.020377159118652344, -0.7493381120078633, -0.0341095940588491, -0.24572414246881344,-0.6139613195774126,-1.0634307861328125,-0.4288482666015625,0.115264892578125
20220112-1348,2022-01-12 13:48:12Z,u01, 80,40,movements,el-ex, rt, d,93870.730502, -1.7182421110566015, 0.42500606585265266, 2.8710990814864816, 0.23200316727161407, -0.22823786735534668, -0.04191364720463753, -0.9011509418487549, -0.41232630610466003, 0.13384224474430084, -0.14782965183258057, 0.04413175582885742, -0.04113006591796875, -0.7520478195423617, -0.03667693595599693, -0.24433526518606424,-0.611047514647371,-1.048980712890625,-0.368194580078125,0.09271240234375
20220112-1348,2022-01-12 13:48:12Z,u01, 81,40,movements,el-ex, rt, d,93870.75544400001, -1.7249535508748914, 0.422374446936728, 2.8770119927213433, 0.24561525881290436, -0.10817696899175644, 0.2102901041507721, -0.9013015031814575, -0.4099273681640625, 0.14005333185195923, -0.06920313835144043, 0.030105650424957275, -0.056877851486206055, -0.7540826756169678, -0.037228816180287436, -0.2417121558322501,-0.6095477783354188,-0.994476318359375,-0.3541717529296875,0.078125
20220112-1348,2022-01-12 13:48:12Z,u01, 82,40,movements,el-ex, rt, d,93870.780387, -1.7294343507809162, 0.41407242358747276, 2.882212362728529, 0.2000569850206375, -0.1153743639588356, 0.33163684606552124, -0.9039941430091858, -0.40234091877937317, 0.14462308585643768, 0.003588557243347168, -0.06473049521446228, -0.06248524785041809, -0.7556578927437984, -0.03595398107984002, -0.23722210940986713,-0.6094373530810803,-0.9004058837890625,-0.467071533203125,0.0821380615234375
20220112-1348,2022-01-12 13:48:12Z,u01, 83,40,movements,el-ex, rt, d,93870.80533, -1.7314966786559953, 0.40482024114692566, 2.880728954128105, -0.10846999287605286, -0.06433787196874619, 0.47460031509399414, -0.9073298573493958, -0.3938535451889038, 0.14707647264003754, -0.055255353450775146, 0.08153674006462097, -0.00549045205116272, -0.7566405706385522, -0.03214474657103082, -0.23436944494935613,-0.6095346869954432,-0.9485931396484375,-0.3166961669921875,0.134857177734375
20220112-1348,2022-01-12 13:48:12Z,u01, 84,40,movements,el-ex, rt, d,93870.830273, -1.7293789367439032, 0.39062839648337333, 2.879206981599832, 0.14901100099086761, 0.1906021386384964, 0.6394956707954407, -0.9130671620368958, -0.3807695508003235, 0.1460227072238922, -0.029941082000732422, 0.09054744243621826, -0.04752732813358307, -0.7564861810541811, -0.02720320573448312, -0.2296713192857,-0.6117512674313172,-0.9430084228515625,-0.29022216796875,0.0984954833984375
20220112-1348,2022-01-12 13:48:12Z,u01, 85,40,movements,el-ex, rt, d,93870.855215, -1.724893611493233, 0.37235961074591767, 2.8781088876268335, 0.048689067363739014, 0.07387339323759079, 0.7681518793106079, -0.9204338788986206, -0.3638143539428711, 0.14296980202198029, 0.13250058889389038, 0.0016318261623382568, -0.031077280640602112, -0.7556647588671673, -0.02134655041100031, -0.22334238065791948,-0.6153317491052184,-0.778472900390625,-0.35003662109375,0.1152801513671875
20220112-1348,2022-01-12 13:48:12Z,u01, 86,40,movements,el-ex, rt, d,93870.880158, -1.7206436425011957, 0.3530046743140461, 2.8735280442406705, -0.09638836234807968, 0.22106310725212097, 0.9164804220199585, -0.9278229475021362, -0.34571877121925354, 0.14008183777332306, 0.02259540557861328, 0.04527324438095093, 0.03656899929046631, -0.7548850679104865, -0.013764062733644111, -0.21771009131493763,-0.6185154272500739,-0.9052276611328125,-0.300445556640625,0.1766510009765625
20220112-1348,2022-01-12 13:48:12Z,u01, 87,40,movements,el-ex, rt, d,93870.90510100001, -1.7107662370321588, 0.32861212690739905, 2.8684944790004843, -0.04163650423288345, 0.38590067625045776, 1.009756326675415, -0.9372345805168152, -0.3227297365665436, 0.1320481151342392, 0.10718703269958496, 0.05063503980636597, -0.003233671188354492, -0.7523295903034122, -0.004923778095422104, -0.21040129648644595,-0.6242653029684648,-0.8596954345703125,-0.2861328125,0.1371307373046875
20220112-1348,2022-01-12 13:48:12Z,u01, 88,40,movements,el-ex, rt, d,93870.930043, -1.699022894293154, 0.30411000270126837, 2.861735053430558, -0.21057581901550293, 0.39234185218811035, 1.0624700784683228, -0.9462805986404419, -0.29944413900375366, 0.12200773507356644, 0.17664265632629395, 0.10811424255371094, 0.011262297630310059, -0.7489884910463507, 0.004484133801615525, -0.20367369388693243,-0.6304863292238195,-0.7696380615234375,-0.1913299560546875,0.133270263671875
20220112-1348,2022-01-12 13:48:12Z,u01, 89,40,movements,el-ex, rt, d,93870.95498600001, -1.6868912079835108, 0.2771720480251713, 2.8585097034669573, 0.16221794486045837, 0.4847305715084076, 1.0461658239364624, -0.9553585052490234, -0.27363672852516174, 0.11141322553157806, 0.1601620316505432, 0.06004422903060913, 0.0030732154846191406, -0.7453363646757547, 0.01342816682400344, -0.19504907170675867,-0.637376783870405,-0.7916412353515625,-0.228851318359375,0.1083526611328125
20220112-1348,2022-01-12 13:48:12Z,u01, 90,40,movements,el-ex, rt, d,93870.97992900001, -1.6742611305461501, 0.2495311522592019, 2.860130738567417, 0.13990649580955505, 0.5901085734367371, 1.1259466409683228, -0.9638461470603943, -0.24694965779781342, 0.10008152574300766, 0.23792463541030884, 0.023973003029823303, -0.006392717361450195, -0.7413536992028262, 0.020867614063905554, -0.1847046854635332,-0.6448591558019146,-0.725921630859375,-0.2229766845703125,0.09368896484375
20220112-1348,2022-01-12 13:48:12Z,u01, 91,40,movements,el-ex, rt, d,93871.004872, -1.658600828021979, 0.22345215078914374, 2.854060647061474, -0.4870271682739258, 0.4810522198677063, 0.9934017062187195, -0.9713817238807678, -0.22159725427627563, 0.08551155775785446, 0.528571605682373, 0.08262021839618683, -0.10427998751401901, -0.7360891152807659, 0.030472811625450402, -0.17753478852942367,-0.6524765444600162,-0.4915771484375,-0.157562255859375,-0.0161590576171875
20220112-1348,2022-01-12 13:48:12Z,u01, 92,40,movements,el-ex, rt, d,93871.02981400001, -1.6468935630932773, 0.2040130118213686, 2.8326119637744043, -1.0096020698547363, 0.06135939806699753, 0.679466187953949, -0.9764271974563599, -0.20260073244571686, 0.07444716989994049, 0.6170066595077515, 0.12531505525112152, 0.08703648298978806, -0.7316400155486138, 0.0438916075397609, -0.17784752342552865,-0.6566174440602851,-0.3594207763671875,-0.0772857666015625,0.1614837646484375
20220112-1348,2022-01-12 13:48:12Z,u01, 93,40,movements,el-ex, rt, d,93871.054757, -1.6437460274982827, 0.19085462227322733, 2.8110811563225493, -0.393932044506073, 0.1060800701379776, 0.5832297205924988, -0.9792311191558838, -0.18969807028770447, 0.07156160473823547, 0.2723982334136963, 0.05676349997520447, 0.1775074005126953, -0.7298290746850922, 0.05594930482439986, -0.18032977894733987,-0.6570391093203868,-0.652496337890625,-0.1749267578125,0.2827606201171875
20220112-1348,2022-01-12 13:48:12Z,u01, 94,40,movements,el-ex, rt, d,93871.0797, -1.631935171104989, 0.1753148412058436, 2.811622448825453, 0.362469881772995, 0.6201707720756531, 0.6750986576080322, -0.9828317761421204, -0.17441816627979279, 0.060164183378219604, 0.4143199324607849, 0.25384020805358887, 0.03785812854766846, -0.7255907536255892, 0.06000124830439002, -0.17499868728270138,-0.6627920216277655,-0.568511962890625,0.0794219970703125,0.0980224609375
20220112-1348,2022-01-12 13:48:13Z,u01, 95,40,movements,el-ex, rt, d,93871.104642, -1.6232464923758907, 0.15970155106211265, 2.8184832460554454, 0.12520727515220642, 0.13963216543197632, 0.436389684677124, -0.9859170317649841, -0.15902356803417206, 0.05175898224115372, 0.6839304566383362, 0.05678969621658325, -0.05362069606781006, -0.7225097535129921, 0.062122039767223775, -0.16747492029751576,-0.6678866670299506,-0.294189453125,-0.052978515625,0.010833740234375
20220112-1348,2022-01-12 13:48:13Z,u01, 96,40,movements,el-ex, rt, d,93871.129585, -1.623445925224821, 0.15367233371126254, 2.8173072260767666, -0.13992458581924438, -0.1378786712884903, 0.07187709957361221, -0.9868463277816772, -0.15306821465492249, 0.05200512334704399, 0.6079400181770325, -0.09334595501422882, -0.029040805995464325, -0.7223746908218873, 0.06463256100762596, -0.16573589315603493,-0.6682283186307354,-0.37890625,-0.2464141845703125,0.0229644775390625
20220112-1348,2022-01-12 13:48:13Z,u01, 97,40,movements,el-ex, rt, d,93871.154528, -1.6286330720953457, 0.15629203514400355, 2.8100403017144844, -0.38844168186187744, -0.32360950112342834, -0.21277500689029694, -0.9861595034599304, -0.15565651655197144, 0.05709993839263916, 0.49568110704421997, -0.01878194510936737, 0.11891007423400879, -0.7239393564702996, 0.06679653856510112, -0.1689129978045646,-0.6655211487845683,-0.480255126953125,-0.1910552978515625,0.1563568115234375
20220112-1348,2022-01-12 13:48:13Z,u01, 98,40,movements,el-ex, rt, d,93871.17947100001, -1.636603886261783, 0.1646442591985646, 2.804978891741146, -0.009145338088274002, -0.4070724546909332, -0.4188586473464966, -0.9843412637710571, -0.1639014184474945, 0.06487076729536057, 0.49667054414749146, 0.07038034498691559, 0.08205591887235641, -0.726648601447377, 0.06646197766415399, -0.17327924248840587,-0.6614671287996744,-0.4876708984375,-0.0935211181640625,0.1469268798828125
20220112-1348,2022-01-12 13:48:13Z,u01, 99,40,movements,el-ex, rt, d,93871.204413, -1.6492445508716678, 0.17716487514509727, 2.8078452763595063, 0.06837637722492218, -0.5811004042625427, -0.6161290407180786, -0.9813200831413269, -0.17623953521251678, 0.07714112848043442, 0.48281538486480713, 0.14576774835586548, -0.023842327296733856, -0.731227241739501, 0.06226783995195839, -0.17637041869258066,-0.6559900880667033,-0.4828033447265625,-0.0369110107421875,0.0627593994140625
20220112-1348,2022-01-12 13:48:13Z,u01, 100,40,movements,el-ex, rt, d,93871.22935600001, -1.6669895891855842, 0.19430774451581934, 2.8111718928925704, 0.1392260193824768, -0.7150776982307434, -0.7723629474639893, -0.9766454100608826, -0.1930873543024063, 0.0942375510931015, 0.3634558320045471, 0.1340359002351761, -0.0842585638165474, -0.7374870113130603, 0.05684790140534604, -0.18087448758745422,-0.6482017433045434,-0.613189697265625,-0.059051513671875,0.009979248046875
20220112-1348,2022-01-12 13:48:13Z,u01, 101,40,movements,el-ex, rt, d,93871.25429900001, -1.686309810344274, 0.21458217039736505, 2.8195712814210014, 0.3115692734718323, -0.7051260471343994, -0.9122681617736816, -0.9705538153648376, -0.21293920278549194, 0.11261337995529175, 0.2778812646865845, 0.08104228973388672, -0.05133427679538727, -0.7442665010871815, 0.048724379724229355, -0.1849457773201084,-0.6399126420478888,-0.6925048828125,-0.119842529296875,0.0456390380859375
20220112-1348,2022-01-12 13:48:13Z,u01, 102,40,movements,el-ex, rt, d,93871.27924100001, -1.7064186045143068, 0.23827057332399135, 2.8260910365100496, -0.12508435547351837, -0.8776469826698303, -1.0033984184265137, -0.9628243446350098, -0.23602241277694702, 0.13138698041439056, 0.3142191171646118, 0.0791315883398056, -0.01596963405609131, -0.7510437466153579, 0.04033333718197854, -0.1910019143484794,-0.6307334861891641,-0.6486053466796875,-0.156890869140625,0.11541748046875
20220112-1348,2022-01-12 13:48:13Z,u01, 103,40,movements,el-ex, rt, d,93871.30418400001, -1.731465837925127, 0.26315224192049425, 2.824672802003973, -0.07215327024459839, -1.02740478515625, -0.9669700860977173, -0.9531383514404297, -0.2601255774497986, 0.15447178483009338, 0.1322919726371765, 0.03463125228881836, -0.010566368699073792, -0.7589457609351012, 0.03517418983727452, -0.20004565545983993,-0.6186644243833455,-0.773284912109375,-0.22161865234375,0.15032958984375
20220112-1348,2022-01-12 13:48:13Z,u01, 104,40,movements,el-ex, rt, d,93871.329127, -1.7552012119449802, 0.2863104282607539, 2.8329273886646473, 0.35866492986679077, -0.7099435925483704, -0.970104455947876, -0.9430281519889832, -0.2824147641658783, 0.17589734494686127, 0.03731215000152588, 0.12451684474945068, -0.08565698564052582, -0.7663042400357526, 0.02695332419609045, -0.20565858665768388,-0.608075582657474,-0.9057159423828125,-0.15789794921875,0.090240478515625
20220112-1348,2022-01-12 13:48:13Z,u01, 105,40,movements,el-ex, rt, d,93871.35407, -1.7772344619283817, 0.3080929508447762, 2.84923776255791, 0.39567995071411133, -0.7364401817321777, -0.9469173550605774, -0.9326803684234619, -0.30324193835258484, 0.1953233927488327, 0.10338062047958374, 0.16069439053535461, -0.10395398736000061, -0.7729199940985068, 0.016011816138571666, -0.20857590819977717,-0.5990277246937324,-0.8309478759765625,-0.1222686767578125,0.070159912109375
20220112-1348,2022-01-12 13:48:13Z,u01, 106,40,movements,el-ex, rt, d,93871.379012, -1.8001860346542027, 0.32768869003576495, 2.8598139322286538, 0.022075532004237175, -0.7477073073387146, -0.7424170970916748, -0.921987771987915, -0.3218555748462677, 0.21528387069702148, -0.020211756229400635, 0.06610307097434998, 0.00410674512386322, -0.7794712351144556, 0.008156732776929188, -0.21262321485469993,-0.5891937589092359,-0.94219970703125,-0.2557525634765625,0.219390869140625
20220112-1348,2022-01-12 13:48:13Z,u01, 107,40,movements,el-ex, rt, d,93871.403955, -1.815093701083761, 0.3433418868323113, 2.8591492036260897, -0.27283376455307007, -0.4774428904056549, -0.4862444996833801, -0.9136753082275391, -0.3366357982158661, 0.2277575582265854, -0.10384172201156616, -0.13554736971855164, 0.051630616188049316, -0.7834872177277471, 0.005153199798333813, -0.21865733993148323,-0.5816442770975218,-1.0303497314453125,-0.43701171875,0.2975006103515625
20220112-1348,2022-01-12 13:48:13Z,u01, 108,40,movements,el-ex, rt, d,93871.42889800001, -1.8256616356520379, 0.35644887784537027, 2.8572778014382476, -0.12552617490291595, -0.4766896963119507, -0.5381786823272705, -0.9068695902824402, -0.34894853830337524, 0.2362675815820694, -0.015234291553497314, -0.11229413747787476, -0.04844734072685242, -0.7862090877847762, 0.003010081522536928, -0.22412321187077444,-0.5758775536012937,-0.9221038818359375,-0.46124267578125,0.1878204345703125
20220112-1348,2022-01-12 13:48:13Z,u01, 109,40,movements,el-ex, rt, d,93871.45384, -1.8383837897368676, 0.3706568208044535, 2.8607731419639055, 0.040644124150276184, -0.40040135383605957, -0.6039756536483765, -0.8989178538322449, -0.36222773790359497, 0.24644960463047028, -0.07639330625534058, 0.16445866227149963, 0.03682957589626312, -0.7894448406641289, -0.001283254598063971, -0.22849320775875176,-0.5697068740317146,-0.94708251953125,-0.2312164306640625,0.260345458984375
20220112-1348,2022-01-12 13:48:13Z,u01, 110,40,movements,el-ex, rt, d,93871.478783, -1.8462390994640587, 0.3824228520463234, 2.8686592010738106, 0.3909883499145508, 0.024783611297607422, -0.42805829644203186, -0.8927909731864929, -0.3731693923473358, 0.2523265779018402, -0.1434180736541748, 0.10733085870742798, 0.01869988441467285, -0.7912731148468382, -0.007081135021947127, -0.23073609026202843,-0.5662133126000063,-1.0362091064453125,-0.265838623046875,0.271026611328125
20220112-1348,2022-01-12 13:48:13Z,u01, 111,40,movements,el-ex, rt, d,93871.50372587501, -1.8496457217227271, 0.38752274113196267, 2.883995941272717, 0.48862379789352417, 0.0828324630856514, -0.29413196444511414, -0.8900848627090454, -0.3778960108757019, 0.25483930110931396, -0.006094157695770264, -0.10499879717826843, -0.024706512689590454, -0.7919690364125213, -0.014307235121863549, -0.22835377082329789,-0.5660695412534372,-0.9178619384765625,-0.453521728515625,0.217498779296875
20220112-1348,2022-01-12 13:48:13Z,u01, 112,40,movements,el-ex, rt, d,93871.528668875, -1.8521536471304616, 0.3925020402846122, 2.892498469984677, -0.10860931128263474, 0.00429251603782177, -0.26901692152023315, -0.8876243829727173, -0.38250139355659485, 0.25654515624046326, 0.0013176798820495605, -0.10634440183639526, 0.017487287521362305, -0.7924112287525124, -0.01889500140076439, -0.2278682351841268,-0.5655116261357939,-0.8863067626953125,-0.4888458251953125,0.2740325927734375
20220112-1348,2022-01-12 13:48:13Z,u01, 113,40,movements,el-ex, rt, d,93871.55361087501, -1.8481368497405437, 0.40033807731335525, 2.8840566125484766, -0.4758731424808502, 0.07253721356391907, -0.1594814956188202, -0.8857376575469971, -0.38972970843315125, 0.2521492540836334, -0.02765333652496338, 0.06105542182922363, 0.04023945331573486, -0.791035111472644, -0.01838712961279304, -0.2332019977762034,-0.5652805440314006,-0.9048309326171875,-0.3506317138671875,0.2981109619140625
20220112-1348,2022-01-12 13:48:13Z,u01, 114,40,movements,el-ex, rt, d,93871.578553875, -1.8413257061354344, 0.40416133334508186, 2.8788456554330484, 0.13872362673282623, 0.3423154950141907, -0.0019679651595652103, -0.8859922885894775, -0.3932478129863739, 0.2457105964422226, -0.06432503461837769, 0.07844379544258118, 0.005418300628662109, -0.7889998791172435, -0.018288966119905686, -0.2360649314881051,-0.5669373656088221,-0.9503173828125,-0.3148040771484375,0.251129150390625
20220112-1348,2022-01-12 13:48:13Z,u01, 115,40,movements,el-ex, rt, d,93871.603496875, -1.8340838146540048, 0.39994338052259043, 2.8901048327198136, 0.635154128074646, 0.5439471006393433, 0.029076702892780304, -0.8893420696258545, -0.38936617970466614, 0.2397175133228302, -0.014573335647583008, -0.12024685740470886, -0.09134122729301453, -0.7869956476369958, -0.022284662689009374, -0.23119041797785073,-0.5715699313011082,-0.9158782958984375,-0.485321044921875,0.1527862548828125
20220112-1348,2022-01-12 13:48:13Z,u01, 116,40,movements,el-ex, rt, d,93871.628438875, -1.8249980726309025, 0.39749658983240965, 2.8999325150374906, 0.03295125067234039, 0.4781806766986847, 0.019924551248550415, -0.892402708530426, -0.3871113359928131, 0.231866255402565, 0.0037614107131958008, -0.1040690541267395, -0.04125368595123291, -0.7843686583377191, -0.02643741262063562, -0.22733407552528834,-0.5765292507026517,-0.888641357421875,-0.491180419921875,0.19061279296875
20220112-1348,2022-01-12 13:48:13Z,u01, 117,40,movements,el-ex, rt, d,93871.653381875, -1.8106298318234662, 0.3968990923972743, 2.8939963450513386, -0.3414921462535858, 0.5331674218177795, 0.15346044301986694, -0.8958665132522583, -0.3865603506565094, 0.21907541155815125, -0.07320380210876465, 0.045282334089279175, 0.023035630583763123, -0.7803101540808023, -0.025568898635622464, -0.22864102099408418,-0.5815371514273339,-0.957611083984375,-0.3560638427734375,0.2400360107421875
20220112-1348,2022-01-12 13:48:13Z,u01, 118,40,movements,el-ex, rt, d,93871.678324875, -1.7916524495508555, 0.39263013813706443, 2.886761417559283, -0.06193944066762924, 0.7460718154907227, 0.29100319743156433, -0.9014644622802734, -0.3826197385787964, 0.2023954838514328, -0.06325721740722656, 0.06889897584915161, -0.0014068782329559326, -0.7750103148373602, -0.02359557057499216, -0.22892939819154157,-0.5885521158718017,-0.9647216796875,-0.313720703125,0.20098876953125
20220112-1348,2022-01-12 13:48:13Z,u01, 119,40,movements,el-ex, rt, d,93871.703266875, -1.7728922949277481, 0.38438999253463113, 2.8874732815550614, 0.19555214047431946, 0.7559826970100403, 0.2885304391384125, -0.9081604480743408, -0.3749937117099762, 0.18607577681541443, -0.019497573375701904, 0.042596280574798584, -0.08271300792694092, -0.7697338506200874, -0.02340267220552962, -0.22544257284910657,-0.5967727384775005,-0.9164886474609375,-0.33868408203125,0.10498046875
20220112-1348,2022-01-12 13:48:13Z,u01, 120,40,movements,el-ex, rt, d,93871.728209875, -1.7548485963017342, 0.3770637861301119, 2.8893415481102807, 0.005007831379771233, 0.7707369923591614, 0.29557862877845764, -0.9140462279319763, -0.3681921064853668, 0.1701580286026001, -0.10124295949935913, 0.0400519073009491, -0.0228041410446167, -0.7645341606603557, -0.02380185477828846, -0.2219695541280417,-0.6046903315739305,-1.015289306640625,-0.3281402587890625,0.1473541259765625
20220112-1348,2022-01-12 13:48:13Z,u01, 121,40,movements,el-ex, rt, d,93871.75315287501, -1.73262291349444, 0.3689468183865957, 2.884178401958375, -0.24664387106895447, 0.8326650261878967, 0.4133091866970062, -0.9205213785171509, -0.36063331365585327, 0.1502789556980133, -0.18894505500793457, -0.09301042556762695, 0.03468787670135498, -0.7580696842055449, -0.02167563565167871, -0.22032247043319658,-0.6134479937762358,-1.0992279052734375,-0.4270477294921875,0.1881561279296875
20220112-1348,2022-01-12 13:48:13Z,u01, 122,40,movements,el-ex, rt, d,93871.77809587501, -1.710324153131972, 0.35820890554643187, 2.8783264443079357, 0.035639677196741104, 0.7932860851287842, 0.4666559100151062, -0.9274247288703918, -0.3505973815917969, 0.13024787604808807, -0.24155092239379883, -0.17149725556373596, -0.014037147164344788, -0.7515219924873122, -0.018401980498444936, -0.21801872173173603,-0.62236945641291,-1.168975830078125,-0.5220947265625,0.1162109375
20220112-1348,2022-01-12 13:48:13Z,u01, 123,40,movements,el-ex, rt, d,93871.80303787501, -1.6926438568970974, 0.3480537632725428, 2.881884326754109, 0.21420559287071228, 0.7063368558883667, 0.29953595995903015, -0.9330685138702393, -0.34106892347335815, 0.11425811052322388, -0.37111538648605347, -0.15709999203681946, -0.014145374298095703, -0.7461868012750109, -0.01828420123885574, -0.21309309801889909,-0.6304460021132862,-1.2795257568359375,-0.503570556640625,0.0784149169921875
20220112-1348,2022-01-12 13:48:13Z,u01, 124,40,movements,el-ex, rt, d,93871.82798087501, -1.6764767424916538, 0.3408135848114249, 2.881501788145902, -0.18520091474056244, 0.602906346321106, 0.28021419048309326, -0.9372246265411377, -0.3342539966106415, 0.09941667318344116, -0.4478916525840759, -0.18144720792770386, 0.08315454423427582, -0.7412180509708373, -0.017439530566224326, -0.21048465138360423,-0.6371715787301044,-1.3851165771484375,-0.5157012939453125,0.1825714111328125
20220112-1348,2022-01-12 13:48:13Z,u01, 125,40,movements,el-ex, rt, d,93871.852923875, -1.6591086145413656, 0.33533849684093275, 2.8725983810113958, -0.30968227982521057, 0.5306656360626221, 0.23586823046207428, -0.9406189322471619, -0.32908883690834045, 0.08328483998775482, -0.4200987219810486, -0.16727954149246216, 0.08427178859710693, -0.7358277423449561, -0.01414043566974596, -0.21125739261187854,-0.6432167595552943,-1.3821868896484375,-0.4957275390625,0.1973114013671875
20220112-1348,2022-01-12 13:48:13Z,u01, 126,40,movements,el-ex, rt, d,93871.87786587501, -1.648921176528914, 0.3314378717818274, 2.8726381230984335, 0.3036017119884491, 0.25932034850120544, 0.005706067197024822, -0.9426912069320679, -0.32540297508239746, 0.073797807097435, -0.35366493463516235, -0.17966291308403015, -0.03966414928436279, -0.7326019080391698, -0.013905005829638772, -0.20979994183017567,-0.6473677673668716,-1.296356201171875,-0.50506591796875,0.0341339111328125
20220112-1348,2022-01-12 13:48:13Z,u01, 127,40,movements,el-ex, rt, d,93871.902808875, -1.6487645841054013, 0.33374553390779993, 2.881475042481832, 0.2555069923400879, -0.007577458396553993, -0.27391818165779114, -0.9419515132904053, -0.3275841772556305, 0.07359150052070618, -0.4745370149612427, -0.15724855661392212, 0.07493734359741211, -0.7324437333507137, -0.017942353394244076, -0.20774768900085672,-0.6481088188366173,-1.383880615234375,-0.480438232421875,0.1091461181640625
20220112-1348,2022-01-12 13:48:13Z,u01, 128,40,movements,el-ex, rt, d,93871.927751875, -1.6531146650805997, 0.3430523564347898, 2.883014899694085, -0.16945300996303558, -0.2481667697429657, -0.4232151210308075, -0.9385432600975037, -0.33636316657066345, 0.07743430882692337, -0.5946139693260193, -0.11760100722312927, 0.12903213500976562, -0.7336669836490732, -0.02121110580932878, -0.2105659721761302,-0.6457125415532999,-1.5331573486328125,-0.4539642333984375,0.2064666748046875
20220112-1348,2022-01-12 13:48:13Z,u01, 129,40,movements,el-ex, rt, d,93871.952693875, -1.6594068099442427, 0.3538218520646197, 2.8814111382171577, 0.04416748508810997, -0.3162921071052551, -0.4649519920349121, -0.9343750476837158, -0.346485435962677, 0.08301280438899994, -0.5264861583709717, -0.1222493052482605, -0.020329825580120087, -0.735492722489193, -0.023597841136346498, -0.21494508905917287,-0.642099849989574,-1.4960479736328125,-0.4666748046875,0.0812530517578125
20220112-1348,2022-01-12 13:48:13Z,u01, 130,40,movements,el-ex, rt, d,93871.977636875, -1.6707997855365087, 0.36674599897510374, 2.8850490494886114, 0.08787987381219864, -0.5211945176124573, -0.6171610951423645, -0.9288351535797119, -0.35857972502708435, 0.09319761395454407, -0.4083382487297058, -0.18585380911827087, -0.0006380081176757812, -0.7387906274734785, -0.02805737266964546, -0.2184917581852176,-0.6369164151922432,-1.3371734619140625,-0.54443359375,0.092559814453125
20220112-1348,2022-01-12 13:48:13Z,u01, 131,40,movements,el-ex, rt, d,93872.002579875, -1.6880906237596636, 0.38450355354831084, 2.8890058638818377, 0.04133830964565277, -0.6664884090423584, -0.7771130204200745, -0.9206152558326721, -0.37509897351264954, 0.10848087072372437, -0.43546372652053833, -0.12775439023971558, 0.05489480495452881, -0.7437171102676505, -0.03354540524874863, -0.22380640736202634,-0.6290231895368604,-1.3450469970703125,-0.5246429443359375,0.149688720703125
20220112-1348,2022-01-12 13:48:13Z,u01, 132,40,movements,el-ex, rt, d,93872.02752287501, -1.7046335883129666, 0.402527176119526, 2.8949561894950255, 0.18303784728050232, -0.45983225107192993, -0.7144449353218079, -0.911845862865448, -0.39174479246139526, 0.12277287989854813, -0.4033549427986145, -0.07784447073936462, 0.04026712477207184, -0.7481963830583597, -0.039857423139165335, -0.22868222449317166,-0.6215448625835281,-1.3152008056640625,-0.4695892333984375,0.1630401611328125
20220112-1348,2022-01-12 13:48:13Z,u01, 133,40,movements,el-ex, rt, d,93872.052464875, -1.71894677391161, 0.4176260073181313, 2.9033264696315966, 0.22303171455860138, -0.4808366894721985, -0.5765087604522705, -0.904041588306427, -0.4055916368961334, 0.13492272794246674, -0.20299875736236572, -0.1278708577156067, -0.02133655548095703, -0.7518761776978736, -0.046298803215723244, -0.23182075846370814,-0.6154654555805148,-1.1267547607421875,-0.534942626953125,0.122406005859375
20220112-1348,2022-01-12 13:48:13Z,u01, 134,40,movements,el-ex, rt, d,93872.07740787501, -1.7341827639226535, 0.4295078311528768, 2.909405220955119, 0.09331575781106949, -0.5394012331962585, -0.40812885761260986, -0.8970627188682556, -0.41642338037490845, 0.14788617193698883, -0.2076280117034912, -0.08458372950553894, -0.0137157142162323, -0.7558936770033076, -0.05067381390217203, -0.23461752886320236,-0.609107243125031,-1.1046905517578125,-0.501007080078125,0.1341705322265625
20220112-1348,2022-01-12 13:48:14Z,u01, 135,40,movements,el-ex, rt, d,93872.10235087501, -1.7489201279184097, 0.4362493805384893, 2.9130020946687183, 0.12425156682729721, -0.45288580656051636, -0.1371530145406723, -0.892002284526825, -0.42254310846328735, 0.1605888307094574, -0.27354007959365845, -0.1257660984992981, 0.022745341062545776, -0.7599612382987435, -0.05247220932670295, -0.23635506186745986,-0.6031928879627788,-1.16357421875,-0.5138702392578125,0.1737518310546875
20220112-1348,2022-01-12 13:48:14Z,u01, 136,40,movements,el-ex, rt, d,93872.12729287501, -1.7592907351954732, 0.43690274232573445, 2.917051273853957, 0.012606929987668991, -0.24356774985790253, -0.014805799350142479, -0.8900177478790283, -0.4231351912021637, 0.16977889835834503, -0.20638728141784668, -0.13683179020881653, -0.031854987144470215, -0.7629420491076656, -0.052998860870319825, -0.2356493984996521,-0.5996497521608779,-1.096405029296875,-0.559967041015625,0.1379241943359375
20220112-1348,2022-01-12 13:48:14Z,u01, 137,40,movements,el-ex, rt, d,93872.15223587501, -1.762987454384525, 0.4369725893302271, 2.9143455600178148, -0.078104168176651, -0.18488359451293945, 0.06157825514674187, -0.8893551230430603, -0.4231984615325928, 0.1730622500181198, -0.04799234867095947, -0.0005686283111572266, -0.06290923058986664, -0.7641161869752471, -0.05155170746784453, -0.23658166548389348,-0.5979113520356398,-0.94903564453125,-0.4423370361328125,0.1026153564453125
20220112-1348,2022-01-12 13:48:14Z,u01, 138,40,movements,el-ex, rt, d,93872.177178875, -1.766027652844221, 0.4338732363840973, 2.913086164098195, -0.013402467593550682, -0.06343639642000198, 0.26883596181869507, -0.8901070952415466, -0.4203883111476898, 0.1760188192129135, -0.07845962047576904, 0.06142538785934448, 0.02127717435359955, -0.7652036895116892, -0.049726518263737654, -0.2358982271424353,-0.5969442508739335,-0.96856689453125,-0.3589630126953125,0.197296142578125
20220112-1348,2022-01-12 13:48:14Z,u01, 139,40,movements,el-ex, rt, d,93872.202121875, -1.7632947711462639, 0.4235864214302162, 2.9107278157032437, -0.030773568898439407, 0.17733979225158691, 0.5475504398345947, -0.8947822451591492, -0.4110325574874878, 0.17440375685691833, -0.06836766004562378, -0.07921704649925232, -0.008800387382507324, -0.7649165279844826, -0.0458757036345695, -0.23276221776696437,-0.5988486946136864,-0.9793701171875,-0.4920501708984375,0.1891632080078125
20220112-1348,2022-01-12 13:48:14Z,u01, 140,40,movements,el-ex, rt, d,93872.227063875, -1.7549848751741537, 0.4095130489092321, 2.904776675612377, -0.11094047874212265, 0.2830296754837036, 0.647276759147644, -0.9017986059188843, -0.39816269278526306, 0.16800516843795776, 0.019733786582946777, 0.040237247943878174, -0.0666106790304184, -0.7631492595348903, -0.04007234921581318, -0.2292116318606602,-0.6028759785822922,-0.8820648193359375,-0.3579254150390625,0.1013946533203125
20220112-1348,2022-01-12 13:48:14Z,u01, 141,40,movements,el-ex, rt, d,93872.252006875, -1.7456845147671287, 0.3927755167688752, 2.900614202008975, -0.027237221598625183, 0.3148796856403351, 0.7402071356773376, -0.909757673740387, -0.38275405764579773, 0.16074809432029724, 0.07684159278869629, 0.04858666658401489, 0.0022613853216171265, -0.7610561667442542, -0.03416957239355142, -0.22417551094130078,-0.6077591123442977,-0.827972412109375,-0.2942657470703125,0.1197357177734375
20220112-1348,2022-01-12 13:48:14Z,u01, 142,40,movements,el-ex, rt, d,93872.276949875, -1.7351010365802368, 0.3717928825046275, 2.894994818193335, -0.15196141600608826, 0.4062325656414032, 0.9382699728012085, -0.9191300272941589, -0.36328640580177307, 0.15239118039608002, 0.01219332218170166, -0.08991488814353943, 0.07229436933994293, -0.7586152720085197, -0.026428434654755348, -0.21807130146374942,-0.6133916808163626,-0.9069366455078125,-0.4532012939453125,0.2246856689453125
20220112-1348,2022-01-12 13:48:14Z,u01, 143,40,movements,el-ex, rt, d,93872.30189287501, -1.7184744579372118, 0.34738760333636576, 2.883292657706969, -0.31528371572494507, 0.5746277570724487, 1.1545155048370361, -0.9300307035446167, -0.34044262766838074, 0.1383524388074875, 0.09282684326171875, 0.17807388305664062, 0.002394437789916992, -0.7542713002684316, -0.0158436541932747, -0.2126327580498727,-0.6209758180007676,-0.868072509765625,-0.208770751953125,0.1802520751953125
20220112-1348,2022-01-12 13:48:14Z,u01, 144,40,movements,el-ex, rt, d,93872.326834875, -1.6999176396559443, 0.3190235449643085, 2.8703709719229242, -0.3056534230709076, 0.502546489238739, 1.2456135749816895, -0.9416375756263733, -0.3136395215988159, 0.12226571887731552, 0.20828497409820557, 0.1939191222190857, 0.04019439220428467, -0.7490793920258593, -0.003594919464957297, -0.20632884875654506,-0.6295200729234471,-0.7333526611328125,-0.119720458984375,0.1624603271484375
20220112-1348,2022-01-12 13:48:14Z,u01, 145,40,movements,el-ex, rt, d,93872.35177787501, -1.6855369361424914, 0.28843603459312467, 2.867249275720551, 0.2314206063747406, 0.7281365990638733, 1.1740864515304565, -0.9523859620094299, -0.28445321321487427, 0.10975944995880127, 0.05262106657028198, -0.04652512073516846, 0.02221357822418213, -0.7448759812719405, 0.006284616030676621, -0.19631979603671273,-0.6376352721794657,-0.88397216796875,-0.3704681396484375,0.1024627685546875
20220112-1348,2022-01-12 13:48:14Z,u01, 146,40,movements,el-ex, rt, d,93872.376720875, -1.6653242483858615, 0.25903149721478386, 2.8668721191399267, -0.019152598455548286, 0.807494580745697, 1.21845543384552, -0.9623226523399353, -0.2561444938182831, 0.09123827517032623, 0.18803101778030396, 0.07569414377212524, 0.009500004351139069, -0.7385209455706437, 0.014351024437623427, -0.18600738618345763,-0.6479057105961368,-0.7742919921875,-0.180450439453125,0.100738525390625
20220112-1348,2022-01-12 13:48:14Z,u01, 147,40,movements,el-ex, rt, d,93872.401663875, -1.645726177394394, 0.22862010078590225, 2.8605868300988315, -0.18055583536624908, 0.6893752217292786, 1.2472846508026123, -0.9712471961975098, -0.22663374245166779, 0.07291191071271896, 0.36136865615844727, 0.15188093483448029, -0.00378977507352829, -0.7319985094945397, 0.025182094808805816, -0.17741773618461404,-0.6573180611375261,-0.6248321533203125,-0.0806732177734375,0.0854949951171875
20220112-1348,2022-01-12 13:48:14Z,u01, 148,40,movements,el-ex, rt, d,93872.426605875, -1.6273190299958822, 0.1992770275754014, 2.8575745194372852, 0.05918654426932335, 0.6818647384643555, 1.0334473848342896, -0.9786444306373596, -0.1979607194662094, 0.05537461116909981, 0.45027852058410645, 0.1348351538181305, -0.04731810465455055, -0.7255906217993714, 0.03472110436545703, -0.16829858651595672,-0.6663243450369642,-0.5283660888671875,-0.0631256103515625,0.008056640625
20220112-1348,2022-01-12 13:48:14Z,u01, 149,40,movements,el-ex, rt, d,93872.451548875, -1.612942687173404, 0.17808336957485982, 2.857191880948697, 0.08219898492097855, 0.5052387118339539, 0.6900864839553833, -0.9833110570907593, -0.17714357376098633, 0.041467536240816116, 0.4797404408454895, -0.051524609327316284, -0.030344005674123764, -0.7204544381181724, 0.04097769048697397, -0.1612318081321675,-0.6732536877799424,-0.498382568359375,-0.190277099609375,0.01904296875
20220112-1348,2022-01-12 13:48:14Z,u01, 150,40,movements,el-ex, rt, d,93872.476491875, -1.600266211179579, 0.16423045333543135, 2.862161663479651, 0.31255975365638733, 0.5755770802497864, 0.42597439885139465, -0.9861160516738892, -0.16349318623542786, 0.029069140553474426, 0.5155197978019714, -0.08482831716537476, -0.03854501247406006, -0.7160209559281818, 0.04299489716495772, -0.15495800927904513,-0.6793035946383598,-0.4705963134765625,-0.248321533203125,-0.0094757080078125
20220112-1348,2022-01-12 13:48:14Z,u01, 151,40,movements,el-ex, rt, d,93872.50143466667, -1.5892715246653395, 0.15558703306909213, 2.8706660952522145, 0.318789541721344, 0.3393165171146393, 0.2932721972465515, -0.9877519607543945, -0.15496006608009338, 0.01825099065899849, 0.7235462069511414, 0.09433694183826447, -0.01460433192551136, -0.7122850471882971, 0.04213676042960679, -0.1492720457415878,-0.6845379616630538,-0.2915191650390625,-0.0864410400390625,0.007415771484375
20220112-1348,2022-01-12 13:48:14Z,u01, 152,40,movements,el-ex, rt, d,93872.52637666668, -1.588327783161485, 0.14886245940882806, 2.874598365609576, -0.027715492993593216, -0.22008885443210602, 0.17836998403072357, -0.988788366317749, -0.1483132690191269, 0.01733667589724064, 0.7545812726020813, 0.15272308886051178, 0.01958942413330078, -0.7119112709151802, 0.04301953321030366, -0.14559889949400195,-0.6856620931190759,-0.2342071533203125,0.0044097900390625,0.03692626953125
20220112-1348,2022-01-12 13:48:14Z,u01, 153,40,movements,el-ex, rt, d,93872.55131966667, -1.596587655575426, 0.1477708459853718, 2.8680294002200046, -0.46155911684036255, -0.48644283413887024, -0.07039995491504669, -0.9887728095054626, -0.14723363518714905, 0.025507420301437378, 0.6285738945007324, 0.22740332782268524, 0.13788354396820068, -0.7145666978628359, 0.04634808397053988, -0.14727926775473868,-0.6823160164921485,-0.34857177734375,0.0764923095703125,0.1648406982421875
20220112-1348,2022-01-12 13:48:14Z,u01, 154,40,movements,el-ex, rt, d,93872.57626266667, -1.6098943178341785, 0.15398628147238866, 2.8580372061390524, -0.24813024699687958, -0.6662889122962952, -0.4544510841369629, -0.9874122738838196, -0.1533784568309784, 0.03862551972270012, 0.5691841840744019, 0.14854145050048828, 0.13599586486816406, -0.7189814844727057, 0.048768693383427375, -0.1525391716714754,-0.6763275890184113,-0.4182281494140625,-0.0048370361328125,0.17462158203125
20220112-1348,2022-01-12 13:48:14Z,u01, 155,40,movements,el-ex, rt, d,93872.60120566667, -1.627897361876191, 0.17169397229829586, 2.857449668786701, 0.1391993910074234, -0.7892200946807861, -0.9470993280410767, -0.9836909770965576, -0.1708516627550125, 0.056230898946523666, 0.47804516553878784, 0.001326531171798706, 0.04305792599916458, -0.7253652080254837, 0.044280523326383214, -0.15857157717604983,-0.6683858597465511,-0.491912841796875,-0.1680145263671875,0.1099700927734375
20220112-1348,2022-01-12 13:48:14Z,u01, 156,40,movements,el-ex, rt, d,93872.62614766667, -1.6484399808579808, 0.19804705914815943, 2.8639248184645054, 0.22140662372112274, -0.7638554573059082, -1.1159038543701172, -0.9774986505508423, -0.19675494730472565, 0.07604945451021194, 0.4387262463569641, 0.12929587066173553, 0.012893788516521454, -0.7326857424822936, 0.03458798710837935, -0.1653913312842154,-0.6592577863390565,-0.5387725830078125,-0.0674591064453125,0.0889434814453125
20220112-1348,2022-01-12 13:48:14Z,u01, 157,40,movements,el-ex, rt, d,93872.65109066667, -1.6698288598346758, 0.2237800096026542, 2.873887082374649, 0.406954824924469, -0.7674340605735779, -1.0402661561965942, -0.9702878594398499, -0.22191695868968964, 0.09640543162822723, 0.3031280040740967, -0.07608714699745178, 0.02329956740140915, -0.7400172666714624, 0.024024174651958163, -0.1710432462801979,-0.6500317846217506,-0.6275787353515625,-0.2378997802734375,0.1375579833984375
20220112-1348,2022-01-12 13:48:14Z,u01, 158,40,movements,el-ex, rt, d,93872.67603366668, -1.6893620596482553, 0.2492463552110558, 2.889537424903442, 0.3688286542892456, -0.5316262245178223, -1.0886904001235962, -0.9622946977615356, -0.24667367339134216, 0.11463284492492676, 0.2358391284942627, -0.08489978313446045, -0.06443166732788086, -0.7464495007735298, 0.011382675239590662, -0.1750198994509936,-0.6419123610173154,-0.7264556884765625,-0.331573486328125,0.050201416015625
20220112-1348,2022-01-12 13:48:14Z,u01, 159,40,movements,el-ex, rt, d,93872.70097666667, -1.7057860219484984, 0.27416017556024863, 2.8921792404207105, -0.4392869472503662, -0.7770400047302246, -0.9533751606941223, -0.9538952708244324, -0.2707385718822479, 0.1295539140701294, 0.3614118695259094, 0.3154926300048828, 0.14251017570495605, -0.751507750564407, 0.003613291128392093, -0.18317747878029245,-0.6337735896055587,-0.57666015625,0.007049560546875,0.2399749755859375
20220112-1348,2022-01-12 13:48:14Z,u01, 160,40,movements,el-ex, rt, d,93872.72591966667, -1.7202760301979225, 0.29887445038353644, 2.8791830773934253, -0.5413408875465393, -0.5462681651115417, -0.8527552485466003, -0.94501131772995, -0.294444739818573, 0.1423216164112091, 0.17387813329696655, 0.22077536582946777, 0.17576287686824799, -0.7557497464044711, 0.0017685196669892933, -0.19626505076058914,-0.6247551678902526,-0.7711334228515625,-0.07366943359375,0.318084716796875
20220112-1348,2022-01-12 13:48:14Z,u01, 161,40,movements,el-ex, rt, d,93872.75086166667, -1.7289760378176244, 0.32167222472391105, 2.8905093598686578, 1.0510506629943848, 0.046323589980602264, -1.133076786994934, -0.936863899230957, -0.31615346670150757, 0.14944133162498474, 0.07732117176055908, -0.14037421345710754, -0.26716315746307373, -0.7580488026934848, -0.009092603717561293, -0.20109005200947566,-0.6203563372085981,-0.89813232421875,-0.4761810302734375,-0.0898895263671875
20220112-1348,2022-01-12 13:48:14Z,u01, 162,40,movements,el-ex, rt, d,93872.77580466667, -1.7410707625695108, 0.34654630956126103, 2.919859234263014, 0.6796624064445496, -0.3490702509880066, -1.045815348625183, -0.9269492030143738, -0.3396514654159546, 0.1593790501356125, 0.2174156904220581, 0.18648380041122437, -0.0887158066034317, -0.7608915775361906, -0.027083761355634617, -0.20125658698890017,-0.6162840889466141,-0.70953369140625,-0.153167724609375,0.0706634521484375
20220112-1348,2022-01-12 13:48:14Z,u01, 163,40,movements,el-ex, rt, d,93872.80074766667, -1.7560994235924223, 0.36540691906423844, 2.9337421793394065, 0.02354459837079048, -0.33045029640197754, -0.6662476062774658, -0.9179889559745789, -0.3573293685913086, 0.17208030819892883, -0.026011109352111816, 0.19892796874046326, 0.02465115487575531, -0.7646421481995875, -0.03691256800654054, -0.20420424492121236,-0.6101313874554289,-0.9068450927734375,-0.1272430419921875,0.1628265380859375
20220112-1348,2022-01-12 13:48:14Z,u01, 164,40,movements,el-ex, rt, d,93872.82569066668, -1.7594810361409798, 0.38051541874580935, 2.9257373187043596, -0.5877193808555603, -0.1802183985710144, -0.4443865120410919, -0.9119943976402283, -0.37139907479286194, 0.17415103316307068, -0.0526965856552124, 0.08813497424125671, -0.05694843828678131, -0.7652495739084985, -0.03832235794116362, -0.2122922851079505,-0.606511607536679,-0.964691162109375,-0.28326416015625,0.1172027587890625
20220112-1348,2022-01-12 13:48:14Z,u01, 165,40,movements,el-ex, rt, d,93872.85063266667, -1.7622047492445756, 0.39487847968987305, 2.9256942772787995, 0.2331746220588684, -0.056308578699827194, -0.658431887626648, -0.9061859846115112, -0.38469603657722473, 0.17560139298439026, -0.02432548999786377, 0.023612022399902344, -0.11995278298854828, -0.7654977624499784, -0.0425896153905433, -0.21766717239523423,-0.6040035324573434,-0.9398956298828125,-0.3786468505859375,0.014495849609375
20220112-1348,2022-01-12 13:48:14Z,u01, 166,40,movements,el-ex, rt, d,93872.87557566667, -1.7695445956964044, 0.4067824187084011, 2.936756986687153, 0.35440757870674133, -0.1479085385799408, -0.4479081630706787, -0.9003194570541382, -0.3956563472747803, 0.1813308149576187, -0.03605133295059204, -0.01926058530807495, -0.07465684413909912, -0.7669320766901343, -0.049805590524414245, -0.21890617691891323,-0.6011777046425063,-0.936370849609375,-0.4149169921875,0.1066741943359375
20220112-1348,2022-01-12 13:48:14Z,u01, 167,40,movements,el-ex, rt, d,93872.90051866668, -1.7747159068130756, 0.4143505086949223, 2.9410919990614266, -0.17445318400859833, -0.09420129656791687, -0.14021897315979004, -0.8964115381240845, -0.40259549021720886, 0.1853724718093872, -0.15234017372131348, -0.0005874037742614746, 0.04247163236141205, -0.7680144243662071, -0.05329241751656327, -0.2205443498573071,-0.5988938432743649,-1.0429534912109375,-0.4042816162109375,0.2247467041015625
20220112-1348,2022-01-12 13:48:14Z,u01, 168,40,movements,el-ex, rt, d,93872.92546166667, -1.773360768183777, 0.4150655569103214, 2.9356214074092173, -0.13161396980285645, -0.006952147930860519, 0.12998373806476593, -0.8963797092437744, -0.40324991941452026, 0.18409958481788635, -0.1307045817375183, 0.04541611671447754, -0.045031189918518066, -0.7677177556561489, -0.05156780923125677, -0.2224118571003788,-0.5987345507735541,-1.0270843505859375,-0.3578338623046875,0.139068603515625
20220112-1348,2022-01-12 13:48:14Z,u01, 169,40,movements,el-ex, rt, d,93872.95040466667, -1.7752356937260594, 0.40779081745528123, 2.939425201490845, 0.4817190170288086, 0.026462668552994728, 0.29172536730766296, -0.898881733417511, -0.3965822756290436, 0.18637055158615112, -0.11231815814971924, -0.03254061937332153, -0.18070971965789795, -0.7685261241787996, -0.050525980633594536, -0.21862221057077158,-0.5991819313330317,-1.006134033203125,-0.4125213623046875,-0.006195068359375
20220112-1348,2022-01-12 13:48:14Z,u01, 170,40,movements,el-ex, rt, d,93872.97534666667, -1.7783606677757162, 0.3992894769579415, 2.949168067008962, 0.22448566555976868, -0.012262823060154915, 0.18686985969543457, -0.9015613794326782, -0.38876381516456604, 0.18986652791500092, -0.08609408140182495, -0.1312250792980194, -0.09251561760902405, -0.7696141857285341, -0.05125689400101695, -0.21261788628376144,-0.5998834630748368,-0.9876556396484375,-0.519989013671875,0.09735107421875
20220112-1348,2022-01-12 13:48:14Z,u01, 171,40,movements,el-ex, rt, d,93873.00028966667, -1.7781082309235772, 0.3957051758671491, 2.9447842799109654, -0.39868226647377014, -0.0458238460123539, 0.24176014959812164, -0.9029673337936401, -0.38545897603034973, 0.18992458283901215, -0.1854725480079651, -0.03228086233139038, 0.10200643539428711, -0.7698136973481922, -0.04846812485924115, -0.21259033208319947,-0.599869182329335,-1.0639190673828125,-0.4390869140625,0.27239990234375
20220112-1348,2022-01-12 13:48:14Z,u01, 172,40,movements,el-ex, rt, d,93873.02523266667, -1.7721153567912302, 0.38856383233080494, 2.9339713545128125, -0.19740019738674164, 0.2179490625858307, 0.494082510471344, -0.9067632555961609, -0.3788596987724304, 0.18505553901195526, -0.24924254417419434, 0.030898332595825195, 0.09538555145263672, -0.7685734048012391, -0.04269300933040994, -0.21304405315204797,-0.6017344900895355,-1.156005859375,-0.34796142578125,0.2804412841796875
20220112-1348,2022-01-12 13:48:14Z,u01, 173,40,movements,el-ex, rt, d,93873.05017566668, -1.7631006203883688, 0.3731202345750989, 2.930720944205542, 0.24886047840118408, 0.3816649615764618, 0.7049278616905212, -0.9140291810035706, -0.3645227551460266, 0.1779710054397583, -0.21060454845428467, -0.072702556848526, -0.026207327842712402, -0.7665374647312777, -0.03749424691916385, -0.2081116644493013,-0.6063859843331735,-1.1231842041015625,-0.4124298095703125,0.1577911376953125
20220112-1348,2022-01-12 13:48:14Z,u01, 174,40,movements,el-ex, rt, d,93873.07511866667, -1.7540363734002609, 0.3550271546495361, 2.9363168549026493, 0.365041583776474, 0.4861081540584564, 0.6156378388404846, -0.9219393730163574, -0.3476158380508423, 0.17085275053977966, -0.22156935930252075, -0.13434824347496033, 0.056350454688072205, -0.7643404539182934, -0.034785680224594745, -0.19953538206971938,-0.6121757183786523,-1.1435089111328125,-0.481964111328125,0.227203369140625
20220112-1348,2022-01-12 13:48:15Z,u01, 175,40,movements,el-ex, rt, d,93873.10006066668, -1.7426280444864735, 0.3407562416249252, 2.941991472629945, 0.21670879423618317, 0.5908530354499817, 0.4475706219673157, -0.9286221861839294, -0.3341999351978302, 0.16115596890449524, -0.30344879627227783, -0.1133861243724823, 0.16777755320072174, -0.7612205348188836, -0.03348559829038991, -0.1923121428511213,-0.618415747068418,-1.22125244140625,-0.453216552734375,0.3279876708984375
20220112-1348,2022-01-12 13:48:15Z,u01, 176,40,movements,el-ex, rt, d,93873.12500366668, -1.7275968640938908, 0.3305580405007894, 2.9433048555990755, 0.10268981754779816, 0.6165565252304077, 0.3453044295310974, -0.9342575073242188, -0.324570894241333, 0.1477045714855194, -0.331626832485199, -0.1376177966594696, 0.14262425899505615, -0.7568494141143642, -0.03211312301240184, -0.1878962404688908,-0.6251741509815104,-1.2658843994140625,-0.462188720703125,0.2903289794921875
20220112-1348,2022-01-12 13:48:15Z,u01, 177,40,movements,el-ex, rt, d,93873.14994666667, -1.7154943341018098, 0.3228169261766325, 2.948886828105066, 0.46608904004096985, 0.48053401708602905, 0.17155341804027557, -0.9384348392486572, -0.3172392249107361, 0.13674534857273102, -0.4738729000091553, -0.18034985661506653, -0.019832715392112732, -0.7531902855671364, -0.0328187588585345, -0.1831045473691395,-0.6309516861775978,-1.3807830810546875,-0.4921875,0.135650634765625
20220112-1348,2022-01-12 13:48:15Z,u01, 178,40,movements,el-ex, rt, d,93873.17488966667, -1.708067032957514, 0.32183018608285197, 2.9601917333662326, 0.23350295424461365, 0.39318928122520447, -0.17021110653877258, -0.9397342205047607, -0.3163033127784729, 0.12981438636779785, -0.5840084552764893, -0.2215537428855896, 0.0037609487771987915, -0.7506710865460252, -0.037418048584655264, -0.17903536389783745,-0.6348536303628394,-1.52374267578125,-0.5378570556640625,0.133575439453125
20220112-1348,2022-01-12 13:48:15Z,u01, 179,40,movements,el-ex, rt, d,93873.19983166667, -1.7008211329797935, 0.32850113667607467, 2.960286421633458, -0.21999119222164154, 0.18189185857772827, -0.37445032596588135, -0.9385369420051575, -0.32262468338012695, 0.1227254793047905, -0.598206102848053, -0.33409830927848816, 0.0976111888885498, -0.7481567817482404, -0.04030100162863727, -0.18129976076382948,-0.6369988783615493,-1.5445404052734375,-0.671661376953125,0.2140045166015625
20220112-1348,2022-01-12 13:48:15Z,u01, 180,40,movements,el-ex, rt, d,93873.22477466667, -1.6956303524909506, 0.3415876127656009, 2.9536136969440707, -0.3333336114883423, 0.06221101060509682, -0.6129289865493774, -0.934891939163208, -0.3349834084510803, 0.1173163652420044, -0.5555102229118347, -0.1864093840122223, 0.137886643409729, -0.7462190153841127, -0.042607066318062006, -0.18807384084943432,-0.6371577837913285,-1.4904022216796875,-0.521392822265625,0.2552032470703125
20220112-1348,2022-01-12 13:48:15Z,u01, 181,40,movements,el-ex, rt, d,93873.24971766667, -1.6954481570418407, 0.36054995907768406, 2.949975594654571, -0.006970900576561689, -0.14539751410484314, -0.8436872363090515, -0.9284427165985107, -0.35278889536857605, 0.11633525043725967, -0.5986720323562622, -0.25779151916503906, 0.032102108001708984, -0.7455924516280188, -0.04753444065264251, -0.19609138254017877,-0.6351223954465282,-1.5140228271484375,-0.5867767333984375,0.1720428466796875
20220112-1348,2022-01-12 13:48:15Z,u01, 182,40,movements,el-ex, rt, d,93873.27466066668, -1.7031742716677902, 0.38345461218807797, 2.956755718954996, 0.1733434796333313, -0.2753712236881256, -1.023045301437378, -0.9192636609077454, -0.3741264343261719, 0.12240608036518097, -0.6293200850486755, -0.24800482392311096, 0.007415510714054108, -0.7469752428925559, -0.05684212076667845, -0.20243144316722617,-0.6307283404556022,-1.548583984375,-0.62213134765625,0.12982177734375
20220112-1348,2022-01-12 13:48:15Z,u01, 183,40,movements,el-ex, rt, d,93873.29960266667, -1.7122496619318757, 0.40937672472338, 2.9609310963706874, -0.14208181202411652, -0.3183457851409912, -1.0498909950256348, -0.9082062244415283, -0.3980376422405243, 0.1293325573205948, -0.5492061972618103, -0.25313109159469604, 0.06045600771903992, -0.7485426328979281, -0.06595610514273494, -0.2107850232956889,-0.6252224798425428,-1.4820098876953125,-0.6409912109375,0.1857147216796875
20220112-1348,2022-01-12 13:48:15Z,u01, 184,40,movements,el-ex, rt, d,93873.32454566668, -1.7196932074296423, 0.43578970030323017, 2.9595208374329225, -0.2276911586523056, -0.30794835090637207, -1.033666968345642, -0.8965062499046326, -0.4221264123916626, 0.13448229432106018, -0.4598931670188904, -0.16098815202713013, 0.051415324211120605, -0.7495861674327646, -0.07322380340767513, -0.22104754887493142,-0.6195939793644205,-1.3563995361328125,-0.5831146240234375,0.1858978271484375
20220112-1348,2022-01-12 13:48:15Z,u01, 185,40,movements,el-ex, rt, d,93873.34948866667, -1.7252901136841154, 0.4610230010899634, 2.958177603510418, -0.14397558569908142, -0.19680604338645935, -0.922939658164978, -0.8849309682846069, -0.44486454129219055, 0.13781455159187317, -0.30102795362472534, -0.09740227460861206, 0.06231953203678131, -0.7499767927532328, -0.08026261111600067, -0.23080317263558658,-0.6146728188352051,-1.212127685546875,-0.527740478515625,0.1974029541015625
20220112-1348,2022-01-12 13:48:15Z,u01, 186,40,movements,el-ex, rt, d,93873.37443166667, -1.730409768617165, 0.48066144778265496, 2.959133885502984, -0.019048701971769333, -0.1630784422159195, -0.632206916809082, -0.8754183650016785, -0.4623657763004303, 0.14092734456062317, -0.24669766426086426, -0.12607413530349731, 0.05548357963562012, -0.7503374797401344, -0.08635590464559127, -0.23781779413683413,-0.6107200611196009,-1.1221160888671875,-0.58843994140625,0.1964111328125
20220112-1348,2022-01-12 13:48:15Z,u01, 187,40,movements,el-ex, rt, d,93873.39937366667, -1.733379492934499, 0.4923853197248299, 2.959092034885096, -0.06726812571287155, -0.04167337715625763, -0.2767219841480255, -0.8695867657661438, -0.4727292060852051, 0.14263920485973358, -0.20452523231506348, -0.06015351414680481, 0.0014188438653945923, -0.7505091942243266, -0.08975271420420122, -0.24219353896731355,-0.6082949061227997,-1.090423583984375,-0.5141143798828125,0.1483306884765625
20220112-1348,2022-01-12 13:48:15Z,u01, 188,40,movements,el-ex, rt, d,93873.42431666667, -1.7327593111946944, 0.49581888020558834, 2.959243434455468, -0.0696401372551918, 0.06168030947446823, -0.021539336070418358, -0.8680680394172668, -0.4757520854473114, 0.14183728396892548, -0.10306239128112793, -0.06002974510192871, -0.030982360243797302, -0.7500933014390685, -0.09098727404998577, -0.24335805739309674,-0.6081596829372367,-0.97113037109375,-0.5357818603515625,0.1108551025390625
20220112-1348,2022-01-12 13:48:15Z,u01, 189,40,movements,el-ex, rt, d,93873.44925966667, -1.7289151195566548, 0.49316216386080103, 2.9539044097446396, -0.23550796508789062, 0.015736188739538193, 0.293014794588089, -0.8698520064353943, -0.4734136164188385, 0.1386977583169937, -0.06209385395050049, -0.0548761785030365, 0.013615265488624573, -0.7493323379214614, -0.08859982713418563, -0.2438534625545387,-0.6092508570358456,-0.9197235107421875,-0.5543365478515625,0.1792449951171875
20220112-1348,2022-01-12 13:48:15Z,u01, 190,40,movements,el-ex, rt, d,93873.47420266668, -1.7220995091606563, 0.4833058270845838, 2.9455521480778604, -0.2136252075433731, 0.2503928244113922, 0.5853043794631958, -0.8753474354743958, -0.4647088944911957, 0.1334628462791443, -0.07191812992095947, 0.09108221530914307, -0.030511975288391113, -0.7482129426941214, -0.0831192870761584, -0.24256900894384514,-0.6119058426092125,-0.947265625,-0.373626708984375,0.1029510498046875
20220112-1348,2022-01-12 13:48:15Z,u01, 191,40,movements,el-ex, rt, d,93873.49914475, -1.711091726941262, 0.46745747746587185, 2.936103872908931, -0.25997379422187805, 0.20231452584266663, 0.75975501537323, -0.8839454650878906, -0.4506179988384247, 0.12483358383178711, 0.09010714292526245, 0.038066208362579346, 0.020262114703655243, -0.7461075339445519, -0.07576504003501643, -0.2393574627435323,-0.6166774212363467,-0.802459716796875,-0.38372802734375,0.1398162841796875
20220112-1348,2022-01-12 13:48:15Z,u01, 192,40,movements,el-ex, rt, d,93873.52408675001, -1.7030467784456713, 0.4485197362416341, 2.9273647523646185, -0.19499479234218597, 0.20757293701171875, 0.8308377265930176, -0.8932212591171265, -0.43363216519355774, 0.11882246285676956, 0.02797168493270874, 0.05988341569900513, -0.018419861793518066, -0.7449072716698205, -0.06726358447851746, -0.2350100150480194,-0.6207728984451572,-0.8652496337890625,-0.373748779296875,0.10040283203125
20220112-1348,2022-01-12 13:48:15Z,u01, 193,40,movements,el-ex, rt, d,93873.54902975001, -1.6932146906347014, 0.4264814643411091, 2.9215446582420914, -0.08488018065690994, 0.35843268036842346, 0.9347531199455261, -0.9036132097244263, -0.41367000341415405, 0.11117476969957352, 0.12814652919769287, 0.1076093316078186, -0.09759464114904404, -0.7430402885035361, -0.05897894582979486, -0.22865828763055457,-0.6262010885375966,-0.80621337890625,-0.338836669921875,0.024749755859375
20220112-1348,2022-01-12 13:48:15Z,u01, 194,40,movements,el-ex, rt, d,93873.57397275, -1.6812101108888617, 0.40421774667937693, 2.9090121607137256, -0.6212393045425415, 0.16863512992858887, 0.9787752628326416, -0.9138116240501404, -0.3932996690273285, 0.10130943357944489, 0.22487729787826538, 0.1630750298500061, -0.006750926375389099, -0.7404874356035214, -0.04830189449701584, -0.22436440031186514,-0.6316691174128372,-0.688934326171875,-0.230224609375,0.0945587158203125
20220112-1348,2022-01-12 13:48:15Z,u01, 195,40,movements,el-ex, rt, d,93873.59891575, -1.6686464487237636, 0.3797086055822852, 2.8892422455384286, -0.5080617666244507, 0.3128572106361389, 1.09138023853302, -0.9243296980857849, -0.3706498444080353, 0.0907355472445488, 0.07391178607940674, 0.02006399631500244, 0.030022375285625458, -0.7376980492923755, -0.0341959241431061, -0.22170301561725064,-0.6367729895249904,-0.8323822021484375,-0.369110107421875,0.1457672119140625
20220112-1348,2022-01-12 13:48:15Z,u01, 196,40,movements,el-ex, rt, d,93873.62385775, -1.6525168028474206, 0.35309690062540694, 2.875770372705816, -0.28348860144615173, 0.5157344341278076, 1.1466240882873535, -0.9351748824119568, -0.3458053171634674, 0.07659351825714111, 0.16538429260253906, 0.1528884768486023, -0.017893195152282715, -0.7333564594307074, -0.022024099912273415, -0.21642538625402175,-0.6440987950051018,-0.7697906494140625,-0.1929168701171875,0.0587005615234375
20220112-1348,2022-01-12 13:48:15Z,u01, 197,40,movements,el-ex, rt, d,93873.64880075, -1.639744520117402, 0.3252439228184663, 2.8672716744184985, -0.22302842140197754, 0.3451896607875824, 1.102612853050232, -0.9453213810920715, -0.3195399343967438, 0.06528168171644211, 0.20577365159988403, 0.051107317209243774, 0.026072509586811066, -0.7297426468984191, -0.010793973621853331, -0.20931378443995952,-0.6508048057537904,-0.701904296875,-0.2699737548828125,0.09649658203125
20220112-1348,2022-01-12 13:48:15Z,u01, 198,40,movements,el-ex, rt, d,93873.67374375001, -1.6256319411148188, 0.2971050925607326, 2.859131636901845, -0.10790916532278061, 0.5515537261962891, 1.1987712383270264, -0.9547507762908936, -0.2927533686161041, 0.05240688472986221, 0.16814494132995605, 0.045484691858291626, 0.05678487569093704, -0.7253987251795428, 0.00036365680724267935, -0.20211775483212274,-0.6579855779636359,-0.7866058349609375,-0.2472686767578125,0.10919189453125
20220112-1348,2022-01-12 13:48:15Z,u01, 199,40,movements,el-ex, rt, d,93873.69868575, -1.6100278153060732, 0.2672072745797089, 2.8574376707903295, 0.0936088040471077, 0.6040588021278381, 1.2117043733596802, -0.9637698531150818, -0.2640388607978821, 0.03782953694462776, 0.28745466470718384, 0.08349686861038208, 0.015072464942932129, -0.72029118634084, 0.009766013453166855, -0.19232161045864982,-0.6664064835459594,-0.697021484375,-0.182342529296875,0.064697265625
20220112-1348,2022-01-12 13:48:15Z,u01, 200,40,movements,el-ex, rt, d,93873.72362875001, -1.5959564440167262, 0.2385535525578201, 2.857191506407865, -0.04779656231403351, 0.47210657596588135, 1.0773390531539917, -0.9713730812072754, -0.2362973839044571, 0.02444501966238022, 0.36451590061187744, 0.07307416200637817, 0.012297987937927246, -0.7154579128931179, 0.018506338309596748, -0.18257436204497912,-0.6741245807144538,-0.6068572998046875,-0.1632232666015625,0.0367431640625
20220112-1348,2022-01-12 13:48:15Z,u01, 201,40,movements,el-ex, rt, d,93873.74857175001, -1.5844447408196227, 0.21577964924946977, 2.853892464696686, -0.17315250635147095, 0.37868577241897583, 0.7719258666038513, -0.9767186045646667, -0.21410906314849854, 0.013331487774848938, 0.4005163908004761, 0.11335532367229462, 0.02290797233581543, -0.7113064928742632, 0.026623619165547036, -0.17595520586882343,-0.6799807768381554,-0.5903167724609375,-0.1165771484375,0.0391845703125
20220112-1348,2022-01-12 13:48:15Z,u01, 202,40,movements,el-ex, rt, d,93873.77351475, -1.5766150182517025, 0.20038470350079624, 2.8505658443152844, -0.012676289305090904, 0.19234438240528107, 0.4640601873397827, -0.979973554611206, -0.19904635846614838, 0.00570222781971097, 0.4626395106315613, 0.05460664629936218, 0.05319654941558838, -0.7083731465160023, 0.032536123093651115, -0.17190339742336586,-0.6838114947349788,-0.517333984375,-0.144439697265625,0.05889892578125
20220112-1348,2022-01-12 13:48:15Z,u01, 203,40,movements,el-ex, rt, d,93873.79845675001, -1.572987086609116, 0.19327961861598067, 2.852068418341404, 0.040074773132801056, 0.0940566211938858, 0.09954661130905151, -0.9813771843910217, -0.19207847118377686, 0.0021499651484191418, 0.579018235206604, 0.04202356934547424, 0.14624154567718506, -0.7070398634363402, 0.03419962078499361, -0.16900650612133677,-0.6858292583087655,-0.425384521484375,-0.1981048583984375,0.12042236328125
20220112-1348,2022-01-12 13:48:15Z,u01, 204,40,movements,el-ex, rt, d,93873.82339975, -1.575535311287521, 0.19346964064823496, 2.8554105775364316, 0.31528741121292114, -0.15194948017597198, -0.09995192289352417, -0.9813319444656372, -0.19226495921611786, 0.004650551825761795, 0.5418026447296143, 0.18294186890125275, 0.13177812099456787, -0.7079727131317329, 0.033164941466164, -0.16788340713440394,-0.6851932687951536,-0.4395294189453125,-0.0093231201171875,0.1364288330078125
20220112-1348,2022-01-12 13:48:15Z,u01, 205,40,movements,el-ex, rt, d,93873.84834275, -1.5798090746421223, 0.19557913787059275, 2.869209594038932, 0.6903089880943298, -0.04290415346622467, -0.13093453645706177, -0.9808952808380127, -0.19433467090129852, 0.008840801194310188, 0.537780225276947, 0.024916380643844604, -0.15019845962524414, -0.7096779307013463, 0.02788611207135036, -0.16382007721442288,-0.6846476557540678,-0.4793548583984375,-0.1263275146484375,-0.125335693359375
20220112-1348,2022-01-12 13:48:15Z,u01, 206,40,movements,el-ex, rt, d,93873.87328575, -1.5870383682873488, 0.2016972052669643, 2.881869275114695, 0.13217201828956604, -0.4244028925895691, -0.37059545516967773, -0.9795986413955688, -0.2003324180841446, 0.01591208204627037, 0.6551663875579834, -0.09173603355884552, -0.10397076606750488, -0.7123761049891449, 0.021824889187035346, -0.16152151654286678,-0.682608726618588,-0.324432373046875,-0.2920684814453125,-0.0880584716796875
20220112-1348,2022-01-12 13:48:15Z,u01, 207,40,movements,el-ex, rt, d,93873.89822775, -1.6025164854282057, 0.21488456321061575, 2.8762318247866614, -0.3802998661994934, -0.7429234981536865, -0.6530269980430603, -0.9765094518661499, -0.21323464810848236, 0.030985428020358086, 0.42221879959106445, 0.045647382736206055, 0.10249829292297363, -0.7176852363459025, 0.02050891394227261, -0.16786125442180055,-0.6755218809432564,-0.483123779296875,-0.1971893310546875,0.1118316650390625
20220112-1348,2022-01-12 13:48:15Z,u01, 208,40,movements,el-ex, rt, d,93873.92317075, -1.6152098286648686, 0.23222627044464103, 2.8742348421941113, 0.27361631393432617, -0.2909240126609802, -0.7480144500732422, -0.9721967577934265, -0.23014460504055023, 0.0432070754468441, 0.28774863481521606, 0.1950189173221588, -0.021555066108703613, -0.7220373224903004, 0.016298560385742206, -0.17447964430761023,-0.6692931274526146,-0.6844482421875,-0.035125732421875,0.0216522216796875
20220112-1348,2022-01-12 13:48:15Z,u01, 209,40,movements,el-ex, rt, d,93873.94811375001, -1.6269529046065088, 0.253255199668818, 2.8901225458523605, 0.7350422143936157, -0.480533242225647, -0.9375019669532776, -0.9665758013725281, -0.2505566477775574, 0.05433671921491623, 0.5252153873443604, 0.14218878746032715, -0.13665807247161865, -0.7260507184032178, 0.004325948373780059, -0.17650735925168415,-0.6645876448372989,-0.472900390625,-0.05157470703125,-0.0901031494140625
20220112-1348,2022-01-12 13:48:15Z,u01, 210,40,movements,el-ex, rt, d,93873.97305675001, -1.6472092859916843, 0.27849106447234684, 2.8996270209239925, -0.29000234603881836, -0.9200996160507202, -1.138412594795227, -0.9586655497550964, -0.27490517497062683, 0.07339738309383392, 0.44217097759246826, 0.022585898637771606, 0.053723327815532684, -0.7325730275273877, -0.005953989064309634, -0.18229988945085313,-0.6557956232514599,-0.5164947509765625,-0.2523193359375,0.1271209716796875
20220112-1348,2022-01-12 13:48:15Z,u01, 211,40,movements,el-ex, rt, d,93873.99799875001, -1.6688787978671795, 0.308527557575418, 2.8914381827449365, -0.30242371559143066, -0.8924943208694458, -1.1463847160339355, -0.9482022523880005, -0.30365604162216187, 0.09330140799283981, 0.12007743120193481, 0.13304761052131653, 0.10304843634366989, -0.7392756853291815, -0.011052780349172495, -0.19574223708077254,-0.6442314296204483,-0.7757415771484375,-0.2199249267578125,0.19873046875
20220112-1348,2022-01-12 13:48:15Z,u01, 212,40,movements,el-ex, rt, d,93874.02294175001, -1.6848598444755145, 0.3335826573805873, 2.8975853446051034, 0.48518216609954834, -0.29923292994499207, -0.9361597299575806, -0.93873530626297, -0.32743027806282043, 0.1075422540307045, 0.07496583461761475, 0.2907634377479553, -0.06632840633392334, -0.7438857187518192, -0.020128659105035723, -0.20285928675192644,-0.6364565647133421,-0.86376953125,-0.0366668701171875,0.0412139892578125
20220112-1348,2022-01-12 13:48:15Z,u01, 213,40,movements,el-ex, rt, d,93874.04788475, -1.7002464808151596, 0.3547357995514453, 2.915029246262003, 0.36054104566574097, -0.5131270885467529, -0.9413393139839172, -0.9298921823501587, -0.3473426401615143, 0.1210516095161438, 0.2655702829360962, 0.10544505715370178, -0.014621719717979431, -0.7479949658498375, -0.03208329092635043, -0.2051435735536139,-0.6303889770575933,-0.6592864990234375,-0.2038421630859375,0.058441162109375
20220112-1348,2022-01-12 13:48:15Z,u01, 214,40,movements,el-ex, rt, d,93874.07282675001, -1.7155803907209881, 0.37930038117112513, 2.9165757756975736, -0.3710099160671234, -0.6301488876342773, -0.9783818125724792, -0.9192044138908386, -0.37027066946029663, 0.13402394950389862, 0.16949456930160522, 0.024125128984451294, 0.11608263850212097, -0.7519845297266903, -0.03913108364643654, -0.21381237098695946,-0.6223118860182176,-0.7497100830078125,-0.3461456298828125,0.2501068115234375
20220112-1348,2022-01-12 13:48:16Z,u01, 215,40,movements,el-ex, rt, d,93874.09776975, -1.72917617922426, 0.4023824402560415, 2.916357020383738, 0.1457677185535431, -0.4544558823108673, -0.8131577372550964, -0.9086142182350159, -0.39161160588264465, 0.14512164890766144, 0.02542036771774292, 0.09020480513572693, 0.06529687345027924, -0.7553330843280381, -0.04508606044386404, -0.2225365041419151,-0.614749206365573,-0.8681182861328125,-0.310211181640625,0.207000732421875
20220112-1348,2022-01-12 13:48:16Z,u01, 216,40,movements,el-ex, rt, d,93874.12271275, -1.7440069300896313, 0.4177692493292947, 2.9337071036929894, 0.7889087796211243, -0.16546927392482758, -0.6119896173477173, -0.9003193974494934, -0.40572255849838257, 0.15752336382865906, -0.04883807897567749, 0.05225282907485962, -0.10341599583625793, -0.758775418271644, -0.05496857092797981, -0.22320330560362778,-0.6094410147063488,-0.94915771484375,-0.3534698486328125,0.054107666015625
20220112-1348,2022-01-12 13:48:16Z,u01, 217,40,movements,el-ex, rt, d,93874.14765575, -1.7566679178593203, 0.42840509829669365, 2.9543033161962025, 0.3217380940914154, -0.23764920234680176, -0.5187731385231018, -0.8939615488052368, -0.4154205620288849, 0.1681024134159088, 0.08916729688644409, 0.04884347319602966, -0.06869161128997803, -0.7614810712011695, -0.06479029542867476, -0.22122620443439567,-0.6058116191759478,-0.821624755859375,-0.3824310302734375,0.0633087158203125
20220112-1348,2022-01-12 13:48:16Z,u01, 218,40,movements,el-ex, rt, d,93874.17259775, -1.7648965009699487, 0.4394380810392438, 2.9545963317663864, -0.3011798858642578, -0.3305753469467163, -0.2997049391269684, -0.887996256351471, -0.4254310131072998, 0.1745579093694687, 0.06612765789031982, 0.024414896965026855, 0.04271170496940613, -0.7633641367682169, -0.06748443396580477, -0.22547448723787605,-0.6015663267365378,-0.821868896484375,-0.4010162353515625,0.2172698974609375
20220112-1348,2022-01-12 13:48:16Z,u01, 219,40,movements,el-ex, rt, d,93874.19754075, -1.7672058245375826, 0.4453979478379239, 2.9479541182209124, -0.09649259597063065, -0.059705108404159546, -0.10181567072868347, -0.8850885629653931, -0.43081703782081604, 0.17611023783683777, -0.058698058128356934, -0.10484272241592407, 0.05362595617771149, -0.7639525247252371, -0.06657067951213483, -0.2297427649348288,-0.5993021863088994,-0.936279296875,-0.5218048095703125,0.2728271484375
20220112-1348,2022-01-12 13:48:16Z,u01, 220,40,movements,el-ex, rt, d,93874.22248375001, -1.7682456883253228, 0.4465179749364595, 2.9517603653576567, 0.3186074197292328, 0.08738501369953156, -0.054752547293901443, -0.884431004524231, -0.43182751536369324, 0.17693568766117096, -0.07911550998687744, 0.041370511054992676, -0.06719473004341125, -0.7640736244083697, -0.0682593614764945, -0.22905017575305334,-0.5992227770221812,-0.9635467529296875,-0.3904571533203125,0.1097412109375
20220112-1348,2022-01-12 13:48:16Z,u01, 221,40,movements,el-ex, rt, d,93874.24742675001, -1.7707296768299456, 0.44566838536650244, 2.966271733807058, 0.479987770318985, 0.20767679810523987, -0.06361501663923264, -0.8843482732772827, -0.4310610890388489, 0.17920489609241486, -0.10033184289932251, 0.07583653926849365, -0.08089268207550049, -0.7643534566231664, -0.07325465260183853, -0.22447362575075785,-0.6000075709619315,-0.984527587890625,-0.3630218505859375,0.0744781494140625
20220112-1348,2022-01-12 13:48:16Z,u01, 222,40,movements,el-ex, rt, d,93874.27236875001, -1.7674982250562794, 0.44307564730117355, 2.9716656429789183, -0.04838418960571289, 0.21796724200248718, 0.21356333792209625, -0.8860157132148743, -0.4287201464176178, 0.1765640527009964, -0.0989084243774414, -0.006292581558227539, -0.019139304757118225, -0.7633336870985435, -0.0748579205941856, -0.2217739299166343,-0.60210809434091,-0.98492431640625,-0.4350128173828125,0.1574249267578125
20220112-1348,2022-01-12 13:48:16Z,u01, 223,40,movements,el-ex, rt, d,93874.29731175001, -1.757155453645915, 0.4368977589542379, 2.9633611622023643, -0.40854376554489136, 0.37506937980651855, 0.3731696307659149, -0.8903801441192627, -0.42313066124916077, 0.1678784340620041, -0.1111760139465332, -0.024745196104049683, -0.018754512071609497, -0.7608644232547396, -0.07088403795577546, -0.22162523159924546,-0.6057580568359422,-1.0108184814453125,-0.4609375,0.15765380859375
20220112-1348,2022-01-12 13:48:16Z,u01, 224,40,movements,el-ex, rt, d,93874.32225475, -1.7404798074572252, 0.42926883450961756, 2.9501048617193586, -0.35981085896492004, 0.4820975661277771, 0.3497564494609833, -0.8962115049362183, -0.41620609164237976, 0.15354880690574646, -0.05096250772476196, 0.009299993515014648, -0.0708920955657959, -0.7566468772650957, -0.06526794885623698, -0.2222941497472331,-0.6114006919755635,-0.947174072265625,-0.4069061279296875,0.0826568603515625
20220112-1348,2022-01-12 13:48:16Z,u01, 225,40,movements,el-ex, rt, d,93874.34719675001, -1.7244189783834325, 0.42086041985569245, 2.942672173685852, 0.047547001391649246, 0.5987018346786499, 0.4370374083518982, -0.9019885659217834, -0.40854594111442566, 0.13966631889343262, -0.14096486568450928, -0.008095264434814453, -0.05006682872772217, -0.7523611892721714, -0.06152883795523753, -0.22100837638677798,-0.6175128168368994,-1.0177001953125,-0.3974151611328125,0.09368896484375
20220112-1348,2022-01-12 13:48:16Z,u01, 226,40,movements,el-ex, rt, d,93874.37213975, -1.70730222620907, 0.4098550177904568, 2.944260688758631, 0.11082204431295395, 0.7716907858848572, 0.46147656440734863, -0.9086463451385498, -0.39847636222839355, 0.12481179088354111, -0.20199495553970337, -0.036887288093566895, -0.006998911499977112, -0.7475005508824324, -0.06040549363862241, -0.21601308453219725,-0.6252457654999408,-1.1106414794921875,-0.43536376953125,0.1178131103515625
20220112-1348,2022-01-12 13:48:16Z,u01, 227,40,movements,el-ex, rt, d,93874.39708275, -1.6887755916931297, 0.3971524560439913, 2.9462221686275973, 0.09189438819885254, 0.7823902368545532, 0.4791173040866852, -0.915755569934845, -0.38679400086402893, 0.1085442528128624, -0.20762687921524048, -0.0891427993774414, -0.022896893322467804, -0.7421589715182706, -0.05892525713080485, -0.2102771349490466,-0.6336491736134788,-1.1109161376953125,-0.4946136474609375,0.0597381591796875
20220112-1348,2022-01-12 13:48:16Z,u01, 228,40,movements,el-ex, rt, d,93874.42202575001, -1.6678798816147609, 0.3850312055002742, 2.9410955191658545, -0.30525466799736023, 0.7257171273231506, 0.5824025273323059, -0.9224222898483276, -0.375588059425354, 0.08983445167541504, -0.27417171001434326, -0.11296775937080383, 0.047433480620384216, -0.7361204727694214, -0.055171315136145135, -0.20699181238709813,-0.64205680081197,-1.19659423828125,-0.488555908203125,0.13726806640625
20220112-1348,2022-01-12 13:48:16Z,u01, 229,40,movements,el-ex, rt, d,93874.44696775, -1.648624663523404, 0.36987267899736365, 2.934716455561456, -0.03611104190349579, 0.6139252185821533, 0.6375656723976135, -0.92955082654953, -0.3614967167377472, 0.07249181717634201, -0.4198905825614929, -0.24256813526153564, 0.0034509822726249695, -0.7305998297386616, -0.04969706949848772, -0.20318429449634293,-0.6499769795743786,-1.3274993896484375,-0.6145172119140625,0.089508056640625
20220112-1348,2022-01-12 13:48:16Z,u01, 230,40,movements,el-ex, rt, d,93874.47191075, -1.6339811440521768, 0.3556253993005312, 2.935211728605106, 0.15747617185115814, 0.5451783537864685, 0.4930975139141083, -0.935558021068573, -0.3481766879558563, 0.059191856533288956, -0.4627724289894104, -0.1909162402153015, 0.007763497531414032, -0.7262465122482177, -0.0464965743160797, -0.19766189594619604,-0.6567599496097287,-1.3983306884765625,-0.539093017578125,0.06695556640625
20220112-1348,2022-01-12 13:48:16Z,u01, 231,40,movements,el-ex, rt, d,93874.49685425, -1.6248510201645645, 0.3459941432298891, 2.941018996185142, 0.18805567920207977, 0.34483951330184937, 0.25373372435569763, -0.9393646717071533, -0.33913207054138184, 0.05082658305764198, -0.4932067394256592, -0.19906064867973328, -0.0163876935839653, -0.7233806384397494, -0.046192464031237224, -0.19216301664803268,-0.6615588030145888,-1.416107177734375,-0.54461669921875,0.0267181396484375
20220112-1348,2022-01-12 13:48:16Z,u01, 232,40,movements,el-ex, rt, d,93874.52179625, -1.61939520487011, 0.3406534493070252, 2.943008891653848, -0.0048811174929142, 0.13061995804309845, 0.12144418060779572, -0.9414237141609192, -0.3341030776500702, 0.04578819125890732, -0.5430275797843933, -0.2410159409046173, 0.0040010251104831696, -0.7216752119706586, -0.04559587725510787, -0.1895114705880962,-0.6642223542170864,-1.4844512939453125,-0.5751190185546875,0.0497894287109375
20220112-1348,2022-01-12 13:48:16Z,u01, 233,40,movements,el-ex, rt, d,93874.54673925, -1.6186915730437632, 0.34043217950726434, 2.9403097961498386, -0.1402340829372406, -0.13780604302883148, -0.11450136452913284, -0.9415294528007507, -0.3338944911956787, 0.04512929916381836, -0.594557523727417, -0.1974164843559265, 0.05501401424407959, -0.7215083908794984, -0.044612678556230315, -0.19031476116924975,-0.6642406146086127,-1.5304412841796875,-0.5393218994140625,0.1101837158203125
20220112-1348,2022-01-12 13:48:16Z,u01, 234,40,movements,el-ex, rt, d,93874.57168225001, -1.6247598149479263, 0.34637408072073445, 2.940469849676894, 0.1018841490149498, -0.35863161087036133, -0.39422571659088135, -0.9392406344413757, -0.3394894599914551, 0.050733957439661026, -0.5676410794258118, -0.19533106684684753, 0.036057837307453156, -0.723352418154614, -0.04613304649646663, -0.1924754560078769,-0.6615030088046874,-1.5068817138671875,-0.534820556640625,0.0867919921875
20220112-1348,2022-01-12 13:48:16Z,u01, 235,40,movements,el-ex, rt, d,93874.59662525001, -1.6360685257441192, 0.3583638045281701, 2.9431810414391304, 0.06200467422604561, -0.48845961689949036, -0.5583184361457825, -0.9344775676727295, -0.3507424592971802, 0.061082176864147186, -0.5163736939430237, -0.19013574719429016, 0.029280181974172592, -0.7266560443016292, -0.050120678268546257, -0.19605689012839433,-0.65652148041901,-1.4734954833984375,-0.533538818359375,0.10296630859375
20220112-1348,2022-01-12 13:48:16Z,u01, 236,40,movements,el-ex, rt, d,93874.62156725001, -1.650790646278831, 0.3738684997141552, 2.9442273706475968, -0.09005699306726456, -0.6344904899597168, -0.659096360206604, -0.9279444217681885, -0.3652194142341614, 0.0743890255689621, -0.4666630029678345, -0.12686121463775635, 0.029675722122192383, -0.7309208981505366, -0.054306113632115696, -0.2015596288845167,-0.6497531358094533,-1.3946075439453125,-0.4920806884765625,0.10406494140625
20220112-1348,2022-01-12 13:48:16Z,u01, 237,40,movements,el-ex, rt, d,93874.64651025001, -1.6663958861009316, 0.39027651733326674, 2.9430075389159267, -0.045696891844272614, -0.6570355892181396, -0.6515442132949829, -0.9205811619758606, -0.38044413924217224, 0.08827624469995499, -0.3646514415740967, -0.15094318985939026, 0.07496214658021927, -0.7353901941912465, -0.0577874008022769, -0.2081979737460658,-0.642273715848496,-1.3007659912109375,-0.509674072265625,0.157501220703125
20220112-1348,2022-01-12 13:48:16Z,u01, 238,40,movements,el-ex, rt, d,93874.67145325, -1.6822513569877715, 0.40577304744347376, 2.94417887341807, 0.020755235105752945, -0.6008731722831726, -0.596688985824585, -0.9130966663360596, -0.3947291672229767, 0.102192722260952, -0.32042384147644043, -0.1965031623840332, 0.10859192907810211, -0.7397885007436403, -0.061719816082721965, -0.21381009274437224,-0.6349715649645039,-1.2335205078125,-0.5912322998046875,0.210784912109375
20220112-1348,2022-01-12 13:48:16Z,u01, 239,40,movements,el-ex, rt, d,93874.69639525001, -1.698168719014978, 0.4197371534332423, 2.9476958127177255, 0.1485813707113266, -0.5110272169113159, -0.5144082307815552, -0.9057981967926025, -0.40752044320106506, 0.11600169539451599, -0.25267940759658813, -0.04107263684272766, 0.017512552440166473, -0.7440799193547184, -0.0659235925819586, -0.21820244725349625,-0.6280021668250164,-1.172637939453125,-0.4602203369140625,0.1463623046875
20220112-1348,2022-01-12 13:48:16Z,u01, 240,40,movements,el-ex, rt, d,93874.72133825, -1.71039278616707, 0.4292290700265463, 2.9523266046869763, -0.025485895574092865, -0.32550370693206787, -0.2790074050426483, -0.9004412889480591, -0.4161699414253235, 0.12652133405208588, -0.1683146357536316, -0.09748658537864685, 0.051045045256614685, -0.7472892949315183, -0.06942172175681428, -0.22058095353246257,-0.6229632239540246,-1.068756103515625,-0.5136566162109375,0.1775665283203125
20220112-1348,2022-01-12 13:48:16Z,u01, 241,40,movements,el-ex, rt, d,93874.74628125, -1.7174318449102974, 0.4339893412142187, 2.950041255379549, -0.1935184895992279, -0.281656414270401, -0.0800296738743782, -0.8975583910942078, -0.4204936623573303, 0.132565438747406, -0.10950624942779541, -0.08493834733963013, 0.014666423201560974, -0.7493163711348397, -0.06933756267264496, -0.22325267532447773,-0.6195767328244656,-1.0023956298828125,-0.5389251708984375,0.138427734375
20220112-1348,2022-01-12 13:48:16Z,u01, 242,40,movements,el-ex, rt, d,93874.77122425001, -1.7197994758799215, 0.4344778911391424, 2.9459200299478048, -0.09647867828607559, -0.05649852752685547, 0.08433569967746735, -0.8970388770103455, -0.42093685269355774, 0.13465966284275055, -0.11295557022094727, 0.019737571477890015, 0.019240260124206543, -0.7501655772750763, -0.06768631228110977, -0.2247855449072574,-0.6181759659267881,-1.0099945068359375,-0.4011993408203125,0.153900146484375
20220112-1348,2022-01-12 13:48:16Z,u01, 243,40,movements,el-ex, rt, d,93874.79616625, -1.7187707220540591, 0.43038874727770354, 2.9445068666492045, 0.024147935211658478, 0.13435330986976624, 0.2324770838022232, -0.898871898651123, -0.41722413897514343, 0.13398942351341248, -0.0682910680770874, 0.02785038948059082, -0.037584662437438965, -0.7500975786519961, -0.06594189261443892, -0.22371063505770822,-0.6188366324846214,-0.979217529296875,-0.394439697265625,0.1099853515625
20220112-1348,2022-01-12 13:48:16Z,u01, 244,40,movements,el-ex, rt, d,93874.82110925, -1.7117641159884418, 0.4234259372070914, 2.941391384192711, -0.14567255973815918, 0.26152077317237854, 0.35173550248146057, -0.902643084526062, -0.4108862280845642, 0.12809321284294128, 0.02852809429168701, -0.02347046136856079, -0.015514001250267029, -0.7483592727540617, -0.0632851185027715, -0.22193791109652317,-0.6218496049126154,-0.874114990234375,-0.434356689453125,0.112579345703125
20220112-1348,2022-01-12 13:48:16Z,u01, 245,40,movements,el-ex, rt, d,93874.84605225001, -1.703498193262516, 0.4151998009026239, 2.934388241900809, -0.23584339022636414, 0.20562782883644104, 0.39161673188209534, -0.9069905877113342, -0.40337276458740234, 0.12107085436582565, 0.006951034069061279, 0.06012639403343201, -0.05239129811525345, -0.7463696490857091, -0.058887821808843124, -0.22090886224732442,-0.6250309584513025,-0.88299560546875,-0.3643951416015625,0.0919342041015625
20220112-1348,2022-01-12 13:48:16Z,u01, 246,40,movements,el-ex, rt, d,93874.87099425, -1.6931805129998416, 0.40511421845935075, 2.9280462755405425, -0.1598057597875595, 0.40023618936538696, 0.4635005295276642, -0.9121831655502319, -0.39412373304367065, 0.11219751089811325, -0.02952820062637329, 0.07893824577331543, -0.0523526668548584, -0.7437381327007042, -0.0543355043559199, -0.21899070682501887,-0.6292410305660677,-0.94171142578125,-0.315185546875,0.059844970703125
20220112-1348,2022-01-12 13:48:16Z,u01, 247,40,movements,el-ex, rt, d,93874.89593725001, -1.6796232071826787, 0.39338864962594305, 2.919591482308422, -0.33955439925193787, 0.3989076614379883, 0.556847095489502, -0.9181513786315918, -0.3833204209804535, 0.1003158837556839, 0.013961434364318848, 0.06143629550933838, -0.02559375762939453, -0.7401203242599009, -0.04878369818719566, -0.21713074911772065,-0.6345834821697331,-0.9076690673828125,-0.3207855224609375,0.0833587646484375
20220112-1348,2022-01-12 13:48:16Z,u01, 248,40,movements,el-ex, rt, d,93874.92088025, -1.6656199868666612, 0.3789013181557996, 2.9085275888054967, -0.33471226692199707, 0.42495307326316833, 0.6824292540550232, -0.9248975515365601, -0.3698999285697937, 0.08796598017215729, 0.00340425968170166, 0.08475902676582336, -0.022368676960468292, -0.7363913018346574, -0.04136230519826309, -0.21520452547921157,-0.6400810733822945,-0.9214935302734375,-0.2851409912109375,0.0655975341796875
20220112-1348,2022-01-12 13:48:16Z,u01, 249,40,movements,el-ex, rt, d,93874.94582225001, -1.6520564743620756, 0.3615163854370041, 2.899029049963035, -0.26502537727355957, 0.3580879271030426, 0.7547784447669983, -0.932275116443634, -0.35369300842285156, 0.07592400163412094, 0.03444790840148926, 0.08892253041267395, -0.02338813990354538, -0.7326956458112206, -0.033452818240009535, -0.2118756500241295,-0.645868985820003,-0.8986053466796875,-0.2723388671875,0.0467987060546875
20220112-1348,2022-01-12 13:48:16Z,u01, 250,40,movements,el-ex, rt, d,93874.97076525001, -1.640967785991663, 0.34223582378325756, 2.890918522133536, -0.20967639982700348, 0.3174467086791992, 0.8273516297340393, -0.9396882653236389, -0.3355940878391266, 0.06604773551225662, 0.04036587476730347, 0.11412811279296875, -0.03769708424806595, -0.7296534305884392, -0.02509462552802659, -0.2075763088933892,-0.6510668654917805,-0.899322509765625,-0.221466064453125,0.028350830078125
