SessionID,LoggingTime,UID,RecNo,Hertz,Activity,MoveType,Wrist,Side,TimeStamp,DMRoll,DMPitch,DMYaw,DMRotX,DMRotY,DMRotZ,DMGrvX,DMGrvY,DMGrvZ,DMUAccelX,DMUAccelY,DMUAccelZ,DMQuatX,DMQuatY,DMQuatW,DMQuatZ,AccelroX,AceelroY,AceelroZ
20220111-1132,2022-01-11 11:32:38Z,u01, 1,40,movements,el-ex, rt, d,76458.42574229167, -1.7081592254025173, 0.04673082412902758, 3.1008754375734218, -0.2696681022644043, 0.4317697286605835, 0.8315290212631226, -0.989499032497406, -0.04671381786465645, 0.13678182661533356, 0.5277376770973206, 0.25980281829833984, -0.04480196535587311, -0.7539170482920188, 0.0, -0.030980741093348307,-0.6562386621178863,-0.50006103515625,0.15460205078125,0.163665771484375
20220111-1132,2022-01-11 11:32:38Z,u01, 2,40,movements,el-ex, rt, d,76458.45068329167, -1.6982198366684766, 0.03089317273773951, 3.0827539642306325, -0.7783581018447876, 0.42748409509658813, 0.6880559921264648, -0.9914191961288452, -0.030888259410858154, 0.12701831758022308, 0.09018945693969727, -0.25307783484458923, 0.33501768112182617, -0.7505784739465591, 0.011879074040861526, -0.03102097277340249,-0.6599457918978624,-0.9012298583984375,-0.283966064453125,0.4620361328125
20220111-1132,2022-01-11 11:32:38Z,u01, 3,40,movements,el-ex, rt, d,76458.47562329167, -1.6816685786863692, 0.01592754780916624, 3.06969022796357, -0.06493311375379562, 1.4719464778900146, -0.0019598030485212803, -0.993733823299408, -0.015926875174045563, 0.11063119024038315, -0.004404544830322266, -0.035586804151535034, 0.07984422892332077, -0.7448854475590894, 0.021477124956548577, -0.02989853179441615,-0.666175946477669,-0.5162353515625,0.01470947265625,0.033294677734375
20220111-1132,2022-01-11 11:32:38Z,u01, 4,40,movements,el-ex, rt, d,76458.50056441667, -1.6681712376924098, 0.006654966082146801, 3.0733014936371754, 0.2027040272951126, 0.3013899326324463, 0.1818280667066574, -0.9952408075332642, -0.006654916796833277, 0.09721895307302475, 0.5580612421035767, 0.21794337034225464, -0.05302952229976654, -0.7403229676648481, 0.023051700924317853, -0.025399471865139744,-0.6713757895603023,-0.4371795654296875,0.2112884521484375,0.044189453125
20220111-1132,2022-01-11 11:32:38Z,u01, 5,40,movements,el-ex, rt, d,76458.52550541668, -1.6644446983182462, 0.005624885999781866, 3.075508401933548, -0.08061866462230682, 0.024997970089316368, -0.10763443261384964, -0.9956023097038269, -0.00562485633417964, 0.09351005405187607, 0.49515998363494873, 0.10100755095481873, 0.019557468593120575, -0.7390853703918348, 0.0225353756712503, -0.024319411393364465,-0.6727952189164379,-0.5086212158203125,0.118682861328125,0.1217803955078125
20220111-1132,2022-01-11 11:32:38Z,u01, 6,40,movements,el-ex, rt, d,76458.55044641667, -1.6672466991375754, 0.00951611805087282, 3.074077727924077, -0.06408096104860306, -0.23107056319713593, -0.19282443821430206, -0.995307207107544, -0.009515974670648575, 0.09629654139280319, 0.46054768562316895, 0.025629252195358276, 0.1547868251800537, -0.7400495921392534, 0.021791523316775474, -0.02620782937309446,-0.6716880693504247,-0.534759521484375,0.01611328125,0.2510833740234375
20220111-1132,2022-01-11 11:32:38Z,u01, 7,40,movements,el-ex, rt, d,76458.57538741667, -1.6751963630819096, 0.018490618678168248, 3.070728671354649, -0.32216188311576843, -0.3887719511985779, -0.4549174904823303, -0.9943851232528687, -0.018489565700292587, 0.10419266670942307, 0.3346257209777832, -0.19946697354316711, 0.10720252990722656, -0.7427589277750064, 0.020137228616474045, -0.030572065541886073,-0.6685573453632356,-0.671783447265625,-0.1952972412109375,0.175750732421875
20220111-1132,2022-01-11 11:32:38Z,u01, 8,40,movements,el-ex, rt, d,76458.60032841667, -1.6872588325505655, 0.03254897528347551, 3.0662191806950716, 0.0467287078499794, -0.559069037437439, -0.6923595070838928, -0.9926996827125549, -0.03254322707653046, 0.11613784730434418, 0.4018794894218445, 0.13270193338394165, -0.09427214413881302, -0.7468389877169942, 0.0173334835230608, -0.037192086386211465,-0.6637376709428905,-0.5908203125,0.10015869140625,0.0218658447265625
20220111-1132,2022-01-11 11:32:38Z,u01, 9,40,movements,el-ex, rt, d,76458.62526941668, -1.7032414069609858, 0.05263902850123938, 3.0748114030117186, 0.3645761013031006, -0.7230836749076843, -0.9694187045097351, -0.9898689389228821, -0.0526147224009037, 0.13187527656555176, 0.46810996532440186, 0.1837945282459259, -0.08802163600921631, -0.7522480260097881, 0.007781337287118828, -0.0417729993680615,-0.6575084511681906,-0.5215301513671875,0.0947723388671875,0.059967041015625
20220111-1132,2022-01-11 11:32:38Z,u01, 10,40,movements,el-ex, rt, d,76458.65020941666, -1.7242736998992414, 0.07857553966111977, 3.0854272086146963, 0.1504509150981903, -0.8683692812919617, -1.169975996017456, -0.9851961731910706, -0.07849470525979996, 0.1524038463830948, 0.28574860095977783, -0.05685073137283325, 0.028672099113464355, -0.7590677553498628, -0.004250344472779832, -0.048069415549274463,-0.6492205734711884,-0.6994476318359375,-0.135345458984375,0.1810760498046875
20220111-1132,2022-01-11 11:32:38Z,u01, 11,40,movements,el-ex, rt, d,76458.67515041668, -1.7461478900346028, 0.10677858531651795, 3.0936046514802085, 0.17993350327014923, -0.8286760449409485, -1.1393061876296997, -0.9790569543838501, -0.10657579451799393, 0.1734606921672821, 0.1887434720993042, -0.02136913686990738, -0.01675298810005188, -0.7658178762689511, -0.01591625149552711, -0.056273490831860895,-0.6403926678871616,-0.786041259765625,-0.096466064453125,0.1492919921875
20220111-1132,2022-01-11 11:32:38Z,u01, 12,40,movements,el-ex, rt, d,76458.70009141667, -1.7682033179269487, 0.13347353530518027, 3.104319145219608, 0.2193613052368164, -0.8556113243103027, -1.148328185081482, -0.9718568921089172, -0.13307757675647736, 0.1943829357624054, 0.26888442039489746, 0.09558673202991486, 0.003950744867324829, -0.7722781413308946, -0.027891593452110564, -0.06335176511726925,-0.6315023220791522,-0.702972412109375,-0.0374908447265625,0.198333740234375
20220111-1132,2022-01-11 11:32:38Z,u01, 13,40,movements,el-ex, rt, d,76458.72503241667, -1.7912232322636636, 0.16094225126595163, 3.1132726171323184, 0.086649589240551, -0.8870946764945984, -1.1657578945159912, -0.9631935954093933, -0.16024835407733917, 0.21582059562206268, 0.20921111106872559, 0.020371049642562866, 0.05233728885650635, -0.7786989003096211, -0.0392214365812662, -0.07156267790600634,-0.6220679172659619,-0.7960052490234375,-0.1561737060546875,0.2594757080078125
20220111-1132,2022-01-11 11:32:39Z,u01, 14,40,movements,el-ex, rt, d,76458.74997341668, -1.8127619321375115, 0.18762146446916594, 3.1227153119261524, 0.1367522031068802, -0.7196782231330872, -1.0119388103485107, -0.9538305997848511, -0.18652263283729553, 0.23540636897087097, -0.0092276930809021, 0.11584396660327911, 0.08338019251823425, -0.7843259809581901, -0.0503581544264004, -0.07953771135260124,-0.6131642901749026,-0.9630584716796875,-0.0706787109375,0.31878662109375
20220111-1132,2022-01-11 11:32:39Z,u01, 15,40,movements,el-ex, rt, d,76458.77491441667, -1.8294259755010267, 0.21132161654997605, 3.13008656697992, -0.08440520614385605, -0.5137069225311279, -0.9513154625892639, -0.9452357888221741, -0.20975230634212494, 0.2500666081905365, -0.05397075414657593, 0.24036142230033875, -0.029699325561523438, -0.7883255429469949, -0.059800876760954635, -0.08705709422087665,-0.6061252028915218,-0.96795654296875,0.01922607421875,0.218017578125
20220111-1132,2022-01-11 11:32:39Z,u01, 16,40,movements,el-ex, rt, d,76458.79985541667, -1.8425721725703907, 0.23458059418875318, 3.1348524314279214, -0.07113021612167358, -0.48631057143211365, -1.0088024139404297, -0.9369129538536072, -0.23243509232997894, 0.26109039783477783, 0.12006407976150513, -0.0005361437797546387, -0.0823337733745575, -0.7911424994185837, -0.06810837406923065, -0.09521732832497837,-0.600323658867018,-0.8168487548828125,-0.23297119140625,0.1787567138671875
20220111-1132,2022-01-11 11:32:39Z,u01, 17,40,movements,el-ex, rt, d,76458.82479541667, -1.8582086547837346, 0.2580597969559952, -3.140607151884743, 0.16395427286624908, -0.6140832901000977, -0.9963436126708984, -0.9272257089614868, -0.25520506501197815, 0.27408501505851746, 0.08028674125671387, -0.12225157022476196, 0.09958741068840027, -0.7943868354990755, -0.07740839098186597, -0.10278474360840928,-0.5936267426882784,-0.9167022705078125,-0.3698883056640625,0.3768157958984375
20220111-1132,2022-01-11 11:32:39Z,u01, 18,40,movements,el-ex, rt, d,76458.84973641667, -1.8699014507801095, 0.27837634051273846, -3.1336535845854754, -0.06790480017662048, -0.17103691399097443, -0.6423027515411377, -0.91881263256073, -0.2747948467731476, 0.28332141041755676, -0.12768083810806274, 0.11074766516685486, -0.022335201501846313, -0.7964554509207429, -0.0855536058236257, -0.1092899453972431,-0.5885532920624357,-1.0464935302734375,-0.1640472412109375,0.260986328125
20220111-1132,2022-01-11 11:32:39Z,u01, 19,40,movements,el-ex, rt, d,76458.87467741666, -1.8752626001462998, 0.29274663280711527, -3.1311752011502203, -0.1450340896844864, -0.2372431606054306, -0.5233147144317627, -0.913418710231781, -0.28858309984207153, 0.2870296835899353, 0.059307992458343506, 0.03711828589439392, -0.08713960647583008, -0.7970778449904963, -0.09045300977415222, -0.11452860623751315,-0.5859763993311513,-0.836944580078125,-0.297607421875,0.2261199951171875
20220111-1132,2022-01-11 11:32:39Z,u01, 20,40,movements,el-ex, rt, d,76458.89961841668, -1.8814889202600276, 0.305454907690625, -3.1300683413800416, -0.07911191135644913, -0.2553989291191101, -0.48809245228767395, -0.9080486297607422, -0.30072706937789917, 0.29156655073165894, 0.05700480937957764, -0.12120896577835083, 0.028822213411331177, -0.7980619729811089, -0.09423565796661493, -0.11956663747174501,-0.5830270918748495,-0.851043701171875,-0.42193603515625,0.3203887939453125
20220111-1132,2022-01-11 11:32:39Z,u01, 21,40,movements,el-ex, rt, d,76458.92455941667, -1.8878058791315857, 0.3150022454859234, -3.126144539151788, 0.05641043186187744, -0.09953996539115906, -0.3316699266433716, -0.9034191966056824, -0.3098185956478119, 0.2963882088661194, -0.054573237895965576, -0.06812629103660583, 0.06144556403160095, -0.799095156187447, -0.09818874445486508, -0.12254735891504662,-0.5803343602888043,-0.9760894775390625,-0.339874267578125,0.3496551513671875
20220111-1132,2022-01-11 11:32:39Z,u01, 22,40,movements,el-ex, rt, d,76458.94950041667, -1.888225828014305, 0.3211668751226433, -3.1247616600525254, -0.0977553054690361, 0.09407104551792145, -0.20879222452640533, -0.901462972164154, -0.31567397713661194, 0.2961657643318176, -0.029887616634368896, 0.051681727170944214, -0.08852425217628479, -0.7987385254739436, -0.10049705079063065, -0.12463421433428529,-0.5799856181056828,-0.9313507080078125,-0.2639923095703125,0.2076416015625
20220111-1132,2022-01-11 11:32:39Z,u01, 23,40,movements,el-ex, rt, d,76458.97444141668, -1.8851382140799875, 0.3266968407550235, -3.1263155993085707, -0.09972727298736572, 0.07860653102397919, -0.1735069900751114, -0.900699257850647, -0.3209163248538971, 0.2928367853164673, 0.06479233503341675, -0.015341579914093018, -0.07903078198432922, -0.7975472014310669, -0.10167035514409145, -0.12714018642105926,-0.5808759980488862,-0.821990966796875,-0.342559814453125,0.2352294921875
20220111-1132,2022-01-11 11:32:39Z,u01, 24,40,movements,el-ex, rt, d,76458.99938141667, -1.884039928132741, 0.3312502728723084, -3.1284674887144437, -0.1667046695947647, -0.05033034086227417, -0.0959002822637558, -0.8996209502220154, -0.3252255916595459, 0.29139411449432373, 0.01612180471420288, 0.057693272829055786, 0.03023052215576172, -0.7970269464812113, -0.10220130960267093, -0.1295275492642074,-0.5809695208747135,-0.8834991455078125,-0.2675323486328125,0.321624755859375
20220111-1132,2022-01-11 11:32:39Z,u01, 25,40,movements,el-ex, rt, d,76459.02432241668, -1.882866771298797, 0.3310710314681527, -3.1306665836350227, 0.004797035828232765, 0.14018499851226807, 0.11773529648780823, -0.9000176191329956, -0.3250560760498047, 0.2903563976287842, -0.0884619951248169, -0.009233474731445312, -0.03271186351776123, -0.7968102237568018, -0.1013492477416989, -0.13003531592023762,-0.5813025145286383,-0.9865570068359375,-0.3486328125,0.2158660888671875
20220111-1132,2022-01-11 11:32:39Z,u01, 26,40,movements,el-ex, rt, d,76459.04926341667, -1.8775547084218225, 0.32856244627549813, -3.131393365240771, -0.011210992932319641, 0.23935067653656006, 0.07699260115623474, -0.9023219347000122, -0.3226827085018158, 0.2858167588710785, 0.009896278381347656, -0.04746502637863159, -0.09468528628349304, -0.7954702264624367, -0.1006751759689527, -0.1289787757157734,-0.5834862187022833,-0.892425537109375,-0.370147705078125,0.191131591796875
20220111-1132,2022-01-11 11:32:39Z,u01, 27,40,movements,el-ex, rt, d,76459.07420441667, -1.871072553867857, 0.3265156400075445, -3.1323713939807067, 0.03156370297074318, 0.31878358125686646, 0.1368427574634552, -0.9047845602035522, -0.32074472308158875, 0.28015652298927307, 0.003524184226989746, -0.04194140434265137, -0.031774044036865234, -0.7937613213047094, -0.10010607024131074, -0.1281252112912111,-0.5860935386440724,-0.9121551513671875,-0.3668365478515625,0.2602691650390625
20220111-1132,2022-01-11 11:32:39Z,u01, 28,40,movements,el-ex, rt, d,76459.09914541667, -1.8623842600135405, 0.3195133309549357, -3.1334486882304446, -0.028001191094517708, 0.3657226860523224, 0.3118082284927368, -0.9093132019042969, -0.3141045570373535, 0.27292394638061523, -0.07182681560516357, -0.05315917730331421, 0.022150367498397827, -0.7917219724834608, -0.0981748125573727, -0.12523279661150646,-0.5897920422023711,-0.98114013671875,-0.3672637939453125,0.295074462890625
20220111-1132,2022-01-11 11:32:39Z,u01, 29,40,movements,el-ex, rt, d,76459.12408641668, -1.850374181818613, 0.31244027280870296, -3.1376929370913276, -0.1277851015329361, 0.5004377365112305, 0.2988307774066925, -0.9146381616592407, -0.30738168954849243, 0.2625901699066162, -0.12656056880950928, -0.05342763662338257, -0.02963435649871826, -0.7888226845866844, -0.09515175578840002, -0.12311217079719752,-0.594599292816708,-1.0454254150390625,-0.3475494384765625,0.2191314697265625
20220111-1132,2022-01-11 11:32:39Z,u01, 30,40,movements,el-ex, rt, d,76459.14902741667, -1.8350957975083257, 0.30612504932707163, 3.141059070786677, -0.023620691150426865, 0.594199001789093, 0.2931184470653534, -0.9203984141349792, -0.3013661205768585, 0.24908795952796936, -0.10622799396514893, -0.035990387201309204, -0.042972370982170105, -0.7848542191415898, -0.09245448647753701, -0.12123525695273138,-0.6006312304807817,-1.0266265869140625,-0.3373565673828125,0.20611572265625
20220111-1132,2022-01-11 11:32:39Z,u01, 31,40,movements,el-ex, rt, d,76459.17396741667, -1.819384544460198, 0.2982390428159187, 3.1407405527946297, 0.09789532423019409, 0.670000433921814, 0.33885496854782104, -0.926473081111908, -0.29383742809295654, 0.23517465591430664, -0.16007471084594727, -0.08293253183364868, 0.005990505218505859, -0.7805940249701597, -0.09088618724692821, -0.11752519700179467,-0.6071247617175697,-1.1013031005859375,-0.36358642578125,0.2523651123046875
20220111-1132,2022-01-11 11:32:39Z,u01, 32,40,movements,el-ex, rt, d,76459.19890841667, -1.8024861980128697, 0.2871523453555749, 3.140052859237591, 0.05394607409834862, 0.6507816910743713, 0.5529232621192932, -0.9334281086921692, -0.2832223176956177, 0.22022050619125366, -0.17350542545318604, -0.049526065587997437, 0.024026870727539062, -0.7760992838300851, -0.08820517948943324, -0.1126644302534528,-0.6141632221576444,-1.10693359375,-0.3327484130859375,0.2442474365234375
20220111-1132,2022-01-11 11:32:39Z,u01, 33,40,movements,el-ex, rt, d,76459.22384941667, -1.7862946880132993, 0.27109246896272726, 3.136410925197037, -0.05674748495221138, 0.5921089053153992, 0.7417628169059753, -0.9411936402320862, -0.2677841782569885, 0.20602484047412872, -0.1776723861694336, -0.04882049560546875, 0.022948533296585083, -0.7721200912727149, -0.08272233435170012, -0.10688320464940582,-0.6209376732819349,-1.1215057373046875,-0.2987518310546875,0.2237701416015625
20220111-1132,2022-01-11 11:32:39Z,u01, 34,40,movements,el-ex, rt, d,76459.24879041668, -1.7698020062192452, 0.25211305730379274, 3.1295519267610596, -0.16686983406543732, 0.5717123746871948, 0.8349077701568604, -0.9492748975753784, -0.24945077300071716, 0.19144506752490997, -0.13748645782470703, -0.014297336339950562, 0.03514787554740906, -0.7681775419316739, -0.07500533431538836, -0.10107205529786223,-0.6277433980928535,-1.086761474609375,-0.2637481689453125,0.226593017578125
20220111-1132,2022-01-11 11:32:39Z,u01, 35,40,movements,el-ex, rt, d,76459.27373141667, -1.7538359802159302, 0.23275384101497193, 3.1218872009458587, -0.11312760412693024, 0.5516650080680847, 0.7740026712417603, -0.9567801356315613, -0.23065797984600067, 0.17711108922958374, -0.1406623125076294, -0.09624625742435455, 0.0937018096446991, -0.7642659839766108, -0.06673115248659378, -0.09551945276004631,-0.6342872698195767,-1.1095428466796875,-0.3179779052734375,0.2866973876953125
20220111-1132,2022-01-11 11:32:39Z,u01, 36,40,movements,el-ex, rt, d,76459.29867241667, -1.739343781284429, 0.2148396052505159, 3.1180202413554396, 0.07677648961544037, 0.5342371463775635, 0.6921979784965515, -0.9631657004356384, -0.2131907194852829, 0.16389405727386475, -0.21000617742538452, -0.07562758028507233, 0.140137180685997, -0.7604753315467967, -0.060202158732233724, -0.08947689819906912,-0.6403489314113332,-1.1731719970703125,-0.288818359375,0.3040313720703125
20220111-1132,2022-01-11 11:32:39Z,u01, 37,40,movements,el-ex, rt, d,76459.32361341667, -1.7265767923827413, 0.19894920483133272, 3.11772212502693, 0.04910235106945038, 0.4626038670539856, 0.5469796657562256, -0.9684044718742371, -0.1976393759250641, 0.15209078788757324, -0.23244702816009521, -0.027183622121810913, 0.08983732759952545, -0.7569434363012739, -0.05551598395778262, -0.08318780215089155,-0.6457820372494242,-1.2096099853515625,-0.2064056396484375,0.2460784912109375
20220111-1132,2022-01-11 11:32:39Z,u01, 38,40,movements,el-ex, rt, d,76459.34855341667, -1.7175690540390043, 0.18943002365478964, 3.111654180934193, -0.511438250541687, 0.10173483192920685, 0.20433545112609863, -0.9715523719787598, -0.18829914927482605, 0.1436302363872528, -0.3916832208633423, -0.037134259939193726, -0.0237419456243515, -0.7544962895879401, -0.05050218552635549, -0.08132479020888322,-0.6492851698650625,-1.3632354736328125,-0.225433349609375,0.1198883056640625
20220111-1132,2022-01-11 11:32:39Z,u01, 39,40,movements,el-ex, rt, d,76459.37349441666, -1.7182492038162445, 0.1944052278314639, 3.090287440302851, -0.7558708190917969, -0.24846360087394714, -0.20900945365428925, -0.9705157279968262, -0.19318300485610962, 0.14415158331394196, -0.7236065864562988, -0.06803220510482788, -0.11746406555175781, -0.755074260500405, -0.04403015412262351, -0.09014151202266496,-0.6479188064323935,-1.779510498046875,-0.3165435791015625,0.1615447998046875
20220111-1132,2022-01-11 11:32:39Z,u01, 40,40,movements,el-ex, rt, d,76459.39843541668, -1.7156326078078088, 0.20123718449801578, 3.0871359102797507, 0.37867671251296997, 0.2549135684967041, -0.35370028018951416, -0.9695607423782349, -0.19988170266151428, 0.14141783118247986, -0.7545602321624756, -0.530297040939331, 0.4273076057434082, -0.7541000336923958, -0.045189074801271045, -0.0936705576159867,-0.6484726736280588,-1.72412109375,-0.7301788330078125,0.5687255859375
20220111-1132,2022-01-11 11:32:39Z,u01, 41,40,movements,el-ex, rt, d,76459.42337641667, -1.7165961265386094, 0.2134629905883855, 3.097194507448644, 0.2645372152328491, -0.18420672416687012, -0.7352914810180664, -0.9669341444969177, -0.21184556186199188, 0.14198632538318634, -0.41270458698272705, -0.3087995946407318, 0.11469699442386627, -0.7537854070117304, -0.052921866761421466, -0.09502226574107303,-0.6480568870433931,-1.339874267578125,-0.4098358154296875,0.169769287109375
20220111-1132,2022-01-11 11:32:39Z,u01, 42,40,movements,el-ex, rt, d,76459.44831741667, -1.7252076593232608, 0.2334363240984198, 3.106824876133577, 0.006065133027732372, -0.2996665835380554, -0.8706124424934387, -0.9613022208213806, -0.2313220053911209, 0.14962702989578247, -0.38298189640045166, 0.20565670728683472, -0.18666015565395355, -0.7555738069500026, -0.06262377537317926, -0.09966751834610865,-0.6444011976246329,-1.3442840576171875,-0.025665283203125,-0.0370330810546875
20220111-1132,2022-01-11 11:32:39Z,u01, 43,40,movements,el-ex, rt, d,76459.47325841668, -1.7339855784257714, 0.25421596969172466, 3.106091520131511, -0.3669251799583435, -0.41082924604415894, -0.8381572365760803, -0.955001711845398, -0.2514866590499878, 0.15724433958530426, -0.37483203411102295, -0.07932379841804504, -0.1140621155500412, -0.7575728279608207, -0.0685972455607487, -0.10802296776909165,-0.6400849098171247,-1.33807373046875,-0.3878326416015625,0.1057281494140625
20220111-1132,2022-01-11 11:32:39Z,u01, 44,40,movements,el-ex, rt, d,76459.49819941667, -1.7410444078054823, 0.2776547183866323, 3.0981194518469737, -0.4928387999534607, -0.29577112197875977, -0.9316139221191406, -0.9477972984313965, -0.2741009593009949, 0.1629379391670227, -0.38322675228118896, -0.14415770769119263, 0.12917612493038177, -0.7590680275338237, -0.07269596010988572, -0.11966264199080717,-0.6357765518563034,-1.331024169921875,-0.4182586669921875,0.2921142578125
20220111-1132,2022-01-11 11:32:39Z,u01, 45,40,movements,el-ex, rt, d,76459.52313929168, -1.7473361806040628, 0.3019913490813538, 3.097361206196268, 0.14962978661060333, -0.23550617694854736, -0.9597667455673218, -0.9399065375328064, -0.29742202162742615, 0.16767655313014984, -0.2721598744392395, -0.04490885138511658, 0.046251505613327026, -0.7599157921357812, -0.07978887014920244, -0.1293351431637471,-0.6320078989754017,-1.183746337890625,-0.32354736328125,0.1943206787109375
20220111-1132,2022-01-11 11:32:39Z,u01, 46,40,movements,el-ex, rt, d,76459.54808029167, -1.7563097246636818, 0.32260576440735766, 3.109283425830955, 0.30281054973602295, -0.21637509763240814, -0.8315094113349915, -0.9321393370628357, -0.31703898310661316, 0.17493577301502228, -0.16127490997314453, -0.015068531036376953, -0.04522086679935455, -0.7611297452145509, -0.09027400220641285, -0.1337603728963072,-0.628203989368779,-1.093414306640625,-0.3321075439453125,0.1297149658203125
20220111-1132,2022-01-11 11:32:39Z,u01, 47,40,movements,el-ex, rt, d,76459.57302129167, -1.7642420619754342, 0.3403364918176577, 3.1155644915636462, -0.10454003512859344, -0.2519301772117615, -0.6571868658065796, -0.9250598549842834, -0.33380430936813354, 0.18121497333049774, -0.12759816646575928, -0.005352824926376343, -0.04019331932067871, -0.7622728754719927, -0.09771156571778966, -0.1388916686477863,-0.6245811246133965,-1.0442962646484375,-0.3497161865234375,0.15301513671875
20220111-1132,2022-01-11 11:32:39Z,u01, 48,40,movements,el-ex, rt, d,76459.59796229168, -1.7707141290807142, 0.3550463008252314, 3.114804456560557, -0.13764160871505737, -0.2589820921421051, -0.4883599579334259, -0.9189554452896118, -0.3476337790489197, 0.18620285391807556, -0.11714679002761841, -0.017493754625320435, 0.002563461661338806, -0.7634036054991016, -0.10156948957951994, -0.14504015418031657,-0.6211778059778945,-1.036102294921875,-0.3651275634765625,0.1887664794921875
20220111-1132,2022-01-11 11:32:39Z,u01, 49,40,movements,el-ex, rt, d,76459.62290329167, -1.77735042560472, 0.364481787182938, 3.116203562309621, 0.11876089125871658, -0.28869470953941345, -0.27924561500549316, -0.9144484400749207, -0.3564651608467102, 0.19161592423915863, -0.09228074550628662, 0.006199657917022705, -0.0001182258129119873, -0.7647716654544139, -0.10455746883376238, -0.14853951165376747,-0.6181650803133061,-1.00042724609375,-0.3583831787109375,0.1877593994140625
20220111-1132,2022-01-11 11:32:39Z,u01, 50,40,movements,el-ex, rt, d,76459.64784429167, -1.7873621025298714, 0.36831421961661476, 3.120705114431935, 0.12030927836894989, -0.37271392345428467, -0.09058427810668945, -0.9111433625221252, -0.3600432276725769, 0.2004663199186325, -0.11784839630126953, -0.10319840908050537, 0.0013616383075714111, -0.7673611747846185, -0.10672389202509969, -0.14914405859232788,-0.6144289587566547,-1.02899169921875,-0.4632415771484375,0.2018280029296875
20220111-1132,2022-01-11 11:32:39Z,u01, 51,40,movements,el-ex, rt, d,76459.67278529167, -1.7950729232217995, 0.36936903661413006, 3.1200801581150888, -0.18999981880187988, -0.2646784484386444, 0.016433052718639374, -0.9091996550559998, -0.3610270917415619, 0.2074013501405716, -0.10152721405029297, -0.05540049076080322, -0.041111111640930176, -0.7696853355088535, -0.10623163827844784, -0.15015014705116028,-0.611354418930428,-0.9834442138671875,-0.4112396240234375,0.1726226806640625
20220111-1132,2022-01-11 11:32:39Z,u01, 52,40,movements,el-ex, rt, d,76459.69772529167, -1.8000919475138821, 0.36955333945167534, 3.1166524690257718, -0.017060693353414536, -0.2390623837709427, 0.02413218468427658, -0.9080824851989746, -0.36119896173477173, 0.21194688975811005, 0.006318569183349609, 0.014244645833969116, -0.026720523834228516, -0.7713848416556807, -0.10458906489921566, -0.15153131609179105,-0.6091508784754045,-0.901763916015625,-0.346954345703125,0.1852264404296875
20220111-1132,2022-01-11 11:32:39Z,u01, 53,40,movements,el-ex, rt, d,76459.72266629167, -1.803957314055515, 0.36712422509141684, 3.1175901685806746, 0.04499512165784836, -0.027329817414283752, 0.16915202140808105, -0.908107340335846, -0.358932763338089, 0.21565744280815125, -0.013355612754821777, 0.03762853145599365, 0.030573472380638123, -0.7726773092440289, -0.10391580904382697, -0.15051321195577302,-0.6078790643267791,-0.9141082763671875,-0.330413818359375,0.26300048828125
20220111-1132,2022-01-11 11:32:40Z,u01, 54,40,movements,el-ex, rt, d,76459.74760729168, -1.8024384405153917, 0.3605867912962467, 3.1141650895422996, -0.1007194072008133, 0.0670761838555336, 0.4012104272842407, -0.9106982946395874, -0.3528233468532562, 0.2148120254278183, 0.03470653295516968, -0.023504167795181274, 0.029847383499145508, -0.7728287685358379, -0.10070604994473298, -0.14896066298568555,-0.6086088040485522,-0.8759918212890625,-0.3763275146484375,0.244659423828125
20220111-1132,2022-01-11 11:32:40Z,u01, 55,40,movements,el-ex, rt, d,76459.77254829167, -1.7967071895262328, 0.3500542097661763, 3.1071151541432687, -0.16635866463184357, 0.17873120307922363, 0.5401828289031982, -0.9154855608940125, -0.3429487347602844, 0.21040983498096466, 0.10426735877990723, 0.08550247550010681, -0.020682111382484436, -0.7721055704491049, -0.0951730411788771, -0.14677927747130898,-0.6109426217869477,-0.79541015625,-0.2575531005859375,0.1751861572265625
20220111-1132,2022-01-11 11:32:40Z,u01, 56,40,movements,el-ex, rt, d,76459.79748929167, -1.7887652667018883, 0.33702524021108526, 3.0995955942716202, -0.1840476095676422, 0.20275965332984924, 0.5918732285499573, -0.9214123487472534, -0.3306811451911926, 0.20408156514167786, 0.1410169005393982, 0.041771262884140015, -0.0026351213455200195, -0.7708118144477766, -0.08882527540499041, -0.1437180299965456,-0.6142510711251754,-0.7803955078125,-0.288909912109375,0.201446533203125
20220111-1132,2022-01-11 11:32:40Z,u01, 57,40,movements,el-ex, rt, d,76459.82243029166, -1.7789352512226764, 0.3223058643421728, 3.0922093942883078, -0.08291035145521164, 0.41705942153930664, 0.6852687001228333, -0.9280362129211426, -0.3167545199394226, 0.19599901139736176, 0.0696529746055603, 0.05216708779335022, 0.012390166521072388, -0.768933717118897, -0.08210022198034828, -0.13994263852640115,-0.6183984744653315,-0.8549346923828125,-0.2537689208984375,0.2061767578125
20220111-1132,2022-01-11 11:32:40Z,u01, 58,40,movements,el-ex, rt, d,76459.84737129167, -1.7649301061907208, 0.3051735224236156, 3.0843426416596382, -0.23663119971752167, 0.45573195815086365, 0.7991129755973816, -0.9358780980110168, -0.3004586696624756, 0.18400295078754425, 0.14065098762512207, 0.0353982150554657, 0.06039704382419586, -0.7657846784299143, -0.07466792543316048, -0.13530927525226,-0.6242516067401414,-0.79522705078125,-0.2650604248046875,0.2444000244140625
20220111-1132,2022-01-11 11:32:40Z,u01, 59,40,movements,el-ex, rt, d,76459.87231129168, -1.7498632693129446, 0.2867666265670637, 3.0728341569735758, -0.24863167107105255, 0.5292927622795105, 0.8153851628303528, -0.9438265562057495, -0.2828523814678192, 0.17083802819252014, 0.11547285318374634, -0.0328214168548584, 0.023940309882164, -0.7623234399357359, -0.0654368798381188, -0.1314135064453535,-0.6303263776620716,-0.83477783203125,-0.3239898681640625,0.156158447265625
20220111-1132,2022-01-11 11:32:40Z,u01, 60,40,movements,el-ex, rt, d,76459.89725229167, -1.7329709006876035, 0.26850274095915705, 3.0663944791043733, -0.08567687124013901, 0.6391294598579407, 0.7841907143592834, -0.9515178203582764, -0.2652881145477295, 0.15567921102046967, 0.15256768465042114, 0.14248543977737427, -0.07177115976810455, -0.757924927596403, -0.05821863289789947, -0.12604917997034842,-0.637394667853763,-0.7989501953125,-0.122802734375,0.0839080810546875
20220111-1132,2022-01-11 11:32:40Z,u01, 61,40,movements,el-ex, rt, d,76459.92219329167, -1.7173486271548597, 0.24843586174261148, 3.0604418654789742, -0.16268087923526764, 0.5362381339073181, 0.8567237257957458, -0.9589075446128845, -0.2458881437778473, 0.141544908285141, 0.14907801151275635, 0.03171581029891968, 0.026194795966148376, -0.7538102161259708, -0.05042432968836108, -0.12001343355928512,-0.6440684493776407,-0.834564208984375,-0.2531890869140625,0.19085693359375
20220111-1132,2022-01-11 11:32:40Z,u01, 62,40,movements,el-ex, rt, d,76459.94713429167, -1.7004976897525486, 0.22714381578425785, 3.0511126664631605, -0.2482660412788391, 0.6534226536750793, 0.9180635809898376, -0.9661298394203186, -0.22519563138484955, 0.1260157823562622, 0.04852735996246338, -0.02851225435733795, 0.03862641751766205, -0.7492212369456714, -0.040932000769621835, -0.11471927937302995,-0.651023466274284,-0.9176025390625,-0.2537078857421875,0.164642333984375
20220111-1132,2022-01-11 11:32:40Z,u01, 63,40,movements,el-ex, rt, d,76459.97207529168, -1.6829875050986698, 0.20504891355682647, 3.047369286418854, 0.16782277822494507, 0.659648060798645, 0.9211776256561279, -0.9728958606719971, -0.20361505448818207, 0.10961060225963593, 0.09228068590164185, 0.09185968339443207, -0.05828011780977249, -0.7441126686818864, -0.03319092214962088, -0.10744420344050892,-0.6585213707870261,-0.85595703125,-0.0977630615234375,0.031585693359375
20220111-1132,2022-01-11 11:32:40Z,u01, 64,40,movements,el-ex, rt, d,76459.99701629167, -1.668670874307985, 0.18051080964576774, 3.046998753703335, -0.16818399727344513, 0.3498417139053345, 0.9775503277778625, -0.9790439009666443, -0.17953211069107056, 0.09613063186407089, 0.25481605529785156, -0.08468908071517944, 0.031173348426818848, -0.739872011740695, -0.025587564646557703, -0.09832717783964662,-0.6650311120164316,-0.7242279052734375,-0.26422119140625,0.1273040771484375
20220111-1132,2022-01-11 11:32:40Z,u01, 65,40,movements,el-ex, rt, d,76460.02195629168, -1.6592641751628474, 0.15617306469792314, 3.0300345781688414, -0.46747246384620667, 0.3981974720954895, 1.1894811391830444, -0.9839667081832886, -0.15553899109363556, 0.08727722615003586, 0.06996512413024902, -0.32943105697631836, 0.18220818042755127, -0.737227528935313, -0.011583835097456308, -0.09497993482645611,-0.6688350111183154,-0.957550048828125,-0.51361083984375,0.1627044677734375
20220111-1132,2022-01-11 11:32:40Z,u01, 66,40,movements,el-ex, rt, d,76460.04689729167, -1.6419286031684093, 0.12647792159354918, 3.024974936568066, 0.19463898241519928, 0.7044312357902527, 1.132310390472412, -0.9895036220550537, -0.12614098191261292, 0.07050459831953049, 0.33079707622528076, 0.2645840048789978, -0.21004629135131836, -0.7316092603063982, -0.00043524365615393856, -0.08580555299880088,-0.6763024811129819,-0.6587066650390625,0.1384429931640625,-0.1395416259765625
20220111-1132,2022-01-11 11:32:40Z,u01, 67,40,movements,el-ex, rt, d,76460.07183829167, -1.6303247643426766, 0.10332246109362384, 3.0284041208774433, 0.01398846972733736, 0.2755168676376343, 0.7536336183547974, -0.9929051399230957, -0.10313872247934341, 0.0591760091483593, 0.5264897346496582, 0.4116714298725128, -0.16513311862945557, -0.7277051763932296, 0.005760238568110532, -0.0762611236798254,-0.6816129793476031,-0.4882659912109375,0.23260498046875,-0.0386810302734375
20220111-1132,2022-01-11 11:32:40Z,u01, 68,40,movements,el-ex, rt, d,76460.09677929168, -1.6254868256926869, 0.08712450048203883, 3.01631632195593, -0.6927409172058105, 0.1170397400856018, 0.6477962732315063, -0.9947174191474915, -0.08701431751251221, 0.054455894976854324, 0.3076906204223633, -0.2691258192062378, 0.16658280789852142, -0.7259384947994112, 0.015532220849653, -0.07455713926742263,-0.6835299071936216,-0.6870269775390625,-0.35614013671875,0.221038818359375
20220111-1132,2022-01-11 11:32:40Z,u01, 69,40,movements,el-ex, rt, d,76460.12172029167, -1.6205556733291726, 0.07223258634249576, 3.000572374891008, -0.43880322575569153, 0.07303673028945923, 0.5595368146896362, -0.9961579442024231, -0.07216978818178177, 0.049609117209911346, 0.4174988269805908, -0.10809753090143204, 0.011822707951068878, -0.7239607533472767, 0.026179895511734386, -0.07462531027945818,-0.685293067112643,-0.51495361328125,-0.072784423828125,0.02410888671875
20220111-1132,2022-01-11 11:32:40Z,u01, 70,40,movements,el-ex, rt, d,76460.14666129167, -1.621070166524614, 0.06309280822726684, 3.000920346813925, 0.41619956493377686, -0.07199635356664658, 0.18994759023189545, -0.9967494010925293, -0.06305095553398132, 0.05015267804265022, 0.4826807379722595, 0.1345841884613037, -0.06605242937803268, -0.7240321123305964, 0.02922054465920476, -0.07120533986912653,-0.6854586067444741,-0.514068603515625,0.071533203125,-0.015899658203125
20220111-1132,2022-01-11 11:32:40Z,u01, 71,40,movements,el-ex, rt, d,76460.17160229167, -1.6235529575500156, 0.060785211671905, 3.011170472314756, 0.19340959191322327, -0.17066814005374908, -0.005766859278082848, -0.9967642426490784, -0.06074778735637665, 0.05263476446270943, 0.4753105640411377, 0.06526438146829605, -0.048621781170368195, -0.7249973109912571, 0.026387147785555787, -0.06682635805256393,-0.6849939494890631,-0.4693450927734375,0.0206451416015625,0.0344085693359375
20220111-1132,2022-01-11 11:32:40Z,u01, 72,40,movements,el-ex, rt, d,76460.19654229167, -1.6342277524416302, 0.06471003597653083, 3.0072622004953864, -0.30651792883872986, -0.5856174230575562, -0.3802533745765686, -0.9959000945091248, -0.06466488540172577, 0.06325622648000717, 0.46510791778564453, -0.19859501719474792, 0.18414974212646484, -0.7286347031877336, 0.02682500955375533, -0.06943962026005707,-0.6808450469333738,-0.530792236328125,-0.2632598876953125,0.247406005859375
20220111-1132,2022-01-11 11:32:40Z,u01, 73,40,movements,el-ex, rt, d,76460.22148329167, -1.6461268682160366, 0.07778445068989126, 3.0060126170885804, 0.28458037972450256, -0.432692289352417, -0.5466639399528503, -0.9941489100456238, -0.07770603895187378, 0.07503175735473633, 0.31325602531433105, -0.01406031847000122, 0.005839824676513672, -0.7327859410008184, 0.023251743049942764, -0.07446997327846777,-0.6759721737095696,-0.669525146484375,-0.0038604736328125,0.0333709716796875
20220111-1132,2022-01-11 11:32:40Z,u01, 74,40,movements,el-ex, rt, d,76460.24642429168, -1.6574771206066494, 0.09333234022775198, 3.0259417094961485, 0.9193986654281616, -0.41663920879364014, -0.8637701869010925, -0.9919095635414124, -0.09319689869880676, 0.08619549125432968, 0.42878401279449463, 0.32474902272224426, -0.11730825901031494, -0.7368683795414387, 0.011078697949249594, -0.07334122950437094,-0.6719547982826393,-0.5631256103515625,0.2315521240234375,-0.0311126708984375
20220111-1132,2022-01-11 11:32:40Z,u01, 75,40,movements,el-ex, rt, d,76460.27136529167, -1.6765198916647497, 0.11817085632697735, 3.040515667171441, -0.21621444821357727, -1.0226414203643799, -1.292510747909546, -0.9874812960624695, -0.11789602041244507, 0.10479076951742172, 0.5582363605499268, 0.10028734803199768, 0.06175875663757324, -0.7432305095374654, -0.00194756408336072, -0.07757191434153948,-0.6645202539603683,-0.470458984375,-0.128570556640625,0.2786712646484375
20220111-1132,2022-01-11 11:32:40Z,u01, 76,40,movements,el-ex, rt, d,76460.29630629167, -1.7023650369991068, 0.15697492452208056, 3.0429140081906008, 0.4044221341609955, -0.7766799330711365, -1.7164347171783447, -0.9791684150695801, -0.15633104741573334, 0.12957645952701569, 0.07548177242279053, -0.33671092987060547, 0.05604662001132965, -0.751381371472803, -0.014637743081719168, -0.09130096412311672,-0.65335748040551,-0.9036865234375,-0.4930419921875,0.1856231689453125
20220111-1132,2022-01-11 11:32:40Z,u01, 77,40,movements,el-ex, rt, d,76460.32124729168, -1.7156508728781228, 0.1947279910794666, 3.0640774870866734, 0.6927635073661804, -0.1513974368572235, -1.5718495845794678, -0.9708252549171448, -0.19349966943264008, 0.14162036776542664, 0.217864990234375, 0.21751701831817627, -0.19195914268493652, -0.7547378578018409, -0.03436496529408384, -0.09870107171649889,-0.6476480165017882,-0.6452178955078125,0.1280059814453125,-0.0849151611328125
20220111-1132,2022-01-11 11:32:40Z,u01, 78,40,movements,el-ex, rt, d,76460.34618829167, -1.72971278384647, 0.2328298992404891, 3.077377961137274, -0.166194349527359, -0.9219000339508057, -1.448903203010559, -0.9607567191123962, -0.23073197901248932, 0.15397845208644867, 0.6597007513046265, 0.18051525950431824, 0.16761566698551178, -0.7578806392353836, -0.051050610848891675, -0.109031572911718,-0.6411886885516234,-0.301055908203125,-0.0502166748046875,0.32159423828125
20220111-1132,2022-01-11 11:32:40Z,u01, 79,40,movements,el-ex, rt, d,76460.37112829168, -1.7623737215793396, 0.27129855915041, 3.092378840504724, 0.7847275733947754, -0.842576265335083, -1.8274157047271729, -0.9457980990409851, -0.26798272132873535, 0.18344329297542572, -0.012957453727722168, -0.48325327038764954, 0.17793060839176178, -0.7662929657869062, -0.0672066588075429, -0.11981084943978598,-0.6276335125143235,-1.1689605712890625,-0.6850433349609375,0.31793212890625
20220111-1132,2022-01-11 11:32:40Z,u01, 80,40,movements,el-ex, rt, d,76460.39606929167, -1.7714699742065194, 0.3023330754298592, 3.110104608329714, 0.008119462989270687, 0.2864415645599365, -1.0145379304885864, -0.9354871511459351, -0.29774826765060425, 0.19028881192207336, -0.20617550611495972, 0.6271549463272095, -0.12826189398765564, -0.7669544586470387, -0.08321817564350925, -0.1264481587229742,-0.6235916216179698,-1.14166259765625,0.32940673828125,0.0620269775390625
20220111-1132,2022-01-11 11:32:40Z,u01, 81,40,movements,el-ex, rt, d,76460.42101029167, -1.7741703292628213, 0.329386534756402, 3.116921740119492, 0.2601665258407593, -0.40525931119918823, -1.0556299686431885, -0.9267394542694092, -0.3234626054763794, 0.19111694395542145, 0.26585090160369873, 0.41957777738571167, -0.09265211224555969, -0.7659631604966886, -0.09412175672735401, -0.13477609679716457,-0.6215117381096649,-0.621368408203125,-0.1018829345703125,0.146148681640625
20220111-1132,2022-01-11 11:32:40Z,u01, 82,40,movements,el-ex, rt, d,76460.44595129167, -1.796795048415258, 0.35337043583909306, 3.1402796968268696, 0.8869658708572388, -0.6040436625480652, -1.2655692100524902, -0.9143535494804382, -0.34606194496154785, 0.21023423969745636, -0.02354300022125244, -0.4026104807853699, 0.07180912792682648, -0.770221961223197, -0.10897362989348097, -0.13791056671297944,-0.6130770126923851,-0.937896728515625,-0.7486724853515625,0.28204345703125
20220111-1132,2022-01-11 11:32:40Z,u01, 83,40,movements,el-ex, rt, d,76460.47089229168, -1.811456673722849, 0.37925351060716106, -3.1313079174469256, -0.32322052121162415, -0.2859868109226227, -0.8926099538803101, -0.9021697044372559, -0.3702271282672882, 0.22140751779079437, -0.19986563920974731, 0.16409620642662048, 0.0466739684343338, -0.7721614333727487, -0.12029332141235322, -0.1452014280987902,-0.6068052674049056,-1.0868072509765625,-0.1157073974609375,0.2203826904296875
20220111-1132,2022-01-11 11:32:40Z,u01, 84,40,movements,el-ex, rt, d,76460.49583329167, -1.8180764008227934, 0.3996940619116922, -3.126532475507732, 0.29847225546836853, -0.13628852367401123, -0.8175811171531677, -0.8931595087051392, -0.38913652300834656, 0.22547513246536255, -0.02229166030883789, 0.06430739164352417, -0.12771210074424744, -0.7722707938856493, -0.12780996954287083, -0.152074968750839,-0.6034365836480542,-0.9154510498046875,-0.3248291015625,0.0977630615234375
20220111-1132,2022-01-11 11:32:40Z,u01, 85,40,movements,el-ex, rt, d,76460.520773875, -1.829311168646161, 0.41513442462272643, -3.112379176577584, 0.4010671079158783, -0.31477031111717224, -0.6696498990058899, -0.8846550583839417, -0.40331295132637024, 0.2339310199022293, 0.04978585243225098, -0.21573606133460999, 0.010087460279464722, -0.7734257492242358, -0.13703329349830168, -0.15455111615154601,-0.5992898189544917,-0.8555145263671875,-0.640380859375,0.221038818359375
20220111-1132,2022-01-11 11:32:40Z,u01, 86,40,movements,el-ex, rt, d,76460.545713875, -1.8391370958938005, 0.42884860330302227, -3.1076652662821407, -0.18359974026679993, -0.24108079075813293, -0.41532403230667114, -0.8768979907035828, -0.41582393646240234, 0.24112294614315033, -0.10062575340270996, 0.01927858591079712, 0.04134772717952728, -0.7748263908938529, -0.14214617812851765, -0.1591652735472839,-0.5950671325940893,-0.9775238037109375,-0.39654541015625,0.282470703125
20220111-1132,2022-01-11 11:32:40Z,u01, 87,40,movements,el-ex, rt, d,76460.570654875, -1.8420224151574554, 0.43765584717120043, -3.1085165584667003, -0.10379325598478317, -0.03942156583070755, -0.27932050824165344, -0.8726361989974976, -0.4238174259662628, 0.24266144633293152, -0.05943155288696289, 0.17207801342010498, -0.0747690498828888, -0.7749478553845357, -0.14417539730166057, -0.1630562586452617,-0.5933648454321007,-0.8996734619140625,-0.24530029296875,0.1695556640625
20220111-1132,2022-01-11 11:32:40Z,u01, 88,40,movements,el-ex, rt, d,76460.595595875, -1.8434933600343557, 0.4433858776980928, -3.1080878967216923, -0.01354685053229332, -0.08051067590713501, -0.16724936664104462, -0.8699254989624023, -0.4290004074573517, 0.24328678846359253, 0.09606069326400757, 0.03927561640739441, -0.07664558291435242, -0.7748262615149826, -0.14590289826320701, -0.16526848246148634,-0.5924888312963668,-0.77386474609375,-0.3897247314453125,0.1666412353515625
20220111-1132,2022-01-11 11:32:40Z,u01, 89,40,movements,el-ex, rt, d,76460.62053687501, -1.8472172075511657, 0.44621661712836636, -3.1042455341000688, 0.19656027853488922, -0.08129957318305969, -0.1413579136133194, -0.8678417205810547, -0.43155568838119507, 0.24619214236736298, 0.07528489828109741, -0.11850845813751221, -0.05734941363334656, -0.7753823808173611, -0.14791293328502064, -0.16550871709582324,-0.5911944376782874,-0.8089447021484375,-0.54339599609375,0.183563232421875
20220111-1132,2022-01-11 11:32:40Z,u01, 90,40,movements,el-ex, rt, d,76460.645477875, -1.849655986977485, 0.44709123493858544, -3.1010114870554686, 0.04703164100646973, 0.023552274331450462, 0.0525234118103981, -0.8668755888938904, -0.4323444962501526, 0.24820390343666077, -0.028830647468566895, -0.0071239471435546875, -0.05286094546318054, -0.7757803039937543, -0.14922087523966115, -0.16507593243964228,-0.5904642840648102,-0.8957061767578125,-0.4394683837890625,0.195343017578125
20220111-1132,2022-01-11 11:32:40Z,u01, 91,40,movements,el-ex, rt, d,76460.670418875, -1.8467554213540303, 0.4430171574339783, -3.1027913187144347, -0.08792383968830109, 0.15388643741607666, 0.2842435836791992, -0.8692792057991028, -0.4286673069000244, 0.24616625905036926, -0.02958548069000244, -0.011365652084350586, -0.06357967853546143, -0.7754375996451996, -0.14757932072575092, -0.1637960508147943,-0.5916820412536465,-0.89825439453125,-0.457000732421875,0.2014007568359375
20220111-1132,2022-01-11 11:32:40Z,u01, 92,40,movements,el-ex, rt, d,76460.695358875, -1.8387262584746267, 0.43467966036073885, -3.1108007769060775, -0.25670289993286133, 0.22939391434192657, 0.5180914402008057, -0.874643862247467, -0.4211198687553406, 0.2401166707277298, -0.06433618068695068, -0.08689099550247192, 0.02457737922668457, -0.7744029222252176, -0.14268302768475216, -0.16233926359837142,-0.5946322973232241,-0.9389801025390625,-0.5080108642578125,0.2646942138671875
20220111-1132,2022-01-11 11:32:40Z,u01, 93,40,movements,el-ex, rt, d,76460.720299875, -1.8270137030801903, 0.4192104737179551, -3.119957058417993, 0.058722157031297684, 0.41713717579841614, 0.8399547338485718, -0.8835927248001099, -0.4070394039154053, 0.2314794510602951, -0.11128032207489014, -0.17515963315963745, 0.033809781074523926, -0.7729039048953559, -0.13549641573118704, -0.15824763562623836,-0.5993479104990757,-1.00506591796875,-0.6070556640625,0.2517547607421875
20220111-1132,2022-01-11 11:32:41Z,u01, 94,40,movements,el-ex, rt, d,76460.74524087501, -1.8134611955204607, 0.3958148948453339, -3.1230885150703296, 0.07016155868768692, 0.5409634113311768, 1.0367997884750366, -0.8956490159034729, -0.38556021451950073, 0.2217116504907608, -0.14692294597625732, -0.20583993196487427, 0.05500638484954834, -0.7709670000574295, -0.1283187915721451, -0.14923782926181922,-0.6056997621092904,-1.042572021484375,-0.591400146484375,0.2767181396484375
20220111-1132,2022-01-11 11:32:41Z,u01, 95,40,movements,el-ex, rt, d,76460.770181875, -1.7967064593171524, 0.37026029962631213, -3.1314847379238575, -0.270408570766449, 0.5609948039054871, 1.0665929317474365, -0.9085456132888794, -0.3618580996990204, 0.2088140994310379, -0.20035624504089355, -0.11203408241271973, 0.07513663172721863, -0.7683451416148962, -0.11854449260717315, -0.14090573343005908,-0.6129750508078922,-1.1299896240234375,-0.4310150146484375,0.295074462890625
20220111-1132,2022-01-11 11:32:41Z,u01, 96,40,movements,el-ex, rt, d,76460.795122875, -1.7761671780424078, 0.3462867383860395, 3.1357257160050764, -0.3907128870487213, 0.6338935494422913, 1.0421262979507446, -0.9208724498748779, -0.3394073247909546, 0.19182483851909637, -0.28992772102355957, -0.0505158007144928, 0.10283756256103516, -0.7645790209615476, -0.10644878060673318, -0.13548800128469912,-0.6210721595169247,-1.2108001708984375,-0.389923095703125,0.2946624755859375
20220111-1132,2022-01-11 11:32:41Z,u01, 97,40,movements,el-ex, rt, d,76460.820063875, -1.7559098818888568, 0.32335443396148156, 3.124562697018021, 0.04936986416578293, 0.700484037399292, 0.8931013941764832, -0.9319755434989929, -0.31774893403053284, 0.17451930046081543, -0.3375251293182373, -0.14299017190933228, 0.08172142505645752, -0.7602477688587863, -0.09634821647595665, -0.12922200079379204,-0.6293186383545476,-1.285064697265625,-0.47796630859375,0.2513580322265625
20220111-1132,2022-01-11 11:32:41Z,u01, 98,40,movements,el-ex, rt, d,76460.84500487501, -1.7389550998010275, 0.30397988222685945, 3.1257645454078813, 0.17847135663032532, 0.6700187921524048, 0.6755426526069641, -0.9406940937042236, -0.2993199825286865, 0.15969404578208923, -0.42302966117858887, -0.10432073473930359, 0.14920485019683838, -0.7559339222103746, -0.09171112059202885, -0.12071634016188493,-0.6368520478176591,-1.3637237548828125,-0.4036407470703125,0.30889892578125
20220111-1132,2022-01-11 11:32:41Z,u01, 99,40,movements,el-ex, rt, d,76460.869944875, -1.724095673743426, 0.28799675689999593, 3.1262994434975706, 0.031200513243675232, 0.500576376914978, 0.5830786824226379, -0.9475705027580261, -0.28403204679489136, 0.14641065895557404, -0.4298251271247864, -0.20046502351760864, 0.14545941352844238, -0.7520119235904817, -0.08765496959122321, -0.1138651596048661,-0.6432957669919656,-1.3684844970703125,-0.485809326171875,0.2734527587890625
20220111-1132,2022-01-11 11:32:41Z,u01, 100,40,movements,el-ex, rt, d,76460.89488587501, -1.7139268510526688, 0.2773149201353955, 3.1230013272140775, -0.1217399314045906, 0.23097282648086548, 0.2624500095844269, -0.9519588351249695, -0.2737741470336914, 0.1371925175189972, -0.38248318433761597, -0.0810384452342987, 0.07223425805568695, -0.7494123442790753, -0.08353079299252397, -0.11049302930308497,-0.647452638344101,-1.334442138671875,-0.3548126220703125,0.2094268798828125
20220111-1132,2022-01-11 11:32:41Z,u01, 101,40,movements,el-ex, rt, d,76460.919826875, -1.7120047090938002, 0.2747574853781618, 3.1211234950874807, 0.017703112214803696, -0.10405801981687546, -0.0423467718064785, -0.9529110193252563, -0.27131351828575134, 0.13546057045459747, -0.44755589962005615, -0.13601985573768616, 0.061255693435668945, -0.7489923155469844, -0.08210236204324273, -0.1100659109516735,-0.6481937981347929,-1.436065673828125,-0.43505859375,0.18023681640625
20220111-1132,2022-01-11 11:32:41Z,u01, 102,40,movements,el-ex, rt, d,76460.944767875, -1.7181046006822376, 0.27855525288669075, 3.1255860733210183, 0.2989257872104645, -0.24260030686855316, -0.3022666275501251, -0.9510407447814941, -0.27496686577796936, 0.1411183923482895, -0.579247772693634, -0.21459606289863586, 0.05468222498893738, -0.7505930352553662, -0.0846716686761903, -0.11029707256422783,-0.6459684290975762,-1.5302886962890625,-0.48956298828125,0.19580078125
20220111-1132,2022-01-11 11:32:41Z,u01, 103,40,movements,el-ex, rt, d,76460.96970887501, -1.7281052673940585, 0.2877542756468493, 3.1344482514977274, 0.1131935864686966, -0.4266122877597809, -0.5114619731903076, -0.9470438361167908, -0.28379955887794495, 0.1502196341753006, -0.4978567361831665, -0.14263781905174255, 0.037051454186439514, -0.752950575363028, -0.09041707060153159, -0.11133361246363127,-0.6422578078566606,-1.418060302734375,-0.427398681640625,0.1864471435546875
20220111-1132,2022-01-11 11:32:41Z,u01, 104,40,movements,el-ex, rt, d,76460.994649875, -1.7427017243752092, 0.3025028702491777, 3.1351698102184327, -0.1599867194890976, -0.6727992296218872, -0.6517893671989441, -0.9405235052108765, -0.2979103624820709, 0.1632927507162094, -0.4725469946861267, -0.13624787330627441, 0.07077690958976746, -0.7567708595248401, -0.09457401555154243, -0.11734002146899325,-0.6360697666818188,-1.4130706787109375,-0.4341583251953125,0.23406982421875
20220111-1132,2022-01-11 11:32:41Z,u01, 105,40,movements,el-ex, rt, d,76461.01958987501, -1.7596520632645127, 0.3200044164737993, 3.135995450741056, -0.014620272442698479, -0.6378238201141357, -0.7291982769966125, -0.9323564767837524, -0.31457075476646423, 0.17820456624031067, -0.4521956443786621, -0.08188313245773315, 0.04838837683200836, -0.7610659135469601, -0.09940299992457385, -0.12453698966832943,-0.6287991175147032,-1.35650634765625,-0.394134521484375,0.23138427734375
20220111-1132,2022-01-11 11:32:41Z,u01, 106,40,movements,el-ex, rt, d,76461.044530875, -1.7783357037108236, 0.3385140340923147, 3.1408264195956, 0.08114543557167053, -0.7114726901054382, -0.7896490097045898, -0.9230079650878906, -0.33208581805229187, 0.19435906410217285, -0.30382925271987915, -0.07761266827583313, 0.009956032037734985, -0.7654916097771491, -0.10584009992065951, -0.13104740416172272,-0.6210049241233083,-1.226837158203125,-0.409698486328125,0.204315185546875
20220111-1132,2022-01-11 11:32:41Z,u01, 107,40,movements,el-ex, rt, d,76461.069471875, -1.7969278002210876, 0.3570537498960385, -3.136765966705565, 0.008304618299007416, -0.6033774018287659, -0.7401840686798096, -0.9130772948265076, -0.34951531887054443, 0.21006841957569122, -0.27663516998291016, -0.09096008539199829, 0.05160437524318695, -0.769667242109886, -0.11245687440484414, -0.13745394371559846,-0.6132471998224023,-1.1749725341796875,-0.446380615234375,0.2755126953125
20220111-1132,2022-01-11 11:32:41Z,u01, 108,40,movements,el-ex, rt, d,76461.094412875, -1.8120179144040884, 0.3730616517934302, -3.132692438947419, 0.029953720048069954, -0.4679162800312042, -0.5755946040153503, -0.9042543172836304, -0.36446818709373474, 0.22245725989341736, -0.17014765739440918, -0.09431782364845276, 0.07814088463783264, -0.7728786945676702, -0.11784376350146769, -0.14325979224251703,-0.6068344547163671,-1.07440185546875,-0.4587860107421875,0.30059814453125
20220111-1132,2022-01-11 11:32:41Z,u01, 109,40,movements,el-ex, rt, d,76461.11935387501, -1.823241228213131, 0.3847961531815991, -3.1285501514434046, 0.06739537417888641, -0.3025195598602295, -0.3955790102481842, -0.8974974155426025, -0.37537020444869995, 0.2315075397491455, -0.10022908449172974, -0.018886446952819824, 0.03826776146888733, -0.7751312964947923, -0.12216891364391208, -0.1472300426810271,-0.6021375320168547,-0.97943115234375,-0.3837890625,0.26068115234375
20220111-1132,2022-01-11 11:32:41Z,u01, 110,40,movements,el-ex, rt, d,76461.144294875, -1.8299538582494534, 0.3915362961505366, -3.125242299174936, -0.07282069325447083, -0.13646794855594635, -0.18005438148975372, -0.8934571743011475, -0.38160890340805054, 0.236873060464859, 0.006234943866729736, -0.002454787492752075, 0.06935547292232513, -0.7764139719300921, -0.12497148710944106, -0.1492714308105496,-0.5994009298188182,-0.8872222900390625,-0.384063720703125,0.3062286376953125
20220111-1132,2022-01-11 11:32:41Z,u01, 111,40,movements,el-ex, rt, d,76461.169235875, -1.8300346625446697, 0.3945374309050011, -3.129967543721287, -0.2360798865556717, -0.02902079001069069, 0.005071074701845646, -0.892327070236206, -0.3843812048435211, 0.23665061593055725, 0.05355137586593628, -0.08236992359161377, 0.11161592602729797, -0.7764938412371416, -0.12402671455502157, -0.15185957371621506,-0.5988433663470729,-0.8423614501953125,-0.45855712890625,0.325714111328125
20220111-1132,2022-01-11 11:32:41Z,u01, 112,40,movements,el-ex, rt, d,76461.194175875, -1.8264617381114632, 0.39426965827345584, -3.134613315160811, -0.10576599836349487, 0.14965781569480896, 0.08189122378826141, -0.8932663202285767, -0.3841339945793152, 0.23348687589168549, 0.02078413963317871, 0.06530165672302246, 0.04201039671897888, -0.7757304577595099, -0.12241608185036451, -0.1529276655875183,-0.599891309438165,-0.8724822998046875,-0.3188323974609375,0.2754974365234375
20220111-1132,2022-01-11 11:32:41Z,u01, 113,40,movements,el-ex, rt, d,76461.219116875, -1.8215515445012969, 0.3915661337463242, -3.138574068219582, -0.1744830459356308, 0.08730542659759521, 0.21915793418884277, -0.8954049348831177, -0.38163647055625916, 0.2293548732995987, 0.0304604172706604, -0.01702997088432312, 0.14448538422584534, -0.7747066704193776, -0.12044505901218483, -0.15277055309861604,-0.6016508592965635,-0.8775787353515625,-0.419281005859375,0.3740386962890625
20220111-1132,2022-01-11 11:32:41Z,u01, 114,40,movements,el-ex, rt, d,76461.24405787501, -1.814484145819222, 0.38581511022966253, 3.136565406815976, -0.280079185962677, 0.28176239132881165, 0.3763290345668793, -0.8991186618804932, -0.3763144612312317, 0.22354689240455627, -0.05621898174285889, -0.003812551498413086, 0.06810954213142395, -0.7734893658967147, -0.11613633367490922, -0.15255229563068864,-0.6041145501948677,-0.9553375244140625,-0.380126953125,0.291656494140625
20220111-1132,2022-01-11 11:32:41Z,u01, 115,40,movements,el-ex, rt, d,76461.268998875, -1.8032843011056245, 0.3760826513905204, 3.1286041168928134, -0.12823878228664398, 0.33955323696136475, 0.4672775864601135, -0.905086874961853, -0.3672797381877899, 0.21429675817489624, 0.006435871124267578, -0.020171403884887695, 0.03283451497554779, -0.7712571879105132, -0.11095373036340173, -0.15057634314685736,-0.6084227866651163,-0.8975067138671875,-0.3584136962890625,0.2377166748046875
20220111-1132,2022-01-11 11:32:41Z,u01, 116,40,movements,el-ex, rt, d,76461.293939875, -1.7935313598303024, 0.3645138957866429, 3.124683993559845, 0.0699138194322586, 0.38157734274864197, 0.5080926418304443, -0.9112170338630676, -0.3564951717853546, 0.20638427138328552, -0.0623089075088501, 0.026203453540802002, 0.015188455581665039, -0.7693004703488046, -0.10662513629428372, -0.1467967274195851,-0.6125834510821488,-0.9735260009765625,-0.330291748046875,0.2215728759765625
20220111-1132,2022-01-11 11:32:41Z,u01, 117,40,movements,el-ex, rt, d,76461.318880875, -1.7813871605280067, 0.3507243319256341, 3.1209494188643534, -0.142030730843544, 0.44498682022094727, 0.6414755582809448, -0.9183764457702637, -0.34357813000679016, 0.1963123381137848, -0.04861867427825928, -0.019031673669815063, 0.03859660029411316, -0.7666754313304591, -0.10180839511091627, -0.14203187338473577,-0.6177950225678439,-0.9538421630859375,-0.371612548828125,0.2213134765625
20220111-1132,2022-01-11 11:32:41Z,u01, 118,40,movements,el-ex, rt, d,76461.34382187501, -1.767043842418611, 0.33557966320276905, 3.11123142137451, -0.33069300651550293, 0.4379989802837372, 0.6982451677322388, -0.9260955452919006, -0.32931655645370483, 0.18411363661289215, -0.004446566104888916, 0.010301053524017334, -0.006776079535484314, -0.7636431579301911, -0.0943713115447824, -0.1385707236635203,-0.6234913055504088,-0.9305419921875,-0.3190155029296875,0.177337646484375
20220111-1132,2022-01-11 11:32:41Z,u01, 119,40,movements,el-ex, rt, d,76461.36876187501, -1.7520524971199176, 0.31887786019693876, 3.1003837196798885, -0.17360293865203857, 0.5460121631622314, 0.7678837776184082, -0.93403160572052, -0.31350117921829224, 0.1711777150630951, -0.045567333698272705, 0.007837146520614624, -0.021977439522743225, -0.7603905937352415, -0.0859942125421681, -0.1349599137454448,-0.6294417197205573,-0.9894256591796875,-0.2760467529296875,0.1501617431640625
20220111-1132,2022-01-11 11:32:41Z,u01, 120,40,movements,el-ex, rt, d,76461.39370287501, -1.7337159576190626, 0.2992258382396155, 3.092544163636147, -0.17676566541194916, 0.7055922746658325, 0.890860378742218, -0.9429113864898682, -0.29478052258491516, 0.15499252080917358, 0.013117074966430664, 0.15597131848335266, -0.05819082260131836, -0.7559223619056077, -0.07795923278023542, -0.12928442992218175,-0.6370159531437338,-0.9297943115234375,-0.1388092041015625,0.0968017578125
20220111-1132,2022-01-11 11:32:41Z,u01, 121,40,movements,el-ex, rt, d,76461.418643875, -1.7130382888285776, 0.27801200075049265, 3.0828193250121325, -0.2653456926345825, 0.7240504622459412, 0.9073057174682617, -0.9518911838531494, -0.2744445204734802, 0.13631948828697205, 0.09768909215927124, 0.10316470265388489, -0.05729438364505768, -0.7506227378305513, -0.06874045332857742, -0.12370717048992491,-0.6453965018638039,-0.8436431884765625,-0.20379638671875,0.05792236328125
20220111-1132,2022-01-11 11:32:41Z,u01, 122,40,movements,el-ex, rt, d,76461.443584875, -1.6917533196274177, 0.2560606007950537, 3.0727071597914035, -0.2548457384109497, 0.7654861807823181, 0.9340769648551941, -0.9603270292282104, -0.25327157974243164, 0.11672809720039368, 0.12770074605941772, -0.02683401107788086, -0.07261503487825394, -0.7449011063897121, -0.05904564720162686, -0.11816586589028455,-0.6539669409373945,-0.8326263427734375,-0.2801055908203125,0.0441131591796875
20220111-1132,2022-01-11 11:32:41Z,u01, 123,40,movements,el-ex, rt, d,76461.46852587501, -1.6702318267151883, 0.23289398689975407, 3.0650117974967603, -0.11594203114509583, 0.8377888798713684, 0.9597072601318359, -0.9681962728500366, -0.23079434037208557, 0.09659163653850555, 0.13181626796722412, 0.01917022466659546, -0.05243277549743652, -0.7387985413350222, -0.04972457425600274, -0.11158882960320132,-0.6627609650389263,-0.8274383544921875,-0.177459716796875,0.024078369140625
20220111-1132,2022-01-11 11:32:41Z,u01, 124,40,movements,el-ex, rt, d,76461.493466875, -1.6485520509483114, 0.20990302588073673, 3.0595742983360967, -0.1944931000471115, 0.7627059817314148, 0.9023568034172058, -0.9750959277153015, -0.2083650529384613, 0.07597246021032333, 0.26878196001052856, 0.1771150827407837, -0.09501553326845169, -0.7323201222509512, -0.04115177712550022, -0.10452218480301939,-0.671631466912803,-0.7063140869140625,-0.03125,-0.01904296875
20220111-1132,2022-01-11 11:32:41Z,u01, 125,40,movements,el-ex, rt, d,76461.51840712501, -1.6304108787040485, 0.18871722792448364, 3.0527005750638403, -0.22848066687583923, 0.5470252633094788, 0.8258621692657471, -0.9805007576942444, -0.1875990480184555, 0.05852145701646805, 0.35177767276763916, 0.1376265287399292, -0.10387063026428223, -0.7267835794261321, -0.03234743957595315, -0.09884279717088729,-0.6789472218853516,-0.619781494140625,-0.0665130615234375,-0.043487548828125
20220111-1132,2022-01-11 11:32:41Z,u01, 126,40,movements,el-ex, rt, d,76461.54334812501, -1.6177556500606518, 0.16981681294771994, 3.042039745227936, -0.4740285575389862, 0.3698277175426483, 0.723685085773468, -0.9845291376113892, -0.16900180280208588, 0.0462668351829052, 0.22024697065353394, -0.12134240567684174, 0.03770219907164574, -0.7229264254274967, -0.02260092444599704, -0.09550584468978612,-0.6839189723619781,-0.7642822265625,-0.29034423828125,0.0839691162109375
20220111-1132,2022-01-11 11:32:41Z,u01, 127,40,movements,el-ex, rt, d,76461.568289125, -1.6056060117073676, 0.15386166968040207, 3.0308960560628404, -0.34320566058158875, 0.47690072655677795, 0.590070903301239, -0.9875879287719727, -0.15325531363487244, 0.03439151868224144, 0.12441354990005493, -0.016239315271377563, -0.008238077163696289, -0.7190339758632023, -0.013634518579472121, -0.09351439128445282,-0.6885196125221773,-0.83404541015625,-0.077545166015625,0.009063720703125
20220111-1132,2022-01-11 11:32:41Z,u01, 128,40,movements,el-ex, rt, d,76461.593230125, -1.594538061448407, 0.1398300103387087, 3.027110241415364, 0.06288710236549377, 0.3203582465648651, 0.5390223264694214, -0.9899606704711914, -0.13937479257583618, 0.023507799953222275, 0.4061136245727539, 0.27537640929222107, -0.07657790184020996, -0.7153261823252048, -0.007896409488557965, -0.08977098046094528,-0.6929554938553741,-0.5838470458984375,0.1360015869140625,-0.053070068359375
20220111-1132,2022-01-11 11:32:41Z,u01, 129,40,movements,el-ex, rt, d,76461.61817112501, -1.589535748387913, 0.12790188363281832, 3.027802081704755, -0.25878575444221497, 0.05479235202074051, 0.4141155779361725, -0.9916574954986572, -0.12755344808101654, 0.018585264682769775, 0.466663658618927, 0.028691783547401428, -0.05863964557647705, -0.7136351130163131, -0.004190149508220942, -0.08528635560898612,-0.6952938693697271,-0.5279998779296875,-0.1572723388671875,-0.0175018310546875
20220111-1132,2022-01-11 11:32:41Z,u01, 130,40,movements,el-ex, rt, d,76461.643112125, -1.590016480423961, 0.11901793096606769, 3.017370922634721, -0.5209364295005798, -0.11137884110212326, 0.25566327571868896, -0.9927421808242798, -0.11873714625835419, 0.01908300817012787, 0.38185667991638184, -0.1712256371974945, -0.010080339387059212, -0.7138167875803619, 0.002664129655816916, -0.08576471136579517,-0.6950559637229963,-0.6108856201171875,-0.2899627685546875,0.009002685546875
20220111-1132,2022-01-11 11:32:41Z,u01, 131,40,movements,el-ex, rt, d,76461.668053125, -1.5924991684346257, 0.11411728354298142, 3.006761052944037, -0.15002070367336273, -0.1737898290157318, 0.12151845544576645, -0.9932617545127869, -0.11386975646018982, 0.02155998721718788, 0.4968780279159546, 0.07967479526996613, -0.034270644187927246, -0.7146408237533404, 0.008275679903753053, -0.08770497572131664,-0.6939220975557889,-0.4672393798828125,0.0030364990234375,-0.021728515625
20220111-1132,2022-01-11 11:32:41Z,u01, 132,40,movements,el-ex, rt, d,76461.692993125, -1.5989404098970947, 0.11464491689359048, 3.0082254521335132, 0.2078825980424881, -0.3774765729904175, -0.15375831723213196, -0.9930419921875, -0.1143939420580864, 0.027955636382102966, 0.6111298203468323, 0.03678775578737259, -0.05163741111755371, -0.7168794928425103, 0.007849285007759832, -0.08735916058421178,-0.6916577750374995,-0.3819122314453125,-0.077606201171875,-0.023681640625
20220111-1132,2022-01-11 11:32:41Z,u01, 133,40,movements,el-ex, rt, d,76461.717934125, -1.6101983763356136, 0.12239025016133696, 3.013453351578418, 0.17925143241882324, -0.4597252607345581, -0.4226333200931549, -0.9917491674423218, -0.12208492308855057, 0.03909718617796898, 0.47613954544067383, -0.10594242811203003, -0.05261659622192383, -0.7207873201711916, 0.0037725516903856504, -0.08828692019830625,-0.6875003448216064,-0.5333404541015625,-0.2433013916015625,-0.00506591796875
20220111-1132,2022-01-11 11:32:41Z,u01, 134,40,movements,el-ex, rt, d,76461.74287512501, -1.6235682806013159, 0.13504445084086214, 3.018748487163392, 0.21622465550899506, -0.5876495838165283, -0.6447328925132751, -0.9895159006118774, -0.1346343606710434, 0.05226721614599228, 0.4726397395133972, 0.002600044012069702, -0.01712632179260254, -0.7253481565567133, -0.0019130586101018254, -0.0910070935142509,-0.6823372346440377,-0.516876220703125,-0.1320343017578125,0.0351409912109375
20220111-1132,2022-01-11 11:32:42Z,u01, 135,40,movements,el-ex, rt, d,76461.76781612501, -1.6404337449844004, 0.15306363053917277, 3.0249460603973306, 0.2736189067363739, -0.6289553642272949, -0.7913376688957214, -0.9859131574630737, -0.15246665477752686, 0.06876764446496964, 0.3732728362083435, 0.08245934545993805, 0.042789213359355927, -0.7309531304687926, -0.009557371323785535, -0.09545876636830514,-0.6756506079329698,-0.64398193359375,-0.076812744140625,0.10821533203125
20220111-1132,2022-01-11 11:32:42Z,u01, 136,40,movements,el-ex, rt, d,76461.792757125, -1.6582978170339746, 0.17288067150492026, 3.037313576290821, 0.5751593112945557, -0.6817400455474854, -0.8544186949729919, -0.9813246130943298, -0.1720207929611206, 0.0860871821641922, 0.31105172634124756, 0.03203664720058441, -0.10261248797178268, -0.7366447040197461, -0.019954266841798185, -0.09864455818758139,-0.6687493609103521,-0.6702728271484375,-0.139984130859375,-0.0165252685546875
20220111-1132,2022-01-11 11:32:42Z,u01, 137,40,movements,el-ex, rt, d,76461.817698125, -1.679700668951, 0.19449770059470226, 3.0534607935217593, 0.4112679064273834, -0.773549497127533, -0.9994755983352661, -0.9753322005271912, -0.19327373802661896, 0.10663983225822449, 0.3047390580177307, 0.018316492438316345, -0.12945175170898438, -0.7431613026062431, -0.032112228845095014, -0.10149053314641454,-0.6605903541004915,-0.6684112548828125,-0.1665802001953125,0.0092620849609375
20220111-1132,2022-01-11 11:32:42Z,u01, 138,40,movements,el-ex, rt, d,76461.84263912501, -1.7020241778173637, 0.2203542760548133, 3.061710758624348, 0.0481422133743763, -0.8772944211959839, -1.1392180919647217, -0.9674301147460938, -0.2185753434896469, 0.12768757343292236, 0.2103346586227417, -0.00247877836227417, 0.24821259081363678, -0.7496869123647116, -0.042583099621622045, -0.10877738419188865,-0.6514014290859529,-0.7570953369140625,-0.2210540771484375,0.3759002685546875
20220111-1132,2022-01-11 11:32:42Z,u01, 139,40,movements,el-ex, rt, d,76461.867579125, -1.7212164428184809, 0.24631209945809202, 3.0673217106302753, 0.24456115067005157, -0.4268278181552887, -0.8931968808174133, -0.9588671326637268, -0.24382902681827545, 0.14533065259456635, -0.04142266511917114, 0.11286288499832153, 0.16158448159694672, -0.7549510113795463, -0.052098918960879315, -0.11710420381932324,-0.6431338634739366,-1.0101776123046875,-0.1037445068359375,0.2413482666015625
20220111-1132,2022-01-11 11:32:42Z,u01, 140,40,movements,el-ex, rt, d,76461.89252012501, -1.7335049333174364, 0.26402677806260066, 3.0834898058668214, 0.6792780756950378, -0.3770532011985779, -0.7903529405593872, -0.9525968432426453, -0.2609699070453644, 0.1563781350851059, 0.234838604927063, 0.08653140068054199, -0.18919990956783295, -0.7577547006007496, -0.06322089952425103, -0.11892920734191526,-0.6384879357350002,-0.7177581787109375,-0.1744384765625,-0.0328216552734375
20220111-1132,2022-01-11 11:32:42Z,u01, 141,40,movements,el-ex, rt, d,76461.917461125, -1.7507544273750864, 0.28347336265889467, 3.098884066381472, 0.12893712520599365, -0.6715157628059387, -0.9130001068115234, -0.9445855021476746, -0.2796920835971832, 0.17184488475322723, 0.28059929609298706, -0.01260530948638916, -0.0461735725402832, -0.7618453070631968, -0.07425747049340875, -0.12197822682719889,-0.6318218823438166,-0.684356689453125,-0.3105926513671875,0.202117919921875
20220111-1132,2022-01-11 11:32:42Z,u01, 142,40,movements,el-ex, rt, d,76461.942402125, -1.7693309736617213, 0.3060990717260941, 3.1035350204521475, -0.0368797704577446, -0.6501201391220093, -0.9016533493995667, -0.9347860217094421, -0.30134132504463196, 0.18806485831737518, -0.03075963258743286, 0.05660566687583923, 0.21255457401275635, -0.766358472553275, -0.082019007404245, -0.12984583034056285,-0.6237848924774401,-0.965545654296875,-0.2447357177734375,0.4006195068359375
20220111-1132,2022-01-11 11:32:42Z,u01, 143,40,movements,el-ex, rt, d,76461.967343125, -1.781021118618068, 0.3238460894480551, 3.110297152467242, 0.30727165937423706, -0.10233927518129349, -0.5891779661178589, -0.9271470904350281, -0.3182150721549988, 0.19783228635787964, -0.1839216947555542, 0.1925131380558014, 0.034879475831985474, -0.7687167995666201, -0.08939030778454571, -0.1350266707395997,-0.6187501291417239,-1.0710296630859375,-0.122650146484375,0.1413116455078125
20220111-1132,2022-01-11 11:32:42Z,u01, 144,40,movements,el-ex, rt, d,76461.99228412501, -1.7874921733352362, 0.33536462067006834, 3.122286901907919, 0.22273816168308258, -0.23917162418365479, -0.5297180414199829, -0.9222064018249512, -0.32911351323127747, 0.20302613079547882, 0.20167118310928345, 0.06797459721565247, -0.1532977819442749, -0.7694655926109726, -0.09713788117006811, -0.1360405497260758,-0.6164250942106073,-0.7205352783203125,-0.261138916015625,0.0497283935546875
20220111-1132,2022-01-11 11:32:42Z,u01, 145,40,movements,el-ex, rt, d,76462.017225125, -1.7991961718359875, 0.3477337614169409, 3.127404274869126, 0.017821092158555984, -0.4390948712825775, -0.5561848282814026, -0.9157317280769348, -0.34076809883117676, 0.21286742389202118, 0.13539725542068481, -0.10474276542663574, 0.05200982093811035, -0.772014546174745, -0.10211393682242043, -0.1398083137412607,-0.6115716726651528,-0.8422088623046875,-0.462799072265625,0.29656982421875
20220111-1132,2022-01-11 11:32:42Z,u01, 146,40,movements,el-ex, rt, d,76462.042165125, -1.8065259150764226, 0.3600355050395964, 3.1281343781965596, -0.12602493166923523, -0.16637632250785828, -0.39065393805503845, -0.910001814365387, -0.3523074686527252, 0.21857810020446777, -0.05943489074707031, 0.04992404580116272, 0.10228374600410461, -0.7733885151497258, -0.10563738891565172, -0.1447099133408347,-0.6080872189920414,-0.9694366455078125,-0.3023834228515625,0.32086181640625
20220111-1132,2022-01-11 11:32:42Z,u01, 147,40,movements,el-ex, rt, d,76462.067106125, -1.8091269842276794, 0.3677121415273732, 3.1300241781604945, 0.18523702025413513, 0.019301803782582283, -0.2188383936882019, -0.906775176525116, -0.35948145389556885, 0.22029931843280792, -0.04898953437805176, 0.12803614139556885, -0.017998456954956055, -0.7735462354998108, -0.10851672878162816, -0.1472386703144315,-0.606771037070537,-0.944976806640625,-0.26495361328125,0.15789794921875
20220111-1132,2022-01-11 11:32:42Z,u01, 148,40,movements,el-ex, rt, d,76462.092047125, -1.809929931950607, 0.37034963846189123, 3.1375101658569893, 0.12231314927339554, 0.08524399995803833, -0.11638158559799194, -0.9056736826896667, -0.361941397190094, 0.22080199420452118, 0.03624320030212402, -0.054593026638031006, -0.04360175132751465, -0.7731897640483049, -0.11215429849383829, -0.14603037834255758,-0.6068559191806266,-0.8694305419921875,-0.416534423828125,0.1772003173828125
20220111-1132,2022-01-11 11:32:42Z,u01, 149,40,movements,el-ex, rt, d,76462.11698812501, -1.8083575330400872, 0.37212562536210053, 3.1365465541257813, -0.23008951544761658, 0.03540560603141785, -0.017953017726540565, -0.9053935408592224, -0.3635963797569275, 0.21922600269317627, 0.025068283081054688, -0.06194069981575012, 0.08771964907646179, -0.7726389752320079, -0.1124367271993274, -0.14692047123075666,-0.6072901218356568,-0.9061431884765625,-0.3917999267578125,0.33782958984375
20220111-1132,2022-01-11 11:32:42Z,u01, 150,40,movements,el-ex, rt, d,76462.141929125, -1.8031765747310338, 0.3724579014622302, 3.129445145540147, -0.21335630118846893, 0.22876980900764465, 0.10030897706747055, -0.9063995480537415, -0.3639059066772461, 0.2145044505596161, -0.15326225757598877, 0.04121306538581848, 0.11978493630886078, -0.7714354296231467, -0.11017985158767224, -0.1489191275249379,-0.6087452556827286,-1.059661865234375,-0.32269287109375,0.33428955078125
20220111-1132,2022-01-11 11:32:42Z,u01, 151,40,movements,el-ex, rt, d,76462.166870125, -1.790564921087736, 0.36916272519003057, 3.123527232332988, -0.11538027226924896, 0.5483894944190979, 0.2679649591445923, -0.9101980924606323, -0.36083468794822693, 0.2033168226480484, -0.13548672199249268, -0.01582852005958557, 0.021857023239135742, -0.7681347788166952, -0.1078303130832951, -0.1487743905969192,-0.6133577845215746,-1.0151519775390625,-0.4039459228515625,0.180694580078125
20220111-1132,2022-01-11 11:32:42Z,u01, 152,40,movements,el-ex, rt, d,76462.191811125, -1.7757795238817562, 0.36058366563816235, 3.1214216965238775, 0.03481392562389374, 0.5264190435409546, 0.4414973855018616, -0.9161017537117004, -0.35282042622566223, 0.19046056270599365, 0.005487799644470215, -0.11783689260482788, -0.028183475136756897, -0.7642705386262167, -0.10545533002394597, -0.1453575601021919,-0.6193874815147657,-0.910614013671875,-0.4706573486328125,0.1622772216796875
20220111-1132,2022-01-11 11:32:42Z,u01, 153,40,movements,el-ex, rt, d,76462.216751125, -1.7609446666777973, 0.34832988251805924, 3.1150009401305794, -0.3583199977874756, 0.5469382405281067, 0.6386122107505798, -0.9230025410652161, -0.3413284718990326, 0.17765368521213531, -0.10237264633178711, -0.05898579955101013, 0.08014343678951263, -0.7607751048172606, -0.1002401332243939, -0.14193671903398822,-0.6253215081645578,-1.0576171875,-0.3737335205078125,0.2813873291015625
20220111-1132,2022-01-11 11:32:42Z,u01, 154,40,movements,el-ex, rt, d,76462.24169212501, -1.7410695205596323, 0.3318189838850737, 3.100129200887363, -0.3792354464530945, 0.6584180593490601, 0.8373933434486389, -0.9317787885665894, -0.3257633149623871, 0.16020825505256653, -0.20907509326934814, 0.027011454105377197, 0.016854658722877502, -0.7562177440324601, -0.09076813047816096, -0.13943374889681187,-0.6328144937651685,-1.1408538818359375,-0.2987518310546875,0.17706298828125
20220111-1132,2022-01-11 11:32:42Z,u01, 155,40,movements,el-ex, rt, d,76462.26663312501, -1.7229283854846962, 0.3117141986736027, 3.093938984956309, 0.18704047799110413, 0.6161150932312012, 0.7730162143707275, -0.9408159255981445, -0.30669066309928894, 0.1442427784204483, -0.19648247957229614, -0.04023313522338867, -0.1288924366235733, -0.7517955210213205, -0.08321588046234335, -0.1330817679766106,-0.640443396148834,-1.150482177734375,-0.35693359375,0.014068603515625
20220111-1132,2022-01-11 11:32:42Z,u01, 156,40,movements,el-ex, rt, d,76462.291574125, -1.710182459961471, 0.29298936303183865, 3.098782853273026, 0.2200089693069458, 0.5229777097702026, 0.6499513387680054, -0.9480993747711182, -0.2888154685497284, 0.13301444053649902, -0.3337302803993225, -0.11453527212142944, -0.021808534860610962, -0.7484267588458934, -0.07977849658425601, -0.12402250912902801,-0.6466150487583744,-1.281829833984375,-0.403350830078125,0.1112060546875
20220111-1132,2022-01-11 11:32:42Z,u01, 157,40,movements,el-ex, rt, d,76462.316515125, -1.697223426712901, 0.2775446225301259, 3.093939622068617, -0.307483434677124, 0.3915819823741913, 0.6767590641975403, -0.9540553689002991, -0.2739950716495514, 0.1212652325630188, -0.4167637825012207, -0.1557077169418335, 0.06652463972568512, -0.7451173758051495, -0.07370694334177735, -0.11936335414269389,-0.6520121527079388,-1.3803863525390625,-0.441253662109375,0.1874847412109375
20220111-1132,2022-01-11 11:32:42Z,u01, 158,40,movements,el-ex, rt, d,76462.34145612501, -1.6863693011113214, 0.2633871990294864, 3.084038790169055, -0.23627969622612, 0.27607664465904236, 0.5372727513313293, -0.9590725302696228, -0.2603524327278137, 0.1113390251994133, -0.4609713554382324, -0.1329733431339264, 0.005588993430137634, -0.7425050566242599, -0.06599813672895882, -0.11699039773165026,-0.6562344528297304,-1.4200439453125,-0.3933258056640625,0.1169281005859375
20220111-1132,2022-01-11 11:32:42Z,u01, 159,40,movements,el-ex, rt, d,76462.366396125, -1.6789364336081285, 0.2528736466248963, 3.0804863860193503, -0.010332016274333, 0.2293694168329239, 0.3201107084751129, -0.9625418186187744, -0.2501872479915619, 0.104497030377388, -0.4639260768890381, -0.17052805423736572, 0.006754755973815918, -0.7405748978657305, -0.06162252563403836, -0.11405022737346854,-0.6593512194478794,-1.4210357666015625,-0.4311981201171875,0.127227783203125
20220111-1132,2022-01-11 11:32:42Z,u01, 160,40,movements,el-ex, rt, d,76462.39133712501, -1.674993107049863, 0.24761113607518623, 3.079738058462015, -0.024917881935834885, 0.08916544169187546, 0.09423097223043442, -0.9642425775527954, -0.24508865177631378, 0.10083616524934769, -0.45070499181747437, -0.10651960968971252, 0.09917594492435455, -0.7394863494952288, -0.05981655451016277, -0.11224381071751838,-0.6610471345686842,-1.414947509765625,-0.3516082763671875,0.20001220703125
20220111-1132,2022-01-11 11:32:42Z,u01, 161,40,movements,el-ex, rt, d,76462.416278125, -1.6741338161067945, 0.2484170147375158, 3.0791267161343843, -0.033096183091402054, -0.04238966107368469, -0.16617557406425476, -0.9641319513320923, -0.24586987495422363, 0.09998713433742523, -0.48888611793518066, -0.07822677493095398, 0.09581349790096283, -0.7391918878082628, -0.05990760093265912, -0.11271603352986764,-0.6612877112200526,-1.4674072265625,-0.3407745361328125,0.1812591552734375
20220111-1132,2022-01-11 11:32:42Z,u01, 162,40,movements,el-ex, rt, d,76462.441219125, -1.676768489173497, 0.2556174159420772, 3.0808065078822637, 0.11939802020788193, -0.1020607128739357, -0.4284793734550476, -0.9620798826217651, -0.25284281373023987, 0.1023370623588562, -0.5423756241798401, -0.13453206419944763, 0.0059545040130615234, -0.7397482383363976, -0.06277797645680361, -0.11488554510740101,-0.6600248744354414,-1.50445556640625,-0.3873748779296875,0.1082916259765625
20220111-1132,2022-01-11 11:32:42Z,u01, 163,40,movements,el-ex, rt, d,76462.46616012501, -1.6818933380493137, 0.26841544433722386, 3.0866500931868903, 0.1602243036031723, -0.20885206758975983, -0.6352788209915161, -0.9582482576370239, -0.26520395278930664, 0.10689868032932281, -0.44858163595199585, -0.08176568150520325, 0.018085971474647522, -0.7407447758819707, -0.06889497873591649, -0.11783368343696582,-0.6577735028363559,-1.3884429931640625,-0.3511505126953125,0.1360626220703125
20220111-1132,2022-01-11 11:32:42Z,u01, 164,40,movements,el-ex, rt, d,76462.49110112501, -1.6904330719072247, 0.28569752407464616, 3.0911647924906265, 0.056156229227781296, -0.3642784357070923, -0.7625126838684082, -0.9526070952415466, -0.28182676434516907, 0.11451367288827896, -0.4407949447631836, -0.14387819170951843, 0.08760416507720947, -0.7426411453881887, -0.0757691705263226, -0.12302936198284375,-0.6539166039639408,-1.393402099609375,-0.4257049560546875,0.202117919921875
20220111-1132,2022-01-11 11:32:42Z,u01, 165,40,movements,el-ex, rt, d,76462.516042375, -1.7018082056398007, 0.30510418726376287, 3.09876036520253, 0.3583005368709564, -0.3354208469390869, -0.8594924211502075, -0.945641815662384, -0.3003925383090973, 0.12460403144359589, -0.4905155301094055, -0.10538443922996521, 0.03285135328769684, -0.7451199306525443, -0.08425143614319575, -0.12818449385336833,-0.6490507162150327,-1.4300537109375,-0.3965911865234375,0.141571044921875
20220111-1132,2022-01-11 11:32:42Z,u01, 166,40,movements,el-ex, rt, d,76462.54098237501, -1.7143541996198337, 0.32577113636464905, 3.1122174434383503, 0.36205586791038513, -0.38763612508773804, -0.9102379083633423, -0.9376583695411682, -0.32003945112228394, 0.13554063439369202, -0.34029555320739746, -0.06788471341133118, -0.06628109514713287, -0.747469539412804, -0.09518196483622499, -0.13207064072274338,-0.644039535278574,-1.2779541015625,-0.3879241943359375,0.0692596435546875
20220111-1132,2022-01-11 11:32:42Z,u01, 167,40,movements,el-ex, rt, d,76462.565923375, -1.729930471007958, 0.34657516764713525, 3.1244545771844248, 0.36811405420303345, -0.49153584241867065, -0.8571431636810303, -0.9286577701568604, -0.3396786153316498, 0.14904138445854187, -0.2936018705368042, -0.05793491005897522, -0.047295793890953064, -0.7506051768838969, -0.1054161272812007, -0.13669569886822874,-0.6378037862615922,-1.2242279052734375,-0.4082489013671875,0.1219329833984375
20220111-1132,2022-01-11 11:32:42Z,u01, 168,40,movements,el-ex, rt, d,76462.590864375, -1.7470007843283586, 0.36459262405083726, 3.14012643623189, 0.5205094218254089, -0.4143330156803131, -0.752689003944397, -0.9198027849197388, -0.35656872391700745, 0.16377179324626923, -0.27915632724761963, -0.08578348159790039, -0.0015862435102462769, -0.7539642656743877, -0.11586106462479756, -0.139435193598354,-0.6314046012244015,-1.1989593505859375,-0.442352294921875,0.1621856689453125
20220111-1132,2022-01-11 11:32:42Z,u01, 169,40,movements,el-ex, rt, d,76462.61580537501, -1.7631604799277227, 0.37889760243706405, -3.1264992238486857, 0.46263444423675537, -0.39512860774993896, -0.6196712255477905, -0.9119362235069275, -0.3698965013027191, 0.17762015759944916, -0.19186925888061523, -0.06455174088478088, -0.03562188148498535, -0.7570115059195914, -0.1254737234475815, -0.140615681612149,-0.6256334175118277,-1.0862884521484375,-0.421051025390625,0.1472625732421875
20220111-1132,2022-01-11 11:32:42Z,u01, 170,40,movements,el-ex, rt, d,76462.64074637501, -1.7778917077356866, 0.3895258031263716, -3.1124059556611203, 0.44863852858543396, -0.338079035282135, -0.40935567021369934, -0.9053221344947815, -0.37974977493286133, 0.19021518528461456, -0.09272468090057373, -0.027858257293701172, -0.038405656814575195, -0.7598677189916322, -0.1330738350003312, -0.14122228619857555,-0.6204422922076726,-0.998046875,-0.4076080322265625,0.1518096923828125
20220111-1132,2022-01-11 11:32:42Z,u01, 171,40,movements,el-ex, rt, d,76462.665687375, -1.7918163648191812, 0.39481852558305214, -3.097063670959444, 0.5335536599159241, -0.2946929335594177, -0.243394672870636, -0.9006121158599854, -0.3846406936645508, 0.2023591697216034, -0.04817932844161987, -0.00036904215812683105, -0.034115806221961975, -0.7626946814161301, -0.13955790771214566, -0.1394557186660678,-0.6159321789368397,-0.943511962890625,-0.3724365234375,0.1858367919921875
20220111-1132,2022-01-11 11:32:42Z,u01, 172,40,movements,el-ex, rt, d,76462.690628375, -1.8035251799145944, 0.3961739611289239, -3.0837793637334197, 0.4377981424331665, -0.25110098719596863, -0.06286296993494034, -0.8976728916168213, -0.38589149713516235, 0.21276971697807312, -0.012727439403533936, 0.03924235701560974, 0.06167469918727875, -0.7652327730718055, -0.14423474768541428, -0.13672932880171673,-0.612307233297793,-0.910400390625,-0.346649169921875,0.274444580078125
20220111-1132,2022-01-11 11:32:42Z,u01, 173,40,movements,el-ex, rt, d,76462.715568375, -1.8137257462218341, 0.3934967691741513, -3.0704431091339726, 0.5795588493347168, -0.12078367173671722, 0.049966178834438324, -0.8964554071426392, -0.38342028856277466, 0.22216297686100006, -0.024900734424591064, 0.09353387355804443, 0.025105580687522888, -0.7676069718136673, -0.14785473251785186, -0.13236443239797346,-0.60942437330382,-0.9142608642578125,-0.2785797119140625,0.24066162109375
20220111-1132,2022-01-11 11:32:42Z,u01, 174,40,movements,el-ex, rt, d,76462.740509375, -1.8213648042970856, 0.38696715334997145, -3.054138066959343, 0.6557401418685913, -0.045588113367557526, 0.16488704085350037, -0.8971387147903442, -0.3773815631866455, 0.22962045669555664, 0.11298948526382446, 0.07258719205856323, -0.04846808314323425, -0.7692876542478719, -0.15167971500153837, -0.12543482739926562,-0.6078289219508357,-0.784149169921875,-0.3047943115234375,0.18115234375
20220111-1132,2022-01-11 11:32:43Z,u01, 175,40,movements,el-ex, rt, d,76462.76545037501, -1.8285828404841131, 0.3781592554544501, -3.0423666469418578, 0.3368452191352844, -0.17605644464492798, 0.2790620028972626, -0.898637056350708, -0.369210422039032, 0.23692817986011505, 0.13658267259597778, 0.00333520770072937, -0.0024769455194473267, -0.7713661367854091, -0.1531612669512466, -0.11897215757096175,-0.6061200203166879,-0.7865142822265625,-0.3565521240234375,0.26849365234375
20220111-1132,2022-01-11 11:32:43Z,u01, 176,40,movements,el-ex, rt, d,76462.790391375, -1.8342614937369401, 0.36769306779778643, -3.0353709348005067, 0.5050110816955566, -0.029927130788564682, 0.401692658662796, -0.9009589552879333, -0.3594636619091034, 0.24302048981189728, -0.02882009744644165, 0.052304208278656006, 0.09598398208618164, -0.7734797940048669, -0.15244426213315587, -0.11318546688055986,-0.6047138470654516,-0.929779052734375,-0.307159423828125,0.3390045166015625
20220111-1132,2022-01-11 11:32:43Z,u01, 177,40,movements,el-ex, rt, d,76462.815332375, -1.8363340833651793, 0.3528805840064425, -3.02078184367065, 0.7214938998222351, 0.2381286770105362, 0.45998910069465637, -0.9054921269416809, -0.3456023335456848, 0.24625763297080994, 0.028172850608825684, 0.07616263628005981, -0.045253753662109375, -0.7742937575593104, -0.1536163894482161, -0.10310812792726115,-0.6051774948519731,-0.82818603515625,-0.251556396484375,0.1800079345703125
20220111-1132,2022-01-11 11:32:43Z,u01, 178,40,movements,el-ex, rt, d,76462.84027337501, -1.8338255651976725, 0.3368996771312244, -3.0129231514189994, 0.125280499458313, 0.12343333661556244, 0.6149497628211975, -0.9113245010375977, -0.33056265115737915, 0.24539031088352203, 0.25275492668151855, 0.027889221906661987, -0.020368993282318115, -0.7743178959120665, -0.15207549129556336, -0.09424391351190176,-0.606978649344357,-0.6585693359375,-0.30267333984375,0.2250213623046875
20220111-1132,2022-01-11 11:32:43Z,u01, 179,40,movements,el-ex, rt, d,76462.86521437501, -1.830039330225995, 0.3210971145863308, -3.017513908864952, 0.05076222866773605, 0.18105009198188782, 0.6820076704025269, -0.9171817302703857, -0.31560778617858887, 0.24324680864810944, 0.07669728994369507, -0.09476199746131897, 0.019494131207466125, -0.7748330576271172, -0.14579827356829017, -0.08913744048089445,-0.6086303892951749,-0.887969970703125,-0.3827362060546875,0.240814208984375
20220111-1132,2022-01-11 11:32:43Z,u01, 180,40,movements,el-ex, rt, d,76462.89015437501, -1.8223131052755779, 0.30270508833000037, -3.0149676201594278, 0.4173663258552551, 0.4351310729980469, 0.6822242140769958, -0.9245002269744873, -0.298103392124176, 0.23755793273448944, 0.1265571117401123, 0.09510046243667603, -0.04210817813873291, -0.7737680526159539, -0.14164026342804004, -0.08057516046921631,-0.6121508731179993,-0.797943115234375,-0.2030029296875,0.1954498291015625
20220111-1132,2022-01-11 11:32:43Z,u01, 181,40,movements,el-ex, rt, d,76462.915095375, -1.8131805560739045, 0.2840754212149956, -3.0117872002286847, 0.12179861962795258, 0.3765767812728882, 0.7234419584274292, -0.9318613409996033, -0.2802700400352478, 0.2303982377052307, 0.178916335105896, -0.008777230978012085, 0.0111941397190094, -0.7721761918713852, -0.13763373563382597, -0.07165347125079974,-0.6161710227984072,-0.794769287109375,-0.3172607421875,0.2372589111328125
20220111-1132,2022-01-11 11:32:43Z,u01, 182,40,movements,el-ex, rt, d,76462.940036375, -1.799734970356864, 0.26597249201497647, -3.016353511484984, 0.023053735494613647, 0.5759766101837158, 0.7793509364128113, -0.9396626353263855, -0.2628476917743683, 0.21896404027938843, 0.0920369029045105, -0.014373987913131714, -0.021484851837158203, -0.7696484542688719, -0.13085593147509939, -0.06508796506703463,-0.6215155234424419,-0.847625732421875,-0.2772216796875,0.197479248046875
20220111-1132,2022-01-11 11:32:43Z,u01, 183,40,movements,el-ex, rt, d,76462.964977375, -1.783504046526498, 0.24811570161415097, -3.0177302059560533, 0.07820367813110352, 0.6904672384262085, 0.684481680393219, -0.9475298523902893, -0.24557779729366302, 0.20464257895946503, 0.12074768543243408, 0.08563520014286041, -0.01161898672580719, -0.7659025030377166, -0.12535806990967086, -0.057534196344861455,-0.6279876163570042,-0.821014404296875,-0.145660400390625,0.2108154296875
20220111-1132,2022-01-11 11:32:43Z,u01, 184,40,movements,el-ex, rt, d,76462.98991837501, -1.7646649738764597, 0.2301724021851792, -3.0211852173481195, -0.054472777992486954, 0.8073016405105591, 0.8161166310310364, -0.9553874135017395, -0.22814537584781647, 0.1875755935907364, 0.06468617916107178, -0.04723000526428223, 0.040222764015197754, -0.7613350650426846, -0.11898198501786172, -0.050540941488797786,-0.6353407214813971,-0.8907012939453125,-0.2753753662109375,0.2277984619140625
20220111-1132,2022-01-11 11:32:43Z,u01, 185,40,movements,el-ex, rt, d,76463.014859375, -1.742103748341918, 0.20954836622451462, -3.0279001564089976, -0.12380477786064148, 0.7684081196784973, 0.8518055081367493, -0.9638078808784485, -0.20801816880702972, 0.16674171388149261, 0.18174922466278076, -0.04750549793243408, -0.06333303451538086, -0.7557559670471451, -0.11047071359704075, -0.043487283749274575,-0.6440015358147084,-0.74310302734375,-0.2135772705078125,0.0916748046875
20220111-1132,2022-01-11 11:32:43Z,u01, 186,40,movements,el-ex, rt, d,76463.039800375, -1.7232340771996624, 0.19095847225888601, -3.0333166117716885, -0.06727975606918335, 0.7467197775840759, 0.7195528745651245, -0.9704375267028809, -0.18980003893375397, 0.14908790588378906, 0.12464272975921631, 0.0018270015716552734, -0.0013522952795028687, -0.7509738701187927, -0.10286981828234304, -0.037165243298381834,-0.6512103401667175,-0.845794677734375,-0.1879730224609375,0.147735595703125
20220111-1132,2022-01-11 11:32:43Z,u01, 187,40,movements,el-ex, rt, d,76463.064740375, -1.7036268371031127, 0.1730878856580217, -3.0388957691639398, -0.2699943780899048, 0.6495378613471985, 0.707642138004303, -0.9763802289962769, -0.17222490906715393, 0.13046127557754517, 0.24252408742904663, -0.004716023802757263, 0.029343947768211365, -0.745749799904948, -0.0953303298841024, -0.031277536372233905,-0.6586281506005922,-0.716033935546875,-0.1649932861328125,0.1699371337890625
20220111-1132,2022-01-11 11:32:43Z,u01, 188,40,movements,el-ex, rt, d,76463.089681375, -1.6867967032001538, 0.15764386022225516, -3.0528547855086234, -0.5830015540122986, 0.5287358164787292, 0.6883640289306641, -0.9809625744819641, -0.15699172019958496, 0.11430519074201584, 0.26779747009277344, 0.10904859006404877, -0.018800511956214905, -0.7415330287754284, -0.08533089563726498, -0.029352937920890165,-0.6648200180498729,-0.713165283203125,-0.047943115234375,0.0955047607421875
20220111-1132,2022-01-11 11:32:43Z,u01, 189,40,movements,el-ex, rt, d,76463.11462237501, -1.6744761454155996, 0.1420428742384205, -3.0657330472190174, -0.2642751634120941, 0.3652524948120117, 0.5835826396942139, -0.984612762928009, -0.1415657103061676, 0.10245183855295181, 0.37142330408096313, 0.07934039831161499, -0.04451431334018707, -0.7385897030537049, -0.07557228450060632, -0.027347714541294643,-0.6693474251200702,-0.616455078125,-0.0951995849609375,0.0504913330078125
20220111-1132,2022-01-11 11:32:43Z,u01, 190,40,movements,el-ex, rt, d,76463.139563375, -1.6672681883059366, 0.13021307715177605, -3.0753001097796355, -0.4532548487186432, 0.0834801197052002, 0.4330092966556549, -0.9869239926338196, -0.12984542548656464, 0.09550686180591583, 0.44909727573394775, -0.044669345021247864, -0.00775359570980072, -0.7369552913048492, -0.06819333564067215, -0.0259136952506277,-0.6719934457958707,-0.5378265380859375,-0.1745147705078125,0.0877532958984375
20220111-1132,2022-01-11 11:32:43Z,u01, 191,40,movements,el-ex, rt, d,76463.164504375, -1.6653123376056174, 0.12245947647071152, -3.0903897475537367, -0.6195223927497864, -0.015074680559337139, 0.2848885655403137, -0.9880813360214233, -0.1221536323428154, 0.09366859495639801, 0.35352933406829834, 0.007285460829734802, 0.02840162068605423, -0.7370391302399883, -0.060063460778314925, -0.028056415494630504,-0.6725909483196781,-0.642730712890625,-0.06463623046875,0.1112823486328125
20220111-1132,2022-01-11 11:32:43Z,u01, 192,40,movements,el-ex, rt, d,76463.189445375, -1.665786407290262, 0.11807132335138248, -3.100414277570041, -0.11263245344161987, -0.11772708594799042, 0.1088751032948494, -0.9885608553886414, -0.11779718101024628, 0.094186931848526, 0.44107556343078613, 0.25167781114578247, -0.040918588638305664, -0.7376181643470676, -0.05488998427629593, -0.029818715099979742,-0.6723223569280222,-0.5474853515625,0.133880615234375,0.0532684326171875
20220111-1132,2022-01-11 11:32:43Z,u01, 193,40,movements,el-ex, rt, d,76463.214385375, -1.670646551498269, 0.11827141189346659, -3.1002423390710288, -0.000391567125916481, -0.32239454984664917, -0.14297185838222504, -0.9880679845809937, -0.11799587309360504, 0.09898800402879715, 0.49824559688568115, 0.14698755741119385, -0.04454469680786133, -0.7392392980494831, -0.054947815568294534, -0.029968486034088138,-0.6705280835240075,-0.4746246337890625,-0.0105438232421875,0.07061767578125
20220111-1132,2022-01-11 11:32:43Z,u01, 194,40,movements,el-ex, rt, d,76463.239326375, -1.68222082164581, 0.1242690977580196, -3.1018992607567237, -0.13990990817546844, -0.5355957746505737, -0.32946211099624634, -0.9861350655555725, -0.12394949793815613, 0.11033660918474197, 0.4083458185195923, -0.15133431553840637, 0.09826624393463135, -0.7429774283006711, -0.056150189997328515, -0.033071060997466206,-0.6661366323960689,-0.577789306640625,-0.2752838134765625,0.2086029052734375
20220111-1132,2022-01-11 11:32:43Z,u01, 195,40,movements,el-ex, rt, d,76463.26426737501, -1.6957802693410866, 0.13501424831213776, -3.1051228230574774, -0.15674319863319397, -0.5881651639938354, -0.5019816160202026, -0.9831700921058655, -0.13460442423820496, 0.12352433800697327, 0.3580632209777832, -0.11475472152233124, 0.042384400963783264, -0.7472401111691367, -0.05826134851829162, -0.03854034276267937,-0.6608725304393828,-0.6102142333984375,-0.1975860595703125,0.1356964111328125
20220111-1132,2022-01-11 11:32:43Z,u01, 196,40,movements,el-ex, rt, d,76463.289208375, -1.7114558809622764, 0.14942918613399914, -3.1031424589402583, 0.08077419549226761, -0.6645538806915283, -0.6531055569648743, -0.9790899157524109, -0.1488737016916275, 0.1386338472366333, 0.48411017656326294, 0.1458067148923874, -0.07297541201114655, -0.7518619298156338, -0.06340792588572902, -0.04378089589216,-0.6548024163228465,-0.4949798583984375,-0.0030670166015625,0.0656585693359375
20220111-1132,2022-01-11 11:32:43Z,u01, 197,40,movements,el-ex, rt, d,76463.314149375, -1.731514639782715, 0.16678772645652756, -3.0976225911298636, 0.0757008045911789, -0.8425709009170532, -0.8238968253135681, -0.9734145998954773, -0.16601552069187164, 0.1578066349029541, 0.48401939868927, 0.06195057928562164, -0.0025026649236679077, -0.7575694653661484, -0.07065282263775258, -0.04922565953196528,-0.6470498786070897,-0.521636962890625,-0.1290130615234375,0.1811676025390625
20220111-1132,2022-01-11 11:32:43Z,u01, 198,40,movements,el-ex, rt, d,76463.33909037501, -1.7540376620259572, 0.18941100471542194, -3.0966641821708674, -0.32361963391304016, -0.9407761693000793, -0.9216291308403015, -0.9656729698181152, -0.18828046321868896, 0.1789586991071701, 0.34351110458374023, 0.014040350914001465, 0.061077237129211426, -0.763839301887304, -0.07764578379477177, -0.05838676498834461,-0.6380530270167206,-0.622161865234375,-0.1742401123046875,0.2400360107421875
20220111-1132,2022-01-11 11:32:43Z,u01, 199,40,movements,el-ex, rt, d,76463.36403137501, -1.7772193330307873, 0.2114328583924734, -3.0994193395686263, -0.16108548641204834, -0.8969480395317078, -0.8480689525604248, -0.95697420835495, -0.20986106991767883, 0.20039592683315277, 0.2588999271392822, -0.10923072695732117, 0.11852788925170898, -0.7702881944273567, -0.08278926184936358, -0.06866593937051546,-0.628559416647164,-0.7258148193359375,-0.3297882080078125,0.302581787109375
20220111-1132,2022-01-11 11:32:43Z,u01, 200,40,movements,el-ex, rt, d,76463.38897137501, -1.797963484004597, 0.23422354868059392, -3.1018764371129373, -0.353041410446167, -0.8419140577316284, -0.8750185370445251, -0.9477044939994812, -0.23208780586719513, 0.219068706035614, 0.2514766454696655, 0.12211774289608002, -0.02313069999217987, -0.7757349313645201, -0.08814570644182945, -0.07916086941446449,-0.6198379170355082,-0.69622802734375,-0.1099700927734375,0.1959381103515625
20220111-1132,2022-01-11 11:32:43Z,u01, 201,40,movements,el-ex, rt, d,76463.413912375, -1.8179833280980715, 0.25909072483236767, -3.104401351744318, -0.30530697107315063, -0.7443153262138367, -0.9733643531799316, -0.9372422695159912, -0.25620174407958984, 0.23651090264320374, 0.13594233989715576, 0.30753234028816223, -0.04244972765445709, -0.7806627459712674, -0.09392085107861303, -0.09056171971253596,-0.6111816941040535,-0.83795166015625,0.0616455078125,0.198150634765625
20220111-1132,2022-01-11 11:32:43Z,u01, 202,40,movements,el-ex, rt, d,76463.438853375, -1.8348605407586673, 0.28081033442405723, -3.1005097479719272, 0.12814976274967194, -0.580794632434845, -0.7916318774223328, -0.92752605676651, -0.27713432908058167, 0.25078272819519043, 0.06744915246963501, 0.11629146337509155, -0.03947913646697998, -0.7843151842881785, -0.10119810416057251, -0.09873560585238983,-0.6040363367717158,-0.860076904296875,-0.1608428955078125,0.2113037109375
20220111-1132,2022-01-11 11:32:43Z,u01, 203,40,movements,el-ex, rt, d,76463.463794375, -1.8492629599670292, 0.2991629402134501, -3.0934379396043217, -0.07964926958084106, -0.38023632764816284, -0.7835361957550049, -0.9187726974487305, -0.29472044110298157, 0.26267242431640625, 0.020457148551940918, -0.03467109799385071, -0.027091950178146362, -0.7870945098575525, -0.10871266162609688, -0.10461193826591236,-0.5980971442133842,-0.88177490234375,-0.338409423828125,0.2260284423828125
20220111-1132,2022-01-11 11:32:43Z,u01, 204,40,movements,el-ex, rt, d,76463.48873537501, -1.8589927353476745, 0.3202454293793298, -3.0929522138263756, -0.1868622750043869, -0.40589696168899536, -0.8551815748214722, -0.9100130796432495, -0.3147995173931122, 0.26977303624153137, 0.1288546323776245, 0.06965184211730957, -0.08482134342193604, -0.788514628190159, -0.1145914664516331, -0.11336222325102316,-0.5935170522556305,-0.781158447265625,-0.245147705078125,0.1849517822265625
20220111-1132,2022-01-11 11:32:43Z,u01, 205,40,movements,el-ex, rt, d,76463.51367625, -1.870081793666206, 0.33958918598123217, -3.087377982619367, 0.12456245720386505, -0.31642594933509827, -0.6840195059776306, -0.9009777307510376, -0.33309975266456604, 0.2779998481273651, -0.002342700958251953, 0.12773171067237854, -0.004791229963302612, -0.7900415746422076, -0.12179586585744007, -0.12005267688485613,-0.5887168435316876,-0.9419403076171875,-0.2197723388671875,0.3011322021484375
20220111-1132,2022-01-11 11:32:43Z,u01, 206,40,movements,el-ex, rt, d,76463.53861625, -1.877248412849248, 0.34977528619446774, -3.07773244638804, 0.19272169470787048, -0.013023113831877708, -0.3845626413822174, -0.8956806659698486, -0.3426867127418518, 0.2834112346172333, -0.13382983207702637, -0.030390679836273193, 0.038152456283569336, -0.7907526053875701, -0.12812468835136132, -0.12172373142147577,-0.5860696919420966,-1.029510498046875,-0.373077392578125,0.321563720703125
20220111-1132,2022-01-11 11:32:43Z,u01, 207,40,movements,el-ex, rt, d,76463.56355725, -1.877038231286708, 0.35704359421281223, -3.0748533397149806, -0.10308995097875595, 0.05940214544534683, -0.28784242272377014, -0.8933416604995728, -0.34950581192970276, 0.2824645936489105, 0.0038306117057800293, -0.07461217045783997, -0.1115509569644928, -0.7899201395857351, -0.13137149712008134, -0.12376329328881705,-0.586046344064653,-0.8544921875,-0.4182586669921875,0.1641082763671875
20220111-1132,2022-01-11 11:32:43Z,u01, 208,40,movements,el-ex, rt, d,76463.58849825, -1.8759305951321406, 0.3641603987717189, -3.0760068996611354, -0.1362195461988449, 0.031562793999910355, -0.205702543258667, -0.8912587761878967, -0.3561648726463318, 0.2807205021381378, 0.015251874923706055, -0.011129379272460938, 0.04937276244163513, -0.789088971821764, -0.13303701584023753, -0.12686246889451153,-0.5861275752060308,-0.876007080078125,-0.3672943115234375,0.3300933837890625
20220111-1132,2022-01-11 11:32:43Z,u01, 209,40,movements,el-ex, rt, d,76463.61343925001, -1.871140122357742, 0.36907231416454633, -3.078822500049787, -0.16926388442516327, 0.2940802574157715, -0.10613061487674713, -0.8909116983413696, -0.36075037717819214, 0.2759269177913666, -0.14274930953979492, 0.014681041240692139, 0.07168343663215637, -0.7874646133134491, -0.13365231366955316, -0.12932225173448575,-0.5876328339953854,-1.0507049560546875,-0.3600006103515625,0.316375732421875
20220111-1132,2022-01-11 11:32:43Z,u01, 210,40,movements,el-ex, rt, d,76463.63838025, -1.861045038242875, 0.37071307482199356, -3.0788205934824866, 0.12422493100166321, 0.4686252772808075, -0.07867595553398132, -0.8930832743644714, -0.3622801601886749, 0.26674938201904297, -0.09188675880432129, -0.0899139940738678, -0.09777370095252991, -0.7843523125381522, -0.13478182609538986, -0.1292946264832265,-0.5915303464344666,-0.9849700927734375,-0.4521942138671875,0.168975830078125
20220111-1132,2022-01-11 11:32:43Z,u01, 211,40,movements,el-ex, rt, d,76463.66332125, -1.8512837611476116, 0.37163531710820397, -3.0751472136992155, 0.07176031917333603, 0.4479962885379791, -0.0343158133327961, -0.8953231573104858, -0.3631395995616913, 0.2579266130924225, -0.08616793155670166, -0.042240649461746216, -0.04721808433532715, -0.781128921124951, -0.13711643867033585, -0.12790516857800197,-0.5955476510529967,-1.0031280517578125,-0.3790435791015625,0.2294464111328125
20220111-1132,2022-01-11 11:32:43Z,u01, 212,40,movements,el-ex, rt, d,76463.68826225, -1.8384292864546847, 0.36950315154838115, -3.0758732733793104, -0.04921170324087143, 0.568382740020752, 0.23790013790130615, -0.8993092179298401, -0.36115217208862305, 0.24660088121891022, -0.1473826766014099, 0.020774364471435547, 0.006130337715148926, -0.7775120592294255, -0.13702350687316434, -0.126402653035817,-0.6006012822184175,-1.04669189453125,-0.3403778076171875,0.2527313232421875
20220111-1132,2022-01-11 11:32:43Z,u01, 213,40,movements,el-ex, rt, d,76463.71320225, -1.8218271323276956, 0.3616918999640795, -3.079455425026063, -0.07388865947723389, 0.6540836095809937, 0.4004901647567749, -0.9059841632843018, -0.353857159614563, 0.232330784201622, -0.10268270969390869, -0.020913898944854736, -0.01983693242073059, -0.7733795240651358, -0.1343484327413424, -0.12330158665975607,-0.6071500946514109,-1.0003814697265625,-0.3868560791015625,0.2051544189453125
20220111-1132,2022-01-11 11:32:43Z,u01, 214,40,movements,el-ex, rt, d,76463.73814325001, -1.8039620939477807, 0.35112678458624036, -3.0839590621450035, -0.008866977877914906, 0.6520073413848877, 0.4813563823699951, -0.9135767221450806, -0.3439560532569885, 0.21696093678474426, -0.10250610113143921, -0.11626431345939636, -0.03579339385032654, -0.7690556663132009, -0.1305137852434755, -0.11938509673254122,-0.6142205197556814,-1.016082763671875,-0.4602203369140625,0.1811676025390625
20220111-1132,2022-01-11 11:32:44Z,u01, 215,40,movements,el-ex, rt, d,76463.76308425001, -1.7866238239380452, 0.33850292023748696, -3.085549360433906, 0.10919611155986786, 0.7058597803115845, 0.5671823024749756, -0.9213688373565674, -0.3320753276348114, 0.20200306177139282, -0.17851513624191284, -0.11389324069023132, 0.0023883581161499023, -0.7647589902047486, -0.1270638209541613, -0.11388070325804261,-0.62131280006845,-1.1129150390625,-0.4443359375,0.2052154541015625
20220111-1132,2022-01-11 11:32:44Z,u01, 216,40,movements,el-ex, rt, d,76463.78802525, -1.7684595806113466, 0.3242769652640675, -3.087259784102582, -0.043170321732759476, 0.6846596002578735, 0.5782177448272705, -0.9294244050979614, -0.31862351298332214, 0.1861436367034912, -0.23367691040039062, -0.11239153146743774, 0.04412664473056793, -0.7602218078385546, -0.12302286101660004, -0.10781502017532946,-0.6287321627946133,-1.1631011962890625,-0.4310150146484375,0.2302703857421875
20220111-1132,2022-01-11 11:32:44Z,u01, 217,40,movements,el-ex, rt, d,76463.81296625, -1.7506916583155665, 0.3098851853115947, -3.0919219905416044, -0.04547012597322464, 0.6428787708282471, 0.6108794808387756, -0.9369996190071106, -0.3049492835998535, 0.17040406167507172, -0.29426252841949463, -0.0931524932384491, 0.07645249366760254, -0.7558782148091485, -0.1176866798837588, -0.10272704618778072,-0.6358027099100536,-1.249053955078125,-0.3805389404296875,0.241851806640625
20220111-1132,2022-01-11 11:32:44Z,u01, 218,40,movements,el-ex, rt, d,76463.83790725001, -1.734704360828679, 0.2939051642161963, -3.0941873726008655, 0.041459210216999054, 0.5523523688316345, 0.6841705441474915, -0.9442915916442871, -0.28969213366508484, 0.15617810189723969, -0.35333096981048584, -0.13065692782402039, 0.057414278388023376, -0.7519426006799197, -0.1125672152766109, -0.09646920672438603,-0.6423429864748742,-1.2976226806640625,-0.42034912109375,0.213592529296875
20220111-1132,2022-01-11 11:32:44Z,u01, 219,40,movements,el-ex, rt, d,76463.86284825, -1.7222318134831145, 0.277968797637377, -3.098307044414901, -0.12818224728107452, 0.3511735498905182, 0.5906968712806702, -0.9506094455718994, -0.2744029760360718, 0.14506663382053375, -0.41094738245010376, -0.15548285841941833, 0.0739579051733017, -0.7491259271970454, -0.10650662218248458, -0.09110053630425646,-0.6474312651074345,-1.37841796875,-0.4324798583984375,0.213043212890625
20220111-1132,2022-01-11 11:32:44Z,u01, 220,40,movements,el-ex, rt, d,76463.88778825001, -1.7143287971050565, 0.2669188022909525, -3.102805743952585, -0.08091913163661957, 0.2023979276418686, 0.30934563279151917, -0.954669177532196, -0.26376059651374817, 0.1379748284816742, -0.4841430187225342, -0.21899697184562683, 0.09609484672546387, -0.7474368468207273, -0.10161483736681715, -0.0879947772333754,-0.6505916474807283,-1.438812255859375,-0.482757568359375,0.23406982421875
20220111-1132,2022-01-11 11:32:44Z,u01, 221,40,movements,el-ex, rt, d,76463.91272925, -1.709984572547878, 0.2629780129003752, -3.105417864929465, -0.06420839577913284, 0.09006404876708984, 0.07108710706233978, -0.9562814831733704, -0.25995734333992004, 0.13396941125392914, -0.49659931659698486, -0.16789910197257996, 0.15379595756530762, -0.7463737877445349, -0.09955336501766898, -0.0871489980242377,-0.6522425131664384,-1.4508056640625,-0.41558837890625,0.290283203125
20220111-1132,2022-01-11 11:32:44Z,u01, 222,40,movements,el-ex, rt, d,76463.93767025, -1.7093775110736344, 0.262974403394787, -3.1058336828774964, -0.06806435436010361, -0.06523998081684113, -0.09176112711429596, -0.9563636779785156, -0.2599538564682007, 0.13338901102542877, -0.4730187654495239, -0.12169897556304932, 0.13865984976291656, -0.74619667035842, -0.09942350525854882, -0.08725306306656166,-0.6524511153859498,-1.42938232421875,-0.38165283203125,0.2720489501953125
20220111-1132,2022-01-11 11:32:44Z,u01, 223,40,movements,el-ex, rt, d,76463.96261125001, -1.7120839122991476, 0.26772859321509074, -3.1082942299060607, -0.1339932680130005, -0.18234628438949585, -0.27323365211486816, -0.9547647833824158, -0.2645416259765625, 0.1358012557029724, -0.5292898416519165, -0.1605377197265625, 0.1031360775232315, -0.7469373167854794, -0.09992631949970282, -0.08997162632658356,-0.6511562973963388,-1.4967498779296875,-0.4355316162109375,0.2301788330078125
20220111-1132,2022-01-11 11:32:44Z,u01, 224,40,movements,el-ex, rt, d,76463.98755225001, -1.717349461643182, 0.2769761296041303, -3.109365854098991, -0.06461246311664581, -0.26816481351852417, -0.43473440408706665, -0.951575517654419, -0.27344828844070435, 0.1404634267091751, -0.5017020106315613, -0.12768995761871338, 0.06363807618618011, -0.7481790499720526, -0.10227328989943252, -0.09405607832973589,-0.6487847800177906,-1.453277587890625,-0.4011383056640625,0.2041015625
20220111-1132,2022-01-11 11:32:44Z,u01, 225,40,movements,el-ex, rt, d,76464.01249325, -1.7255809494777217, 0.28941870284900234, -3.1091377919994794, -0.0633421391248703, -0.38142985105514526, -0.5406749248504639, -0.9469518065452576, -0.28539514541625977, 0.1477554589509964, -0.4486169219017029, -0.13043734431266785, 0.09154807031154633, -0.7500994366454583, -0.1059649113466779, -0.0990899927762594,-0.6452157376141097,-1.394500732421875,-0.4303436279296875,0.246612548828125
20220111-1132,2022-01-11 11:32:44Z,u01, 226,40,movements,el-ex, rt, d,76464.03743425, -1.7353939295011132, 0.3045142590095928, -3.107090549296801, 0.031141791492700577, -0.3491687774658203, -0.6948788166046143, -0.9410989880561829, -0.2998298108577728, 0.1563168615102768, -0.4976828098297119, -0.15308153629302979, 0.07866835594177246, -0.7522128623939867, -0.11105960901373257, -0.10465795923946797,-0.6410057279984649,-1.43878173828125,-0.452911376953125,0.2349853515625
20220111-1132,2022-01-11 11:32:44Z,u01, 227,40,movements,el-ex, rt, d,76464.06237425, -1.743609184382237, 0.32223659379286473, -3.1023902413974582, 0.09130530059337616, -0.21573075652122498, -0.7423347234725952, -0.9344010949134827, -0.3166888356208801, 0.16310341656208038, -0.44008004665374756, -0.08071106672286987, 0.013989925384521484, -0.7534087692670364, -0.11801244730468785, -0.1103299801098554,-0.6373974969779811,-1.3279876708984375,-0.401336669921875,0.157958984375
20220111-1132,2022-01-11 11:32:44Z,u01, 228,40,movements,el-ex, rt, d,76464.08731525, -1.751568494095917, 0.33996992596651515, -3.0954812788360933, 0.14192579686641693, -0.23415037989616394, -0.7397075891494751, -0.9274024963378906, -0.3334587514400482, 0.16949892044067383, -0.2576103210449219, -0.07601085305213928, -0.011906147003173828, -0.7542776821368382, -0.1257562636112891, -0.11534325687266966,-0.6339924791318783,-1.1850128173828125,-0.4094696044921875,0.1575927734375
20220111-1132,2022-01-11 11:32:44Z,u01, 229,40,movements,el-ex, rt, d,76464.11225625001, -1.7580851354605038, 0.3566414473002848, -3.0903626332497276, 0.004309377633035183, -0.14756348729133606, -0.6203358769416809, -0.9206876158714294, -0.34912899136543274, 0.17447935044765472, -0.274807870388031, -0.0018841326236724854, 0.06366442143917084, -0.7547699456634516, -0.1325217067027965, -0.12047975081841122,-0.6310664410439364,-1.200836181640625,-0.3426361083984375,0.24102783203125
20220111-1132,2022-01-11 11:32:44Z,u01, 230,40,movements,el-ex, rt, d,76464.13719725, -1.7621748986013714, 0.36837629827249313, -3.0849216422264503, 0.19713449478149414, -0.01625366322696209, -0.4199753701686859, -0.9158809185028076, -0.3601011335849762, 0.1774517148733139, -0.2070133090019226, 0.0013975799083709717, -0.04145027697086334, -0.7547765263693498, -0.13797918486212063, -0.1235068764373804,-0.6293012683002269,-1.122894287109375,-0.35870361328125,0.1360015869140625
20220111-1132,2022-01-11 11:32:44Z,u01, 231,40,movements,el-ex, rt, d,76464.16213825, -1.765320265140805, 0.3762592508229646, -3.0789474858703287, 0.0929272249341011, -0.08711379021406174, -0.2829941213130951, -0.9125047326087952, -0.3674439787864685, 0.17977730929851532, -0.06820809841156006, 0.0786409080028534, -0.06487871706485748, -0.7547100812808534, -0.1424828107308475, -0.12485190082735154,-0.6281108700148641,-0.9714202880859375,-0.287811279296875,0.13031005859375
20220111-1132,2022-01-11 11:32:44Z,u01, 232,40,movements,el-ex, rt, d,76464.18707925, -1.76846323453327, 0.3802096616154615, -3.075512553766646, 0.11217602342367172, -0.018076397478580475, -0.055776964873075485, -0.9105046987533569, -0.37111517786979675, 0.18235790729522705, -0.12391901016235352, 0.03906869888305664, -0.021133676171302795, -0.7551230677803578, -0.1448036711288867, -0.12550615920655583,-0.6269522493474389,-1.034423828125,-0.3320465087890625,0.161224365234375
20220111-1132,2022-01-11 11:32:44Z,u01, 233,40,movements,el-ex, rt, d,76464.21201925, -1.7686462806665944, 0.3775521948987812, -3.070898401101374, 0.26409104466438293, 0.10047382116317749, 0.16435447335243225, -0.9114351272583008, -0.36864617466926575, 0.18271778523921967, -0.05345427989959717, -0.04930725693702698, -0.039407387375831604, -0.7550670365123574, -0.14571431115718986, -0.12305846156882044,-0.6272938916538615,-0.9378814697265625,-0.429962158203125,0.15264892578125
20220111-1132,2022-01-11 11:32:44Z,u01, 234,40,movements,el-ex, rt, d,76464.23696025001, -1.7683799079592024, 0.371460195063368, -3.0679618315017754, 0.076169952750206, 0.04713110253214836, 0.3215908110141754, -0.9136690497398376, -0.36297643184661865, 0.18291246891021729, -0.05616426467895508, 0.06178322434425354, 0.027384042739868164, -0.755276786494458, -0.14495934961199525, -0.11979144900240785,-0.6278485138734946,-0.9698333740234375,-0.3011932373046875,0.210296630859375
20220111-1132,2022-01-11 11:32:44Z,u01, 235,40,movements,el-ex, rt, d,76464.26190125, -1.7647970876016148, 0.3593444426271901, -3.0690008454908977, 0.0481448769569397, 0.22033651173114777, 0.6564463973045349, -0.9185664057731628, -0.3516606092453003, 0.18047238886356354, -0.1323978304862976, 0.08267876505851746, 0.02378164231777191, -0.7552129014002013, -0.14103072437664327, -0.11523569605784467,-0.6296700793950467,-1.035308837890625,-0.2839508056640625,0.168243408203125
20220111-1132,2022-01-11 11:32:44Z,u01, 236,40,movements,el-ex, rt, d,76464.28684225, -1.7572788698410167, 0.34080258586541967, -3.073853912282545, -0.1852564513683319, 0.19679862260818481, 0.8264287114143372, -0.9261462688446045, -0.33424362540245056, 0.17474040389060974, 0.07653695344924927, -0.06576550006866455, -0.08480525016784668, -0.7546211463755546, -0.13385486660645574, -0.10917997059922285,-0.6330161964540446,-0.849609375,-0.4000091552734375,0.089935302734375
20220111-1132,2022-01-11 11:32:44Z,u01, 237,40,movements,el-ex, rt, d,76464.31178325, -1.7496657726786824, 0.32297843366909046, -3.0860056182490623, -0.3646067678928375, 0.19799332320690155, 0.7694703340530396, -0.9331645965576172, -0.31739240884780884, 0.16871781647205353, -0.003938555717468262, -0.031042039394378662, 0.0531296581029892, -0.7542939234425382, -0.12409507697466077, -0.10576207409961635,-0.6359680822786222,-0.972198486328125,-0.33416748046875,0.270355224609375
20220111-1132,2022-01-11 11:32:44Z,u01, 238,40,movements,el-ex, rt, d,76464.33672425001, -1.7399134761458308, 0.3045819695837807, -3.0920215478734434, 0.24229395389556885, 0.5044654011726379, 0.766883909702301, -0.940362811088562, -0.29989442229270935, 0.16056515276432037, -0.04143345355987549, 0.04116636514663696, -0.07783210277557373, -0.7527986268634207, -0.11651954471038745, -0.10011454997137842,-0.6400738211773573,-0.9817962646484375,-0.25872802734375,0.082733154296875
20220111-1132,2022-01-11 11:32:44Z,u01, 239,40,movements,el-ex, rt, d,76464.36166425, -1.727545477094759, 0.28363394660119345, -3.085075915816752, 0.30761104822158813, 0.5535620450973511, 0.7762771248817444, -0.9482746720314026, -0.2798462510108948, 0.14987072348594666, 0.24870502948760986, 0.030441313982009888, -0.1803579330444336, -0.7497712525686828, -0.11304172040128962, -0.08925008829161823,-0.6458320822066583,-0.657501220703125,-0.237030029296875,-0.0283660888671875
20220111-1132,2022-01-11 11:32:44Z,u01, 240,40,movements,el-ex, rt, d,76464.38660525001, -1.7147219361148824, 0.2638585358243198, -3.08925805655724, -0.3080516457557678, 0.45799827575683594, 0.8568382859230042, -0.9554092884063721, -0.26080748438835144, 0.1384652704000473, 0.24106907844543457, 0.01776549220085144, -0.024772167205810547, -0.7470383590216454, -0.10567083128137783, -0.08245688400731738,-0.6511284473694835,-0.7143402099609375,-0.2430419921875,0.1136932373046875
20220111-1132,2022-01-11 11:32:44Z,u01, 241,40,movements,el-ex, rt, d,76464.41154625, -1.6989673137186432, 0.24296454906758658, -3.100849418175998, -0.2779574990272522, 0.5733871459960938, 0.9206345677375793, -0.9626673460006714, -0.24058115482330322, 0.12406614422798157, 0.2235621213912964, 0.07570993900299072, -0.02595221996307373, -0.7436203615370292, -0.09519364672282116, -0.07762998065999743,-0.6572218446581859,-0.718231201171875,-0.14990234375,0.0931243896484375
20220111-1132,2022-01-11 11:32:44Z,u01, 242,40,movements,el-ex, rt, d,76464.43648725, -1.6839200022477219, 0.2201604976107354, -3.1065261537590336, -0.08061769604682922, 0.5411213040351868, 0.8592310547828674, -0.9696250557899475, -0.21838624775409698, 0.11015784740447998, 0.2777153253555298, 0.02452331781387329, -0.05704212188720703, -0.7400381673887817, -0.0861535469971903, -0.07033010957942193,-0.6633059383574087,-0.6919097900390625,-0.1938629150390625,0.0531158447265625
20220111-1132,2022-01-11 11:32:44Z,u01, 243,40,movements,el-ex, rt, d,76464.46142825001, -1.6680937861186014, 0.20015982747214378, -3.1122172051181995, -0.16441908478736877, 0.6240605115890503, 0.818976640701294, -0.9753994941711426, -0.19882597029209137, 0.09520450979471207, 0.28066694736480713, 0.11296476423740387, 0.01046251505613327, -0.7358849204901619, -0.07794638352110073, -0.0641744707280954,-0.6695366386936749,-0.6833343505859375,-0.060821533203125,0.1075439453125
20220111-1132,2022-01-11 11:32:44Z,u01, 244,40,movements,el-ex, rt, d,76464.48636925001, -1.6512555974263274, 0.18096788457259272, -3.120415027441942, -0.3576697111129761, 0.5568482875823975, 0.8129929304122925, -0.9804876446723938, -0.17998173832893372, 0.07905999571084976, 0.3306006193161011, 0.1233258843421936, 0.004954814910888672, -0.7312771135156476, -0.06902016122793453, -0.059258158687642226,-0.6759870189876866,-0.6498870849609375,-0.0566558837890625,0.084014892578125
20220111-1132,2022-01-11 11:32:44Z,u01, 245,40,movements,el-ex, rt, d,76464.511309625, -1.6365245484607345, 0.161417670597622, -3.1296142602387307, -0.32346925139427185, 0.5493655800819397, 0.749505341053009, -0.9848690629005432, -0.16071760654449463, 0.0648270770907402, 0.26497477293014526, -0.03779919445514679, 0.010932676494121552, -0.7272399794565539, -0.0594604929165059, -0.05476895798281084,-0.6816059992765673,-0.7255706787109375,-0.183685302734375,0.0788726806640625
20220111-1132,2022-01-11 11:32:44Z,u01, 246,40,movements,el-ex, rt, d,76464.536249625, -1.6223036694813588, 0.144557660976423, -3.13841675331762, -0.24830642342567444, 0.46452295780181885, 0.6411698460578918, -0.9882573485374451, -0.14405472576618195, 0.05094757303595543, 0.35358327627182007, 0.10639604926109314, -0.03796243667602539, -0.7231078273690378, -0.05088080213647789, -0.05127160470442932,-0.686947907759087,-0.634674072265625,-0.03765869140625,0.0129852294921875
20220111-1132,2022-01-11 11:32:44Z,u01, 247,40,movements,el-ex, rt, d,76464.561190625, -1.6127218912169652, 0.12988546570918125, 3.139136150388447, -0.27109864354133606, 0.24449190497398376, 0.5403456091880798, -0.9907053112983704, -0.12952058017253876, 0.041560232639312744, 0.3617839217185974, 0.04211820662021637, -0.009287957102060318, -0.7203063612172615, -0.04403251351648102, -0.04768927167654957,-0.6906124312859055,-0.6259002685546875,-0.08489990234375,0.036224365234375
20220111-1132,2022-01-11 11:32:44Z,u01, 248,40,movements,el-ex, rt, d,76464.58613162501, -1.6094341495552085, 0.11660119223368452, 3.129597498776369, -0.39527207612991333, -0.0468868725001812, 0.5079384446144104, -0.992468535900116, -0.11633715778589249, 0.038365915417671204, 0.41176480054855347, 0.02304491400718689, 0.025965094566345215, -0.71963950739371, -0.03608237341215298, -0.04613999133822416,-0.6918729373345611,-0.5807037353515625,-0.093292236328125,0.0643310546875
20220111-1132,2022-01-11 11:32:44Z,u01, 249,40,movements,el-ex, rt, d,76464.611072625, -1.6112965796113439, 0.10718405742030492, 3.120059514388085, -0.32013264298439026, -0.1660003364086151, 0.2647760212421417, -0.9934461116790771, -0.10697894543409348, 0.04025683179497719, 0.4001690149307251, 0.01641799509525299, 0.07094907760620117, -0.7206019955153, -0.029345857608952364, -0.04608065361895636,-0.6911933641237358,-0.5908355712890625,-0.084075927734375,0.1022491455078125
