SessionID,LoggingTime,UID,RecNo,Hertz,Activity,MoveType,Wrist,Side,TimeStamp,DMRoll,DMPitch,DMYaw,DMRotX,DMRotY,DMRotZ,DMGrvX,DMGrvY,DMGrvZ,DMUAccelX,DMUAccelY,DMUAccelZ,DMQuatX,DMQuatY,DMQuatW,DMQuatZ,AccelroX,AceelroY,AceelroZ
20220112-1354,2022-01-12 13:54:38Z,u01, 1,40,movements,el-ex, rt, d,94234.415637625, -1.601416387247448, 0.2710404757017141, 2.8786315907177658, 0.024522310122847557, 0.018074773252010345, -0.47238853573799133, -0.9630411267280579, -0.2677340805530548, 0.029497595503926277, -0.6599904298782349, -0.2603572905063629, 0.10041558742523193, -0.717459962664827, 1.3877787807814457e-17, -0.18658467807235957,-0.6711462292354282,-1.668975830078125,-0.50390625,0.149078369140625
20220112-1354,2022-01-12 13:54:38Z,u01, 2,40,movements,el-ex, rt, d,94234.440578625, -1.6039229371682082, 0.28478767561770585, 2.8791796271376486, 0.017193622887134552, -0.23194025456905365, -0.6346827745437622, -0.9591947793960571, -0.28095367550849915, 0.03178650140762329, -0.4846528172492981, -0.22092312574386597, 0.060925841331481934, -0.7182414186752877, -0.004744943387238992, -0.19116478906208884,-0.6690013220530576,-1.44384765625,-0.5018768310546875,0.09271240234375
20220112-1354,2022-01-12 13:54:38Z,u01, 3,40,movements,el-ex, rt, d,94234.46551962501, -1.6120998138373348, 0.3020044526535021, 2.8828232637581332, 0.20274901390075684, 0.46900486946105957, -1.2192225456237793, -0.9539278745651245, -0.297434538602829, 0.03942297026515007, -0.2181301712989807, -0.18210339546203613, -0.05462074279785156, -0.720822537798018, -0.011240698249129807, -0.19594978132856172,-0.6647496808981681,-1.529937744140625,-0.438568115234375,0.0804595947265625
20220112-1354,2022-01-12 13:54:38Z,u01, 4,40,movements,el-ex, rt, d,94234.490460625, -1.6226453731333346, 0.3193874394694317, 2.8884607820186035, 0.14825168251991272, -0.39865434169769287, -0.665722131729126, -0.9481519460678101, -0.31398504972457886, 0.04920487478375435, -0.34800583124160767, -0.12156179547309875, -0.03798973932862282, -0.7240648065662754, -0.01823714613496588, -0.20020296770189625,-0.6597850107535304,-1.2961578369140625,-0.435546875,0.0112152099609375
20220112-1354,2022-01-12 13:54:38Z,u01, 5,40,movements,el-ex, rt, d,94234.515401625, -1.6348724723424857, 0.33413793062424835, 2.893819543104048, 0.1619459092617035, -0.4463704526424408, -0.5429226756095886, -0.9427545666694641, -0.32795488834381104, 0.060490887612104416, -0.24820905923843384, -0.0729086697101593, -0.06775415688753128, -0.7277835389543116, -0.024011747873420364, -0.2037198020771447,-0.6544101609793063,-1.20770263671875,-0.402252197265625,-0.0161590576171875
20220112-1354,2022-01-12 13:54:38Z,u01, 6,40,movements,el-ex, rt, d,94234.54034262501, -1.6470714973078144, 0.3457250826902706, 2.8972532017626866, 0.049457453191280365, -0.4153329133987427, -0.39363893866539, -0.9380946159362793, -0.33887895941734314, 0.07169241458177567, -0.25163328647613525, -0.08769577741622925, -0.015891067683696747, -0.7314808257196174, -0.027964406080613333, -0.20682258272993254,-0.6491365937858516,-1.189727783203125,-0.42657470703125,0.0558013916015625
20220112-1354,2022-01-12 13:54:38Z,u01, 7,40,movements,el-ex, rt, d,94234.56528362501, -1.6573511690946612, 0.35355530078580627, 2.899440946276766, 0.05512479692697525, -0.38454702496528625, -0.2351994812488556, -0.9346356391906738, -0.34623539447784424, 0.08109986782073975, -0.1665453314781189, -0.004152148962020874, -0.038009047508239746, -0.7345942332898758, -0.030352036931820543, -0.20902270856959243,-0.6447941735848816,-1.1273040771484375,-0.3755645751953125,0.0412750244140625
20220112-1354,2022-01-12 13:54:38Z,u01, 8,40,movements,el-ex, rt, d,94234.590224625, -1.669690982105136, 0.35648756912973545, 2.9023025969605465, 0.14219093322753906, -0.5262089371681213, -0.014376165345311165, -0.9325492978096008, -0.34898480772972107, 0.09252597391605377, -0.11334896087646484, 0.06511038541793823, -0.08379806578159332, -0.7384413147825827, -0.031103263636702003, -0.20933091630292255,-0.6402479246956357,-1.0458984375,-0.28387451171875,0.00872802734375
20220112-1354,2022-01-12 13:54:38Z,u01, 9,40,movements,el-ex, rt, d,94234.615165625, -1.6826060888446506, 0.3545256165356569, 2.902787351572125, -0.1851283609867096, -0.4604145288467407, 0.17591655254364014, -0.9319554567337036, -0.34714552760124207, 0.10463812202215195, -0.20006370544433594, -0.025611430406570435, 0.010931864380836487, -0.7426048402569912, -0.029276484564250006, -0.20867247017960627,-0.6357175381278419,-1.1241912841796875,-0.3546295166015625,0.08984375
20220112-1354,2022-01-12 13:54:38Z,u01, 10,40,movements,el-ex, rt, d,94234.64010662501, -1.6902510562627269, 0.3485101775790915, 2.8946548564684242, -0.28650426864624023, -0.41933026909828186, 0.3399389982223511, -0.9331846833229065, -0.34149792790412903, 0.11200658231973648, -0.09370124340057373, -0.046563565731048584, 0.05359697341918945, -0.7452874497972162, -0.02345015845263683, -0.209199113933277,-0.632639235991668,-1.026885986328125,-0.3880615234375,0.1656036376953125
20220112-1354,2022-01-12 13:54:38Z,u01, 11,40,movements,el-ex, rt, d,94234.665047625, -1.6993821359929626, 0.33975956437488597, 2.8915678935971765, 0.15165196359157562, -0.33675506711006165, 0.3780798316001892, -0.935050904750824, -0.3332604169845581, 0.12090135365724564, -0.00806427001953125, 0.0630578100681305, -0.03339231759309769, -0.7484052504256196, -0.018446073214113665, -0.20712422469170905,-0.6298006065414982,-0.93011474609375,-0.265899658203125,0.0967559814453125
20220112-1354,2022-01-12 13:54:38Z,u01, 12,40,movements,el-ex, rt, d,94234.689988625, -1.7047702136292868, 0.3299879326656281, 2.8944054304729794, 0.07529158145189285, -0.014897887594997883, 0.4183732569217682, -0.9375685453414917, -0.32403162121772766, 0.12636665999889374, -0.06078338623046875, 0.014003574848175049, -0.0527736097574234, -0.7502905407809921, -0.015730007196393184, -0.20274916021340184,-0.6290543226106348,-0.99835205078125,-0.310028076171875,0.0735931396484375
20220112-1354,2022-01-12 13:54:38Z,u01, 13,40,movements,el-ex, rt, d,94234.714929625, -1.7022063479096674, 0.3169419275441563, 2.891153129770904, -0.13251177966594696, 0.07406507432460785, 0.6722208261489868, -0.9420003294944763, -0.3116622567176819, 0.12450578808784485, 0.11436372995376587, 0.00999605655670166, 0.004522435367107391, -0.7497622540776316, -0.010462145171582102, -0.19903610945758887,-0.6309766886524484,-0.85272216796875,-0.282135009765625,0.1143951416015625
20220112-1354,2022-01-12 13:54:38Z,u01, 14,40,movements,el-ex, rt, d,94234.739869625, -1.6987072814611466, 0.30045241858950894, 2.883296733199336, -0.26887384057044983, 0.062475331127643585, 0.7110894322395325, -0.9473990797996521, -0.29595237970352173, 0.1218479722738266, 0.07090383768081665, 0.037193894386291504, 0.02492617815732956, -0.7489447074232338, -0.0024109826193696726, -0.19554147890910928,-0.6331188254299124,-0.876495361328125,-0.258758544921875,0.1467742919921875
20220112-1354,2022-01-12 13:54:38Z,u01, 15,40,movements,el-ex, rt, d,94234.76481062501, -1.692552962860775, 0.2825341382097891, 2.878995298058871, 0.04534823074936867, 0.3128233253955841, 0.7468923926353455, -0.9532422423362732, -0.2787902057170868, 0.11664052307605743, 0.047007620334625244, 0.08953550457954407, -0.05333197861909866, -0.7471944852882579, 0.004545814007512625, -0.19043171131191777,-0.6367223906732973,-0.9286041259765625,-0.2068634033203125,0.0505828857421875
20220112-1354,2022-01-12 13:54:38Z,u01, 16,40,movements,el-ex, rt, d,94234.78975162501, -1.684168622924649, 0.2620366581802132, 2.878068032007798, 0.03234994038939476, 0.34423011541366577, 0.8467977643013, -0.9596636891365051, -0.2590482234954834, 0.10926783084869385, 0.1393970251083374, 0.026565343141555786, -0.07368433475494385, -0.7446572421394348, 0.010931920372669768, -0.1833579748443276,-0.6416742832721664,-0.8202667236328125,-0.23248291015625,0.03558349609375
20220112-1354,2022-01-12 13:54:38Z,u01, 17,40,movements,el-ex, rt, d,94234.814692625, -1.6739912777889294, 0.24113445130395994, 2.873645519266774, -0.1319754421710968, 0.36905643343925476, 0.8647499084472656, -0.9659017324447632, -0.2388044148683548, 0.10003151744604111, 0.0033468008041381836, -0.0493883341550827, 0.059789061546325684, -0.7413959465234836, 0.018649681971021875, -0.17732435609692315,-0.6469469247270351,-0.9213409423828125,-0.313140869140625,0.160919189453125
20220112-1354,2022-01-12 13:54:38Z,u01, 18,40,movements,el-ex, rt, d,94234.839633625, -1.6581058989095636, 0.2173510462636926, 2.868654871186775, -0.10123125463724136, 0.8042486310005188, 1.1065388917922974, -0.9727525115013123, -0.2156437486410141, 0.08514707535505295, -0.022379755973815918, 0.09860889613628387, -0.036105409264564514, -0.7360964555102846, 0.027120932247793286, -0.17059121478061612,-0.6544654052073832,-0.9951324462890625,-0.117034912109375,0.049041748046875
20220112-1354,2022-01-12 13:54:38Z,u01, 19,40,movements,el-ex, rt, d,94234.86457462501, -1.635171261527766, 0.1894741094824062, 2.8621682538586573, -0.26287534832954407, 0.8663688898086548, 1.0933459997177124, -0.9800692796707153, -0.18834243714809418, 0.06317919492721558, 0.3052949905395508, 0.0019715726375579834, -0.008873216807842255, -0.7281593545672251, 0.03706145209282333, -0.16315791586328532,-0.6646728671391458,-0.7053985595703125,-0.150360107421875,0.0559539794921875
20220112-1354,2022-01-12 13:54:38Z,u01, 20,40,movements,el-ex, rt, d,94234.88951475, -1.6119407774050774, 0.1651498131571215, 2.853751043655914, -0.16540101170539856, 0.9117506146430969, 0.8916850090026855, -0.985558807849884, -0.1644001007080078, 0.04057317599654198, 0.3369688391685486, -0.024793580174446106, 0.05804431065917015, -0.7198015463633244, 0.04660816480939002, -0.15786543829844604,-0.6743825451123419,-0.648590087890625,-0.1891937255859375,0.0986175537109375
20220112-1354,2022-01-12 13:54:38Z,u01, 21,40,movements,el-ex, rt, d,94234.91445575001, -1.5871606005640337, 0.14358765236614607, 2.852567907823512, -0.09586858004331589, 0.9486481547355652, 0.887881338596344, -0.9895764589309692, -0.1430947631597519, 0.01619514636695385, 0.426038920879364, 0.2640054225921631, 0.11055958271026611, -0.710865170309644, 0.05261447033503602, -0.15133620986941582,-0.6848355690730932,-0.580841064453125,0.1072845458984375,0.1307830810546875
20220112-1354,2022-01-12 13:54:38Z,u01, 22,40,movements,el-ex, rt, d,94234.93939675001, -1.5652827707239192, 0.12251523049227914, 2.8539577344510367, 0.07047585397958755, 0.8507856726646423, 0.7725322842597961, -0.9924893379211426, -0.12220896780490875, -0.00547220092266798, 0.46467262506484985, 0.039933592081069946, -0.03542143106460571, -0.7027871195821008, 0.057915145348617136, -0.14415590239938453,-0.6942299273764067,-0.5278167724609375,-0.082275390625,-0.0408935546875
20220112-1354,2022-01-12 13:54:38Z,u01, 23,40,movements,el-ex, rt, d,94234.96433775, -1.5473164031726052, 0.1035565946934927, 2.8527935295464184, -0.17331556975841522, 0.56939697265625, 0.7101742029190063, -0.9943685531616211, -0.10337160527706146, -0.023351989686489105, 0.5640250444412231, -0.13437554240226746, 0.038122475147247314, -0.6958854141791101, 0.0637769201964711, -0.1385888826502314,-0.7017613850373093,-0.44378662109375,-0.2398834228515625,0.0138397216796875
20220112-1354,2022-01-12 13:54:38Z,u01, 24,40,movements,el-ex, rt, d,94234.98927875, -1.5360764667047417, 0.08737516072249688, 2.8484556875705698, -0.10234375298023224, 0.28823623061180115, 0.6174004077911377, -0.9955847859382629, -0.08726402372121811, -0.03458046168088913, 0.6238807439804077, 0.021574944257736206, 0.10710543394088745, -0.691208699177375, 0.07028729561369136, -0.13496165202851607,-0.7064527684673729,-0.3717041015625,-0.0656890869140625,0.0725250244140625
20220112-1354,2022-01-12 13:54:38Z,u01, 25,40,movements,el-ex, rt, d,94235.01421975001, -1.5313746476382066, 0.07288425914816775, 2.8498879999989817, 0.07811956107616425, 0.11685821413993835, 0.5018055438995361, -0.9965701103210449, -0.07281974703073502, -0.03930683061480522, 0.5888401865959167, -0.034998819231987, 0.027054019272327423, -0.6890363879070356, 0.07466887415298697, -0.12968575984605935,-0.7091085022684888,-0.4131317138671875,-0.090545654296875,0.00653076171875
20220112-1354,2022-01-12 13:54:38Z,u01, 26,40,movements,el-ex, rt, d,94235.03916075, -1.5331065910351793, 0.06348563341936475, 2.8494593981120824, -0.056182585656642914, -0.2626502215862274, 0.20592723786830902, -0.9972766041755676, -0.06344299763441086, -0.03760490193963051, 0.6477131247520447, -0.03581541031599045, 0.02918202057480812, -0.6892516973434085, 0.07829206579792684, -0.1265665630255822,-0.7090721092108284,-0.3495635986328125,-0.0992584228515625,-0.0084228515625
20220112-1354,2022-01-12 13:54:38Z,u01, 27,40,movements,el-ex, rt, d,94235.06410075001, -1.5430764874462783, 0.06420519431076258, 2.849458444853795, 0.00782901793718338, -0.5243961215019226, -0.2754412591457367, -0.997556209564209, -0.06416109204292297, -0.027659181505441666, 0.615293025970459, 0.04670505225658417, 0.025828063488006592, -0.6928073635241141, 0.07866616722412638, -0.12642192651233836,-0.7055828189286782,-0.3826904296875,-0.0308990478515625,-0.0058746337890625
20220112-1354,2022-01-12 13:54:38Z,u01, 28,40,movements,el-ex, rt, d,94235.08904175, -1.5594908997171182, 0.07729598013918675, 2.8493309866782273, -0.006052576005458832, -0.822942316532135, -0.7366693019866943, -0.9969504475593567, -0.07721903175115585, -0.011271430179476738, 0.6257498860359192, 0.08130840957164764, 0.06789672374725342, -0.6990860240797296, 0.07512000831412659, -0.13034282158053462,-0.6990325126641957,-0.3712005615234375,0.00408935546875,0.0566253662109375
20220112-1354,2022-01-12 13:54:38Z,u01, 29,40,movements,el-ex, rt, d,94235.11398275, -1.5826662742151636, 0.09905659307918581, 2.848842304247763, 0.013536771759390831, -1.0228185653686523, -0.9341303110122681, -0.9950276017189026, -0.09889467805624008, 0.011811479926109314, 0.4777700901031494, 0.01471196860074997, 0.08660769462585449, -0.7078972516554235, 0.0691897484278546, -0.13723206862133086,-0.6893920852156205,-0.493743896484375,-0.0604400634765625,0.1156768798828125
20220112-1354,2022-01-12 13:54:38Z,u01, 30,40,movements,el-ex, rt, d,94235.13892375001, -1.6079145975967448, 0.12362272064783583, 2.852779820526661, 0.19867946207523346, -0.9427825808525085, -1.0185037851333618, -0.9916849136352539, -0.12330808490514755, 0.036826543509960175, 0.38397306203842163, -0.0014020204544067383, 0.014366630464792252, -0.7174193726265231, 0.0610140590201224, -0.14367912293686458,-0.6789278700273207,-0.6077117919921875,-0.1247100830078125,0.0511932373046875
20220112-1354,2022-01-12 13:54:38Z,u01, 31,40,movements,el-ex, rt, d,94235.16386475001, -1.6324352023793556, 0.1495269669567935, 2.859551152378354, 0.180867999792099, -0.9891923666000366, -1.0649816989898682, -0.98696368932724, -0.14897039532661438, 0.06091249734163284, 0.36324554681777954, 0.16815070807933807, 0.050324082374572754, -0.7265040507257631, 0.051459812578862174, -0.14988659624046505,-0.6686386988980465,-0.612396240234375,-0.007537841796875,0.1041107177734375
20220112-1354,2022-01-12 13:54:38Z,u01, 32,40,movements,el-ex, rt, d,94235.18880575, -1.6591272829955865, 0.175371435718031, 2.8644073869668274, 0.09122005105018616, -1.0501184463500977, -1.0591331720352173, -0.9808229207992554, -0.17447388172149658, 0.08686305582523346, 0.23829978704452515, 0.11253847181797028, 0.10806787014007568, -0.7359258192664059, 0.04295017048638486, -0.15689773435002474,-0.6572302107532809,-0.742523193359375,-0.0619354248046875,0.1949310302734375
20220112-1354,2022-01-12 13:54:38Z,u01, 33,40,movements,el-ex, rt, d,94235.21374675, -1.6849021198999294, 0.2003338130743768, 2.869129896068212, 0.0178530216217041, -0.9354954361915588, -0.9385382533073425, -0.9736272096633911, -0.19899648427963257, 0.11158119142055511, 0.1361944079399109, 0.06510062515735626, 0.062460415065288544, -0.7446964162942583, 0.03489760659315205, -0.16388296664167212,-0.6460276440683855,-0.8419342041015625,-0.1452789306640625,0.1750335693359375
20220112-1354,2022-01-12 13:54:38Z,u01, 34,40,movements,el-ex, rt, d,94235.23868775001, -1.708919936952027, 0.22208623129816238, 2.874460592308454, 0.1515011042356491, -0.8815880417823792, -0.8569437861442566, -0.9661499261856079, -0.22026509046554565, 0.1343032866716385, 0.14878249168395996, 0.10002587735652924, 0.010868772864341736, -0.7525849718821345, 0.02770388341697988, -0.16973794108545787,-0.6356392749790418,-0.8173675537109375,-0.1202392578125,0.145172119140625
20220112-1354,2022-01-12 13:54:39Z,u01, 35,40,movements,el-ex, rt, d,94235.26362875, -1.7311035234198524, 0.24126487360550866, 2.8799626419757907, 0.08889081329107285, -0.7515203952789307, -0.7735200524330139, -0.9585862755775452, -0.2389310598373413, 0.1549982875585556, -0.03776693344116211, 0.08373391628265381, -0.007567867636680603, -0.7596361042866466, 0.021263457607573324, -0.17479118026546397,-0.6260582652473689,-0.95562744140625,-0.110748291015625,0.1353607177734375
20220112-1354,2022-01-12 13:54:39Z,u01, 36,40,movements,el-ex, rt, d,94235.28856975, -1.7490412922489968, 0.25936645229898553, 2.8855041089335436, 0.13365252315998077, -0.5741201043128967, -0.72910076379776, -0.9512390494346619, -0.2564682364463806, 0.17137233912944794, -0.1426941156387329, -0.104463130235672, 0.0013876110315322876, -0.7651565484962523, 0.014886985009604337, -0.1796179009104466,-0.6181029945063677,-1.09393310546875,-0.360931396484375,0.172760009765625
20220112-1354,2022-01-12 13:54:39Z,u01, 37,40,movements,el-ex, rt, d,94235.31351075001, -1.761969634733987, 0.2741092521136496, 2.8871685514785375, -0.1996365189552307, -0.48504969477653503, -0.4057014584541321, -0.9451289176940918, -0.27068954706192017, 0.18291723728179932, -0.050858139991760254, 0.04525616765022278, 0.09473158419132233, -0.7689890327900365, 0.010699866925494045, -0.1845184449806797,-0.6119594773690971,-1.0154266357421875,-0.2354736328125,0.2863006591796875
20220112-1354,2022-01-12 13:54:39Z,u01, 38,40,movements,el-ex, rt, d,94235.33845175001, -1.7714306444304349, 0.2834766692051241, 2.883861948112702, -0.2523553669452667, -0.39098942279815674, -0.3040088415145874, -0.9408296346664429, -0.2796952426433563, 0.191336989402771, -0.0360683798789978, 0.0385453999042511, 0.006065815687179565, -0.7717324731231257, 0.009873484135556054, -0.1889802548159007,-0.6071390393666244,-0.976898193359375,-0.24114990234375,0.1974029541015625
20220112-1354,2022-01-12 13:54:39Z,u01, 39,40,movements,el-ex, rt, d,94235.36339275, -1.7799558555068817, 0.2916108111187279, 2.884474152017978, 0.15747907757759094, -0.17708933353424072, -0.4064890742301941, -0.9369078278541565, -0.2874954044818878, 0.19887174665927887, -0.23557746410369873, -0.09180751442909241, -0.02600492537021637, -0.7741924292031303, 0.007871264388721447, -0.191806516414251,-0.6031370530794674,-1.1303558349609375,-0.3955535888671875,0.1761016845703125
20220112-1354,2022-01-12 13:54:39Z,u01, 40,40,movements,el-ex, rt, d,94235.38833275001, -1.7819548988206413, 0.29932946513115305, 2.889366082322525, 0.05153641849756241, 0.07626152038574219, -0.2610151767730713, -0.9343107342720032, -0.2948795557022095, 0.20027318596839905, -0.22027599811553955, 0.04878583550453186, -0.009706273674964905, -0.7746758487601074, 0.0037315769615793443, -0.1932247781440225,-0.6021025722135456,-1.1545867919921875,-0.24609375,0.1905670166015625
20220112-1354,2022-01-12 13:54:39Z,u01, 41,40,movements,el-ex, rt, d,94235.41327375, -1.7795955223454458, 0.3043664274512427, 2.890478556144477, -0.05553164333105087, 0.12775972485542297, -0.15418261289596558, -0.9333158731460571, -0.29968878626823425, 0.19775788486003876, -0.08020347356796265, 0.06114813685417175, -0.011310786008834839, -0.7738712737136376, 0.001481097168184689, -0.19478299867052823,-0.6026447360544962,-1.0237579345703125,-0.2465667724609375,0.1775360107421875
20220112-1354,2022-01-12 13:54:39Z,u01, 42,40,movements,el-ex, rt, d,94235.43821475, -1.775031934421401, 0.3073598247850531, 2.888299692138559, -0.06613092124462128, 0.20614075660705566, -0.06449778378009796, -0.9333259463310242, -0.3025432527065277, 0.19331373274326324, -0.07978135347366333, 0.07959708571434021, 0.0070645809173583984, -0.772435113502114, 0.0009294583981313831, -0.19656399568821536,-0.6039086708469249,-1.0131072998046875,-0.2229461669921875,0.20037841796875
20220112-1354,2022-01-12 13:54:39Z,u01, 43,40,movements,el-ex, rt, d,94235.46315575001, -1.7681641848865974, 0.3094238572346373, 2.8865616063048245, -0.07998941838741302, 0.334811270236969, -0.049947209656238556, -0.9340172410011292, -0.3045099079608917, 0.1867765337228775, -0.13545596599578857, 0.005712330341339111, -0.016732588410377502, -0.7703169461418942, 0.00026707978273879385, -0.1978625211458913,-0.6061865486699974,-1.0581817626953125,-0.2688140869140625,0.1821136474609375
20220112-1354,2022-01-12 13:54:39Z,u01, 44,40,movements,el-ex, rt, d,94235.48809675, -1.7578740134683772, 0.3108561736366066, 2.887557116030421, 0.03387533128261566, 0.48288533091545105, -0.08398167788982391, -0.9354602694511414, -0.30587390065193176, 0.17707432806491852, -0.13796502351760864, -0.04227060079574585, -0.048885345458984375, -0.7671601089282983, -0.001591364268364051, -0.19808909323285456,-0.6101012775992196,-1.07342529296875,-0.34814453125,0.1281890869140625
20220112-1354,2022-01-12 13:54:39Z,u01, 45,40,movements,el-ex, rt, d,94235.51303775, -1.746012350244957, 0.3110571190786662, 2.887901988984939, 0.023365601897239685, 0.511894166469574, 0.047780949622392654, -0.9374342560768127, -0.3060652017593384, 0.1659552901983261, -0.10165876150131226, -0.03914964199066162, -0.07525718212127686, -0.763523982150284, -0.0029625980870469776, -0.19804436490494054,-0.6146550112457421,-1.0391998291015625,-0.3263092041015625,0.08941650390625
20220112-1354,2022-01-12 13:54:39Z,u01, 46,40,movements,el-ex, rt, d,94235.53797875, -1.732825333404848, 0.308548408311221, 2.8862856842131204, -0.056863825768232346, 0.49352025985717773, 0.17310671508312225, -0.9402959942817688, -0.30367591977119446, 0.15370266139507294, -0.05775099992752075, -0.06564781069755554, -0.05900667607784271, -0.7595019837759583, -0.002839777356476711, -0.19760050682764288,-0.6197602370417572,-0.998046875,-0.36932373046875,0.094696044921875
20220112-1354,2022-01-12 13:54:39Z,u01, 47,40,movements,el-ex, rt, d,94235.56291975001, -1.7199883772484759, 0.3040248105596818, 2.8843617350088717, -0.01373026892542839, 0.5039029717445374, 0.23640912771224976, -0.9435402750968933, -0.29936283826828003, 0.14182251691818237, -0.002763986587524414, 0.030365675687789917, -0.10102057456970215, -0.7555843064730716, -0.001901312577046066, -0.1965278347332199,-0.6248724438814088,-0.945526123046875,-0.2620697021484375,0.0381011962890625
20220112-1354,2022-01-12 13:54:39Z,u01, 48,40,movements,el-ex, rt, d,94235.58786075, -1.7072307074604955, 0.2969681308515952, 2.885800669266049, 0.03065970167517662, 0.5261678099632263, 0.26591959595680237, -0.9473420977592468, -0.2926223874092102, 0.13005802035331726, -0.053436100482940674, -0.05384364724159241, -0.05658698081970215, -0.7516828646987133, -0.0013706657239664216, -0.19349515668571196,-0.630500285844194,-1.0007781982421875,-0.346466064453125,0.0734710693359375
20220112-1354,2022-01-12 13:54:39Z,u01, 49,40,movements,el-ex, rt, d,94235.61280175, -1.693227228810897, 0.28764942062898274, 2.8848526557960503, 0.02541743405163288, 0.577942967414856, 0.45977598428726196, -0.9517354965209961, -0.28369900584220886, 0.11710754036903381, -0.15248191356658936, -0.08086392283439636, -1.1689960956573486e-05, -0.7473641998145372, 0.0007227228192161345, -0.19041526111772789,-0.6365438953495248,-1.087371826171875,-0.364013671875,0.1177978515625
20220112-1354,2022-01-12 13:54:39Z,u01, 50,40,movements,el-ex, rt, d,94235.63774275001, -1.676700503350786, 0.27500529299602494, 2.883305416877446, 0.012325499206781387, 0.7274237871170044, 0.5358422994613647, -0.9570316672325134, -0.27155202627182007, 0.10173427313566208, -0.1810908317565918, -0.12716013193130493, 0.015865087509155273, -0.7421936829405755, 0.003959103621667667, -0.18637269823210573,-0.6437375758450908,-1.13812255859375,-0.398712158203125,0.1175994873046875
20220112-1354,2022-01-12 13:54:39Z,u01, 51,40,movements,el-ex, rt, d,94235.66268375001, -1.657188440720267, 0.26078935012217247, 2.8859037710197555, 0.4048571288585663, 0.9000551104545593, 0.5382459759712219, -0.9625833630561829, -0.2578432857990265, 0.08336711674928665, -0.19281214475631714, -0.08735626935958862, 0.1405555009841919, -0.7359671215181872, 0.0059963047374772815, -0.1804892587452841,-0.6524875752505601,-1.1463775634765625,-0.3599700927734375,0.2181854248046875
20220112-1354,2022-01-12 13:54:39Z,u01, 52,40,movements,el-ex, rt, d,94235.68762475, -1.636812156245403, 0.2475127869453889, 2.901824852516547, 0.824347734451294, 1.0545440912246704, 0.3800017535686493, -0.9674129486083984, -0.24499329924583435, 0.06395750492811203, -0.20952802896499634, -0.024568483233451843, 0.0964123085141182, -0.729362999515, 0.0028927141632324044, -0.17057777199397473,-0.6625137813707234,-1.17694091796875,-0.269561767578125,0.160369873046875
20220112-1354,2022-01-12 13:54:39Z,u01, 53,40,movements,el-ex, rt, d,94235.71256575, -1.614112614642443, 0.24045751621145753, 2.9164980389167057, 0.14881865680217743, 0.9745426177978516, 0.16977250576019287, -0.9703181982040405, -0.23814700543880463, 0.042056892067193985, -0.29072922468185425, -0.11282041668891907, 0.07333004474639893, -0.721820506553053, -0.0018977751915087576, -0.16319449260500016,-0.6725616863491168,-1.2446746826171875,-0.34368896484375,0.136505126953125
20220112-1354,2022-01-12 13:54:39Z,u01, 54,40,movements,el-ex, rt, d,94235.73750575, -1.5927348165153925, 0.2391392475093966, 2.9105684809340326, -0.7229874730110168, 0.4063851833343506, -0.13636212050914764, -0.9713083505630493, -0.23686645925045013, 0.02131245844066143, -0.3922017216682434, -0.10296203196048737, -0.10132968425750732, -0.7146013575735859, -0.0010623280784467781, -0.16472260010011003,-0.6798603995843449,-1.3635101318359375,-0.3398284912109375,-0.08001708984375
20220112-1354,2022-01-12 13:54:39Z,u01, 55,40,movements,el-ex, rt, d,94235.76244675, -1.5879144601183814, 0.24720788878815797, 2.8936937362623674, -0.0037344275042414665, 0.3568952977657318, -0.3136104941368103, -0.9694574475288391, -0.2446976900100708, 0.016596922650933266, -1.2064001560211182, -0.3896407186985016, 0.36308741569519043, -0.7129484398390534, 0.001727274332989387, -0.17325583945963713,-0.679473335196566,-2.0631866455078125,-0.5355072021484375,0.175537109375
20220112-1354,2022-01-12 13:54:39Z,u01, 56,40,movements,el-ex, rt, d,94235.78738775001, -1.5759683602785843, 0.25600042585343286, 2.9057876627523624, 0.6768825054168701, 0.4587934911251068, -0.5065931677818298, -0.9673974514007568, -0.2532133460044861, 0.005003456491976976, -0.6655523180961609, -0.32974866032600403, 0.05566549301147461, -0.708841947718827, -0.006694886795168678, -0.17215028656477072,-0.6840047519504017,-1.6329498291015625,-0.5829620361328125,0.0606689453125
20220112-1354,2022-01-12 13:54:39Z,u01, 57,40,movements,el-ex, rt, d,94235.81232875, -1.5805251589739286, 0.2720047790935244, 2.915170451931879, -0.18261229991912842, -0.6724236607551575, -0.7637717723846436, -0.963188648223877, -0.26866304874420166, 0.009370996616780758, -0.19194740056991577, 0.004213005304336548, -0.20324921607971191, -0.7102481605819407, -0.015265927577857843, -0.17447843026082532,-0.6818150652563293,-1.0634613037109375,-0.23956298828125,-0.2081451416015625
20220112-1354,2022-01-12 13:54:39Z,u01, 58,40,movements,el-ex, rt, d,94235.83726975, -1.5963630497633183, 0.29141636680346644, 2.908091859537911, -0.17473429441452026, -0.5606998205184937, -0.7134767174720764, -0.9575249552726746, -0.2873091697692871, 0.024486109614372253, -0.7701972723007202, -0.15492108464241028, -0.08372080326080322, -0.7154819950294059, -0.018126498270162508, -0.18370962456592804,-0.6738009983286941,-1.72772216796875,-0.442230224609375,-0.059234619140625
20220112-1354,2022-01-12 13:54:39Z,u01, 59,40,movements,el-ex, rt, d,94235.86221075001, -1.6105278071429647, 0.310195955828948, 2.9116080602776093, 0.30127373337745667, -0.6223752498626709, -0.8069835305213928, -0.9515222311019897, -0.3052452504634857, 0.037825290113687515, -0.4335179924964905, -0.1545478105545044, 0.009629487991333008, -0.7199358194083795, -0.024598001095277794, -0.1891950828266206,-0.6673024325563847,-1.456451416015625,-0.446258544921875,0.059783935546875
20220112-1354,2022-01-12 13:54:39Z,u01, 60,40,movements,el-ex, rt, d,94235.887151375, -1.6304187907725993, 0.3296059646754166, 2.918161459179624, 0.14673803746700287, -0.7794401049613953, -0.7580544948577881, -0.9444886445999146, -0.32367023825645447, 0.05637956038117409, -0.3332365155220032, -0.08842381834983826, -0.014143232256174088, -0.7260728021791877, -0.03175007083411305, -0.19407850793784545,-0.658895804717433,-1.2777252197265625,-0.4120941162109375,0.042236328125
20220112-1354,2022-01-12 13:54:39Z,u01, 61,40,movements,el-ex, rt, d,94235.912092375, -1.6508038531451519, 0.34710372058586686, 2.9240802525599134, 0.2623143494129181, -0.679440438747406, -0.6817012429237366, -0.9373538494110107, -0.34017568826675415, 0.07515579462051392, -0.26883822679519653, -0.03462594747543335, -0.048590295016765594, -0.7322183372704715, -0.03787088411174623, -0.1986544255047074,-0.6503526668080806,-1.2304229736328125,-0.3558502197265625,0.020233154296875
20220112-1354,2022-01-12 13:54:39Z,u01, 62,40,movements,el-ex, rt, d,94235.93703337501, -1.6691431189664385, 0.36268858694531336, 2.9320165846028523, 0.15320920944213867, -0.5890254378318787, -0.6112563014030457, -0.9304283857345581, -0.35478919744491577, 0.09180080145597458, -0.17542171478271484, -0.03791093826293945, 0.019801966845989227, -0.7375271462500232, -0.04420532329998574, -0.20199360242198283,-0.6428826040226894,-1.1058502197265625,-0.3927001953125,0.111602783203125
20220112-1354,2022-01-12 13:54:39Z,u01, 63,40,movements,el-ex, rt, d,94235.96197437501, -1.6845310473211932, 0.3761217286580977, 2.9365029973309107, 0.08772541582584381, -0.4940534234046936, -0.4802301526069641, -0.9240870475769043, -0.3673160672187805, 0.10555631667375565, -0.13182121515274048, 0.010077297687530518, -0.02267061173915863, -0.7418884509924928, -0.04878202401447955, -0.2057142760461188,-0.6363202998016003,-1.0644073486328125,-0.38543701171875,0.0937957763671875
20220112-1354,2022-01-12 13:54:39Z,u01, 64,40,movements,el-ex, rt, d,94235.986915375, -1.6968226554317942, 0.3850402670419716, 2.9414967396221305, 0.2069641500711441, -0.35156506299972534, -0.25719714164733887, -0.9194329977035522, -0.37559646368026733, 0.11649014055728912, -0.08548015356063843, 0.05464315414428711, -0.023304834961891174, -0.745323692739596, -0.052322689120228486, -0.20764512144406666,-0.6313780847012653,-1.004913330078125,-0.320953369140625,0.0931854248046875
20220112-1354,2022-01-12 13:54:39Z,u01, 65,40,movements,el-ex, rt, d,94236.011856375, -1.7065499074074357, 0.38849879699227247, 2.946643498115859, 0.04221488907933235, -0.25101369619369507, -0.08110039681196213, -0.9169639945030212, -0.3787994980812073, 0.12525151669979095, -0.08505010604858398, -0.05308523774147034, -0.0020674467086791992, -0.7481105260650203, -0.05437276527150293, -0.20753229898293302,-0.6279367612419899,-0.999359130859375,-0.4319305419921875,0.131103515625
20220112-1354,2022-01-12 13:54:39Z,u01, 66,40,movements,el-ex, rt, d,94236.03679737501, -1.7108726214922136, 0.38861974040765274, 2.947272630304994, 0.019862113520503044, -0.10804867744445801, 0.07213403284549713, -0.9163684844970703, -0.37891143560409546, 0.12920768558979034, -0.025831103324890137, -0.015131473541259766, -0.02672971785068512, -0.7494439712086582, -0.054199436486549714, -0.20749613984004778,-0.6263716107776992,-0.94219970703125,-0.39404296875,0.10247802734375
20220112-1354,2022-01-12 13:54:39Z,u01, 67,40,movements,el-ex, rt, d,94236.061737375, -1.7129707423657006, 0.384531824572112, 2.946910869122654, -0.036668043583631516, -0.06884194910526276, 0.25698503851890564, -0.9176211357116699, -0.3751251995563507, 0.13134846091270447, 0.029880106449127197, 0.04413154721260071, -0.042984843254089355, -0.7502779431516092, -0.05250938073073711, -0.2061826638889533,-0.6259508347312523,-0.8910064697265625,-0.335235595703125,0.091278076171875
20220112-1354,2022-01-12 13:54:39Z,u01, 68,40,movements,el-ex, rt, d,94236.08667837501, -1.7120663403680463, 0.3766038826319589, 2.943749313210703, -0.09650461375713348, 0.044289134442806244, 0.3778563141822815, -0.9206551313400269, -0.3677644729614258, 0.13093315064907074, 0.01643449068069458, -0.03515911102294922, -0.02642582356929779, -0.750388538414625, -0.048822272981414096, -0.20427182330738014,-0.6267427626165912,-0.9042205810546875,-0.402923583984375,0.1045074462890625
20220112-1354,2022-01-12 13:54:39Z,u01, 69,40,movements,el-ex, rt, d,94236.111619375, -1.7077890026529183, 0.366509984326365, 2.9390353810432535, -0.08612211048603058, 0.1419862061738968, 0.49677854776382446, -0.9248369932174683, -0.3583593964576721, 0.1274944543838501, 0.04702955484390259, 0.005515187978744507, 0.03295157849788666, -0.7495300890982082, -0.04418003149822807, -0.2019893066609982,-0.6288505386517466,-0.88763427734375,-0.355804443359375,0.179595947265625
20220112-1354,2022-01-12 13:54:39Z,u01, 70,40,movements,el-ex, rt, d,94236.136560375, -1.7022072686395155, 0.35321357841937273, 2.9362484040007435, 0.016537722200155258, 0.19817976653575897, 0.5752211809158325, -0.9301762580871582, -0.3459147810935974, 0.12294385582208633, 0.07492107152938843, 0.040143877267837524, -0.02423475682735443, -0.7482818853815574, -0.03932108752587904, -0.19793173049231322,-0.6319423718806046,-0.855255126953125,-0.3057708740234375,0.0987091064453125
20220112-1354,2022-01-12 13:54:39Z,u01, 71,40,movements,el-ex, rt, d,94236.16150137501, -1.6961798414817606, 0.33803167105283854, 2.9329327774570357, -0.12106188386678696, 0.21246428787708282, 0.6933799386024475, -0.9360032081604004, -0.33163079619407654, 0.11797826737165451, 0.05377066135406494, 0.07879269123077393, -0.02692914754152298, -0.746897723110127, -0.03365897360908854, -0.19337529540455978,-0.6353084445359325,-0.87353515625,-0.2404632568359375,0.0785369873046875
20220112-1354,2022-01-12 13:54:39Z,u01, 72,40,movements,el-ex, rt, d,94236.18644237501, -1.6875382785708644, 0.3198455873509349, 2.926434746178924, -0.2105700969696045, 0.3373510241508484, 0.8048051595687866, -0.9428226351737976, -0.3144199848175049, 0.11056971549987793, 0.03716760873794556, 0.07969403266906738, 0.03989709913730621, -0.7447196383975309, -0.02602917171058776, -0.1887444268501839,-0.639601994532165,-0.9056549072265625,-0.2347259521484375,0.1504669189453125
20220112-1354,2022-01-12 13:54:39Z,u01, 73,40,movements,el-ex, rt, d,94236.211383375, -1.6768815571828934, 0.3005814540745596, 2.9209414900803377, -0.015240414068102837, 0.383184015750885, 0.761591911315918, -0.9497947096824646, -0.29607564210891724, 0.1011388823390007, 0.09617233276367188, -0.033025890588760376, -0.0005835294723510742, -0.7417716989942539, -0.018552302222521466, -0.1834461175562468,-0.644808501231139,-0.849945068359375,-0.3325653076171875,0.1183319091796875
20220112-1354,2022-01-12 13:54:39Z,u01, 74,40,movements,el-ex, rt, d,94236.236324375, -1.664760619077152, 0.2813862309240871, 2.916263794976382, -0.1822676956653595, 0.4778212010860443, 0.8495533466339111, -0.9564334750175476, -0.2776876389980316, 0.09013602882623672, 0.10867047309875488, 0.054329484701156616, -0.045778870582580566, -0.7381981018691185, -0.01147074499999419, -0.1779754720794064,-0.6505818079718788,-0.8477630615234375,-0.223358154296875,0.0443572998046875
20220112-1354,2022-01-12 13:54:40Z,u01, 75,40,movements,el-ex, rt, d,94236.26126537501, -1.650268651634946, 0.2599300419957216, 2.908687404539769, -0.3174828290939331, 0.5019482374191284, 0.9366697072982788, -0.96335768699646, -0.2570129334926605, 0.07672186195850372, 0.10511189699172974, 0.0799652636051178, 0.09556495398283005, -0.7337258824546139, -0.0026947668986762457, -0.17272893884648144,-0.6571177621088469,-0.8509063720703125,-0.1983184814453125,0.15875244140625
20220112-1354,2022-01-12 13:54:40Z,u01, 76,40,movements,el-ex, rt, d,94236.286206375, -1.6343964846673913, 0.23595134690148067, 2.900764036527118, -0.10053011029958725, 0.6229721903800964, 0.9522773027420044, -0.9703266024589539, -0.23376807570457458, 0.061796266585588455, 0.09367871284484863, 0.013202309608459473, 0.02644515037536621, -0.7285936306369407, 0.0070324262146284205, -0.16683585028452613,-0.6642797921846995,-0.87664794921875,-0.2205657958984375,0.0882415771484375
20220112-1354,2022-01-12 13:54:40Z,u01, 77,40,movements,el-ex, rt, d,94236.311147375, -1.6172189036495581, 0.21361351096090148, 2.896885705830801, -0.17516902089118958, 0.6140573024749756, 0.8745372891426086, -0.9762183427810669, -0.21199265122413635, 0.04535115510225296, 0.24982374906539917, 0.02513355016708374, -0.04373371601104736, -0.7228132288831185, 0.014717788001486404, -0.16032781969404605,-0.6720263077345779,-0.758544921875,-0.2015380859375,-0.0023040771484375
20220112-1354,2022-01-12 13:54:40Z,u01, 78,40,movements,el-ex, rt, d,94236.336088375, -1.6038264292631543, 0.19276865431051868, 2.891707684131494, -0.19153271615505219, 0.42273789644241333, 0.8235219120979309, -0.9809421896934509, -0.1915770024061203, 0.03241240978240967, 0.2730717658996582, 0.0823088139295578, 0.10772418975830078, -0.7181145926030704, 0.02275163256733434, -0.15487248414947585,-0.6780916426869481,-0.7078704833984375,-0.1092681884765625,0.14013671875
20220112-1354,2022-01-12 13:54:40Z,u01, 79,40,movements,el-ex, rt, d,94236.36102937501, -1.5921643616097332, 0.17097786429386966, 2.885584923535678, -0.05404004082083702, 0.4462606608867645, 0.8523327112197876, -0.9851939082145691, -0.17014603316783905, 0.021054862067103386, 0.1862742304801941, -0.012532174587249756, 0.008257269859313965, -0.7138105863043303, 0.03165245300244994, -0.14948838759924382,-0.6834660020593729,-0.7949371337890625,-0.1322784423828125,0.0445098876953125
20220112-1354,2022-01-12 13:54:40Z,u01, 80,40,movements,el-ex, rt, d,94236.385970375, -1.580532169401764, 0.1520303432239773, 2.885308695488881, -0.08883187919855118, 0.4647810459136963, 0.7210515737533569, -0.9884187579154968, -0.15144537389278412, 0.009623393416404724, 0.2219698429107666, -0.10911369323730469, -0.030512690544128418, -0.7095085966350497, 0.03753995127875401, -0.1431791125384846,-0.6889760496291998,-0.766448974609375,-0.26055908203125,-0.0208892822265625
20220112-1354,2022-01-12 13:54:40Z,u01, 81,40,movements,el-ex, rt, d,94236.410911375, -1.5702663696349675, 0.13321976948997422, 2.8831848149377994, -0.03511662036180496, 0.32637619972229004, 0.7826184630393982, -0.99113929271698, -0.1328260600566864, -0.0005252613918855786, 0.4205673933029175, -0.033220067620277405, 0.009924650192260742, -0.7055381940693797, 0.044195316604014934, -0.1375898469023518,-0.6937807333438699,-0.5958404541015625,-0.1706695556640625,-0.03594970703125
20220112-1354,2022-01-12 13:54:40Z,u01, 82,40,movements,el-ex, rt, d,94236.435851375, -1.5649961208818848, 0.11517930217011103, 2.881271771533312, -0.16828039288520813, 0.06510573625564575, 0.6523392796516418, -0.9933574795722961, -0.11492480337619781, -0.00576174259185791, 0.46683770418167114, 0.04430714249610901, 0.17716366052627563, -0.7032279944486322, 0.05088729298660605, -0.13212890493896828,-0.696722905733167,-0.526519775390625,-0.07061767578125,0.1714019775390625
20220112-1354,2022-01-12 13:54:40Z,u01, 83,40,movements,el-ex, rt, d,94236.460792375, -1.5637197099132238, 0.10128966596652725, 2.881175068926614, 0.07457705587148666, 0.02593236416578293, 0.4351634383201599, -0.9948496222496033, -0.10111655294895172, -0.007040287367999554, 0.5087809562683105, 0.017818838357925415, -0.007516622543334961, -0.7024042559179682, 0.055750494615294494, -0.12738488481041627,-0.6980638891346028,-0.5035247802734375,-0.09442138671875,-0.008209228515625
20220112-1354,2022-01-12 13:54:40Z,u01, 84,40,movements,el-ex, rt, d,94236.48573337501, -1.5650804467827713, 0.09292411861163387, 2.882002586873095, -0.027821488678455353, -0.16167506575584412, 0.18948867917060852, -0.9956692457199097, -0.09279044717550278, -0.005691187921911478, 0.5982542634010315, 0.042680591344833374, -0.019424855709075928, -0.7026605583036494, 0.058502528907596496, -0.12415594844125491,-0.6981623948844123,-0.3974151611328125,-0.05010986328125,-0.025115966796875
20220112-1354,2022-01-12 13:54:40Z,u01, 85,40,movements,el-ex, rt, d,94236.51067437501, -1.5719903396224195, 0.09224873125620887, 2.8804496111447144, -0.06203138828277588, -0.36126676201820374, -0.16998718678951263, -0.9957475066184998, -0.09211795032024384, 0.0011889358283951879, 0.5920456647872925, 0.06480471044778824, 0.10995602607727051, -0.7050024242415309, 0.05971641087895509, -0.12425810888283122,-0.6956763196480427,-0.3806304931640625,-0.01995849609375,0.0884857177734375
20220112-1354,2022-01-12 13:54:40Z,u01, 86,40,movements,el-ex, rt, d,94236.535615375, -1.5811360805061523, 0.10107517424510087, 2.8801117154916684, 0.04579760506749153, -0.38598302006721497, -0.4941383898258209, -0.9948430061340332, -0.10090316087007523, 0.01028679870069027, 0.5320898294448853, 0.10184920579195023, 0.12760686874389648, -0.7084200856656543, 0.057309522847226915, -0.12718745329304942,-0.6918669671794208,-0.4627532958984375,0.000946044921875,0.1378936767578125
20220112-1354,2022-01-12 13:54:40Z,u01, 87,40,movements,el-ex, rt, d,94236.560556375, -1.5913530755942036, 0.11544529477687843, 2.8825719649597796, 0.07094071060419083, -0.4414525330066681, -0.6639278531074524, -0.9931337237358093, -0.11518903076648712, 0.020418476313352585, 0.5510103106498718, 0.13562054932117462, 0.054166436195373535, -0.7123890425431227, 0.052068130477025854, -0.13109329311407364,-0.687462944831891,-0.4585723876953125,0.0184478759765625,0.077423095703125
20220112-1354,2022-01-12 13:54:40Z,u01, 88,40,movements,el-ex, rt, d,94236.58549737501, -1.6064659930714453, 0.13417197486631932, 2.8822235393704525, -0.09488651156425476, -0.7595930099487305, -0.8917360305786133, -0.9903820157051086, -0.13376978039741516, 0.03534158691763878, 0.5356243848800659, 0.07543542981147766, 0.09780657291412354, -0.717976689704777, 0.04669331662093136, -0.1374307782888607,-0.6807657001568037,-0.4547576904296875,-0.0583343505859375,0.133148193359375
20220112-1354,2022-01-12 13:54:40Z,u01, 89,40,movements,el-ex, rt, d,94236.610438375, -1.6262542040964394, 0.15933371224225923, 2.879767748917388, -0.07481169700622559, -0.7988905906677246, -1.0597771406173706, -0.9858151078224182, -0.1586603969335556, 0.054727330803871155, 0.29852890968322754, 0.07081559300422668, 0.0672055333852768, -0.7250787775098247, 0.04030423052212306, -0.1467429527002014,-0.6716417477352395,-0.655914306640625,-0.0626373291015625,0.1701202392578125
20220112-1354,2022-01-12 13:54:40Z,u01, 90,40,movements,el-ex, rt, d,94236.635379375, -1.6458137315044303, 0.18438648931711482, 2.8858741096922564, 0.30142077803611755, -0.7922945022583008, -0.8978442549705505, -0.9802839159965515, -0.18334345519542694, 0.07367661595344543, 0.31429898738861084, 0.028833001852035522, -0.0784832313656807, -0.7320370620667921, 0.030984622034015433, -0.1532937662754714,-0.6630705304809696,-0.665985107421875,-0.154510498046875,-0.0048065185546875
20220112-1354,2022-01-12 13:54:40Z,u01, 91,40,movements,el-ex, rt, d,94236.66032037501, -1.671614122365376, 0.20553766370333684, 2.8879881231980638, -0.355320543050766, -1.248439073562622, -0.8858832716941833, -0.9739803671836853, -0.20409353077411652, 0.09852860122919083, 0.34615761041641235, 0.0831523984670639, 0.040326349437236786, -0.7406992340705175, 0.02507879242653234, -0.15984852545552933,-0.652061394700656,-0.587493896484375,-0.123199462890625,0.145965576171875
20220112-1354,2022-01-12 13:54:40Z,u01, 92,40,movements,el-ex, rt, d,94236.68526137501, -1.700559762024772, 0.22929219111076113, 2.8823173647507114, 0.05037098377943039, -1.0403270721435547, -0.9690227508544922, -0.965640127658844, -0.22728829085826874, 0.1260128766298294, 0.07055950164794922, -0.024908989667892456, -0.048147305846214294, -0.7500246693459565, 0.021666336595905153, -0.16997471281658635,-0.6388287811545004,-0.89508056640625,-0.252197265625,0.0778656005859375
20220112-1354,2022-01-12 13:54:40Z,u01, 93,40,movements,el-ex, rt, d,94236.710202375, -1.7233647060073694, 0.2501156968909063, 2.8902562278741684, 0.2589825987815857, -0.7822738885879517, -0.7415758371353149, -0.9576290845870972, -0.24751605093479156, 0.14724819362163544, 0.037646353244781494, 0.09442467987537384, -0.0966196209192276, -0.7572540165076118, 0.01380052636466153, -0.17489529680634477,-0.6291163734550027,-0.9603271484375,-0.1531982421875,0.0557403564453125
20220112-1354,2022-01-12 13:54:40Z,u01, 94,40,movements,el-ex, rt, d,94236.735143375, -1.7461937678321422, 0.26604377996177253, 2.8980331057725066, 0.03728996962308884, -0.9015905261039734, -0.5940613150596619, -0.9500155448913574, -0.2629164755344391, 0.16836033761501312, 0.12672770023345947, 0.07944482564926147, -0.05434669554233551, -0.7642780943741021, 0.007691733697135578, -0.1782400156595205,-0.6197178611498512,-0.8232879638671875,-0.1834716796875,0.114013671875
20220112-1354,2022-01-12 13:54:40Z,u01, 95,40,movements,el-ex, rt, d,94236.760083375, -1.7700926315497227, 0.28053988059525325, 2.8992676431929683, -0.0862576961517334, -0.8996222019195557, -0.6019304394721985, -0.9418860077857971, -0.27687445282936096, 0.1902398020029068, -0.04885190725326538, -0.01317983865737915, -0.08142948150634766, -0.7714255939820925, 0.0047386170727169025, -0.1831994559852635,-0.6093586764297759,-0.9433746337890625,-0.2965240478515625,0.0859527587890625
20220112-1354,2022-01-12 13:54:40Z,u01, 96,40,movements,el-ex, rt, d,94236.785024375, -1.7898494068870132, 0.2942703984405772, 2.90216519055378, 0.057606130838394165, -0.5805326700210571, -0.5238537788391113, -0.9341446757316589, -0.2900416851043701, 0.20796430110931396, -0.19897276163101196, 0.01787075400352478, -0.03381577134132385, -0.7771620905674188, 0.001110109262235176, -0.18746117629987827,-0.6007295519738972,-1.13311767578125,-0.2721710205078125,0.1741485595703125
20220112-1354,2022-01-12 13:54:40Z,u01, 97,40,movements,el-ex, rt, d,94236.80996537501, -1.8022085045782066, 0.30488452441810526, 2.9078695849937377, 0.19076548516750336, -0.3584415912628174, -0.43789607286453247, -0.928454577922821, -0.3001830279827118, 0.2187749594449997, -0.1059998869895935, 0.029537886381149292, -0.048822611570358276, -0.7806259078327672, -0.003266259406958724, -0.18977915007742704,-0.5954800364816992,-1.0756683349609375,-0.257415771484375,0.1626129150390625
20220112-1354,2022-01-12 13:54:40Z,u01, 98,40,movements,el-ex, rt, d,94236.834906375, -1.8125727637731737, 0.3147825848459227, 2.912895661262887, 0.06693071871995926, -0.3352423310279846, -0.4543401002883911, -0.9232071042060852, -0.3096097409725189, 0.22766318917274475, -0.02386021614074707, -0.02481713891029358, -0.045976847410202026, -0.7834398909408087, -0.007316507206712272, -0.1920770915559276,-0.590994773849271,-0.9470672607421875,-0.3344268798828125,0.1816864013671875
20220112-1354,2022-01-12 13:54:40Z,u01, 99,40,movements,el-ex, rt, d,94236.859847375, -1.8212085927957329, 0.32582861759246645, 2.916276771213223, -0.07953930646181107, -0.23272216320037842, -0.39219528436660767, -0.9178371429443359, -0.32009392976760864, 0.2347654104232788, -0.1564273238182068, -0.00418582558631897, 0.06481027603149414, -0.7856569829181058, -0.011216567004604591, -0.1953318711004901,-0.5869094871988817,-1.0312042236328125,-0.32476806640625,0.3171539306640625
20220112-1354,2022-01-12 13:54:40Z,u01, 100,40,movements,el-ex, rt, d,94236.884788375, -1.821220812713701, 0.33466087819222545, 2.9167899741020165, -0.08612070977687836, 0.2480272799730301, -0.3452196717262268, -0.915059506893158, -0.3284488916397095, 0.23406685888767242, -0.26696252822875977, -0.028728842735290527, 0.03224480152130127, -0.7853875517136037, -0.014135845260692378, -0.19855044413841227,-0.586126478859572,-1.1820220947265625,-0.357177734375,0.2663116455078125
20220112-1354,2022-01-12 13:54:40Z,u01, 101,40,movements,el-ex, rt, d,94236.909730375, -1.8127530647852683, 0.342074986352146, 2.917105687907603, 0.026559827849268913, 0.4332726299762726, -0.23576174676418304, -0.9146193265914917, -0.33544257283210754, 0.2257203906774521, -0.1189347505569458, -0.01642507314682007, 0.03151226043701172, -0.7826606181827326, -0.017393943116795166, -0.20121135309908486,-0.5887731072422367,-1.052825927734375,-0.3628082275390625,0.2724456787109375
20220112-1354,2022-01-12 13:54:40Z,u01, 102,40,movements,el-ex, rt, d,94236.93467137501, -1.8012424469145196, 0.34646136135855804, 2.919672179078076, 0.06952337920665741, 0.5476319193840027, -0.17444652318954468, -0.9157154560089111, -0.3395715653896332, 0.21483966708183289, -0.07055151462554932, 0.014986664056777954, 0.007129892706871033, -0.779090664836158, -0.020918107868706973, -0.20200361427470656,-0.5931059062399221,-0.98626708984375,-0.3245849609375,0.2219696044921875
20220112-1354,2022-01-12 13:54:40Z,u01, 103,40,movements,el-ex, rt, d,94236.95961237501, -1.7869815705138434, 0.3500791707140132, 2.91819276256004, -0.0898241400718689, 0.5294106602668762, -0.05151008814573288, -0.9174800515174866, -0.34297218918800354, 0.201494500041008, -0.0537264347076416, 0.035843342542648315, -0.03718796372413635, -0.7747398597989495, -0.022921535080497074, -0.20364984295317295,-0.5981465800086138,-0.96826171875,-0.2759246826171875,0.20599365234375
20220112-1354,2022-01-12 13:54:40Z,u01, 104,40,movements,el-ex, rt, d,94236.984553375, -1.7726072666032557, 0.3503663186154025, 2.9182865294364655, 0.052806347608566284, 0.6099249124526978, 0.026286642998456955, -0.9201849699020386, -0.3432419002056122, 0.18826624751091003, -0.06858432292938232, -0.017445296049118042, -0.08949616551399231, -0.7704104743359345, -0.024511706645994183, -0.20355862741238318,-0.603680869312385,-0.98876953125,-0.360687255859375,0.0987701416015625
20220112-1354,2022-01-12 13:54:40Z,u01, 105,40,movements,el-ex, rt, d,94237.009494375, -1.7569610104138111, 0.34826522347225225, 2.916535552197122, -0.16396626830101013, 0.5694997906684875, 0.1520126909017563, -0.9237245917320251, -0.3412677049636841, 0.17397943139076233, -0.06585347652435303, -0.06632503867149353, -0.054045453667640686, -0.7657523150774252, -0.024761078349469876, -0.20311608513038093,-0.6097162916493082,-0.9854736328125,-0.4069366455078125,0.119293212890625
20220112-1354,2022-01-12 13:54:40Z,u01, 106,40,movements,el-ex, rt, d,94237.03443537501, -1.7405009475426199, 0.3443895799172207, 2.9089927737078987, -0.18376794457435608, 0.5830672383308411, 0.2915998697280884, -0.9277599453926086, -0.33762216567993164, 0.15897421538829803, -0.10289496183395386, -0.05449819564819336, -0.049309372901916504, -0.76091348500093, -0.022310935296630002, -0.2038026912535172,-0.6156113682779154,-1.0306549072265625,-0.392120361328125,0.1096649169921875
20220112-1354,2022-01-12 13:54:40Z,u01, 107,40,movements,el-ex, rt, d,94237.05937637501, -1.7230726833298862, 0.33605962226602804, 2.905244782942071, -0.0677206963300705, 0.6560328006744385, 0.4631657600402832, -0.9331369400024414, -0.32976970076560974, 0.1432032734155655, -0.12728774547576904, 0.014782577753067017, -0.0048366934061050415, -0.7557800880685811, -0.01995233890975487, -0.20172712632237072,-0.622659148508829,-1.0658416748046875,-0.3246917724609375,0.124603271484375
20220112-1354,2022-01-12 13:54:40Z,u01, 108,40,movements,el-ex, rt, d,94237.084317375, -1.7054148324151235, 0.3224695869294686, 2.9020745764553624, -0.0703447088599205, 0.7064437866210938, 0.5947474837303162, -0.9398745894432068, -0.3169098198413849, 0.1272943913936615, -0.16313743591308594, -0.015960663557052612, 0.013757824897766113, -0.7505925214036475, -0.016064400161228648, -0.19761618472139264,-0.6303178905827104,-1.1030120849609375,-0.3328704833984375,0.14105224609375
20220112-1354,2022-01-12 13:54:40Z,u01, 109,40,movements,el-ex, rt, d,94237.109257375, -1.6849947797054727, 0.3089125037476493, 2.8964135059054152, -0.17794467508792877, 0.7755184769630432, 0.512041449546814, -0.9464594125747681, -0.30402278900146484, 0.10855651646852493, -0.22903180122375488, -0.105584055185318, 0.032114140689373016, -0.7444105281268737, -0.01145537099161488, -0.19437504817883527,-0.6387018169283177,-1.166595458984375,-0.4162750244140625,0.1584320068359375
20220112-1354,2022-01-12 13:54:40Z,u01, 110,40,movements,el-ex, rt, d,94237.134198375, -1.663365546075852, 0.2988059210979285, 2.8919793909986318, 0.022647179663181305, 0.8247095346450806, 0.3489740192890167, -0.9515969157218933, -0.29437923431396484, 0.08834105730056763, -0.2311576008796692, -0.02884766459465027, -0.0403369665145874, -0.7376300317012608, -0.008512687685966192, -0.19207428219222955,-0.6472533580495966,-1.1827545166015625,-0.3232269287109375,0.048004150390625
20220112-1354,2022-01-12 13:54:40Z,u01, 111,40,movements,el-ex, rt, d,94237.159139375, -1.6444311588863703, 0.29364968245470713, 2.8930982282961533, -0.10030201077461243, 0.679116427898407, 0.1234099343419075, -0.9545998573303223, -0.2894476056098938, 0.07041911780834198, -0.2656911015510559, -0.026180386543273926, 0.11488352715969086, -0.7315250236078098, -0.008983271021247408, -0.18979736888433146,-0.654803200269271,-1.2021331787109375,-0.30596923828125,0.1481170654296875
20220112-1354,2022-01-12 13:54:40Z,u01, 112,40,movements,el-ex, rt, d,94237.18408037501, -1.6296321229053559, 0.2911849882218645, 2.889914902545667, -0.12474583834409714, 0.4589638113975525, 0.037554144859313965, -0.9562469124794006, -0.2870875298976898, 0.05632656067609787, -0.38576364517211914, -0.22975817322731018, 0.06592679768800735, -0.7267000602534359, -0.008384634342619449, -0.18991167450146917,-0.6601290360548505,-1.342010498046875,-0.516845703125,0.12225341796875
20220112-1354,2022-01-12 13:54:40Z,u01, 113,40,movements,el-ex, rt, d,94237.209021375, -1.6198064366263727, 0.2916392083737833, 2.8874076957862385, 0.09056451171636581, 0.2527651786804199, -0.11971183866262436, -0.9566238522529602, -0.2875226140022278, 0.04692181572318077, -0.5437271595001221, -0.2489611804485321, 0.008909948170185089, -0.723455256358421, -0.008567339388994469, -0.19085858514349935,-0.6634094790944867,-1.4777984619140625,-0.54364013671875,0.048187255859375
20220112-1354,2022-01-12 13:54:40Z,u01, 114,40,movements,el-ex, rt, d,94237.233962375, -1.618025746906422, 0.29650886864025977, 2.893005527100217, 0.27339088916778564, 0.024319956079125404, -0.25610464811325073, -0.9552958607673645, -0.2921832203865051, 0.04515164718031883, -0.6335254907608032, -0.21703305840492249, 0.028838153928518295, -0.7227869793833245, -0.012442070233271263, -0.19069037577946957,-0.6641244438364059,-1.5888214111328125,-0.50921630859375,0.0739898681640625
20220112-1354,2022-01-12 13:54:41Z,u01, 115,40,movements,el-ex, rt, d,94237.25890337501, -1.6211722680410734, 0.3033443150597186, 2.8959975601129986, -0.05642380192875862, -0.20076675713062286, -0.2899055480957031, -0.9531320333480835, -0.2987135052680969, 0.048055581748485565, -0.618187427520752, -0.2677384912967682, 0.037775035947561264, -0.7237299314584829, -0.015581319816010256, -0.1921051179362676,-0.662621872556916,-1.59716796875,-0.5605621337890625,0.0905303955078125
20220112-1354,2022-01-12 13:54:41Z,u01, 116,40,movements,el-ex, rt, d,94237.28384437501, -1.6288968822419434, 0.31253663244165414, 2.8953916857967403, 0.03488953039050102, -0.4217575788497925, -0.44435596466064453, -0.9499510526657104, -0.307473361492157, 0.055254872888326645, -0.4743958115577698, -0.15312838554382324, 0.005871772766113281, -0.7261621508228978, -0.017775463404247488, -0.19558280231074865,-0.6588777833478483,-1.424346923828125,-0.460601806640625,0.061126708984375
20220112-1354,2022-01-12 13:54:41Z,u01, 117,40,movements,el-ex, rt, d,94237.308785375, -1.643333957644887, 0.3248180557094538, 2.9013503072022213, 0.2927653193473816, -0.5760573744773865, -0.5696062445640564, -0.9452165961265564, -0.3191363513469696, 0.06868427991867065, -0.33128786087036133, -0.07879757881164551, -0.01778101921081543, -0.7306337668823454, -0.022725291697320543, -0.1980860788792799,-0.6530082291561982,-1.2894439697265625,-0.3968353271484375,0.04595947265625
20220112-1354,2022-01-12 13:54:41Z,u01, 118,40,movements,el-ex, rt, d,94237.333726375, -1.6608651259210283, 0.3392585743952995, 2.9074936384255414, 0.10816098004579544, -0.6282707452774048, -0.6011521816253662, -0.9391791820526123, -0.33278802037239075, 0.0848202332854271, -0.3035575747489929, -0.030447393655776978, -0.004421718418598175, -0.7359478227730505, -0.028123254987382322, -0.20141755787651638,-0.6457714751953639,-1.24273681640625,-0.3632354736328125,0.0803985595703125
20220112-1354,2022-01-12 13:54:41Z,u01, 119,40,movements,el-ex, rt, d,94237.35866737501, -1.6769326517753318, 0.3540133381622219, 2.911642297110002, 0.1285487860441208, -0.5406315326690674, -0.5873551964759827, -0.9327107071876526, -0.34666505455970764, 0.0993678942322731, -0.26742351055145264, -0.07575923204421997, 0.025662541389465332, -0.7406729997564296, -0.032976566429190494, -0.2055798166419533,-0.6387902348095045,-1.219268798828125,-0.4159088134765625,0.1405029296875
20220112-1354,2022-01-12 13:54:41Z,u01, 120,40,movements,el-ex, rt, d,94237.383608375, -1.6926773967867825, 0.36778506720657456, 2.918933060878321, 0.234165757894516, -0.5190801620483398, -0.5755616426467896, -0.926203727722168, -0.35954949259757996, 0.11344902217388153, -0.21199506521224976, 0.008521080017089844, -0.0286865234375, -0.7451385711464956, -0.038639616741633284, -0.2084747863632866,-0.6323082301441219,-1.1381988525390625,-0.3510284423828125,0.0847625732421875
20220112-1354,2022-01-12 13:54:41Z,u01, 121,40,movements,el-ex, rt, d,94237.408549375, -1.7064996867058375, 0.3805215306969272, 2.9257403755667912, 0.08413887023925781, -0.38510632514953613, -0.4821789264678955, -0.9199349880218506, -0.3714047372341156, 0.12561027705669403, -0.21716511249542236, -0.047479480504989624, 0.014648422598838806, -0.7489157735188687, -0.04393516964123158, -0.21120398402962637,-0.6265681499749295,-1.1454315185546875,-0.399810791015625,0.1316680908203125
20220112-1354,2022-01-12 13:54:41Z,u01, 122,40,movements,el-ex, rt, d,94237.433490375, -1.7152586659139362, 0.3910340353742566, 2.928658415476642, 0.04464319348335266, -0.2514903247356415, -0.3700546622276306, -0.9148850440979004, -0.38114461302757263, 0.13309358060359955, -0.17102181911468506, -0.07298740744590759, 0.016732439398765564, -0.7511900052008229, -0.047543317568480035, -0.21429416656868772,-0.6225199587786749,-1.085906982421875,-0.454132080078125,0.1498260498046875
20220112-1354,2022-01-12 13:54:41Z,u01, 123,40,movements,el-ex, rt, d,94237.458430375, -1.721090704488935, 0.39764567584985344, 2.9309245588695303, -0.02484663762152195, -0.13668936491012573, -0.1550581157207489, -0.911581814289093, -0.38724878430366516, 0.13804660737514496, -0.1452265977859497, 0.04185086488723755, 0.04858362674713135, -0.7526824003283137, -0.049925019217817314, -0.21612876592480346,-0.6198911213799531,-1.055908203125,-0.35906982421875,0.177581787109375
20220112-1354,2022-01-12 13:54:41Z,u01, 124,40,movements,el-ex, rt, d,94237.48337137501, -1.7217288557787387, 0.39847240866687084, 2.929987050919242, -0.03157055377960205, 0.06436870992183685, 0.051776621490716934, -0.9111766815185547, -0.3880108892917633, 0.1385801136493683, -0.10658448934555054, -0.0643053650856018, -0.00869739055633545, -0.7528696944566832, -0.0497723097938897, -0.21673509163689209,-0.6194641108826542,-1.01776123046875,-0.4523162841796875,0.1298828125
20220112-1354,2022-01-12 13:54:41Z,u01, 125,40,movements,el-ex, rt, d,94237.50831237501, -1.7188462377557365, 0.3964394337069928, 2.9290084430268255, 0.11071142554283142, 0.07515837252140045, 0.13608764111995697, -0.9123507142066956, -0.38613638281822205, 0.13606905937194824, 0.022702336311340332, -0.12118777632713318, 0.042382463812828064, -0.7520826185600717, -0.04905365579388155, -0.21623009902318158,-0.6206528637380343,-0.8960113525390625,-0.49395751953125,0.1824951171875
20220112-1354,2022-01-12 13:54:41Z,u01, 126,40,movements,el-ex, rt, d,94237.533253375, -1.7176785739748062, 0.39170426390801844, 2.930216387391122, -0.0011337832547724247, 0.052011169493198395, 0.2974359691143036, -0.9143075346946716, -0.38176414370536804, 0.13526973128318787, -0.05602937936782837, -0.04458165168762207, 0.058684706687927246, -0.7518792224144435, -0.048088486740141795, -0.214110232847444,-0.621708902092019,-0.9703369140625,-0.4263458251953125,0.1939544677734375
20220112-1354,2022-01-12 13:54:41Z,u01, 127,40,movements,el-ex, rt, d,94237.558194375, -1.7143806572210063, 0.38165865600121707, 2.9276896628316207, -0.04074573889374733, 0.1391133815050125, 0.5246532559394836, -0.9184979796409607, -0.3724603056907654, 0.1327957659959793, -0.09245777130126953, 0.010857552289962769, -0.00797891616821289, -0.7512946377843845, -0.04420691233842569, -0.21117969217820803,-0.6237028334355694,-1.026641845703125,-0.3568878173828125,0.133453369140625
20220112-1354,2022-01-12 13:54:41Z,u01, 128,40,movements,el-ex, rt, d,94237.58313537501, -1.7091704529615717, 0.367062191166512, 2.9247402372374482, 0.0025488687679171562, 0.15775364637374878, 0.6584488749504089, -0.9244639277458191, -0.3588748872280121, 0.12874464690685272, -0.012959718704223633, -0.06538048386573792, 0.03939187526702881, -0.7502414297948005, -0.03886028797877542, -0.2067056219054919,-0.6268177074509326,-0.9374237060546875,-0.42425537109375,0.1681365966796875
20220112-1354,2022-01-12 13:54:41Z,u01, 129,40,movements,el-ex, rt, d,94237.608076375, -1.7040079485628075, 0.35051903274044155, 2.9236283461370856, 0.07785201072692871, 0.3017454445362091, 0.680038332939148, -0.9308736324310303, -0.34338533878326416, 0.12474191933870316, -0.024799466133117676, 0.03787389397621155, -0.020417585968971252, -0.7491640324855641, -0.033529290254262635, -0.20097090683711294,-0.6302694772582285,-0.9525909423828125,-0.3397064208984375,0.0916290283203125
20220112-1354,2022-01-12 13:54:41Z,u01, 130,40,movements,el-ex, rt, d,94237.633017375, -1.6956108428801901, 0.3321925656704499, 2.922257396615077, 0.011895764619112015, 0.33364051580429077, 0.8168773651123047, -0.9379756450653076, -0.32611650228500366, 0.1176847368478775, 0.005312740802764893, 0.08780476450920105, -0.006951808929443359, -0.7470407128579296, -0.02779464946814142, -0.19464487263834374,-0.6350362328897272,-0.9326629638671875,-0.238311767578125,0.1107330322265625
20220112-1354,2022-01-12 13:54:41Z,u01, 131,40,movements,el-ex, rt, d,94237.657958375, -1.685943031383749, 0.30972754598186125, 2.9203333336697828, -0.03263048827648163, 0.39334097504615784, 0.9076536893844604, -0.9461095929145813, -0.3047991693019867, 0.10942544043064117, 0.08128726482391357, 0.04836001992225647, -0.04622364789247513, -0.7445070970542881, -0.020540298474425248, -0.1870263248817422,-0.6405531455247497,-0.879791259765625,-0.28363037109375,0.063812255859375
20220112-1354,2022-01-12 13:54:41Z,u01, 132,40,movements,el-ex, rt, d,94237.68289937501, -1.6744040133647207, 0.28794697736300173, 2.9174015942008413, 0.0593252032995224, 0.4811575412750244, 0.8052212595939636, -0.9536871910095215, -0.28398433327674866, 0.09916440397500992, 0.12472301721572876, 0.04370424151420593, -0.06597662717103958, -0.7412199941048465, -0.013233371869510971, -0.18002253711872115,-0.6465366443839297,-0.8289642333984375,-0.2402801513671875,0.0331878662109375
20220112-1354,2022-01-12 13:54:41Z,u01, 133,40,movements,el-ex, rt, d,94237.707840375, -1.6609667551044942, 0.266769224242107, 2.9154255732007353, 0.10615215450525284, 0.5675264000892639, 0.9351983070373535, -0.960708737373352, -0.26361632347106934, 0.08686307072639465, 0.12173467874526978, 0.10527583956718445, -0.03223668783903122, -0.7371488643313687, -0.006563975721890436, -0.17299180477517057,-0.6531786454640531,-0.844451904296875,-0.13970947265625,0.0971221923828125
20220112-1354,2022-01-12 13:54:41Z,u01, 134,40,movements,el-ex, rt, d,94237.732781375, -1.6449357660024466, 0.24281994487015812, 2.9139405132021587, -0.07410193979740143, 0.5755235552787781, 1.0264346599578857, -0.9679972529411316, -0.24044080078601837, 0.07189855724573135, 0.20328783988952637, 0.06038708984851837, -0.019240498542785645, -0.7320851843627938, 0.0007490585945482964, -0.1648926859349205,-0.6609546650099108,-0.76470947265625,-0.1800537109375,0.0526580810546875
20220112-1354,2022-01-12 13:54:41Z,u01, 135,40,movements,el-ex, rt, d,94237.75772237501, -1.6297406178174256, 0.21758935566389537, 2.906643768056297, -0.26956483721733093, 0.5066156983375549, 1.028969645500183, -0.9747250080108643, -0.21587644517421722, 0.05752110853791237, 0.17234152555465698, 0.0008953511714935303, -0.059123389422893524, -0.7270788892899045, 0.010809414758024091, -0.1583849390105449,-0.6679474228319293,-0.7793731689453125,-0.2032928466796875,0.0269927978515625
20220112-1354,2022-01-12 13:54:41Z,u01, 136,40,movements,el-ex, rt, d,94237.78266337501, -1.612271082861372, 0.1922609394327927, 2.902492762941011, 0.13306227326393127, 0.8208370804786682, 1.0349934101104736, -0.9807307124137878, -0.19107866287231445, 0.040698908269405365, 0.13514959812164307, 0.022011250257492065, -0.11525332927703857, -0.7210836572949577, 0.01969295598157203, -0.1509535437007165,-0.6759169191524583,-0.8455810546875,-0.1690673828125,-0.074554443359375
20220112-1354,2022-01-12 13:54:41Z,u01, 137,40,movements,el-ex, rt, d,94237.80760337501, -1.5940754948585723, 0.16530338819256907, 2.906547607254604, 0.1322101652622223, 0.6096459627151489, 1.0822354555130005, -0.9861010909080505, -0.16455158591270447, 0.022959759458899498, 0.38884174823760986, 0.02505575120449066, -0.07807457447052002, -0.7146949433432699, 0.02628722295130624, -0.1403046869320434,-0.6847149566442288,-0.62628173828125,-0.117156982421875,-0.0391693115234375
20220112-1354,2022-01-12 13:54:41Z,u01, 138,40,movements,el-ex, rt, d,94237.832544375, -1.582403743321536, 0.1396301789186265, 2.904728981954149, -0.220369353890419, 0.2964022159576416, 0.9923561811447144, -0.9902008771896362, -0.13917690515518188, 0.01149419043213129, 0.46833497285842896, -0.02856297791004181, -0.05470716953277588, -0.7102907161566085, 0.03513109465299265, -0.13212424207445894,-0.6905042835851339,-0.5218658447265625,-0.1677398681640625,-0.043212890625
20220112-1354,2022-01-12 13:54:41Z,u01, 139,40,movements,el-ex, rt, d,94237.857485375, -1.5764175361615305, 0.11718022995014299, 2.8970138130072094, -0.30240383744239807, 0.1323002129793167, 0.7527891993522644, -0.9931265711784363, -0.11691224575042725, 0.005582631099969149, 0.4494711756706238, -0.11854611337184906, 0.020937085151672363, -0.7076248725330971, 0.04536910125943147, -0.12707784206488085,-0.6935848277620462,-0.526031494140625,-0.238006591796875,0.0319366455078125
20220112-1354,2022-01-12 13:54:41Z,u01, 140,40,movements,el-ex, rt, d,94237.882426375, -1.5711120659938946, 0.10251771600174761, 2.891979653989732, -0.05830542743206024, 0.23582206666469574, 0.47785934805870056, -0.9947495460510254, -0.10233823210000992, 0.0003140814369544387, 0.44894272089004517, 0.06454222649335861, 0.07329428195953369, -0.7053050791060435, 0.05197870815647283, -0.12384657464088296,-0.6960638627070019,-0.545806884765625,-0.0377960205078125,0.0736083984375
20220112-1354,2022-01-12 13:54:41Z,u01, 141,40,movements,el-ex, rt, d,94237.90736750001, -1.565598709959807, 0.09392802174124572, 2.895432493090387, 0.24922123551368713, 0.22548076510429382, 0.1649528443813324, -0.995578408241272, -0.0937899723649025, -0.005174682009965181, 0.5101965069770813, 0.07398410141468048, 0.06755256652832031, -0.703245894039573, 0.05345906491449087, -0.11980002989916652,-0.6987382648868506,-0.4884490966796875,-0.0115203857421875,0.04217529296875
20220112-1354,2022-01-12 13:54:41Z,u01, 142,40,movements,el-ex, rt, d,94237.9323085, -1.5633069886121715, 0.09268925518216801, 2.8990505281602337, 0.10103359818458557, -0.03518551588058472, -0.07190557569265366, -0.9956793785095215, -0.09255658835172653, -0.007457118947058916, 0.5527321100234985, 0.09241927415132523, 0.06336528062820435, -0.7025071629747146, 0.0524892991172632, -0.11816535386858767,-0.6998323871582829,-0.4429473876953125,-0.0001373291015625,0.055908203125
20220112-1354,2022-01-12 13:54:41Z,u01, 143,40,movements,el-ex, rt, d,94237.9572495, -1.5687825907248723, 0.09699916801172277, 2.901256887951299, 0.011415330693125725, -0.3881147503852844, -0.2602192163467407, -0.9952971935272217, -0.09684713184833527, -0.002004268579185009, 0.49937134981155396, -0.00813332200050354, 0.11261516809463501, -0.7045893691223174, 0.050514222082265206, -0.11875213394435218,-0.6977822093307777,-0.4666595458984375,-0.0717620849609375,0.0867767333984375
20220112-1354,2022-01-12 13:54:41Z,u01, 144,40,movements,el-ex, rt, d,94237.9821905, -1.580351500265934, 0.10540922350031583, 2.897959956190982, -0.18387547135353088, -0.5481595396995544, -0.4156162738800049, -0.9944041967391968, -0.10521412640810013, 0.009501993656158447, 0.4138683080673218, -0.03533458709716797, 0.04816091060638428, -0.7087376136042235, 0.04941651633640386, -0.12254478404489304,-0.6929875972196706,-0.580535888671875,-0.1405487060546875,0.0576629638671875
20220112-1354,2022-01-12 13:54:41Z,u01, 145,40,movements,el-ex, rt, d,94238.00713150001, -1.595663514405104, 0.11800955747129736, 2.896495946351661, 0.02650889754295349, -0.6869670152664185, -0.6118468046188354, -0.992737889289856, -0.1177358403801918, 0.024691689759492874, 0.42150992155075073, 0.1220388412475586, 0.00613093376159668, -0.7142722984947327, 0.04648578547672899, -0.12710520963965843,-0.686657404028458,-0.5705718994140625,-0.0037384033203125,0.0179290771484375
20220112-1354,2022-01-12 13:54:41Z,u01, 146,40,movements,el-ex, rt, d,94238.0320725, -1.6153160432957894, 0.13605981564565595, 2.8967714298202316, -0.08116407692432404, -0.8771231770515442, -0.8244950175285339, -0.9897764325141907, -0.13564041256904602, 0.04409370198845863, 0.38978564739227295, 0.07657365500926971, 0.08600270748138428, -0.7213408234544998, 0.04140371281562691, -0.13296065583867153,-0.6784354126799017,-0.5999908447265625,-0.0590667724609375,0.130096435546875
20220112-1354,2022-01-12 13:54:41Z,u01, 147,40,movements,el-ex, rt, d,94238.0570135, -1.6357781103598892, 0.15904282407297785, 2.8982176632769514, 0.08735663443803787, -0.7096809148788452, -0.9854921102523804, -0.9852953553199768, -0.1583731770515442, 0.06411652266979218, 0.21941101551055908, 0.05772621929645538, 0.07104575634002686, -0.7286124702747335, 0.03438209672307406, -0.14027523612815812,-0.6695256169566222,-0.7550201416015625,-0.1238861083984375,0.136383056640625
20220112-1354,2022-01-12 13:54:41Z,u01, 148,40,movements,el-ex, rt, d,94238.08195450001, -1.652919426846405, 0.18336903148918401, 2.903775183494881, 0.11808908730745316, -0.6196650862693787, -1.0026205778121948, -0.9799211025238037, -0.18234315514564514, 0.08065555989742279, 0.24875056743621826, 0.18069523572921753, 0.04707562178373337, -0.7346344065537433, 0.025299567908485143, -0.14689891879253322,-0.6618857814203624,-0.731170654296875,-0.00164794921875,0.1277313232421875
20220112-1354,2022-01-12 13:54:41Z,u01, 149,40,movements,el-ex, rt, d,94238.10689550001, -1.670858348913713, 0.20860076432034244, 2.9086263867158015, 0.04120248556137085, -0.7062181830406189, -1.0904452800750732, -0.9734280705451965, -0.20709119737148285, 0.09772956371307373, 0.21677517890930176, 0.05313001573085785, 0.08865655958652496, -0.7406737042723823, 0.01634769858940195, -0.1542277079141141,-0.6537193860710169,-0.7226409912109375,-0.139556884765625,0.1576385498046875
20220112-1354,2022-01-12 13:54:41Z,u01, 150,40,movements,el-ex, rt, d,94238.13183550001, -1.688801813144223, 0.23279010505639375, 2.911497523223278, 0.07806536555290222, -0.6086268424987793, -0.8505799174308777, -0.9662594795227051, -0.2306932657957077, 0.11455615609884262, 0.03783857822418213, 0.007182568311691284, 0.0645667240023613, -0.7464609091475358, 0.008613383160096535, -0.16197144090137833,-0.6453581408976955,-0.9284210205078125,-0.2235107421875,0.1791229248046875
20220112-1354,2022-01-12 13:54:41Z,u01, 151,40,movements,el-ex, rt, d,94238.1567765, -1.7030535929766593, 0.25132593773117345, 2.9139828003794905, -0.05791730433702469, -0.5566825270652771, -0.6442561745643616, -0.960124671459198, -0.2486884593963623, 0.12772907316684723, 0.014751136302947998, 0.1309211552143097, 0.036043405532836914, -0.7509042279347152, 0.0027163459124835837, -0.16790313376203253,-0.6387049418829274,-0.9654693603515625,-0.1172943115234375,0.1650390625
20220112-1354,2022-01-12 13:54:41Z,u01, 152,40,movements,el-ex, rt, d,94238.1817175, -1.7167697823656183, 0.2674504453932052, 2.9146222579014673, -0.1075020357966423, -0.5315760970115662, -0.6342799663543701, -0.9541906118392944, -0.26427337527275085, 0.14028432965278625, 0.06945556402206421, 0.12244296073913574, 0.031087040901184082, -0.7550757738930006, -0.0016551647292956245, -0.17361204032535882,-0.632231483151671,-0.884735107421875,-0.1418304443359375,0.1713714599609375
20220112-1354,2022-01-12 13:54:41Z,u01, 153,40,movements,el-ex, rt, d,94238.2066585, -1.7300359715118645, 0.28381918830414166, 2.9183331954855882, 0.2196129709482193, -0.4123128354549408, -0.7712181210517883, -0.9478470087051392, -0.28002408146858215, 0.15222366154193878, 0.02684199810028076, -0.0036672651767730713, -0.0874350368976593, -0.7589858448779625, -0.0072331869014498895, -0.17850558149880308,-0.6261179746030394,-0.907318115234375,-0.290008544921875,0.085479736328125
20220112-1354,2022-01-12 13:54:41Z,u01, 154,40,movements,el-ex, rt, d,94238.23159950001, -1.7435025524570376, 0.300982547505117, 2.9281019102054815, 0.29893311858177185, -0.45375022292137146, -0.6945653557777405, -0.9408376812934875, -0.29645872116088867, 0.16412357985973358, -0.019489407539367676, 0.09385254979133606, -0.09359753131866455, -0.7627764547900369, -0.015292796461327626, -0.1818910820362068,-0.6203658685869531,-0.9603271484375,-0.202606201171875,0.070526123046875
20220112-1354,2022-01-12 13:54:42Z,u01, 155,40,movements,el-ex, rt, d,94238.2565405, -1.7564687303538533, 0.3157271549507479, 2.9345435705417255, 0.012457825243473053, -0.420945405960083, -0.5351357460021973, -0.9342328310012817, -0.31050777435302734, 0.17548243701457977, -0.03268623352050781, 0.09583187103271484, -0.03571198880672455, -0.7663468890963121, -0.02129944636505382, -0.18550512615516174,-0.6146923357235207,-0.990386962890625,-0.1845245361328125,0.1328125
20220112-1354,2022-01-12 13:54:42Z,u01, 156,40,movements,el-ex, rt, d,94238.2814815, -1.7669753543639566, 0.3282897390363999, 2.9339328612063396, -0.057908251881599426, -0.41706472635269165, -0.49537479877471924, -0.9284381866455078, -0.32242459058761597, 0.18451327085494995, 0.03483766317367554, -0.04012426733970642, 0.017116323113441467, -0.7692052094855076, -0.024082803108454356, -0.19050125866244955,-0.6094692278213866,-0.8936004638671875,-0.362548828125,0.201629638671875
20220112-1354,2022-01-12 13:54:42Z,u01, 157,40,movements,el-ex, rt, d,94238.30642250001, -1.776542285805089, 0.340605092858689, 2.9372108758342863, 0.06391249597072601, -0.2889048159122467, -0.43217846751213074, -0.9226730465888977, -0.334057480096817, 0.192561075091362, -0.017817556858062744, -0.03178718686103821, -0.0028028637170791626, -0.7716722626225534, -0.028327707242177952, -0.19424219602484064,-0.6049705165162815,-0.9283905029296875,-0.3782501220703125,0.2112884521484375
20220112-1354,2022-01-12 13:54:42Z,u01, 158,40,movements,el-ex, rt, d,94238.33136350001, -1.7837001749836134, 0.3494402919444465, 2.943834513990191, 0.2021801918745041, -0.1000518649816513, -0.34106406569480896, -0.9183505773544312, -0.34237197041511536, 0.19852912425994873, -0.09146088361740112, 0.048533469438552856, -0.025936931371688843, -0.7734192615224705, -0.03297283185924855, -0.19567022556978725,-0.6020371065376019,-1.0098114013671875,-0.2938385009765625,0.1725921630859375
20220112-1354,2022-01-12 13:54:42Z,u01, 159,40,movements,el-ex, rt, d,94238.3563045, -1.7871554462829629, 0.35433727572116475, 2.9503274226866862, 0.18490593135356903, -0.0050511835142970085, -0.17233990132808685, -0.916010320186615, -0.3469688892364502, 0.20133867859840393, -0.041142821311950684, -0.01200932264328003, -0.0077810585498809814, -0.7741599265910104, -0.03668441708891931, -0.1956201928714112,-0.6008853765313886,-0.973480224609375,-0.3485107421875,0.1922607421875
20220112-1354,2022-01-12 13:54:42Z,u01, 160,40,movements,el-ex, rt, d,94238.3812455, -1.788243996111443, 0.35699929753118775, 2.952516899189844, -0.06416504830121994, -0.0415264368057251, -0.07719667255878448, -0.9148857593536377, -0.3494642972946167, 0.20213577151298523, 0.02180403470993042, 0.0115584135055542, 0.02366378903388977, -0.7743410572198264, -0.03825976593289076, -0.1959855525736389,-0.6004347194139931,-0.8930816650390625,-0.3379058837890625,0.225799560546875
20220112-1354,2022-01-12 13:54:42Z,u01, 161,40,movements,el-ex, rt, d,94238.40618650001, -1.7876295192734266, 0.3592083234408422, 2.95171013116851, 0.0014815069735050201, 0.05985084921121597, -0.1060519590973854, -0.9142534136772156, -0.3515332043170929, 0.20140692591667175, -0.0012127161026000977, 0.01855596899986267, -0.03604748845100403, -0.7740838255079371, -0.038700029701170646, -0.19704774539681658,-0.6003903693486875,-0.9088134765625,-0.33233642578125,0.172088623046875
20220112-1354,2022-01-12 13:54:42Z,u01, 162,40,movements,el-ex, rt, d,94238.43112750001, -1.784682616883633, 0.3633575237851926, 2.953845756611471, -0.003941420931369066, 0.24302373826503754, -0.2364681512117386, -0.9134098887443542, -0.3554145395755768, 0.1984005570411682, -0.04452157020568848, 0.05496901273727417, -0.008840680122375488, -0.7729874278395505, -0.04111830470291094, -0.1979080374055756,-0.6013585484966458,-0.9579315185546875,-0.300445556640625,0.1895599365234375
20220112-1354,2022-01-12 13:54:42Z,u01, 163,40,movements,el-ex, rt, d,94238.45606750001, -1.7768007129533154, 0.36928999955660297, 2.9553108201573375, -0.02419605851173401, 0.43274927139282227, -0.23810726404190063, -0.912865400314331, -0.3609533905982971, 0.19076041877269745, -0.047263383865356445, 0.07053285837173462, 0.05104553699493408, -0.7703342210707531, -0.044332813230671404, -0.19952364283837998,-0.6039951467288119,-0.9624786376953125,-0.2907562255859375,0.2258453369140625
20220112-1354,2022-01-12 13:54:42Z,u01, 164,40,movements,el-ex, rt, d,94238.4810085, -1.7648924364266558, 0.37424696759663634, 2.956980790869761, 0.09115806221961975, 0.563776433467865, -0.1859988421201706, -0.9133052825927734, -0.3655717372894287, 0.17952917516231537, -0.04957002401351929, -0.03529191017150879, 0.03679466247558594, -0.7664764125382619, -0.04773359020095394, -0.2005942432662787,-0.6082740765879109,-0.9628753662109375,-0.4008636474609375,0.2163238525390625
20220112-1354,2022-01-12 13:54:42Z,u01, 165,40,movements,el-ex, rt, d,94238.5059495, -1.7519522306068556, 0.37809828206142626, 2.9632752540912, 0.17412085831165314, 0.6056948900222778, -0.14086280763149261, -0.9141603708267212, -0.3691537380218506, 0.1674412339925766, -0.051919400691986084, -0.0447562038898468, -0.0005100816488265991, -0.7621990794655845, -0.05266100424939067, -0.1997771115378179,-0.6134888752571757,-0.9624176025390625,-0.445892333984375,0.1552886962890625
20220112-1354,2022-01-12 13:54:42Z,u01, 166,40,movements,el-ex, rt, d,94238.53089050001, -1.7384438128340483, 0.37784153770958023, 2.9668378255383683, 0.2048516720533371, 0.6034457087516785, 0.14321699738502502, -0.9164319634437561, -0.3689151108264923, 0.155093252658844, -0.13112956285476685, 0.014422982931137085, 0.06763921678066254, -0.7579519206816394, -0.05527666130993416, -0.19822003469089294,-0.6190009099405415,-1.0475616455078125,-0.3544921875,0.2227325439453125
20220112-1354,2022-01-12 13:54:42Z,u01, 167,40,movements,el-ex, rt, d,94238.55583150001, -1.7259891689780227, 0.37014672718659836, 2.974454346931864, 0.37239381670951843, 0.6036435961723328, 0.33387109637260437, -0.9210699200630188, -0.3617522120475769, 0.14410221576690674, -0.14449703693389893, -0.03563240170478821, -0.04559159278869629, -0.7541982600255529, -0.056886659607820356, -0.19267186488324273,-0.6251611171143291,-1.073638916015625,-0.3691558837890625,0.128570556640625
20220112-1354,2022-01-12 13:54:42Z,u01, 168,40,movements,el-ex, rt, d,94238.5807725, -1.714362605218555, 0.36118031901635017, 2.976868336202344, -0.16763603687286377, 0.3413495719432831, 0.44163450598716736, -0.9258560538291931, -0.35337865352630615, 0.13384252786636353, -0.13302749395370483, -0.11563071608543396, -0.042244091629981995, -0.7508574676994955, -0.055985048405219236, -0.1883003107449391,-0.6305724249269139,-1.0588836669921875,-0.4690093994140625,0.0915985107421875
20220112-1354,2022-01-12 13:54:42Z,u01, 169,40,movements,el-ex, rt, d,94238.6057135, -1.7057820607618073, 0.3494925333551543, 2.9672535746964517, -0.4131620228290558, 0.10822184383869171, 0.5497573018074036, -0.9309996962547302, -0.3424210548400879, 0.12644056975841522, -0.2849273085594177, -0.11763140559196472, 0.044976577162742615, -0.7488551686036735, -0.04935812327452989, -0.18684641667619778,-0.6339306392483091,-1.18475341796875,-0.4835205078125,0.1558685302734375
20220112-1354,2022-01-12 13:54:42Z,u01, 170,40,movements,el-ex, rt, d,94238.63065450001, -1.6990636622417579, 0.3362957190865292, 2.9549399047294607, -0.3635406792163849, 0.1710667908191681, 0.54749596118927, -0.9362286925315857, -0.3299925923347473, 0.12075050175189972, -0.37041187286376953, -0.0447784960269928, 0.0550154447555542, -0.7474566759997188, -0.04103376510990165, -0.18580243364768256,-0.6364763869234566,-1.306640625,-0.3747711181640625,0.1757659912109375
20220112-1354,2022-01-12 13:54:42Z,u01, 171,40,movements,el-ex, rt, d,94238.65559550001, -1.6900844311873986, 0.3252717625511292, 2.9474816948495826, -0.007096934597939253, 0.3269086480140686, 0.3928089737892151, -0.9408301711082458, -0.3195663094520569, 0.11276522278785706, -0.31945425271987915, -0.23547211289405823, 0.09330463409423828, -0.7450685099541711, -0.035433416412272906, -0.18401183266524113,-0.6401226677961112,-1.2754058837890625,-0.4989166259765625,0.1956024169921875
20220112-1354,2022-01-12 13:54:42Z,u01, 172,40,movements,el-ex, rt, d,94238.6805365, -1.6826880004000386, 0.3177688852584888, 2.9491691608950124, 0.009602050296962261, 0.2875322699546814, 0.2163732945919037, -0.9439947605133057, -0.3124479353427887, 0.10606817156076431, -0.3365076780319214, -0.3063875138759613, 0.14425231516361237, -0.7428739160225889, -0.03424076191594793, -0.18062748841959647,-0.6436922619288481,-1.2805023193359375,-0.61883544921875,0.2503204345703125
20220112-1354,2022-01-12 13:54:42Z,u01, 173,40,movements,el-ex, rt, d,94238.7054775, -1.67393538080548, 0.31470586371314024, 2.9443890579021668, -0.35749340057373047, 0.3016406297683716, 0.0418291836977005, -0.9458343982696533, -0.30953678488731384, 0.09789985418319702, -0.48911744356155396, -0.25790706276893616, 0.1332860141992569, -0.7402099278329228, -0.03223646657868792, -0.1809198244541493,-0.6467751917820841,-1.4207000732421875,-0.580841064453125,0.2308502197265625
20220112-1354,2022-01-12 13:54:42Z,u01, 174,40,movements,el-ex, rt, d,94238.73041850001, -1.6642560403507778, 0.3173071176098928, 2.934125102410493, -0.32221317291259766, 0.19584150612354279, -0.17459207773208618, -0.9459326863288879, -0.3120092451572418, 0.08866489678621292, -0.5096184015274048, -0.2097802460193634, 0.10327529162168503, -0.7371703604227859, -0.030204464543566477, -0.18502716246636372,-0.6491782640886161,-1.4555511474609375,-0.52178955078125,0.1919403076171875
20220112-1354,2022-01-12 13:54:42Z,u01, 175,40,movements,el-ex, rt, d,94238.7553595, -1.6603623541413348, 0.32484162740722067, 2.9313823514597552, -0.03257203474640846, 0.055833008140325546, -0.3934684991836548, -0.9439024329185486, -0.3191587030887604, 0.0847683846950531, -0.6622528433799744, -0.21863725781440735, 0.022424571216106415, -0.7357675911840804, -0.032097417380293446, -0.18854697506623835,-0.6496658612344923,-1.571807861328125,-0.5368194580078125,0.1074676513671875
20220112-1354,2022-01-12 13:54:42Z,u01, 176,40,movements,el-ex, rt, d,94238.7803005, -1.6592467059858391, 0.33639829866250515, 2.929398486944984, -0.22461697459220886, -0.023168068379163742, -0.5081745386123657, -0.9402595162391663, -0.33008942008018494, 0.08338387310504913, -0.7265647649765015, -0.2190743386745453, 0.03703843802213669, -0.7351466723149795, -0.03537381573928701, -0.19328658506019863,-0.6488052691756327,-1.6668243408203125,-0.549163818359375,0.12042236328125
20220112-1354,2022-01-12 13:54:42Z,u01, 177,40,movements,el-ex, rt, d,94238.8052405, -1.6598128305666264, 0.35103482678755654, 2.923900333780157, -0.20756492018699646, -0.19637081027030945, -0.6247989535331726, -0.935299277305603, -0.34386971592903137, 0.083477683365345, -0.5529970526695251, -0.16388168931007385, -0.04353023320436478, -0.7350352879517795, -0.03823566277049727, -0.2002760073273495,-0.6466456014542424,-1.524505615234375,-0.5126800537109375,0.046478271484375
20220112-1354,2022-01-12 13:54:42Z,u01, 178,40,movements,el-ex, rt, d,94238.8301815, -1.6667885808660747, 0.3678991582187442, 2.922903989784324, 0.00549046415835619, -0.37003135681152344, -0.6963432431221008, -0.9287891983985901, -0.3596559762954712, 0.08943142741918564, -0.45338231325149536, -0.13361486792564392, -0.0744321420788765, -0.7368044327757894, -0.042836207482526076, -0.20672278790737117,-0.6423004442420052,-1.382171630859375,-0.4932708740234375,0.0149993896484375
20220112-1354,2022-01-12 13:54:42Z,u01, 179,40,movements,el-ex, rt, d,94238.85512250001, -1.6770977444973911, 0.383809923243599, 2.924378760067724, 0.031084805727005005, -0.38289007544517517, -0.5804291367530823, -0.9220104813575745, -0.37445589900016785, 0.0983818769454956, -0.38565224409103394, -0.12337726354598999, -0.07602788507938385, -0.7395419861325812, -0.04762969145842436, -0.212140055770361,-0.6370286218831571,-1.330078125,-0.503570556640625,0.0321807861328125
20220112-1354,2022-01-12 13:54:42Z,u01, 180,40,movements,el-ex, rt, d,94238.88006350001, -1.6883013944807344, 0.3959435575961102, 2.927605229546569, 0.08762864023447037, -0.3997015357017517, -0.42219260334968567, -0.9162706732749939, -0.3856789171695709, 0.1081647276878357, -0.27223628759384155, 0.004575490951538086, -0.12685681879520416, -0.7425719632280862, -0.051664731328156126, -0.21572196581728859,-0.6319664187303516,-1.188507080078125,-0.381103515625,-0.0186920166015625
20220112-1354,2022-01-12 13:54:42Z,u01, 181,40,movements,el-ex, rt, d,94238.905004625, -1.6995801254498741, 0.4042251516347941, 2.9319419433117604, 0.049553558230400085, -0.35201552510261536, -0.2689780294895172, -0.9117937088012695, -0.3933064639568329, 0.11807776242494583, -0.17965221405029297, -0.05934548377990723, -0.055074334144592285, -0.745678544145747, -0.05479407178681673, -0.2176228880167268,-0.627376633178218,-1.0975799560546875,-0.4504547119140625,0.035186767578125
20220112-1354,2022-01-12 13:54:42Z,u01, 182,40,movements,el-ex, rt, d,94238.929945625, -1.7069327510974874, 0.40800990191507774, 2.9314997263674685, -0.00863620825111866, -0.22999314963817596, -0.03314173221588135, -0.909419596195221, -0.39678338170051575, 0.12457568198442459, -0.14207887649536133, -0.03716138005256653, -0.052538976073265076, -0.7478336177467741, -0.05507014200049503, -0.21932368488374177,-0.6241869687131046,-1.0514984130859375,-0.4339447021484375,0.0720367431640625
20220112-1354,2022-01-12 13:54:42Z,u01, 183,40,movements,el-ex, rt, d,94238.95488662501, -1.7122632105295617, 0.40658455256645487, 2.933874921770125, 0.12894977629184723, -0.13287532329559326, 0.11894241720438004, -0.9093012809753418, -0.3954746425151825, 0.129501074552536, -0.0334169864654541, 0.05738571286201477, -0.07962015271186829, -0.7494901653055873, -0.05490925202307784, -0.21821607907980434,-0.6226001838337849,-0.9542236328125,-0.35357666015625,0.047393798828125
20220112-1354,2022-01-12 13:54:42Z,u01, 184,40,movements,el-ex, rt, d,94238.97982762501, -1.7154055390233376, 0.40147201427008083, 2.936168991877276, -0.0009419028647243977, -0.024657774716615677, 0.2866531014442444, -0.9108790755271912, -0.390773743391037, 0.13264742493629456, -0.016443371772766113, 0.0631064772605896, -0.06769083440303802, -0.7506222912971624, -0.05375769990136614, -0.21573943181150684,-0.6221999984069159,-0.9273223876953125,-0.327667236328125,0.0649566650390625
20220112-1354,2022-01-12 13:54:42Z,u01, 185,40,movements,el-ex, rt, d,94239.004768625, -1.711639883698188, 0.3927238864648188, 2.9315206381837147, -0.163925439119339, 0.16193807125091553, 0.44695690274238586, -0.914721667766571, -0.38270634412765503, 0.12969134747982025, -0.010693192481994629, -0.028228014707565308, 0.06543801724910736, -0.7499264676708705, -0.04955771651075117, -0.21392578022313008,-0.6240111914429259,-0.92852783203125,-0.4170989990234375,0.1981201171875
20220112-1354,2022-01-12 13:54:42Z,u01, 186,40,movements,el-ex, rt, d,94239.029709625, -1.7033052193987177, 0.38083129860366444, 2.92672748776146, -0.023211022838950157, 0.3087952136993408, 0.5417977571487427, -0.9202174544334412, -0.37169232964515686, 0.1226557195186615, 0.06740385293960571, 0.09843799471855164, -0.004903689026832581, -0.7478809226384172, -0.044743561800765545, -0.21093537359157702,-0.6278361944889113,-0.852813720703125,-0.27325439453125,0.1177520751953125
20220112-1354,2022-01-12 13:54:42Z,u01, 187,40,movements,el-ex, rt, d,94239.05465062501, -1.6949427389740548, 0.36619542497094, 2.9265343377668036, 0.011226312257349491, 0.39250290393829346, 0.6391178965568542, -0.9265102744102478, -0.35806572437286377, 0.11561751365661621, 0.07728248834609985, 0.09251704812049866, 0.030576810240745544, -0.745755518349511, -0.040711976165476095, -0.20554483463376333,-0.6324100361946277,-0.8345489501953125,-0.2632293701171875,0.1263275146484375
20220112-1354,2022-01-12 13:54:42Z,u01, 188,40,movements,el-ex, rt, d,94239.079591625, -1.681739719862489, 0.34848399487406245, 2.9216348730769317, -0.20821335911750793, 0.5822193026542664, 0.7892546653747559, -0.9341132044792175, -0.3414733111858368, 0.10406097769737244, 0.042526841163635254, 0.015179365873336792, 0.00838102400302887, -0.7421932425784634, -0.0343464892519511, -0.2004922603734864,-0.6385706282568845,-0.8915863037109375,-0.3262939453125,0.1124420166015625
20220112-1354,2022-01-12 13:54:42Z,u01, 189,40,movements,el-ex, rt, d,94239.10453162501, -1.6636594269229057, 0.3279482076368621, 2.9144041644001826, -0.18964850902557373, 0.6551586985588074, 0.8885383009910583, -0.9426262378692627, -0.32210126519203186, 0.0877876877784729, 0.12506026029586792, 0.04381147027015686, 0.03017795830965042, -0.7370125509291752, -0.026577147189660352, -0.1952038619726547,-0.6465305031083269,-0.825103759765625,-0.3076019287109375,0.1180572509765625
20220112-1354,2022-01-12 13:54:42Z,u01, 190,40,movements,el-ex, rt, d,94239.129472625, -1.6456744233899723, 0.3044369342858356, 2.9079275370356603, -0.1532154530286789, 0.6225886344909668, 1.0663877725601196, -0.951342761516571, -0.2997560501098633, 0.07136816531419754, 0.1440001130104065, 0.0795564353466034, 0.07459736615419388, -0.7316839467192796, -0.01796342836253416, -0.18876546661235605,-0.6547393240857469,-0.807342529296875,-0.2201995849609375,0.145965576171875
20220112-1354,2022-01-12 13:54:42Z,u01, 191,40,movements,el-ex, rt, d,94239.154413625, -1.6277525286261147, 0.27524822781324093, 2.9023603937967897, -0.0960681214928627, 0.7173082828521729, 1.292832374572754, -0.9607971906661987, -0.27178582549095154, 0.05478261038661003, 0.082913339138031, -0.0041998326778411865, 0.028911706060171127, -0.7261772956029535, -0.007605291442915135, -0.1801864706232395,-0.6634316043512674,-0.8710479736328125,-0.2456817626953125,0.10888671875
20220112-1354,2022-01-12 13:54:42Z,u01, 192,40,movements,el-ex, rt, d,94239.17935462501, -1.6067369170653614, 0.24304420135059607, 2.896043283765668, -0.3006103038787842, 0.7941804528236389, 1.3279579877853394, -0.969982922077179, -0.2406584620475769, 0.03487677872180939, 0.120266854763031, 0.016293272376060486, 0.029011722654104233, -0.7193210104453104, 0.003958865728266259, -0.1709872411925374,-0.6732940392758986,-0.8497161865234375,-0.224365234375,0.0638885498046875
20220112-1354,2022-01-12 13:54:42Z,u01, 193,40,movements,el-ex, rt, d,94239.20429562501, -1.585244002002963, 0.2104144984346583, 2.887243279041559, -0.345867395401001, 0.7629536390304565, 1.2939445972442627, -0.9778423309326172, -0.20886527001857758, 0.014128531329333782, 0.21212583780288696, 0.06445610523223877, 0.023621678352355957, -0.7118884097526714, 0.016708014684624364, -0.16272747166543725,-0.6829754544359734,-0.77362060546875,-0.157989501953125,0.0674591064453125
20220112-1354,2022-01-12 13:54:42Z,u01, 194,40,movements,el-ex, rt, d,94239.229236625, -1.565873496598732, 0.17933015413968045, 2.8816979982236304, -0.15156340599060059, 0.67354816198349, 1.1533750295639038, -0.9839515089988708, -0.17837050557136536, -0.004843865055590868, 0.2875860929489136, -0.0022782832384109497, 0.03789430856704712, -0.7048323429433166, 0.02809689890543865, -0.15411379619785703,-0.6918604532354761,-0.6963653564453125,-0.1806488037109375,0.033050537109375
20220112-1354,2022-01-12 13:54:43Z,u01, 195,40,movements,el-ex, rt, d,94239.254177625, -1.5503118567209218, 0.15259412844838116, 2.8753688631502814, -0.3008391261100769, 0.5075533986091614, 1.015114665031433, -0.9881726503372192, -0.15200263261795044, -0.02024502493441105, 0.3708631992340088, -0.027089759707450867, -0.05137979984283447, -0.6988448035981748, 0.03864489985831665, -0.14739815681002222,-0.6988534856372066,-0.629974365234375,-0.1670379638671875,-0.0351104736328125
20220112-1354,2022-01-12 13:54:43Z,u01, 196,40,movements,el-ex, rt, d,94239.27911862501, -1.537573170402821, 0.1296934666434479, 2.8709635681920678, -0.16471002995967865, 0.49816232919692993, 0.8358036875724792, -0.9910542368888855, -0.12933018803596497, -0.032938070595264435, 0.38961392641067505, -0.018863141536712646, -0.007665630429983139, -0.6937434367782201, 0.047444802761275745, -0.1413997783140754,-0.7046098066043899,-0.6014404296875,-0.148193359375,-0.0406036376953125
20220112-1354,2022-01-12 13:54:43Z,u01, 197,40,movements,el-ex, rt, d,94239.304059625, -1.5257057384630204, 0.10900550872514944, 2.868653911180259, -0.016852525994181633, 0.3953302502632141, 0.7463504672050476, -0.9930545687675476, -0.10878976434469223, -0.044807784259319305, 0.5298128128051758, 0.025018997490406036, 0.009681988507509232, -0.6889028698259791, 0.05485383691930654, -0.13548941479053705,-0.7099624355177708,-0.4904327392578125,-0.0755767822265625,-0.0298919677734375
20220112-1354,2022-01-12 13:54:43Z,u01, 198,40,movements,el-ex, rt, d,94239.329000625, -1.51826474369466, 0.09530962471154057, 2.871594938241502, 0.08991463482379913, 0.2100847065448761, 0.39292681217193604, -0.9940882921218872, -0.09516539424657822, -0.05226911976933479, 0.5691767930984497, 0.014797359704971313, 0.032737791538238525, -0.6859066075243979, 0.058288637712446786, -0.13001436063328214,-0.7136041316488609,-0.4249114990234375,-0.0803680419921875,-0.01953125
20220112-1354,2022-01-12 13:54:43Z,u01, 199,40,movements,el-ex, rt, d,94239.353941625, -1.5164191164278356, 0.08954175452727935, 2.874165748587443, 0.11186763644218445, -0.026781313121318817, 0.07311347126960754, -0.9945216178894043, -0.08942215144634247, -0.05413267761468887, 0.5801692605018616, 0.07726091146469116, 0.01655024290084839, -0.6851339347867198, 0.059372998667662186, -0.12719953110468069,-0.7147633053397631,-0.4043426513671875,-0.024261474609375,-0.0336151123046875
20220112-1354,2022-01-12 13:54:43Z,u01, 200,40,movements,el-ex, rt, d,94239.37888262501, -1.5188060699777213, 0.09059043996815959, 2.8773215111070796, 0.1456965059041977, -0.15161526203155518, -0.09658967703580856, -0.994553804397583, -0.09046658128499985, -0.05175374448299408, 0.5552685856819153, 0.11665069311857224, 0.028453532606363297, -0.6861135104739373, 0.05806356510782826, -0.1263571406943503,-0.7140803255827707,-0.4392852783203125,0.02618408203125,-0.0233001708984375
20220112-1354,2022-01-12 13:54:43Z,u01, 201,40,movements,el-ex, rt, d,94239.403823625, -1.5256763163415032, 0.09598745047167803, 2.881193596262608, 0.08960071206092834, -0.3874680697917938, -0.36246535181999207, -0.9943836331367493, -0.09584011882543564, -0.04489707201719284, 0.5829914808273315, 0.06018035113811493, 0.05005449056625366, -0.688841154471795, 0.05522071688426104, -0.12661378595726197,-0.7116301384283121,-0.41485595703125,-0.041961669921875,-0.003662109375
20220112-1354,2022-01-12 13:54:43Z,u01, 202,40,movements,el-ex, rt, d,94239.42876362501, -1.5394055689933914, 0.10901496038268853, 2.8813569662766474, 0.04005846008658409, -0.6804642081260681, -0.7094854116439819, -0.9935740828514099, -0.10879915952682495, -0.031199291348457336, 0.5640391707420349, 0.09921665489673615, 0.08524584770202637, -0.6940904123656465, 0.05136977417687234, -0.13063174880058803,-0.7060701389719398,-0.429534912109375,-0.00958251953125,0.054046630859375
20220112-1354,2022-01-12 13:54:43Z,u01, 203,40,movements,el-ex, rt, d,94239.453704625, -1.5573179164472397, 0.1308839610616569, 2.8825049975466306, 0.1076633408665657, -0.7324906587600708, -1.0047268867492676, -0.9913567900657654, -0.1305105984210968, -0.013362722471356392, 0.46601200103759766, 0.1019003838300705, 0.07378745079040527, -0.7009634866241358, 0.04437148985647442, -0.13730591898062638,-0.6984471069540632,-0.52197265625,-0.0090179443359375,0.053314208984375
20220112-1354,2022-01-12 13:54:43Z,u01, 204,40,movements,el-ex, rt, d,94239.478645625, -1.5770184709387542, 0.15855367174213048, 2.8879818069286456, 0.29293352365493774, -0.7792149186134338, -1.1760207414627075, -0.9874376058578491, -0.157890185713768, 0.006144058424979448, 0.43209391832351685, 0.04271683096885681, 0.046529293060302734, -0.7084581558574248, 0.03404512668506671, -0.1445876736245628,-0.6899437900031995,-0.5553436279296875,-0.11517333984375,0.05267333984375
20220112-1354,2022-01-12 13:54:43Z,u01, 205,40,movements,el-ex, rt, d,94239.50358662501, -1.5993304234097654, 0.18774687649358174, 2.8942591243201914, 0.18859077990055084, -0.906460702419281, -1.201688528060913, -0.9820272922515869, -0.18664583563804626, 0.02802886813879013, 0.3784964680671692, 0.09741246700286865, 0.07229757308959961, -0.7165712665141584, 0.023239071746749898, -0.15229771628975644,-0.6802873754289187,-0.5883331298828125,-0.0854034423828125,0.0962371826171875
20220112-1354,2022-01-12 13:54:43Z,u01, 206,40,movements,el-ex, rt, d,94239.528527625, -1.6237464232432426, 0.22021486789616024, 2.8978733366596248, 0.005447453819215298, -0.9664800763130188, -1.4198570251464844, -0.9744827747344971, -0.21843931078910828, 0.051647234708070755, 0.3222917318344116, 0.08687807619571686, 0.11699282377958298, -0.7250273095101851, 0.012610207516913136, -0.16228150237802969,-0.6692092500763562,-0.652191162109375,-0.131561279296875,0.16864013671875
20220112-1354,2022-01-12 13:54:43Z,u01, 207,40,movements,el-ex, rt, d,94239.553468625, -1.6493639501402941, 0.2562429090054437, 2.9086868401789214, 0.6606200933456421, -0.8202499747276306, -1.449968695640564, -0.9643649458885193, -0.25344792008399963, 0.07592415064573288, 0.1843050718307495, -0.07229670882225037, 0.08707011491060257, -0.7334574042459509, -0.001519862790465662, -0.17141316101014206,-0.6577655128863114,-0.7462310791015625,-0.3404541015625,0.1733856201171875
20220112-1354,2022-01-12 13:54:43Z,u01, 208,40,movements,el-ex, rt, d,94239.578409625, -1.6711113951062346, 0.28575121621780364, 2.926530254089626, 0.41808292269706726, -0.5785500407218933, -1.0417779684066772, -0.954626739025116, -0.2818782925605774, 0.09608597308397293, 0.07918423414230347, 0.1525600552558899, 0.01789712905883789, -0.7401226200542268, -0.016170735580728013, -0.17625212222536032,-0.6487620864406899,-0.8754425048828125,-0.1293182373046875,0.113983154296875
20220112-1354,2022-01-12 13:54:43Z,u01, 209,40,movements,el-ex, rt, d,94239.60335062501, -1.689470008509033, 0.30928358678578727, 2.9354771903971963, 0.05300348624587059, -0.710972011089325, -0.934207558631897, -0.9458519816398621, -0.3043763041496277, 0.11277766525745392, 0.11644542217254639, 0.13161632418632507, 0.0829315036535263, -0.7454716091722534, -0.02570823860315133, -0.18205586178654712,-0.6406767472606537,-0.8323822021484375,-0.124908447265625,0.192657470703125
20220112-1354,2022-01-12 13:54:43Z,u01, 210,40,movements,el-ex, rt, d,94239.628291625, -1.7101758219173935, 0.3327562535459515, 2.9410956140122693, 0.21737858653068542, -0.7247444987297058, -0.9792706370353699, -0.935979962348938, -0.32664933800697327, 0.13130781054496765, 0.06317722797393799, -0.049662888050079346, 0.02210402488708496, -0.7513469598524399, -0.03363997385072075, -0.18910913316491562,-0.631334947112353,-0.872802734375,-0.376312255859375,0.153411865234375
20220112-1354,2022-01-12 13:54:43Z,u01, 211,40,movements,el-ex, rt, d,94239.653232625, -1.7285441346624997, 0.3538174822146228, 2.949759741107453, 0.1580076664686203, -0.5278818011283875, -0.7245355248451233, -0.9264096617698669, -0.3464813530445099, 0.14736346900463104, -0.04220312833786011, 0.019805908203125, 0.010900631546974182, -0.7562514678767203, -0.042017301176336994, -0.1944473510994476,-0.6233045431854364,-0.9595489501953125,-0.349517822265625,0.139434814453125
20220112-1354,2022-01-12 13:54:43Z,u01, 212,40,movements,el-ex, rt, d,94239.67817362501, -1.7408997527454395, 0.3663322335556348, 2.952774360842704, -0.091666080057621, -0.3904120624065399, -0.3678509294986725, -0.9201722145080566, -0.35819345712661743, 0.15805181860923767, -0.07734048366546631, 0.01993665099143982, 0.07235585153102875, -0.7595463659834107, -0.04599157652001647, -0.1983886715826657,-0.6177507226024879,-0.9975128173828125,-0.3382568359375,0.23040771484375
20220112-1354,2022-01-12 13:54:43Z,u01, 213,40,movements,el-ex, rt, d,94239.70311462501, -1.7458476250567132, 0.3749778654888015, 2.9477355487691126, -0.2946091592311859, -0.10132638365030289, -0.2476099580526352, -0.9162951707839966, -0.36625194549560547, 0.16205735504627228, -0.14792901277542114, -0.04797840118408203, 0.01631772518157959, -0.7608412938774614, -0.046359515426836785, -0.20324349052945911,-0.6145432229728548,-1.0708465576171875,-0.40283203125,0.1948699951171875
20220112-1354,2022-01-12 13:54:43Z,u01, 214,40,movements,el-ex, rt, d,94239.728055625, -1.7443635272839855, 0.3810494715744324, 2.9450131242133577, -0.007980004884302616, 0.09899299591779709, -0.2052714228630066, -0.9143275618553162, -0.37189486622810364, 0.16031032800674438, -0.06351673603057861, 0.007484465837478638, -0.035554513335227966, -0.7602012154356877, -0.04742655612477354, -0.20628233617461933,-0.6142413818553426,-0.97784423828125,-0.364410400390625,0.124755859375
20220112-1354,2022-01-12 13:54:43Z,u01, 215,40,movements,el-ex, rt, d,94239.75299562501, -1.7408458918356764, 0.38483366428892507, 2.9451621896448965, -0.06298047304153442, 0.19322162866592407, -0.06629049777984619, -0.9134923219680786, -0.3754049837589264, 0.1568537950515747, -0.04375267028808594, 0.020256638526916504, -0.03472243249416351, -0.7589595480622704, -0.04906427542239363, -0.2075433822613721,-0.6152226660634632,-0.947662353515625,-0.323455810546875,0.1215057373046875
20220112-1354,2022-01-12 13:54:43Z,u01, 216,40,movements,el-ex, rt, d,94239.777936625, -1.7335121691452986, 0.3858049507738991, 2.9421372105810844, -0.1651272177696228, 0.29610273241996765, -0.03276342898607254, -0.9142575263977051, -0.3763050436973572, 0.15009115636348724, -0.0856660008430481, -0.07416483759880066, -0.08298304677009583, -0.7567331854423199, -0.04899450587485439, -0.20865208656079587,-0.6175909401097085,-0.9999237060546875,-0.450469970703125,0.067108154296875
20220112-1354,2022-01-12 13:54:43Z,u01, 217,40,movements,el-ex, rt, d,94239.802877625, -1.7236711506338396, 0.3865118454349403, 2.9366653253775734, -0.12808863818645477, 0.3396483361721039, 0.04515480622649193, -0.9154272079467773, -0.376959890127182, 0.14104627072811127, -0.0998619794845581, 0.08338087797164917, -0.13187576830387115, -0.7537911014837652, -0.048188271527845515, -0.2103649594299768,-0.6206636192668105,-1.0034332275390625,-0.2962188720703125,0.0244903564453125
20220112-1354,2022-01-12 13:54:43Z,u01, 218,40,movements,el-ex, rt, d,94239.82781862501, -1.7128986073689123, 0.3852877333861422, 2.935018876346569, -0.03929455205798149, 0.44901514053344727, 0.09121956676244736, -0.917349636554718, -0.37582579255104065, 0.1312420666217804, -0.1679774522781372, 0.04025453329086304, -0.11464047431945801, -0.7505250962495956, -0.04830227359166824, -0.2101730692822002,-0.6246648600302948,-1.0853271484375,-0.3355712890625,0.0166015625
20220112-1354,2022-01-12 13:54:43Z,u01, 219,40,movements,el-ex, rt, d,94239.852759625, -1.6994796712627085, 0.38194937063441226, 2.9327539548105395, -0.06835060566663742, 0.5355587601661682, 0.1939069926738739, -0.9202672839164734, -0.3727300763130188, 0.11908110231161118, -0.15195250511169434, -0.039730221033096313, -0.09990084171295166, -0.7464978396097902, -0.04776534758008306, -0.209355074151222,-0.6297855767482163,-1.0839691162109375,-0.4007568359375,0.0328521728515625
20220112-1354,2022-01-12 13:54:43Z,u01, 220,40,movements,el-ex, rt, d,94239.877700625, -1.6854074526156984, 0.37679624940459927, 2.930266989829665, -0.0312776044011116, 0.5237118005752563, 0.3061857223510742, -0.9237478375434875, -0.36794334650039673, 0.10633779317140579, -0.14151406288146973, -0.03436988592147827, -0.08700500428676605, -0.7422918388548315, -0.04660176389664232, -0.20795915632711975,-0.6352827338863997,-1.0652618408203125,-0.402313232421875,0.0193328857421875
20220112-1354,2022-01-12 13:54:43Z,u01, 221,40,movements,el-ex, rt, d,94239.90264166667, -1.6715217568338654, 0.3680815536991518, 2.9312608594342513, 0.08869463950395584, 0.5891859531402588, 0.37865838408470154, -0.9282903075218201, -0.35982614755630493, 0.09381993860006332, -0.17311954498291016, -0.15167894959449768, -0.060037024319171906, -0.7381330459186477, -0.04549260101045771, -0.20421023817875789,-0.6413954812229861,-1.1030120849609375,-0.511993408203125,0.0268096923828125
20220112-1354,2022-01-12 13:54:43Z,u01, 222,40,movements,el-ex, rt, d,94239.92758266667, -1.6574885636978385, 0.35676999472222704, 2.9312539898029497, 0.05145888775587082, 0.5710261464118958, 0.5127883553504944, -0.9335106015205383, -0.3492494523525238, 0.0811314731836319, -0.18334096670150757, -0.10495883226394653, -0.06597961485385895, -0.7339671458675369, -0.04310413021152445, -0.19988268157717867,-0.6476735099525273,-1.116851806640625,-0.4542083740234375,0.0151519775390625
20220112-1354,2022-01-12 13:54:43Z,u01, 223,40,movements,el-ex, rt, d,94239.95252366667, -1.6431443771436445, 0.341654891219997, 2.932800223939618, 0.13170312345027924, 0.6160628795623779, 0.6547329425811768, -0.9397367835044861, -0.33504679799079895, 0.0681069940328598, -0.18633133172988892, -0.10825154185295105, -0.049628615379333496, -0.7296963660538545, -0.03995885765592722, -0.1937367880500364,-0.6545323595206596,-1.1324615478515625,-0.4356689453125,0.02099609375
20220112-1354,2022-01-12 13:54:43Z,u01, 224,40,movements,el-ex, rt, d,94239.97746466668, -1.6286280629234187, 0.32555872305951483, 2.933869834611282, 0.07501191645860672, 0.5390230417251587, 0.6316527128219604, -0.9458881616592407, -0.31983819603919983, 0.054763421416282654, -0.135822594165802, -0.1213848888874054, -0.057433728128671646, -0.7253060591149775, -0.03623300651342466, -0.18744318985443517,-0.6614252063631991,-1.0817108154296875,-0.44122314453125,-0.0026702880859375
20220112-1354,2022-01-12 13:54:43Z,u01, 225,40,movements,el-ex, rt, d,94240.00240566667, -1.6163594534766954, 0.31027331322937124, 2.934651441758876, -0.024785485118627548, 0.4671630263328552, 0.641005277633667, -0.9512617588043213, -0.3053189218044281, 0.04337247833609581, -0.14286959171295166, -0.025506824254989624, -0.042975787073373795, -0.7215519579161079, -0.03238843059712414, -0.1816164285787253,-0.6673298204218391,-1.0894927978515625,-0.3366546630859375,-0.008148193359375
20220112-1354,2022-01-12 13:54:43Z,u01, 226,40,movements,el-ex, rt, d,94240.02734666667, -1.6048495078515272, 0.2945606440825236, 2.931294577363954, -0.23832543194293976, 0.3320651948451996, 0.5877112150192261, -0.956375002861023, -0.29031944274902344, 0.03258020803332329, -0.18870550394058228, -0.030847519636154175, 0.007443428039550781, -0.7180343988333175, -0.026771351363927734, -0.17708638569079752,-0.6725699409259243,-1.14508056640625,-0.3211669921875,0.0400238037109375
20220112-1354,2022-01-12 13:54:43Z,u01, 227,40,movements,el-ex, rt, d,94240.05228766667, -1.5941893528682358, 0.28181544416058885, 2.92234724255936, -0.31151866912841797, 0.35629385709762573, 0.3630419075489044, -0.9602892398834229, -0.278099924325943, 0.022468170151114464, -0.3566967248916626, -0.02143004536628723, 0.0496295690536499, -0.7147247214884374, -0.020066328767467584, -0.1755511063871446,-0.6767182914550409,-1.2931976318359375,-0.2775421142578125,0.0752716064453125
20220112-1354,2022-01-12 13:54:43Z,u01, 228,40,movements,el-ex, rt, d,94240.07722766667, -1.584614129713574, 0.27770149510999553, 2.919327761275559, 0.15009409189224243, 0.33758965134620667, -0.011643295176327229, -0.9615963101387024, -0.2741459310054779, 0.01328799407929182, -0.3802768588066101, -0.1202785074710846, 0.0007957220077514648, -0.7115517332286624, -0.018388258294989746, -0.17506072408429874,-0.6802277352231615,-1.3418731689453125,-0.3944244384765625,0.0140838623046875
20220112-1354,2022-01-12 13:54:43Z,u01, 229,40,movements,el-ex, rt, d,94240.10216866668, -1.5786378511005195, 0.28191157105889236, 2.922380187081729, -0.00023606512695550919, 0.19083502888679504, -0.2445293366909027, -0.9604958295822144, -0.27819228172302246, 0.007531906012445688, -0.45062166452407837, -0.07866501808166504, 0.10426914691925049, -0.7094397244556796, -0.021476272767940646, -0.17541159190723227,-0.6822497960845153,-1.3996734619140625,-0.343719482421875,0.093963623046875
20220112-1354,2022-01-12 13:54:43Z,u01, 230,40,movements,el-ex, rt, d,94240.12710966668, -1.5751939370339225, 0.2878057594165026, 2.917047739049851, -0.29846781492233276, -0.15055732429027557, -0.2711208760738373, -0.9588596820831299, -0.28384891152381897, 0.00421671848744154, -0.5103480219841003, -0.25648003816604614, 0.19295728206634521, -0.708255427669067, -0.02196834976410758, -0.1792172647355929,-0.682475474168846,-1.469207763671875,-0.5403289794921875,0.197174072265625
20220112-1354,2022-01-12 13:54:43Z,u01, 231,40,movements,el-ex, rt, d,94240.15205066667, -1.5781784753686197, 0.29612880984138773, 2.910210301193199, -0.14643694460391998, -0.16292516887187958, -0.41992324590682983, -0.9564472436904907, -0.2918197214603424, 0.007060763891786337, -0.7236064076423645, -0.20877531170845032, 0.020527124404907227, -0.7092511846183227, -0.022206735529316915, -0.18443167698210958,-0.6800401061981924,-1.6804351806640625,-0.527557373046875,0.0590667724609375
20220112-1354,2022-01-12 13:54:43Z,u01, 232,40,movements,el-ex, rt, d,94240.17699166667, -1.58412535745801, 0.3083280691569739, 2.911565983434067, 0.19336898624897003, -0.31123173236846924, -0.5256925225257874, -0.9527577757835388, -0.30346596240997314, 0.012700090184807777, -0.5939342975616455, -0.16296473145484924, 0.029353145509958267, -0.7110920340386969, -0.02642279434094407, -0.1882272118364653,-0.6769199470300211,-1.54669189453125,-0.4664306640625,0.04205322265625
20220112-1354,2022-01-12 13:54:43Z,u01, 233,40,movements,el-ex, rt, d,94240.20193266668, -1.595200629675331, 0.32221625136196924, 2.916774485572137, 0.07139527797698975, -0.45936208963394165, -0.5845238566398621, -0.9482534527778625, -0.3166695237159729, 0.02314605936408043, -0.4665261507034302, -0.2800864279270172, 0.09538412094116211, -0.7145231608300945, -0.03208866070846917, -0.19140916373834516,-0.6721528464940095,-1.4406280517578125,-0.6002960205078125,0.109649658203125
20220112-1354,2022-01-12 13:54:43Z,u01, 234,40,movements,el-ex, rt, d,94240.22687366667, -1.6082397893888476, 0.33662256066883933, 2.915345328922738, -0.08443596214056015, -0.6168065071105957, -0.5519285798072815, -0.9432140588760376, -0.33030110597610474, 0.03533371537923813, -0.3739398717880249, -0.16307657957077026, 0.07716929912567139, -0.7186232164234477, -0.035320390045461246, -0.19708365289629617,-0.6659513427128152,-1.3171539306640625,-0.493377685546875,0.1125030517578125
20220112-1354,2022-01-12 13:54:43Z,u01, 235,40,movements,el-ex, rt, d,94240.25181466667, -1.6253060829956067, 0.3501882526754399, 2.9172076188192135, 0.15683092176914215, -0.7007899880409241, -0.5251554250717163, -0.9379128813743591, -0.34307464957237244, 0.05117609724402428, -0.3254842162132263, -0.06952297687530518, -0.043867237865924835, -0.7239262488878131, -0.038972235047794034, -0.2014963791369259,-0.6586433253795269,-1.2662353515625,-0.424896240234375,0.02117919921875
20220112-1354,2022-01-12 13:54:44Z,u01, 236,40,movements,el-ex, rt, d,94240.27675566667, -1.6443307816293986, 0.36125533497966716, 2.923816762699265, 0.2198924422264099, -0.6086568236351013, -0.3861114978790283, -0.9329257607460022, -0.3534488081932068, 0.06872610747814178, -0.3057979345321655, -0.035345107316970825, -0.06955015659332275, -0.7297220545747558, -0.04322934775100577, -0.20359718446630212,-0.6512949054166379,-1.2387237548828125,-0.3887939453125,-0.000823974609375
20220112-1354,2022-01-12 13:54:44Z,u01, 237,40,movements,el-ex, rt, d,94240.30169666668, -1.658838913318946, 0.3689597608284744, 2.926215410453186, -0.07717152684926987, -0.5047351121902466, -0.2545967400074005, -0.9290902614593506, -0.3606453835964203, 0.08201152086257935, -0.16891682147979736, -0.10395416617393494, 0.005665414035320282, -0.7341389006131709, -0.04523091249013899, -0.20585752411684494,-0.6454585699467491,-1.1185302734375,-0.455413818359375,0.09149169921875
20220112-1354,2022-01-12 13:54:44Z,u01, 238,40,movements,el-ex, rt, d,94240.32663766667, -1.6697854297303683, 0.3748830755385116, 2.923002313857908, -0.15017449855804443, -0.4239662289619446, -0.19965441524982452, -0.9259948134422302, -0.3661637306213379, 0.09196397662162781, -0.13526904582977295, -0.036164700984954834, -0.03509450703859329, -0.7375402019775306, -0.044904758235947084, -0.20923666096336385,-0.6404981494575924,-1.0612640380859375,-0.4023284912109375,0.0568695068359375
20220112-1354,2022-01-12 13:54:44Z,u01, 239,40,movements,el-ex, rt, d,94240.35157866667, -1.677714749442476, 0.3790647939274479, 2.920635327492727, -0.05368321016430855, -0.2800270915031433, -0.10922404378652573, -0.9237061142921448, -0.3700518012046814, 0.0991392582654953, -0.11238086223602295, 0.05479001998901367, -0.047732479870319366, -0.7399870867964352, -0.04459530621044321, -0.21165708113128506,-0.6368921487743135,-1.0450897216796875,-0.3135833740234375,0.060546875
20220112-1354,2022-01-12 13:54:44Z,u01, 240,40,movements,el-ex, rt, d,94240.37651866667, -1.682279200497934, 0.38042639493768976, 2.9187448398841163, -0.16587813198566437, -0.1709766387939453, 0.038651302456855774, -0.9227424263954163, -0.37131640315055847, 0.10329827666282654, -0.04837268590927124, -0.01341867446899414, 0.021121859550476074, -0.7414344298288431, -0.043864839978642385, -0.21284436885970515,-0.6348607115967759,-0.9711151123046875,-0.384735107421875,0.124420166015625
20220112-1354,2022-01-12 13:54:44Z,u01, 241,40,movements,el-ex, rt, d,94240.40145966667, -1.6827109072586939, 0.37750509205379384, 2.911355213052777, -0.37462955713272095, -0.03203006833791733, 0.23430880904197693, -0.923771858215332, -0.3686023950576782, 0.10381733626127243, -0.07503801584243774, -0.09685173630714417, 0.12904705107212067, -0.7418222344759733, -0.0401053612077841, -0.2141561226584106,-0.6342149306579858,-0.987548828125,-0.4723358154296875,0.2173309326171875
20220112-1354,2022-01-12 13:54:44Z,u01, 242,40,movements,el-ex, rt, d,94240.42640066668, -1.679081325586765, 0.37040077715632336, 2.9011691827217008, -0.22687377035617828, 0.054092831909656525, 0.42985594272613525, -0.9267223477363586, -0.3619890511035919, 0.10074420273303986, -0.0872393250465393, 0.0636645257472992, 0.04848669469356537, -0.7410750946710434, -0.034348285341949315, -0.2147908218660588,-0.6352107635562633,-1.0139617919921875,-0.2983245849609375,0.14923095703125
20220112-1354,2022-01-12 13:54:44Z,u01, 243,40,movements,el-ex, rt, d,94240.45134166667, -1.6726820985508317, 0.3577050939056024, 2.8973288340167467, 0.005513699725270271, 0.3435976803302765, 0.5638148784637451, -0.9318453073501587, -0.3501255214214325, 0.09527166932821274, -0.054910123348236084, 0.1324283480644226, -0.02572213113307953, -0.739441581718608, -0.02935952892873056, -0.211398532142386,-0.6384942742778289,-1.00543212890625,-0.17333984375,0.0547637939453125
20220112-1354,2022-01-12 13:54:44Z,u01, 244,40,movements,el-ex, rt, d,94240.47628266667, -1.6616386151564342, 0.3427055457903086, 2.893118659215224, -0.24056841433048248, 0.37782081961631775, 0.680404782295227, -0.9379653930664062, -0.3360365331172943, 0.08544208854436874, 0.010414183139801025, -0.0903245210647583, 0.07492780685424805, -0.7363077117659215, -0.023916440033729475, -0.2072828218607769,-0.6436713373410359,-0.92755126953125,-0.426361083984375,0.160369873046875
20220112-1354,2022-01-12 13:54:44Z,u01, 245,40,movements,el-ex, rt, d,94240.50122366667, -1.648361281700284, 0.32495117247562155, 2.8816682832669276, -0.43158194422721863, 0.4094330072402954, 0.8398306369781494, -0.9448168873786926, -0.3192625045776367, 0.07343200594186783, 0.03490489721298218, 0.051043540239334106, -0.0062018632888793945, -0.732454120708893, -0.01506529572467076, -0.2045878983398741,-0.6491746336243384,-0.9197845458984375,-0.29669189453125,0.1190948486328125
20220112-1354,2022-01-12 13:54:44Z,u01, 246,40,movements,el-ex, rt, d,94240.52616466668, -1.6341963943383302, 0.3033995916083151, 2.872202844366046, -0.06729762256145477, 0.4763944149017334, 0.8950682282447815, -0.9524088501930237, -0.29876625537872314, 0.06046382337808609, 0.09391897916793823, -0.0022133290767669678, -0.062203291803598404, -0.7281480444334881, -0.005686496479720707, -0.20003529035942075,-0.6555561638888274,-0.858489990234375,-0.3009796142578125,-0.001739501953125
20220112-1354,2022-01-12 13:54:44Z,u01, 247,40,movements,el-ex, rt, d,94240.55110566667, -1.6199132171151818, 0.28181061559350257, 2.8690360779869124, -0.12782548367977142, 0.5950540900230408, 0.8769509196281433, -0.9593951106071472, -0.2780953049659729, 0.04716043546795845, 0.06468075513839722, 0.0749245285987854, 0.02057325839996338, -0.7235869157356876, 0.001480742289730122, -0.19352023641258392,-0.6625479079331242,-0.8781280517578125,-0.210418701171875,0.03717041015625
20220112-1354,2022-01-12 13:54:44Z,u01, 248,40,movements,el-ex, rt, d,94240.57604666667, -1.602908009760989, 0.2572206101063681, 2.863903446199956, -0.1638931781053543, 0.7019004821777344, 1.156874179840088, -0.9666022658348083, -0.2543935775756836, 0.031049899756908417, 0.02818673849105835, 0.0904226303100586, 0.08853316307067871, -0.7179276947936315, 0.010235959309711523, -0.18673228512691675,-0.6705268043921312,-0.93841552734375,-0.163970947265625,0.1195831298828125
20220112-1354,2022-01-12 13:54:44Z,u01, 249,40,movements,el-ex, rt, d,94240.60098766668, -1.583440062398072, 0.22715296956785264, 2.857387062307865, -0.3684001863002777, 0.6626314520835876, 1.178576111793518, -0.9742334485054016, -0.22520454227924347, 0.012318606488406658, 0.24252891540527344, 0.10363782942295074, -0.05283069610595703, -0.7111298590353419, 0.021298518614670872, -0.17869809444683393,-0.6796377831118207,-0.765899658203125,-0.1145172119140625,-0.0201416015625
20220112-1354,2022-01-12 13:54:44Z,u01, 250,40,movements,el-ex, rt, d,94240.62592866668, -1.5663231533899007, 0.2016869649983433, 2.84825611666716, -0.2620570957660675, 0.6621126532554626, 0.888735830783844, -0.9797201156616211, -0.20032238960266113, -0.004382487386465073, 0.21995460987091064, 0.04906202852725983, -0.0712859034538269, -0.7048294063320703, 0.0320041299133971, -0.17330771722879718,-0.6871357803061953,-0.759765625,-0.1512603759765625,-0.0756683349609375
