SessionID,LoggingTime,UID,RecNo,Hertz,Activity,MoveType,Wrist,Side,TimeStamp,DMRoll,DMPitch,DMYaw,DMRotX,DMRotY,DMRotZ,DMGrvX,DMGrvY,DMGrvZ,DMUAccelX,DMUAccelY,DMUAccelZ,DMQuatX,DMQuatY,DMQuatW,DMQuatZ,AccelroX,AceelroY,AceelroZ
20220111-1117,2022-01-11 11:18:09Z,u01, 1,40,movements,el-ex, rt, d,75616.888511125, -1.6276164763559222, 0.16650214514841172, 2.9842532139978006, -0.0363595224916935, -1.172492504119873, -1.3057156801223755, -0.9845789670944214, -0.16573388874530792, 0.05600420758128166, 0.40659135580062866, 0.1272665113210678, 0.010462995618581772, -0.7266375325858898, -5.551115123125783e-17, -0.11404165160413082,-0.6774897541605884,-0.5779876708984375,-0.0384674072265625,0.06646728515625
20220111-1117,2022-01-11 11:18:09Z,u01, 2,40,movements,el-ex, rt, d,75616.91345412501, -1.6570909691102387, 0.20023435274523163, 2.9837367973338993, -0.08334364742040634, -1.1014946699142456, -1.3015292882919312, -0.9763733148574829, -0.19889900088310242, 0.08446555584669113, 0.24433284997940063, 0.18728706240653992, 0.03903902322053909, -0.7363028177601976, -0.009536193907303703, -0.12645769404184393,-0.664662120584792,-0.7841949462890625,-0.0372314453125,0.1261138916015625
20220111-1117,2022-01-11 11:18:09Z,u01, 3,40,movements,el-ex, rt, d,75616.938397125, -1.6830326134408393, 0.22872509953368964, 2.9891909188380033, 0.37365537881851196, -1.0071768760681152, -0.9865521192550659, -0.9678283929824829, -0.22673600912094116, 0.10908389091491699, 0.03461599349975586, -0.07352650165557861, 0.0861523300409317, -0.7444223855423042, -0.019423141084430606, -0.13523692442699609,-0.6535818010935416,-0.9332122802734375,-0.300262451171875,0.1952362060546875
20220111-1117,2022-01-11 11:18:09Z,u01, 4,40,movements,el-ex, rt, d,75616.963340125, -1.7055841783055825, 0.25230979835824285, 3.0064772572553267, 0.37450605630874634, -0.5299652814865112, -1.0572025775909424, -0.9595552682876587, -0.2496412843465805, 0.13012537360191345, -0.24166220426559448, 0.05016322433948517, 0.0045028626918792725, -0.7510186846085759, -0.03215002242558629, -0.13860015267096665,-0.6447690825071679,-0.7341461181640625,-0.160797119140625,0.0023040771484375
20220111-1117,2022-01-11 11:18:09Z,u01, 5,40,movements,el-ex, rt, d,75616.988283125, -1.7239607570593038, 0.2777922118836511, 3.008264885134341, -0.39930087327957153, -0.8076896071434021, -1.0262662172317505, -0.9504051208496094, -0.2742331624031067, 0.1467173546552658, 0.1788141131401062, 0.25457990169525146, -0.027225881814956665, -0.7561557308449993, -0.039839509657869754, -0.14781263198631683,-0.6362331375065914,-0.7715911865234375,-0.0196533203125,0.1194915771484375
20220111-1117,2022-01-11 11:18:09Z,u01, 6,40,movements,el-ex, rt, d,75617.01322612501, -1.7412168695580361, 0.30345328124576576, 3.0057651364192504, -0.019519122317433357, -0.5540534257888794, -0.9812837243080139, -0.9404857754707336, -0.2988174855709076, 0.16184799373149872, 0.002054929733276367, -0.03271022439002991, 0.10539436340332031, -0.7608022527754431, -0.045868610496943296, -0.15854246055459012,-0.6276466705777249,-0.982452392578125,-0.3697052001953125,0.2736358642578125
20220111-1117,2022-01-11 11:18:09Z,u01, 7,40,movements,el-ex, rt, d,75617.03816912501, -1.754611134429563, 0.323233197794683, 3.0162216101936363, 0.4589155614376068, -0.29363584518432617, -0.7717220783233643, -0.932239294052124, -0.3176339864730835, 0.17331579327583313, -0.0411188006401062, -0.110695481300354, 0.05446730554103851, -0.7639506819234261, -0.05511126063009214, -0.1630250026976889,-0.6219042371078511,-0.973358154296875,-0.4283294677734375,0.227783203125
20220111-1117,2022-01-11 11:18:09Z,u01, 8,40,movements,el-ex, rt, d,75617.063112125, -1.7659329012968639, 0.3403706450839787, 3.0282946231852983, 0.08842435479164124, -0.35749495029449463, -0.7645738124847412, -0.9247410893440247, -0.33383649587631226, 0.18277665972709656, 0.07551312446594238, 0.12727826833724976, -0.07396624982357025, -0.7663301094041752, -0.06423780941471058, -0.16607160164035437,-0.6172778930566432,-0.8280181884765625,-0.1710052490234375,0.0992889404296875
20220111-1117,2022-01-11 11:18:09Z,u01, 9,40,movements,el-ex, rt, d,75617.088055125, -1.7769637440326584, 0.3591226052579871, 3.0307678512267033, -0.08153941482305527, -0.38377588987350464, -0.7441080212593079, -0.9163791537284851, -0.35145294666290283, 0.1916506290435791, 0.003125429153442383, 0.08167752623558044, -0.0471346378326416, -0.768702436452145, -0.07015608595526296, -0.1727630195307221,-0.6118231767141318,-0.9132537841796875,-0.269775390625,0.1445159912109375
20220111-1117,2022-01-11 11:18:09Z,u01, 10,40,movements,el-ex, rt, d,75617.112998125, -1.7850659674726657, 0.37718685497754306, 3.0331668838133834, -0.021967001259326935, -0.23970866203308105, -0.6774349212646484, -0.9084439873695374, -0.36830654740333557, 0.19768662750720978, -0.04463529586791992, 0.1197865903377533, -0.01647326350212097, -0.7701073019569185, -0.07601355112006336, -0.17916330758228602,-0.6075008513979858,-0.9376068115234375,-0.2494659423828125,0.1912689208984375
20220111-1117,2022-01-11 11:18:09Z,u01, 11,40,movements,el-ex, rt, d,75617.13794112501, -1.7930265777949386, 0.39145898480027075, 3.038756490578277, 0.08963213115930557, -0.23557162284851074, -0.568779468536377, -0.90162193775177, -0.38153743743896484, 0.20373262465000153, 0.033152759075164795, 0.040946006774902344, 0.035998210310935974, -0.7714673340102896, -0.0818808062902166, -0.18319528339378774,-0.6037989180661338,-0.86846923828125,-0.3405914306640625,0.2397308349609375
20220111-1117,2022-01-11 11:18:09Z,u01, 12,40,movements,el-ex, rt, d,75617.162884125, -1.8016585514463208, 0.4049933030862408, 3.041811525596502, -0.05635503679513931, -0.32512494921684265, -0.5015296339988708, -0.8947206139564514, -0.39401260018348694, 0.2103067934513092, 5.2094459533691406e-05, 0.043533533811569214, 0.033330172300338745, -0.7730988759815257, -0.0864379859320335, -0.18778119525484124,-0.5996538566388947,-0.917144775390625,-0.3543701171875,0.2424163818359375
20220111-1117,2022-01-11 11:18:09Z,u01, 13,40,movements,el-ex, rt, d,75617.187827125, -1.8086298964179637, 0.4144306227291865, 3.0455644963658237, 0.20381952822208405, -0.12001394480466843, -0.31811776757240295, -0.8895794749259949, -0.4026688039302826, 0.2156534045934677, -0.0856250524520874, -0.018717944622039795, -0.02299591898918152, -0.7744055274329715, -0.09012649313057813, -0.19055947820904773,-0.5965404201965585,-0.9752044677734375,-0.42138671875,0.192657470703125
20220111-1117,2022-01-11 11:18:09Z,u01, 14,40,movements,el-ex, rt, d,75617.212770125, -1.8152305916587437, 0.41895091467259266, 3.0554682206363784, 0.32815492153167725, -0.12478713691234589, -0.24931979179382324, -0.886361300945282, -0.40680232644081116, 0.22107769548892975, -0.011435270309448242, -0.03713682293891907, -0.122002512216568, -0.7756079272855166, -0.09471637374725989, -0.18964082264253532,-0.5945564923253819,-0.8845977783203125,-0.4222564697265625,0.0998077392578125
20220111-1117,2022-01-11 11:18:09Z,u01, 15,40,movements,el-ex, rt, d,75617.23771312501, -1.8221722579852275, 0.42351851091955545, 3.0632042674646223, 0.1560790240764618, -0.14417174458503723, -0.18930386006832123, -0.8829965591430664, -0.41097062826156616, 0.2267606407403946, -0.035399436950683594, 0.13916581869125366, -0.0606229305267334, -0.7769738913975296, -0.09844742512313703, -0.18942955024631064,-0.592229842845853,-0.91839599609375,-0.2718048095703125,0.1661376953125
20220111-1117,2022-01-11 11:18:09Z,u01, 16,40,movements,el-ex, rt, d,75617.262656125, -1.825232554818274, 0.4247114190507723, 3.0680348650912923, 0.08638297021389008, 0.054035477340221405, -0.009190952405333519, -0.8818232417106628, -0.4120578467845917, 0.22933822870254517, -0.03651165962219238, 0.07644081115722656, -0.01598989963531494, -0.7775536916444425, -0.10039605498662824, -0.18861004056566524,-0.591402667792301,-0.90496826171875,-0.3745269775390625,0.231414794921875
20220111-1117,2022-01-11 11:18:09Z,u01, 17,40,movements,el-ex, rt, d,75617.287599125, -1.8203854034333014, 0.42438156890404294, 3.0612039269564932, -0.42385831475257874, 0.12657839059829712, 0.16831353306770325, -0.8830562829971313, -0.41175729036331177, 0.22509481012821198, -0.013565421104431152, -0.17988696694374084, 0.07730388641357422, -0.7764814829139699, -0.09810152980913817, -0.1902650586290839,-0.5926650620737377,-0.8966217041015625,-0.591644287109375,0.302398681640625
20220111-1117,2022-01-11 11:18:09Z,u01, 18,40,movements,el-ex, rt, d,75617.312542125, -1.8140708345949244, 0.4187466983911066, 3.0561464948410912, 0.2662617862224579, 0.21346668899059296, 0.3110954463481903, -0.8866978883743286, -0.4066157639026642, 0.22006964683532715, -0.04663646221160889, -0.2246403694152832, -0.08582282066345215, -0.7752449167391651, -0.09502704707874993, -0.1893060110487377,-0.5950869526241731,-0.945159912109375,-0.584075927734375,0.0975494384765625
20220111-1117,2022-01-11 11:18:09Z,u01, 19,40,movements,el-ex, rt, d,75617.337485125, -1.8106583137933883, 0.40892836903127266, 3.066471866986461, 0.3805522322654724, 0.37322214245796204, 0.32232800126075745, -0.8912788033485413, -0.39762628078460693, 0.21798044443130493, -0.13215869665145874, 0.05102291703224182, -0.04674637317657471, -0.7744072455931187, -0.09635163541765113, -0.1823087614742996,-0.5981415472371191,-1.0234375,-0.3466033935546875,0.171234130859375
20220111-1117,2022-01-11 11:18:09Z,u01, 20,40,movements,el-ex, rt, d,75617.362427125, -1.7996243253560136, 0.39673824647134415, 3.0654926714753605, -0.19830405712127686, 0.49030834436416626, 0.6646299958229065, -0.8982837796211243, -0.38641199469566345, 0.20921698212623596, -0.18907266855239868, -0.02993929386138916, 0.05790324509143829, -0.7719561704080012, -0.09323175199447165, -0.1774243701583593,-0.6032511731092415,-1.0919952392578125,-0.440582275390625,0.277557373046875
20220111-1117,2022-01-11 11:18:09Z,u01, 21,40,movements,el-ex, rt, d,75617.387370125, -1.781506262474032, 0.3796841675098058, 3.0517566654682127, -0.40740707516670227, 0.5144969820976257, 0.8528614044189453, -0.9082396030426025, -0.37062713503837585, 0.19425860047340393, -0.13883376121520996, -0.08124661445617676, 0.040009498596191406, -0.7681343018013144, -0.08425551494378841, -0.17430666329622468,-0.6103178783112913,-1.0470733642578125,-0.451873779296875,0.2342681884765625
20220111-1117,2022-01-11 11:18:10Z,u01, 22,40,movements,el-ex, rt, d,75617.41231312501, -1.7635679304791831, 0.3595998418516951, 3.0393248650881324, -0.13342781364917755, 0.60551518201828, 0.8724133372306824, -0.9186994433403015, -0.3518996834754944, 0.17932599782943726, -0.1350724697113037, -0.13058319687843323, -0.04115772247314453, -0.764249939834629, -0.0747330365177647, -0.16982761698880292,-0.617653252902704,-1.06732177734375,-0.4795989990234375,0.153839111328125
20220111-1117,2022-01-11 11:18:10Z,u01, 23,40,movements,el-ex, rt, d,75617.437256125, -1.7478443112777842, 0.33821954269291155, 3.0362156670874803, 0.2217731773853302, 0.5696378946304321, 0.8697311282157898, -0.9286003112792969, -0.33180803060531616, 0.16614647209644318, -0.18947207927703857, -0.06456953287124634, 0.08688996732234955, -0.7605528934832173, -0.06806268455495157, -0.16220477519435433,-0.6249930365485229,-1.118072509765625,-0.3963775634765625,0.2530364990234375
20220111-1117,2022-01-11 11:18:10Z,u01, 24,40,movements,el-ex, rt, d,75617.462199125, -1.734891763388935, 0.31666163887917154, 3.038399489681591, 0.17523148655891418, 0.4979820251464844, 0.8119729161262512, -0.9375147819519043, -0.31139591336250305, 0.15523777902126312, -0.2747349739074707, 0.025507211685180664, 0.14906823635101318, -0.7573968332289558, -0.06299943900169647, -0.15303116187899762,-0.6316348962607315,-1.2378387451171875,-0.2785186767578125,0.299163818359375
20220111-1117,2022-01-11 11:18:10Z,u01, 25,40,movements,el-ex, rt, d,75617.487142125, -1.7235278460664687, 0.29750602640112866, 3.038098148938893, -0.012754927389323711, 0.4114775061607361, 0.6528141498565674, -0.944940984249115, -0.29313671588897705, 0.14545504748821259, -0.37901824712753296, -0.10082992911338806, 0.05776141583919525, -0.7545968428481453, -0.05754238886270946, -0.1456415695344393,-0.6372290969253905,-1.3239593505859375,-0.3939666748046875,0.203216552734375
20220111-1117,2022-01-11 11:18:10Z,u01, 26,40,movements,el-ex, rt, d,75617.51208512501, -1.713376600555773, 0.28656109174381994, 3.0316829427412397, -0.2199488878250122, 0.2351120114326477, 0.27000758051872253, -0.94948810338974, -0.2826552391052246, 0.13630317151546478, -0.38326042890548706, -0.16055157780647278, 0.014133229851722717, -0.7519419054709919, -0.05229681323843527, -0.14334652232017436,-0.641326971495628,-1.3364715576171875,-0.4417724609375,0.13958740234375
20220111-1117,2022-01-11 11:18:10Z,u01, 27,40,movements,el-ex, rt, d,75617.537028125, -1.7093146952343976, 0.284027685385223, 3.0315676280363775, 0.2617567777633667, 0.13077634572982788, -0.054355233907699585, -0.9507399797439575, -0.2802242338657379, 0.13254375755786896, -0.50957190990448, -0.12738382816314697, 0.09241652488708496, -0.750731253683825, -0.0517152199000292, -0.1423391860567333,-0.6430145170496837,-1.4603118896484375,-0.4076080322265625,0.2249603271484375
20220111-1117,2022-01-11 11:18:10Z,u01, 28,40,movements,el-ex, rt, d,75617.56197125, -1.7095238738012046, 0.286341483165694, 3.03745815484562, -0.030612953007221222, -0.033361874520778656, -0.18570725619792938, -0.9500673413276672, -0.282444566488266, 0.13265258073806763, -0.5684871673583984, -0.19875654578208923, 0.1728130429983139, -0.7505582231688329, -0.054668525790628586, -0.14130750517080526,-0.6431996003080027,-1.5307159423828125,-0.5189056396484375,0.3271636962890625
20220111-1117,2022-01-11 11:18:10Z,u01, 29,40,movements,el-ex, rt, d,75617.58691425, -1.7123176887349127, 0.2942899353096801, 3.0331526095673, -0.2517539858818054, -0.2649431824684143, -0.4338590204715729, -0.9474408030509949, -0.2900603711605072, 0.13498549163341522, -0.6240925192832947, -0.2541138529777527, 0.1514676958322525, -0.751277603599646, -0.055450066103819085, -0.14571130362910106,-0.6413076886207446,-1.571533203125,-0.5441741943359375,0.2864532470703125
20220111-1117,2022-01-11 11:18:10Z,u01, 30,40,movements,el-ex, rt, d,75617.61185725, -1.7191664223378527, 0.30791631807780157, 3.035010583815279, 0.18920662999153137, -0.2590927481651306, -0.6554113626480103, -0.9424972534179688, -0.30307361483573914, 0.14087364077568054, -0.5573043823242188, -0.14374950528144836, 0.04644322395324707, -0.7528790672163018, -0.060082724898772866, -0.15036720028116235,-0.6379286271461513,-1.460662841796875,-0.463470458984375,0.1719207763671875
20220111-1117,2022-01-11 11:18:10Z,u01, 31,40,movements,el-ex, rt, d,75617.63680025001, -1.7291477154704464, 0.32552560244686635, 3.041089290789247, 0.008677361533045769, -0.3929234445095062, -0.7872377634048462, -0.9356284141540527, -0.319806843996048, 0.1494089663028717, -0.37792444229125977, -0.21432706713676453, 0.08104443550109863, -0.7550978996474694, -0.06731751200353747, -0.1552983245345833,-0.6333860936118919,-1.3135528564453125,-0.5341339111328125,0.2304534912109375
20220111-1117,2022-01-11 11:18:10Z,u01, 32,40,movements,el-ex, rt, d,75617.66174325, -1.7403836729288515, 0.34551274471735605, 3.044287250793849, 0.04309701919555664, -0.3867073059082031, -0.816093385219574, -0.9274042844772339, -0.33867916464805603, 0.15880133211612701, -0.3650304079055786, -0.15285223722457886, 0.11225569248199463, -0.7575719356321104, -0.07406366355694788, -0.162138984563462,-0.6279413616272929,-1.284820556640625,-0.4793701171875,0.2633514404296875
20220111-1117,2022-01-11 11:18:10Z,u01, 33,40,movements,el-ex, rt, d,75617.68668625, -1.7524516010113638, 0.365502673628669, 3.0516527040529233, 0.19617599248886108, -0.3669414520263672, -0.8548336625099182, -0.9185771346092224, -0.35741880536079407, 0.16872437298297882, -0.3037281632423401, -0.06109926104545593, 0.0328747034072876, -0.7599993530881463, -0.08223849462747213, -0.16778606224195625,-0.6224834956079396,-1.2223052978515625,-0.41851806640625,0.20159912109375
20220111-1117,2022-01-11 11:18:10Z,u01, 34,40,movements,el-ex, rt, d,75617.71162925, -1.7636469825762326, 0.3851540908130156, 3.0602745417060375, 0.10364328324794769, -0.27776092290878296, -0.7939790487289429, -0.9095605611801147, -0.3757019340991974, 0.17761676013469696, -0.26289427280426025, -0.014755189418792725, 0.00718235969543457, -0.7619499702546666, -0.09077788433620587, -0.17297486709832074,-0.6174717253618636,-1.15130615234375,-0.3924102783203125,0.183013916015625
20220111-1117,2022-01-11 11:18:10Z,u01, 35,40,movements,el-ex, rt, d,75617.73657225001, -1.7711575674340962, 0.4026720595936854, 3.0648842724197376, 0.031969234347343445, -0.19335174560546875, -0.6500818133354187, -0.9016121625900269, -0.39187806844711304, 0.18310493230819702, -0.1604454517364502, -0.09373295307159424, 0.028168216347694397, -0.7629359196030919, -0.09737171164634068, -0.17850178744518777,-0.6136650281200419,-1.0620574951171875,-0.4856109619140625,0.211273193359375
20220111-1117,2022-01-11 11:18:10Z,u01, 36,40,movements,el-ex, rt, d,75617.76151525001, -1.7775507764915341, 0.4162817726137155, 3.0702564282266125, 0.1454615741968155, -0.11895979940891266, -0.4989522099494934, -0.895119845867157, -0.4043625593185425, 0.18775299191474915, -0.14871853590011597, -0.022898763418197632, 0.008688554167747498, -0.7637073157656551, -0.10309039261854175, -0.1823075991186095,-0.6106450483052341,-1.0453033447265625,-0.4117431640625,0.1888885498046875
20220111-1117,2022-01-11 11:18:10Z,u01, 37,40,movements,el-ex, rt, d,75617.78645825, -1.7808110705767963, 0.4255190505121748, 3.0756283094315324, 0.036741189658641815, 0.01963955909013748, -0.28592440485954285, -0.8908117413520813, -0.4127936065196991, 0.1898835152387619, -0.10026180744171143, -0.0396752655506134, 0.035351380705833435, -0.7637670063012418, -0.10771128681815778, -0.18432699511839704,-0.6091647899358268,-0.9910736083984375,-0.4524688720703125,0.2252349853515625
20220111-1117,2022-01-11 11:18:10Z,u01, 38,40,movements,el-ex, rt, d,75617.81140125, -1.780153069092429, 0.43100217654915746, 3.0751435968257668, -0.13300228118896484, 0.04774688929319382, -0.14627590775489807, -0.8887091279029846, -0.4177815318107605, 0.18882407248020172, -0.0640953779220581, -0.008960962295532227, -0.023968234658241272, -0.7631961710516617, -0.10928697844170365, -0.18650777520262615,-0.608935754181851,-0.951324462890625,-0.3939666748046875,0.15838623046875
20220111-1117,2022-01-11 11:18:10Z,u01, 39,40,movements,el-ex, rt, d,75617.83634425, -1.776661661314885, 0.4325203989099687, 3.0740186917561707, 0.026836059987545013, 0.21064220368862152, 0.05639904364943504, -0.888741135597229, -0.4191604256629944, 0.1855902224779129, -0.05155116319656372, -0.008589208126068115, -0.013852611184120178, -0.7620832056162455, -0.10965537810951553, -0.18723153902336898,-0.6100403446943026,-0.9402923583984375,-0.4277496337890625,0.1717376708984375
20220111-1117,2022-01-11 11:18:10Z,u01, 40,40,movements,el-ex, rt, d,75617.86128725001, -1.7697671672004904, 0.42992895585075724, 3.071528186650372, -0.20334264636039734, 0.22116468846797943, 0.15379862487316132, -0.8910613059997559, -0.4168062210083008, 0.17967253923416138, -0.0007690787315368652, -0.04127788543701172, 0.016418084502220154, -0.760298790774498, -0.10854500944246526, -0.1866424819383273,-0.6126404093208552,-0.8835906982421875,-0.4374542236328125,0.1895599365234375
20220111-1117,2022-01-11 11:18:10Z,u01, 41,40,movements,el-ex, rt, d,75617.88622925, -1.76094896258862, 0.42561052354897605, 3.0642761971908254, -0.1281971037387848, 0.2872498333454132, 0.3148803412914276, -0.8943701982498169, -0.4128769040107727, 0.17214669287204742, -0.03095322847366333, 0.05701145529747009, -0.008816733956336975, -0.7582829797629723, -0.10526286633135817, -0.18678000632897626,-0.6156621060402124,-0.925323486328125,-0.355865478515625,0.163330078125
20220111-1117,2022-01-11 11:18:10Z,u01, 42,40,movements,el-ex, rt, d,75617.91117225001, -1.7511151551021509, 0.41674742277185495, 3.0617725511126497, 0.013243850320577621, 0.3850223124027252, 0.4157703220844269, -0.8995847105979919, -0.40478840470314026, 0.16399332880973816, -0.001019597053527832, 0.06079423427581787, -0.04584453999996185, -0.7559790308335054, -0.10243227976664071, -0.18373390120949742,-0.619875181221748,-0.882598876953125,-0.3464813232421875,0.1103973388671875
20220111-1117,2022-01-11 11:18:10Z,u01, 43,40,movements,el-ex, rt, d,75617.93611525, -1.7392595658230543, 0.4054694806221125, 3.0566990425036265, -0.23893560469150543, 0.3796396851539612, 0.5550284385681152, -0.9059087634086609, -0.39445021748542786, 0.1540726125240326, 0.058847665786743164, -0.03899097442626953, 0.03431236743927002, -0.7532789947423371, -0.09801562421899418, -0.18052403821069454,-0.6247998041765291,-0.8470611572265625,-0.433441162109375,0.188385009765625
20220111-1117,2022-01-11 11:18:10Z,u01, 44,40,movements,el-ex, rt, d,75617.96105825, -1.7254520294375364, 0.3923704072573653, 3.0448647929079957, -0.34149298071861267, 0.3845931589603424, 0.645146369934082, -0.9129770994186401, -0.38237977027893066, 0.1423337310552597, 0.015882253646850586, 0.0283757746219635, 0.042282357811927795, -0.750304603382531, -0.0906083099898351, -0.17873759093374783,-0.62998902404147,-0.908447265625,-0.3165283203125,0.177581787109375
20220111-1117,2022-01-11 11:18:10Z,u01, 45,40,movements,el-ex, rt, d,75617.98600125, -1.7113837840879025, 0.37561782262734256, 3.0380794336427352, 0.00030401628464460373, 0.5181381702423096, 0.7379117012023926, -0.9211028814315796, -0.36684733629226685, 0.13035546243190765, 0.03236997127532959, 0.16598063707351685, -0.022399544715881348, -0.7470882874350662, -0.08388577484770732, -0.17410445947971268,-0.6360109510100178,-0.88873291015625,-0.20086669921875,0.1079559326171875
20220111-1117,2022-01-11 11:18:10Z,u01, 46,40,movements,el-ex, rt, d,75618.01094425001, -1.6969814867977593, 0.3562330555123887, 3.033731678598198, -0.2752765417098999, 0.510683536529541, 0.8447631597518921, -0.9297656416893005, -0.34874626994132996, 0.11794931441545486, 0.08888423442840576, 0.004996210336685181, -0.01748548448085785, -0.743653803903184, -0.07716008413685999, -0.16781234334123665,-0.6425452813189035,-0.8468170166015625,-0.38946533203125,0.135986328125
20220111-1117,2022-01-11 11:18:10Z,u01, 47,40,movements,el-ex, rt, d,75618.03588725001, -1.6803498641224133, 0.33477370777088433, 3.0221292869489496, -0.3880862295627594, 0.5417774319648743, 0.9359933137893677, -0.9388223886489868, -0.3285554349422455, 0.10326477140188217, 0.010325193405151367, -0.07441389560699463, 0.03133295476436615, -0.7396782097461293, -0.06714560143355391, -0.16314081347121873,-0.6494248110964737,-0.928497314453125,-0.4029693603515625,0.1345977783203125
20220111-1117,2022-01-11 11:18:10Z,u01, 48,40,movements,el-ex, rt, d,75618.06083025, -1.6625211539721765, 0.31182995825866083, 3.012594768046393, -0.11698958277702332, 0.6286124587059021, 0.9701878428459167, -0.947772741317749, -0.30680084228515625, 0.08717891573905945, 0.028262853622436523, 0.19275665283203125, -0.003667593002319336, -0.735047779491883, -0.05739530867349468, -0.15739412879106113,-0.6569913758384904,-0.9148712158203125,-0.07037353515625,0.0727386474609375
20220111-1117,2022-01-11 11:18:10Z,u01, 49,40,movements,el-ex, rt, d,75618.08577325, -1.6454332450108875, 0.2857274758863041, 3.012140976196683, 0.1950182020664215, 0.7330632209777832, 1.1113721132278442, -0.9567856192588806, -0.2818554937839508, 0.07154443114995956, 0.08970499038696289, 0.05576604604721069, -0.029750704765319824, -0.730274026851927, -0.04971982388306079, -0.14769386965978776,-0.6651422763259427,-0.8670806884765625,-0.2260894775390625,0.0417938232421875
20220111-1117,2022-01-11 11:18:10Z,u01, 50,40,movements,el-ex, rt, d,75618.11071625, -1.6268370825716445, 0.2566728980579438, 3.0087669343624865, -0.2891973853111267, 0.6762605309486389, 1.2464617490768433, -0.9657214283943176, -0.2538638710975647, 0.054176487028598785, 0.1267322301864624, -0.1229061484336853, 0.03595709800720215, -0.724910769498437, -0.03990763871170311, -0.1380119771494508,-0.6736945806247223,-0.842803955078125,-0.3975372314453125,0.0867156982421875
20220111-1117,2022-01-11 11:18:10Z,u01, 51,40,movements,el-ex, rt, d,75618.13565925001, -1.6066130600830864, 0.22558570172489784, 3.000641340745843, -0.04717192426323891, 0.8052420616149902, 1.2335402965545654, -0.9740380048751831, -0.22367726266384125, 0.03490178659558296, 0.12474924325942993, 0.04365411400794983, -0.05093884840607643, -0.7188108624209446, -0.027601395651920158, -0.12938120192559627,-0.682502367304948,-0.8492889404296875,-0.180023193359375,-0.0160369873046875
20220111-1117,2022-01-11 11:18:10Z,u01, 52,40,movements,el-ex, rt, d,75618.16060225, -1.5874523766409538, 0.19592544957854666, 3.004578443183195, 0.26843515038490295, 0.7714031338691711, 1.1189463138580322, -0.9807317852973938, -0.19467435777187347, 0.016336627304553986, 0.2709997892379761, 0.22984591126441956, -0.07570862770080566, -0.7125828656502792, -0.01984876477430536, -0.11733838726564233,-0.691421199853915,-0.6787261962890625,0.06182861328125,-0.0640411376953125
20220111-1117,2022-01-11 11:18:10Z,u01, 53,40,movements,el-ex, rt, d,75618.18554525, -1.5709655426487648, 0.16778932741173821, 3.006747287048541, -0.17198605835437775, 0.5618932843208313, 1.1335766315460205, -0.9859563708305359, -0.16700312495231628, 0.00016683945432305336, 0.41027283668518066, 0.028804272413253784, 0.033020973205566406, -0.7070699957952571, -0.011637902414084245, -0.10659065628037923,-0.6989671272415263,-0.57568359375,-0.1381988525390625,0.0331878662109375
20220111-1117,2022-01-11 11:18:10Z,u01, 54,40,movements,el-ex, rt, d,75618.21048825, -1.558165418675989, 0.14057485945358483, 2.9924096492370476, -0.9024032950401306, 0.33321526646614075, 1.0432133674621582, -0.9900567531585693, -0.14011232554912567, -0.012505981139838696, 0.3569389581680298, -0.15149842202663422, 0.09261459112167358, -0.7026672440225354, 0.0023986557124253127, -0.10210405916723869,-0.7041504783622965,-0.6540374755859375,-0.2931671142578125,0.090301513671875
20220111-1117,2022-01-11 11:18:10Z,u01, 55,40,movements,el-ex, rt, d,75618.23543125001, -1.5474723485775608, 0.11640634925507325, 2.9727841892114872, -0.3989022374153137, 0.3518807590007782, 0.8484712839126587, -0.9929623007774353, -0.11614363640546799, -0.02316403202712536, 0.3833431005477905, 0.1239713579416275, 0.010575471445918083, -0.6986536381381712, 0.01735159727354607, -0.10070642170200472,-0.7081244726501774,-0.609619140625,0.0078277587890625,-0.0125885009765625
20220111-1117,2022-01-11 11:18:10Z,u01, 56,40,movements,el-ex, rt, d,75618.26037425, -1.5387500121416045, 0.09996070013165659, 2.9724717099994327, 0.1660350263118744, 0.2790176570415497, 0.4679736793041229, -0.9944972395896912, -0.09979431331157684, -0.03188088536262512, 0.5298060178756714, 0.25435054302215576, 0.028829094022512436, -0.6953661203946417, 0.022924130080763272, -0.09522750559996918,-0.7119495722580116,-0.4420013427734375,0.138397216796875,-0.0012359619140625
20220111-1117,2022-01-11 11:18:10Z,u01, 57,40,movements,el-ex, rt, d,75618.28531725, -1.5356182596048547, 0.09141057947905767, 2.9744524515455844, -0.11668206006288528, -0.017785845324397087, 0.22596924006938934, -0.9952088594436646, -0.09128332883119583, -0.035023972392082214, 0.514114499092102, -0.019693851470947266, 0.04211926460266113, -0.6941577312298244, 0.025160643546108197, -0.09161380360502142,-0.713525674563531,-0.4810943603515625,-0.1109771728515625,0.0070953369140625
20220111-1117,2022-01-11 11:18:10Z,u01, 58,40,movements,el-ex, rt, d,75618.31026025, -1.5371596248479091, 0.08927375747457912, 2.9698773093141178, -0.18778184056282043, -0.14022260904312134, -0.07374084740877151, -0.9954542517662048, -0.08915521949529648, -0.0334964320063591, 0.4788375496864319, 0.006177939474582672, 0.02586698904633522, -0.6946155065458866, 0.02758770863716703, -0.09248895253752065,-0.7128772349214838,-0.4976959228515625,-0.0325469970703125,-0.0049285888671875
20220111-1117,2022-01-11 11:18:10Z,u01, 59,40,movements,el-ex, rt, d,75618.33520225, -1.543617783508386, 0.09436547752368446, 2.966526580410458, -0.0909171998500824, -0.3849160075187683, -0.3891744315624237, -0.9951832294464111, -0.09422548860311508, -0.02705429308116436, 0.5422565937042236, 0.03389221429824829, 0.10563695430755615, -0.6969442754596514, 0.027231055598124387, -0.09534941632539806,-0.7102363582370517,-0.4529266357421875,-0.060333251953125,0.078582763671875
20220111-1117,2022-01-11 11:18:10Z,u01, 60,40,movements,el-ex, rt, d,75618.36014525, -1.5557862373809561, 0.10778888689838348, 2.963008800693937, -0.17319689691066742, -0.6107882857322693, -0.7176695466041565, -0.9940844774246216, -0.1075802817940712, -0.01492241770029068, 0.4606372117996216, -0.12430751323699951, 0.058516740798950195, -0.7013914192935937, 0.024266603901667183, -0.10108741183213865,-0.7051543291914503,-0.550628662109375,-0.229736328125,0.0267486572265625
20220111-1117,2022-01-11 11:18:10Z,u01, 61,40,movements,el-ex, rt, d,75618.38508825, -1.5721082221255755, 0.12893462253607338, 2.962087315054165, 0.25951847434043884, -0.6904273629188538, -0.9300394654273987, -0.9916985630989075, -0.12857767939567566, 0.001301005482673645, 0.43185365200042725, 0.13503216207027435, -0.07376503944396973, -0.7073389172363852, 0.017948785200686934, -0.1086064848318749,-0.6982507433448442,-0.559844970703125,0.0064544677734375,-0.0724639892578125
20220111-1117,2022-01-11 11:18:11Z,u01, 62,40,movements,el-ex, rt, d,75618.41003125001, -1.5924612602515122, 0.15393774185235912, 2.9700830570325008, 0.2596539556980133, -0.8866800665855408, -1.0506831407546997, -0.9879430532455444, -0.1533304899930954, 0.021407069638371468, 0.4562200903892517, 0.2310435026884079, -0.021132471039891243, -0.7145963805879738, 0.007453042597424242, -0.11448187276864602,-0.6900654748055725,-0.539703369140625,0.0306854248046875,0.024627685546875
20220111-1117,2022-01-11 11:18:11Z,u01, 63,40,movements,el-ex, rt, d,75618.43497425, -1.6163914235028598, 0.18197336235975367, 2.9717029567670146, -0.2168436497449875, -0.984742283821106, -1.1696224212646484, -0.9824662804603577, -0.180970698595047, 0.04482671245932579, 0.3226916193962097, -0.02741856873035431, 0.035648103803396225, -0.7227802254822944, -0.0014498729479295869, -0.12382684433139945,-0.679892249137297,-0.6597747802734375,-0.2083892822265625,0.080474853515625
20220111-1117,2022-01-11 11:18:11Z,u01, 64,40,movements,el-ex, rt, d,75618.45991725, -1.6396283123499014, 0.21336384899745237, 2.9709958356785524, 0.07744134962558746, -0.8728307485580444, -1.3588792085647583, -0.9750100374221802, -0.2117486596107483, 0.06721806526184082, 0.20860671997070312, -0.1032538115978241, -0.04498600214719772, -0.7304104709246353, -0.010467885469651106, -0.13535860364654606,-0.6693796811681092,-0.7745819091796875,-0.278594970703125,-0.0096588134765625
20220111-1117,2022-01-11 11:18:11Z,u01, 65,40,movements,el-ex, rt, d,75618.48486025, -1.663345093515426, 0.246544012242021, 2.980581615588422, 0.5223081111907959, -0.8496760129928589, -1.2918074131011963, -0.9656116366386414, -0.2440539449453354, 0.08962219208478928, 0.1615954041481018, 0.0658007562160492, 0.0073778703808784485, -0.7377364719910144, -0.023579510635516943, -0.14434254702289023,-0.6590555813139423,-0.80401611328125,-0.178253173828125,0.0970001220703125
20220111-1117,2022-01-11 11:18:11Z,u01, 66,40,movements,el-ex, rt, d,75618.50980325001, -1.685706946176784, 0.2736375094875897, 2.9966507594244085, 0.4502095878124237, -0.6180024147033691, -0.9652414321899414, -0.9564446806907654, -0.2702353894710541, 0.11039196699857712, 0.00782102346420288, -0.011121422052383423, 0.12915563583374023, -0.7441976085711834, -0.03695810985161668, -0.14928074903926092,-0.6500148062958401,-0.9649505615234375,-0.32257080078125,0.2384490966796875
20220111-1117,2022-01-11 11:18:11Z,u01, 67,40,movements,el-ex, rt, d,75618.53474625, -1.701641188271619, 0.29581666410513013, 3.0066944909594966, -0.01647033542394638, -0.5278452634811401, -0.9059807062149048, -0.9483875632286072, -0.2915211319923401, 0.12480469048023224, 0.08399254083633423, 0.07840165495872498, -0.10005499422550201, -0.7484712024993183, -0.046831650347953224, -0.15449848685691692,-0.6432167360878722,-0.8643951416015625,-0.2131195068359375,0.024749755859375
20220111-1117,2022-01-11 11:18:11Z,u01, 68,40,movements,el-ex, rt, d,75618.55968875, -1.7179184866286052, 0.3192739724552139, 3.007254576992238, -0.08047036081552505, -0.6967227458953857, -0.9502466917037964, -0.9392064809799194, -0.31387731432914734, 0.13918374478816986, 0.11851257085800171, 0.18881627917289734, -0.11788250505924225, -0.7528195115671872, -0.05342899695307468, -0.16337320402846237,-0.6353875167262095,-0.8557891845703125,-0.130767822265625,0.0532073974609375
20220111-1117,2022-01-11 11:18:11Z,u01, 69,40,movements,el-ex, rt, d,75618.58463175001, -1.7332317139325732, 0.3402214894836774, 3.0129638761725093, 0.25417360663414, -0.3817391097545624, -0.738354504108429, -0.930271565914154, -0.3336958885192871, 0.15245221555233002, -0.034923017024993896, 0.07847738265991211, 0.060011133551597595, -0.7566327339580818, -0.061098404305160725, -0.16976593460183362,-0.6284531373204585,-0.9651947021484375,-0.255218505859375,0.21246337890625
20220111-1117,2022-01-11 11:18:11Z,u01, 70,40,movements,el-ex, rt, d,75618.60957475001, -1.7456923477566535, 0.3550776694096616, 3.0233676445758353, 0.25000596046447754, -0.41051602363586426, -0.6209055185317993, -0.9233155846595764, -0.34766319394111633, 0.16315114498138428, 0.06688570976257324, -0.026253432035446167, 0.024837002158164978, -0.7595060800278501, -0.06874655013545922, -0.172443234149254,-0.6234481648576564,-0.8379364013671875,-0.393157958984375,0.17999267578125
20220111-1117,2022-01-11 11:18:11Z,u01, 71,40,movements,el-ex, rt, d,75618.63451775, -1.7601951591661855, 0.36973306390937805, 3.0313806602864086, 0.10649154335260391, -0.47021713852882385, -0.6360123157501221, -0.9157499670982361, -0.36136654019355774, 0.1755460649728775, 0.016473114490509033, -0.02646613121032715, 0.020575061440467834, -0.7629670000759241, -0.0751956893166486, -0.17596103267729862,-0.6174664109568171,-0.8992767333984375,-0.3878326416015625,0.1961212158203125
20220111-1117,2022-01-11 11:18:11Z,u01, 72,40,movements,el-ex, rt, d,75618.65946075, -1.7722978689678446, 0.38466014250137304, 3.034582002747079, 0.0568094402551651, -0.4052208960056305, -0.5251615047454834, -0.9081716537475586, -0.375244140625, 0.1855156421661377, -0.039841651916503906, 0.10827633738517761, 0.0660102367401123, -0.7657354252846938, -0.08004421322579741, -0.18105526026051053,-0.6119323202028855,-0.9555511474609375,-0.2810821533203125,0.238372802734375
20220111-1117,2022-01-11 11:18:11Z,u01, 73,40,movements,el-ex, rt, d,75618.68440375, -1.7845312267132067, 0.3936904538802437, 3.044567678671594, 0.4461946189403534, -0.28064197301864624, -0.36004549264907837, -0.9024858474731445, -0.3835991621017456, 0.19588467478752136, -0.0872601866722107, 0.051918864250183105, -0.06526948511600494, -0.7685163241356125, -0.08558621737744421, -0.18192545326719742,-0.6074213500211628,-0.98974609375,-0.3316802978515625,0.130615234375
20220111-1117,2022-01-11 11:18:11Z,u01, 74,40,movements,el-ex, rt, d,75618.70934675001, -1.7954126875169953, 0.39852998511283744, 3.056887525237308, 0.23890048265457153, -0.22967159748077393, -0.20590507984161377, -0.8984805345535278, -0.3880639374256134, 0.20527735352516174, -0.05566662549972534, 0.04979190230369568, -0.055314093828201294, -0.7709646854137304, -0.09084124207000616, -0.18050991234060454,-0.6039680359037756,-0.9412689208984375,-0.3427276611328125,0.1673431396484375
20220111-1117,2022-01-11 11:18:11Z,u01, 75,40,movements,el-ex, rt, d,75618.73428975, -1.8011994920656884, 0.403302562893546, 3.0560477892142646, -0.34491193294525146, -0.23945732414722443, -0.13613790273666382, -0.8954644203186035, -0.39245808124542236, 0.2100479006767273, -0.09022283554077148, 0.015718579292297363, 0.09007716178894043, -0.7724369135426233, -0.09146126149731826, -0.18284301029836425,-0.6012856814392319,-0.985687255859375,-0.376739501953125,0.3001251220703125
20220111-1117,2022-01-11 11:18:11Z,u01, 76,40,movements,el-ex, rt, d,75618.75923275, -1.800817013964494, 0.4066628005805724, 3.0476600971202314, -0.11699032038450241, -0.0011711819097399712, 0.0027398765087127686, -0.8942556381225586, -0.39554649591445923, 0.20940354466438293, -0.1755380630493164, -0.09400126338005066, 0.1120837926864624, -0.772482376491183, -0.08929024764274374, -0.18662454898628753,-0.6003911488622375,-1.06829833984375,-0.5166168212890625,0.2834014892578125
20220111-1117,2022-01-11 11:18:11Z,u01, 77,40,movements,el-ex, rt, d,75618.78417475, -1.8003837227089712, 0.40510171951441776, 3.051437394669341, 0.3601323962211609, 0.10650967061519623, 0.050015710294246674, -0.8949464559555054, -0.3941122591495514, 0.20915630459785461, -0.11155378818511963, -0.09879240393638611, -0.04097402095794678, -0.7722839056695938, -0.09030902907052879, -0.18487668001327623,-0.6010344761938966,-1.006500244140625,-0.4929046630859375,0.168182373046875
20220111-1117,2022-01-11 11:18:11Z,u01, 78,40,movements,el-ex, rt, d,75618.80911775, -1.8008218501977755, 0.4011870588032247, 3.0611879386656633, 0.22617138922214508, 0.16810671985149384, 0.07666277140378952, -0.8963501453399658, -0.3905114233493805, 0.20989857614040375, -0.11077570915222168, -0.028876394033432007, -0.01763784885406494, -0.7722252334245068, -0.09283035037872, -0.18047320688919904,-0.6020632915689113,-1.0166778564453125,-0.386138916015625,0.222900390625
20220111-1117,2022-01-11 11:18:11Z,u01, 79,40,movements,el-ex, rt, d,75618.83406075, -1.79560682003095, 0.39639960423251536, 3.060323268784807, -0.10828674584627151, 0.2653597891330719, 0.31631985306739807, -0.8992447257041931, -0.386099636554718, 0.20563563704490662, -0.13798671960830688, -0.022866368293762207, 0.019996032118797302, -0.7710040215316516, -0.091491063584902, -0.17867050074669677,-0.6043666334341286,-1.0372314453125,-0.408966064453125,0.2256317138671875
20220111-1117,2022-01-11 11:18:11Z,u01, 80,40,movements,el-ex, rt, d,75618.85900375001, -1.7861575843918884, 0.38920781980280517, 3.054279034478625, -0.11010009050369263, 0.2783309817314148, 0.33803364634513855, -0.9038369059562683, -0.3794555962085724, 0.19771769642829895, -0.08026343584060669, -0.013320863246917725, -0.026483654975891113, -0.768865167153661, -0.0877792751992153, -0.17734733907370498,-0.6080206177385361,-0.9722747802734375,-0.394317626953125,0.1512451171875
20220111-1117,2022-01-11 11:18:11Z,u01, 81,40,movements,el-ex, rt, d,75618.88394675001, -1.7783148528084112, 0.3813341770161142, 3.053838402681043, 0.2227335274219513, 0.3508368730545044, 0.29496288299560547, -0.9082552790641785, -0.3721591532230377, 0.19123278558254242, -0.07447177171707153, 4.303455352783203e-05, -0.07554066181182861, -0.7669723847212502, -0.08584726761400646, -0.17415953888335334,-0.611597964229678,-0.98272705078125,-0.3721160888671875,0.115692138671875
20220111-1117,2022-01-11 11:18:11Z,u01, 82,40,movements,el-ex, rt, d,75618.90888975, -1.7714228180232736, 0.37289808199844854, 3.0596245509611983, 0.2272409349679947, 0.3401229679584503, 0.2745065987110138, -0.9125959277153015, -0.36431586742401123, 0.18558765947818756, -0.053605854511260986, 0.005444377660751343, -0.04577147960662842, -0.7651112829996393, -0.08601484549171068, -0.1688996869915353,-0.6153691125569138,-0.9626617431640625,-0.3548431396484375,0.1446990966796875
20220111-1117,2022-01-11 11:18:11Z,u01, 83,40,movements,el-ex, rt, d,75618.93383275, -1.763646558843363, 0.3653332220619799, 3.0599250949287775, -0.12059960514307022, 0.29992547631263733, 0.32210928201675415, -0.9166901111602783, -0.3572605550289154, 0.1790086030960083, -0.0711027979850769, 0.06171309947967529, -0.006050243973731995, -0.7631386774234936, -0.08440178985934527, -0.16562139772946685,-0.6189226356528044,-0.98779296875,-0.2955474853515625,0.1729583740234375
20220111-1117,2022-01-11 11:18:11Z,u01, 84,40,movements,el-ex, rt, d,75618.95877575, -1.7544592652361053, 0.3570982446450261, 3.053837002152551, -0.09960120916366577, 0.2899634540081024, 0.4104357361793518, -0.9211574792861938, -0.3495570123195648, 0.17111080884933472, -0.10740697383880615, 0.06557568907737732, -0.003981351852416992, -0.7609978547560141, -0.08023507636123928, -0.16403485751976477,-0.6225248702654667,-1.043853759765625,-0.29278564453125,0.163360595703125
20220111-1117,2022-01-11 11:18:11Z,u01, 85,40,movements,el-ex, rt, d,75618.98371875001, -1.7459470720684955, 0.34661911281204316, 3.05138939877534, 0.04520564526319504, 0.3077235519886017, 0.4747087359428406, -0.9261370301246643, -0.3397199511528015, 0.1638929843902588, -0.13094627857208252, -0.014161944389343262, -0.035780176520347595, -0.7589924439178415, -0.07666134577111505, -0.16053534193734775,-0.6263242356265558,-1.0570831298828125,-0.3538818359375,0.12811279296875
20220111-1117,2022-01-11 11:18:11Z,u01, 86,40,movements,el-ex, rt, d,75619.00866175, -1.7398815258453886, 0.33303419479968627, 3.0511782442630886, 0.20061880350112915, 0.21810656785964966, 0.5872605443000793, -0.9315776228904724, -0.3269120156764984, 0.15903447568416595, -0.13168543577194214, -0.11353296041488647, -0.032432302832603455, -0.7577794483384052, -0.07271548890661089, -0.1552905334338009,-0.629577418698732,-1.07684326171875,-0.468505859375,0.1274871826171875
20220111-1117,2022-01-11 11:18:11Z,u01, 87,40,movements,el-ex, rt, d,75619.03360475, -1.734272184265494, 0.3206156332209262, 3.049413817822556, -0.13319209218025208, 0.1514824777841568, 0.5379683375358582, -0.9363886713981628, -0.3151508867740631, 0.154455304145813, -0.24006402492523193, -0.09779775142669678, 0.1461123377084732, -0.7566617311612475, -0.06848851590146948, -0.15100692151574896,-0.6324313162791887,-1.17645263671875,-0.4129486083984375,0.300567626953125
20220111-1117,2022-01-11 11:18:11Z,u01, 88,40,movements,el-ex, rt, d,75619.05854775, -1.729057327288322, 0.30887783958264853, 3.0429952990464484, -0.11616231501102448, 0.09302143007516861, 0.4662034809589386, -0.9407695531845093, -0.3039897680282593, 0.15014274418354034, -0.2934986352920532, -0.07183420658111572, 0.16670596599578857, -0.7557408487048342, -0.06266690719176321, -0.14848798024904059,-0.6347282217446266,-1.2450714111328125,-0.3883514404296875,0.3066864013671875
20220111-1117,2022-01-11 11:18:11Z,u01, 89,40,movements,el-ex, rt, d,75619.08349075001, -1.728225783494646, 0.2984167335513607, 3.0436192804786715, 0.30383604764938354, 0.004174647852778435, 0.32440054416656494, -0.9439831376075745, -0.294007271528244, 0.1498507708311081, -0.3688371181488037, -0.1904744803905487, 0.04564473032951355, -0.7558937806470635, -0.05958170271085589, -0.1443614756342,-0.6357941955913828,-1.3128204345703125,-0.4844818115234375,0.19549560546875
20220111-1117,2022-01-11 11:18:11Z,u01, 90,40,movements,el-ex, rt, d,75619.10843375, -1.7313303698643423, 0.2917835438079183, 3.050636783204915, 0.22993674874305725, -0.09460392594337463, 0.11555804312229156, -0.9454179406166077, -0.2876608371734619, 0.15308912098407745, -0.4159865379333496, -0.22468355298042297, 0.07678450644016266, -0.7569411562862047, -0.05987194471130047, -0.13974489295996884,-0.6355524107406021,-1.36810302734375,-0.5144805908203125,0.24072265625
20220111-1117,2022-01-11 11:18:11Z,u01, 91,40,movements,el-ex, rt, d,75619.13337675, -1.7360327457766265, 0.29054794309482684, 3.0538346168117125, -0.0006825183518230915, -0.1887400895357132, -0.08597487956285477, -0.9450374245643616, -0.2864772379398346, 0.15759146213531494, -0.43475377559661865, -0.2016666829586029, 0.142899751663208, -0.7583881803111467, -0.06035810402755798, -0.13840831822920086,-0.6340721042814796,-1.379791259765625,-0.4881439208984375,0.3004913330078125
20220111-1117,2022-01-11 11:18:11Z,u01, 92,40,movements,el-ex, rt, d,75619.15831975, -1.741198578063243, 0.29505776101643644, 3.051185558048055, -0.11696794629096985, -0.29509735107421875, -0.2571154236793518, -0.9429280757904053, -0.29079511761665344, 0.16225053369998932, -0.5079083442687988, -0.26048973202705383, 0.23711781203746796, -0.759915883855965, -0.060441022771650976, -0.1410954733736925,-0.631638325162495,-1.473052978515625,-0.5617218017578125,0.3808135986328125
20220111-1117,2022-01-11 11:18:11Z,u01, 93,40,movements,el-ex, rt, d,75619.18326275001, -1.7492706049094247, 0.3044370476468964, 3.055295602766762, 0.2931506335735321, -0.25831368565559387, -0.49634602665901184, -0.9388620853424072, -0.29975616931915283, 0.1693648248910904, -0.5445212125778198, -0.12837499380111694, 0.07390595972537994, -0.7619258150488857, -0.06443186636272419, -0.14358163882912633,-0.6282531257885571,-1.4833831787109375,-0.428131103515625,0.2432708740234375
20220111-1117,2022-01-11 11:18:11Z,u01, 94,40,movements,el-ex, rt, d,75619.20820475, -1.7596879083710115, 0.3179729363854479, 3.0652280821588698, 0.1631632149219513, -0.35300132632255554, -0.6919258832931519, -0.9329755902290344, -0.31264176964759827, 0.1783575564622879, -0.442207396030426, -0.12751325964927673, -0.030057445168495178, -0.7642170446937419, -0.07177108999802467, -0.14593659021038827,-0.6241182606912015,-1.3556976318359375,-0.458251953125,0.161285400390625
20220111-1117,2022-01-11 11:18:11Z,u01, 95,40,movements,el-ex, rt, d,75619.23314775, -1.7705949996641963, 0.33528043764274995, 3.069766593202294, -0.006830492056906223, -0.4193291962146759, -0.7402105927467346, -0.9255322813987732, -0.3290340006351471, 0.18742069602012634, -0.39986133575439453, -0.2104862928390503, 0.11963188648223877, -0.7665519187808009, -0.07815691665514962, -0.15149213771131229,-0.6191443547138912,-1.3253936767578125,-0.539520263671875,0.3070526123046875
20220111-1117,2022-01-11 11:18:11Z,u01, 96,40,movements,el-ex, rt, d,75619.25809075001, -1.7831920681354017, 0.35406254308755075, 3.0751336861269216, 0.10531165450811386, -0.389824241399765, -0.7990927696228027, -0.9168944954872131, -0.3467112183570862, 0.1977267563343048, -0.40146487951278687, -0.1006917655467987, 0.10396993160247803, -0.769167209363196, -0.08511861558075035, -0.15749343688252637,-0.6134594298444478,-1.3120269775390625,-0.4210662841796875,0.29193115234375
20220111-1117,2022-01-11 11:18:11Z,u01, 97,40,movements,el-ex, rt, d,75619.28303375, -1.7946322295362034, 0.3716150287685294, 3.0829901657699557, 0.11197984963655472, -0.3259642422199249, -0.7039834856987, -0.9084980487823486, -0.3631207048892975, 0.20682014524936676, -0.2575785517692566, -0.060219138860702515, 0.01322685182094574, -0.7712474049475814, -0.09266883518291574, -0.16229960834524887,-0.6084806798756052,-1.16607666015625,-0.42333984375,0.2200469970703125
20220111-1117,2022-01-11 11:18:11Z,u01, 98,40,movements,el-ex, rt, d,75619.30797675, -1.8042132348142754, 0.38685817426722063, 3.0869537593456613, -0.059387341141700745, -0.32959088683128357, -0.5386599898338318, -0.9009848237037659, -0.37728065252304077, 0.21420958638191223, -0.19789206981658936, -0.08254295587539673, 0.029549598693847656, -0.7729698684014116, -0.09809372492179336, -0.16738922920651214,-0.6040497470098216,-1.094390869140625,-0.460296630859375,0.2371826171875
20220111-1117,2022-01-11 11:18:11Z,u01, 99,40,movements,el-ex, rt, d,75619.33291975, -1.8117255336637532, 0.39712964465446104, 3.0897735345998467, 0.0572742260992527, -0.1997043788433075, -0.3457239866256714, -0.8955392837524414, -0.3867729604244232, 0.2200355976819992, -0.16485482454299927, -0.06075197458267212, 0.014629200100898743, -0.7743888109982411, -0.10168465021025375, -0.1708557202840314,-0.6006582752492104,-1.060394287109375,-0.4475250244140625,0.2346649169921875
20220111-1117,2022-01-11 11:18:11Z,u01, 100,40,movements,el-ex, rt, d,75619.35786275001, -1.815502544246227, 0.403739783422832, 3.09063734054337, -0.11420571804046631, -0.08405887335538864, -0.14699022471904755, -0.8922020196914673, -0.39286017417907715, 0.22279225289821625, -0.12970960140228271, 0.04041266441345215, 0.05497872829437256, -0.7750108507513025, -0.10370299156590979, -0.17333024486009468,-0.5987992090947412,-1.0031585693359375,-0.35595703125,0.2795867919921875
20220111-1117,2022-01-11 11:18:11Z,u01, 101,40,movements,el-ex, rt, d,75619.38280575, -1.8144297019567952, 0.40620290265999787, 3.0859720146254745, -0.24349838495254517, 0.05811385065317154, 0.044330596923828125, -0.8914988040924072, -0.39512407779693604, 0.22160084545612335, -0.05228781700134277, 0.027585625648498535, 0.029589295387268066, -0.7747551720887677, -0.10273679380965539, -0.17561766064351506,-0.5986301470310826,-0.94378662109375,-0.3675384521484375,0.251190185546875
20220111-1117,2022-01-11 11:18:12Z,u01, 102,40,movements,el-ex, rt, d,75619.40774875, -1.8089179924715577, 0.40475127978284664, 3.078567178385994, -0.22224436700344086, 0.136280819773674, 0.17143554985523224, -0.8932629823684692, -0.3937901556491852, 0.21681886911392212, 0.006452739238739014, -0.01886850595474243, 0.02220998704433441, -0.7735803313063614, -0.09991448620406967, -0.17700119949256984,-0.6002175475478119,-0.8861846923828125,-0.416351318359375,0.2353515625
20220111-1117,2022-01-11 11:18:12Z,u01, 103,40,movements,el-ex, rt, d,75619.43269175, -1.8017446654908453, 0.40066703281307503, 3.0732888213807326, -0.12107887119054794, 0.31562021374702454, 0.24255552887916565, -0.8963534832000732, -0.3900326192378998, 0.2107720673084259, -0.06429404020309448, 0.014880061149597168, 0.03390251100063324, -0.7719627958875779, -0.09725981966757546, -0.17667363915374212,-0.6028269487632373,-0.9606475830078125,-0.375152587890625,0.2446746826171875
20220111-1117,2022-01-11 11:18:12Z,u01, 104,40,movements,el-ex, rt, d,75619.45763475001, -1.7885523119572901, 0.39431136584028165, 3.067210400828398, -0.22878746688365936, 0.5494263768196106, 0.34948286414146423, -0.901458203792572, -0.3841724991798401, 0.19946058094501495, -0.0639348030090332, -0.006071001291275024, 0.045809149742126465, -0.768681644018961, -0.09412132694289205, -0.175462119482621,-0.6078509166641328,-0.9476165771484375,-0.36761474609375,0.232818603515625
20220111-1117,2022-01-11 11:18:12Z,u01, 105,40,movements,el-ex, rt, d,75619.48257775001, -1.7713619685447486, 0.3851755202772447, 3.0613255507281467, -0.01798444241285324, 0.6815028190612793, 0.4504394829273224, -0.9081552028656006, -0.37572181224823, 0.18462704122066498, 0.03371983766555786, 0.08939066529273987, -0.029338374733924866, -0.7642774051294156, -0.09051831981812741, -0.17300888285603905,-0.6146172564624683,-0.8744354248046875,-0.2863311767578125,0.1552886962890625
20220111-1117,2022-01-11 11:18:12Z,u01, 106,40,movements,el-ex, rt, d,75619.50752075, -1.752330417857144, 0.37282600022719814, 3.0579492162769215, -0.15962550044059753, 0.728676438331604, 0.5805862545967102, -0.9159982800483704, -0.36424875259399414, 0.16813592612743378, 0.04478263854980469, 0.050299257040023804, 0.03440912067890167, -0.7592793683775851, -0.08696440357221763, -0.16856541006233566,-0.6225091023254212,-0.8836517333984375,-0.3246002197265625,0.2333831787109375
20220111-1117,2022-01-11 11:18:12Z,u01, 107,40,movements,el-ex, rt, d,75619.53246375, -1.729587353481654, 0.35666923271291734, 3.0479899762079183, -0.32243841886520386, 0.807227611541748, 0.8009094595909119, -0.9252759218215942, -0.3491550385951996, 0.148172989487648, 0.014646649360656738, 0.024936288595199585, 0.09012353420257568, -0.7534573422908266, -0.07992825375591328, -0.164711881925989,-0.631493071012017,-0.9106292724609375,-0.32421875,0.2382965087890625
20220111-1117,2022-01-11 11:18:12Z,u01, 108,40,movements,el-ex, rt, d,75619.557407375, -1.7052916243351528, 0.33644536250335916, 3.0369726526580503, -0.25043952465057373, 0.8357176780700684, 0.8903257846832275, -0.9354096055030823, -0.330133855342865, 0.12657229602336884, 0.09295660257339478, 0.0952858030796051, -0.014130353927612305, -0.7471389776884024, -0.07120040955056939, -0.15982490867913196,-0.6412252686023684,-0.826019287109375,-0.2129974365234375,0.0821075439453125
20220111-1117,2022-01-11 11:18:12Z,u01, 109,40,movements,el-ex, rt, d,75619.582350375, -1.681544881914238, 0.31527378904939346, 3.02950272984203, -0.17639152705669403, 0.8517352938652039, 0.8459375500679016, -0.9448872208595276, -0.3100767731666565, 0.10507483780384064, 0.1448993682861328, 0.13505849242210388, -0.04381084442138672, -0.7406281383226895, -0.06330385966811775, -0.1536878522431236,-0.6510320373984131,-0.79998779296875,-0.175018310546875,0.0612640380859375
20220111-1117,2022-01-11 11:18:12Z,u01, 110,40,movements,el-ex, rt, d,75619.607292375, -1.6564601089985047, 0.29411652890005074, 3.0210849783060985, -0.31847119331359863, 0.9144119620323181, 0.9140198230743408, -0.9535492062568665, -0.2898944318294525, 0.08188502490520477, 0.11466675996780396, 0.037437766790390015, 0.05782437324523926, -0.7334274983098045, -0.055014702669028026, -0.14803543642948935,-0.6611678932674818,-0.8350677490234375,-0.266448974609375,0.1360626220703125
20220111-1117,2022-01-11 11:18:12Z,u01, 111,40,movements,el-ex, rt, d,75619.632235375, -1.630866171590067, 0.2720626804252964, 3.0098866978659684, -0.32578912377357483, 0.9065554141998291, 0.8428583741188049, -0.9614813923835754, -0.26871880888938904, 0.05782560631632805, 0.13541626930236816, 0.044277310371398926, -0.0028634071350097656, -0.7258515523788951, -0.045302617161751324, -0.1432110815460283,-0.6712509266738051,-0.8260650634765625,-0.2244415283203125,0.054962158203125
20220111-1117,2022-01-11 11:18:12Z,u01, 112,40,movements,el-ex, rt, d,75619.65717837501, -1.605880993048264, 0.2518019013526727, 3.0077528825457835, 0.16707631945610046, 1.0079375505447388, 0.766270637512207, -0.9678691625595093, -0.24914944171905518, 0.033971305936574936, 0.24129128456115723, 0.2069740891456604, -0.14584875106811523, -0.7179423980073895, -0.03929842442853304, -0.1362119179523243,-0.6815135724491248,-0.67633056640625,0.0075531005859375,-0.128173828125
20220111-1117,2022-01-11 11:18:12Z,u01, 113,40,movements,el-ex, rt, d,75619.68212137501, -1.5847147694183643, 0.23545155622555772, 3.0080991545052775, -0.21004053950309753, 0.6350382566452026, 0.6199694871902466, -0.9723148345947266, -0.23328210413455963, 0.013533982448279858, 0.4022008180618286, 0.10138514637947083, -0.017653943970799446, -0.7110084239389233, -0.035128509942387864, -0.1299508194508769,-0.6901780361438317,-0.5701141357421875,-0.13189697265625,-0.004119873046875
20220111-1117,2022-01-11 11:18:12Z,u01, 114,40,movements,el-ex, rt, d,75619.707064375, -1.5666940744973052, 0.2186035914508138, 2.9979099349140763, -0.42608851194381714, 0.6739041805267334, 0.8244441151618958, -0.9761929512023926, -0.2168666571378708, -0.004004612099379301, 0.10737282037734985, -0.2685917019844055, 0.15392214059829712, -0.7051825829601794, -0.02674356988262755, -0.12733362779684515,-0.696985224521564,-0.906402587890625,-0.511749267578125,0.1381378173828125
20220111-1117,2022-01-11 11:18:12Z,u01, 115,40,movements,el-ex, rt, d,75619.732007375, -1.5470568697633817, 0.19596082580545945, 2.9957316241163294, 0.43272143602371216, 0.7674141526222229, 0.9037224650382996, -0.9805846214294434, -0.19470906257629395, -0.023282920941710472, 0.26387935876846313, 0.14624716341495514, -0.03297626972198486, -0.6985644582244664, -0.019137331736900798, -0.12004608001991168,-0.7051456274644243,-0.716705322265625,-0.0484619140625,-0.0562591552734375
20220111-1117,2022-01-11 11:18:12Z,u01, 116,40,movements,el-ex, rt, d,75619.756950375, -1.5350167467384355, 0.17600517320694017, 3.0088278812615044, 0.4139876067638397, 0.40711045265197754, 0.7796698212623596, -0.9839208722114563, -0.17509786784648895, -0.035219307988882065, 0.4212378263473511, 0.30180683732032776, 0.0003071427345275879, -0.6943295319779379, -0.017229269676087233, -0.10844265915148316,-0.7112312104188176,-0.566802978515625,0.05194091796875,-0.03680419921875
20220111-1117,2022-01-11 11:18:12Z,u01, 117,40,movements,el-ex, rt, d,75619.78189337501, -1.5272503244338471, 0.1574635854440462, 3.0080818225700967, -0.6083232164382935, 0.20157267153263092, 0.755206823348999, -0.9866918921470642, -0.15681368112564087, -0.04299366474151611, 0.3057074546813965, -0.17945952713489532, 0.1461125612258911, -0.6916565012545786, -0.010698199514560414, -0.10230378909084015,-0.714864098996809,-0.6809844970703125,-0.336273193359375,0.103118896484375
20220111-1117,2022-01-11 11:18:12Z,u01, 118,40,movements,el-ex, rt, d,75619.806836375, -1.5197690327061897, 0.1359712665580497, 2.991544451884863, -0.6588709354400635, 0.2580653727054596, 0.8266936540603638, -0.9894806146621704, -0.13555267453193665, -0.050534386187791824, 0.1869903802871704, -0.31317779421806335, 0.08703339099884033, -0.689004373305981, 0.002404334253137852, -0.10087298338868039,-0.7176990270909731,-0.8109283447265625,-0.35296630859375,-0.0089111328125
20220111-1117,2022-01-11 11:18:12Z,u01, 119,40,movements,el-ex, rt, d,75619.831779375, -1.5130850392107396, 0.11629914882439371, 2.986557457653364, 0.10530070960521698, 0.21362267434597015, 0.6745649576187134, -0.9915912747383118, -0.11603716015815735, -0.05728962644934654, 0.36117446422576904, 0.16700151562690735, -0.15346485376358032, -0.6864661203593814, 0.01092941474325404, -0.09599246312230664,-0.7207151066128313,-0.6304168701171875,0.05096435546875,-0.21075439453125
20220111-1117,2022-01-11 11:18:12Z,u01, 120,40,movements,el-ex, rt, d,75619.856722375, -1.5103592698876305, 0.10247174010541006, 2.9888664625028554, -0.04268396645784378, 0.01756262592971325, 0.4333035945892334, -0.9929381608963013, -0.102292500436306, -0.060083433985710144, 0.39834892749786377, 0.1611456274986267, -0.04521751403808594, -0.6853700557077486, 0.015038957337463299, -0.09047714959697395,-0.7223957337785758,-0.586456298828125,0.020904541015625,-0.08740234375
20220111-1117,2022-01-11 11:18:12Z,u01, 121,40,movements,el-ex, rt, d,75619.88166537501, -1.5128911389075326, 0.09646413832134915, 2.9840410018455192, -0.3306749165058136, -0.2701350152492523, 0.03602859005331993, -0.9936828017234802, -0.09631460160017014, -0.057603783905506134, 0.4564054608345032, 0.05664174258708954, -0.004148609936237335, -0.686175920463695, 0.018992463104111346, -0.09015448449035424,-0.7215775490044282,-0.5372772216796875,-0.0396728515625,-0.0617523193359375
20220111-1117,2022-01-11 11:18:12Z,u01, 122,40,movements,el-ex, rt, d,75619.90660837501, -1.5196601060038242, 0.09756197249722659, 2.9746491950034026, -0.3907126784324646, -0.2832481265068054, -0.1604170948266983, -0.9939437508583069, -0.0974072739481926, -0.050870876759290695, 0.3583999276161194, -0.1304064393043518, 0.12354838848114014, -0.6885308118390173, 0.02213330619473003, -0.09384094231919721,-0.7187693806697906,-0.6622161865234375,-0.276123046875,0.0977325439453125
20220111-1117,2022-01-11 11:18:12Z,u01, 123,40,movements,el-ex, rt, d,75619.931551375, -1.5267922811457544, 0.10292319635347433, 2.9632312279816277, -0.38651204109191895, -0.4219026267528534, -0.341889351606369, -0.9937452077865601, -0.10274157673120499, -0.04375705495476723, 0.37603890895843506, -0.03516736626625061, 0.01731353998184204, -0.6910298844637421, 0.0244779653917509, -0.09968425115819862,-0.7155009423887357,-0.617706298828125,-0.137908935546875,-0.0264434814453125
20220111-1117,2022-01-11 11:18:12Z,u01, 124,40,movements,el-ex, rt, d,75619.956494375, -1.539002557209413, 0.11519351422203229, 2.9628996499609475, 0.39860227704048157, -0.5543039441108704, -0.6308515071868896, -0.9928703904151917, -0.11493892222642899, -0.03157773241400719, 0.410320520401001, 0.21801204979419708, -0.1153186559677124, -0.6955419273895601, 0.020798091268906804, -0.10387477863825695,-0.7106326450208278,-0.570220947265625,0.1485748291015625,-0.15966796875
20220111-1117,2022-01-11 11:18:12Z,u01, 125,40,movements,el-ex, rt, d,75619.981436375, -1.5568153235512128, 0.13242523750975047, 2.9719934185766985, 0.12259873002767563, -0.8247896432876587, -0.6941872239112854, -0.9911477565765381, -0.13203853368759155, -0.01385814230889082, 0.4550149440765381, 0.08861204981803894, 0.03067326545715332, -0.7020806299266007, 0.012398298076951475, -0.10646565704665184,-0.7039844864419784,-0.5361328125,-0.043426513671875,0.016815185546875
20220111-1117,2022-01-11 11:18:12Z,u01, 126,40,movements,el-ex, rt, d,75620.006379375, -1.5775676875201667, 0.15166802691881848, 2.9653982744522462, -0.46398892998695374, -0.8878976106643677, -0.8207386136054993, -0.9884977340698242, -0.15108722448349, 0.00669357692822814, 0.2603330612182617, -0.3100333511829376, 0.15031933784484863, -0.709411497051363, 0.009061806073709378, -0.11536835901782966,-0.6952289572526139,-0.7554779052734375,-0.4756622314453125,0.132720947265625
20220111-1117,2022-01-11 11:18:12Z,u01, 127,40,movements,el-ex, rt, d,75620.031322375, -1.599345572997516, 0.174172773196066, 2.9610591193515936, 0.5126762986183167, -0.8782926201820374, -0.9736692309379578, -0.9844690561294556, -0.17329348623752594, 0.028113488107919693, 0.293612003326416, 0.27627503871917725, -0.2005988359451294, -0.7169661835874179, 0.004029363077640291, -0.1247064200826466,-0.6858511031391699,-0.69085693359375,0.1029815673828125,-0.1724853515625
20220111-1117,2022-01-11 11:18:12Z,u01, 128,40,movements,el-ex, rt, d,75620.05626537501, -1.6248360448046597, 0.2010709651370829, 2.985120230199745, 0.938011646270752, -0.8836374282836914, -1.2585148811340332, -0.9784227013587952, -0.19971883296966553, 0.052925217896699905, 0.426985502243042, 0.5682949423789978, -0.29497551918029785, -0.7254720825617095, -0.01236389092928497, -0.12611847870828796,-0.67648457501934,-0.5151519775390625,0.356414794921875,-0.223785400390625
20220111-1117,2022-01-11 11:18:12Z,u01, 129,40,movements,el-ex, rt, d,75620.081208375, -1.6510229337455964, 0.23300005567057416, 2.997487154112825, -0.475851446390152, -1.027002215385437, -1.3527737855911255, -0.9698486328125, -0.23089754581451416, 0.07797502726316452, 0.4053802490234375, 0.06454622745513916, 0.04444622993469238, -0.7336943778766091, -0.026078221477611796, -0.13369169101575445,-0.6656869315747773,-0.5644683837890625,-0.166351318359375,0.1224212646484375
20220111-1117,2022-01-11 11:18:12Z,u01, 130,40,movements,el-ex, rt, d,75620.106151375, -1.6758946384701878, 0.2676684128197635, 2.9827979038606682, -0.5723575353622437, -1.1955360174179077, -1.3001675605773926, -0.9590687155723572, -0.26448360085487366, 0.10116926580667496, 0.2367483377456665, -0.2614409923553467, 0.14300177991390228, -0.7413842928983825, -0.030560840991203153, -0.1514517737635998,-0.6530524708766923,-0.777099609375,-0.5227813720703125,0.2203369140625
20220111-1117,2022-01-11 11:18:12Z,u01, 131,40,movements,el-ex, rt, d,75620.131094375, -1.7030221762693207, 0.2988979343863632, 2.9815844413906722, 0.5371818542480469, -1.0203913450241089, -1.1203484535217285, -0.9473193883895874, -0.29446718096733093, 0.12599524855613708, 0.06237077713012695, 0.2313111126422882, -0.10972942411899567, -0.7493518468740877, -0.03833323110953951, -0.16371802157839063,-0.6404675372334496,-0.88494873046875,-0.0631561279296875,0.016265869140625
20220111-1117,2022-01-11 11:18:12Z,u01, 132,40,movements,el-ex, rt, d,75620.15603737501, -1.734999574421274, 0.32048172965529786, 3.012814936934071, 1.1848746538162231, -0.8509146571159363, -0.9302178621292114, -0.9363176226615906, -0.315023809671402, 0.15514327585697174, 0.15006273984909058, 0.2778686583042145, -0.09848737716674805, -0.7580225715667169, -0.054529031772833914, -0.16252413160653584,-0.6292966916350304,-0.760284423828125,-0.1320953369140625,0.0831146240234375
20220111-1117,2022-01-11 11:18:12Z,u01, 133,40,movements,el-ex, rt, d,75620.18098037501, -1.7632096284453453, 0.3381565297680832, 3.0301309906855662, -0.14422832429409027, -0.9877029657363892, -0.7634824514389038, -0.9259586334228516, -0.3317485749721527, 0.18039856851100922, 0.14913368225097656, -0.1829456388950348, 0.04912412166595459, -0.7655347364950245, -0.06446586771467772, -0.16458198673342492,-0.618638462810359,-0.776824951171875,-0.5146942138671875,0.229522705078125
20220111-1117,2022-01-11 11:18:12Z,u01, 134,40,movements,el-ex, rt, d,75620.205923375, -1.7859124017721089, 0.3583596492623975, 3.022130778972983, -0.5832884907722473, -0.9562236666679382, -0.6515684127807617, -0.914889395236969, -0.3507385551929474, 0.19990041851997375, -0.06741058826446533, -0.004699677228927612, 0.04762771725654602, -0.7717635470625186, -0.06581215115726691, -0.17541155445975165,-0.6076846953021902,-1.053131103515625,-0.2566375732421875,0.2453765869140625
20220111-1117,2022-01-11 11:18:12Z,u01, 135,40,movements,el-ex, rt, d,75620.230866375, -1.8028542216784966, 0.3720288918570331, 3.022871564001142, 0.4375329315662384, -0.39703357219696045, -0.4529570937156677, -0.9066205620765686, -0.3635062873363495, 0.2142481505870819, -0.2350420355796814, 0.2548026740550995, -0.029067516326904297, -0.7761354118354726, -0.06883237403978171, -0.18095580509251777,-0.6001090495805514,-1.14166259765625,-0.10870361328125,0.1851806640625
20220111-1117,2022-01-11 11:18:12Z,u01, 136,40,movements,el-ex, rt, d,75620.255809375, -1.8176308648020854, 0.3785532232080973, 3.0384939916799634, 0.253269225358963, -0.3865486979484558, -0.37605005502700806, -0.9010369181632996, -0.36957651376724243, 0.22703678905963898, -0.017465829849243164, 0.005456000566482544, -0.04835641384124756, -0.7796191200085825, -0.0755805574126786, -0.17931658048934912,-0.5952538916961998,-0.891845703125,-0.3989715576171875,0.2017669677734375
20220111-1117,2022-01-11 11:18:12Z,u01, 137,40,movements,el-ex, rt, d,75620.28075237501, -1.826607175441684, 0.38901668694752883, 3.0353078199451695, -0.6081461906433105, -0.38369885087013245, -0.34156209230422974, -0.8951722383499146, -0.3792787492275238, 0.23412415385246277, -0.0529325008392334, -0.08640417456626892, 0.19176384806632996, -0.7817790317414195, -0.07670478338975245, -0.1846233901417506,-0.5906369977723533,-0.9481048583984375,-0.4656829833984375,0.4258880615234375
20220111-1117,2022-01-11 11:18:12Z,u01, 138,40,movements,el-ex, rt, d,75620.305695375, -1.8298183488057238, 0.3988959140395632, 3.024154569305154, -0.15045173466205597, -0.1739584058523178, -0.20603036880493164, -0.8907501697540283, -0.38840118050575256, 0.23602619767189026, -0.21575605869293213, -0.06521207094192505, 0.1604275405406952, -0.7825488260097229, -0.07503621808139815, -0.19182793886273444,-0.5875277312753426,-1.138031005859375,-0.42987060546875,0.33905029296875
20220111-1117,2022-01-11 11:18:12Z,u01, 139,40,movements,el-ex, rt, d,75620.330638375, -1.8345759043354855, 0.40170295066170075, 3.0352733563825356, 0.7131968140602112, 0.10473933815956116, -0.23538154363632202, -0.8885613083839417, -0.39098629355430603, 0.23997613787651062, -0.2512854337692261, 0.11805233359336853, -0.03988766670227051, -0.7833406954564306, -0.07978362495370533, -0.1898285185570665,-0.5864956053430836,-1.1398468017578125,-0.2729339599609375,0.2000885009765625
20220111-1117,2022-01-11 11:18:12Z,u01, 140,40,movements,el-ex, rt, d,75620.355580375, -1.8393928078996333, 0.40018688696591426, 3.0550003433530426, 0.5711300373077393, 0.09685931354761124, 0.00186136644333601, -0.8879655599594116, -0.38959047198295593, 0.24441048502922058, -0.13913404941558838, 0.002062976360321045, -0.05707836151123047, -0.7840308420101716, -0.08660761532525602, -0.18365834044829094,-0.5865700308938422,-1.0121612548828125,-0.4319915771484375,0.1961822509765625
20220111-1117,2022-01-11 11:18:12Z,u01, 141,40,movements,el-ex, rt, d,75620.380523375, -1.8384847543325182, 0.39663440342591777, 3.0578598955295324, -0.3391309082508087, 0.04838079214096069, 0.20395992696285248, -0.889516294002533, -0.3863162100315094, 0.24396860599517822, -0.09980267286300659, -0.132848858833313, 0.06402996182441711, -0.7838747540551976, -0.08674488564141852, -0.18140533639671888,-0.5874588182421775,-0.98931884765625,-0.5191650390625,0.3079986572265625
20220111-1117,2022-01-11 11:18:13Z,u01, 142,40,movements,el-ex, rt, d,75620.405466375, -1.8311306944003782, 0.39190876232711275, 3.0442662479138587, -0.3327305018901825, 0.12580053508281708, 0.3717189133167267, -0.8930404782295227, -0.3819531500339508, 0.23788775503635406, -0.0995895266532898, -0.1579943299293518, 0.03812837600708008, -0.7825832411406672, -0.08066815399997196, -0.18327203740431625,-0.5894637365321174,-0.9936981201171875,-0.523712158203125,0.2500762939453125
20220111-1117,2022-01-11 11:18:13Z,u01, 143,40,movements,el-ex, rt, d,75620.43040937501, -1.8273095671648691, 0.3806612510532625, 3.043692209879222, 0.4845295548439026, 0.19076457619667053, 0.4575818181037903, -0.8980417251586914, -0.37153446674346924, 0.2355486899614334, -0.1191549301147461, -0.15056028962135315, -0.03527712821960449, -0.782167477720916, -0.07738465873449057, -0.17895492469714464,-0.5917776603864212,-1.0171966552734375,-0.5220947265625,0.2002716064453125
20220111-1117,2022-01-11 11:18:13Z,u01, 144,40,movements,el-ex, rt, d,75620.45535237501, -1.8267738720301743, 0.3629181149549526, 3.0573040524498536, 0.6077272891998291, 0.29637494683265686, 0.6245498061180115, -0.9044034481048584, -0.3550037741661072, 0.23669956624507904, -0.1695101261138916, -0.08388477563858032, 0.011957645416259766, -0.7825361559801365, -0.07737537588141324, -0.1680478806132098,-0.5944830507200012,-1.0970001220703125,-0.39776611328125,0.3036956787109375
20220111-1117,2022-01-11 11:18:13Z,u01, 145,40,movements,el-ex, rt, d,75620.480295375, -1.8192454894933, 0.34368015153044124, 3.0549968935897547, -0.31783339381217957, 0.23544934391975403, 0.9758959412574768, -0.9126114845275879, -0.3369542956352234, 0.23152098059654236, -0.23898452520370483, -0.10419255495071411, 0.17924559116363525, -0.781463562119707, -0.07124037597322164, -0.16102261265029127,-0.5985910093196802,-1.1515960693359375,-0.4411468505859375,0.4107666015625
20220111-1117,2022-01-11 11:18:13Z,u01, 146,40,movements,el-ex, rt, d,75620.505238375, -1.807096129788223, 0.32084163832989343, 3.038074840766384, -0.3273153603076935, 0.2893924117088318, 1.0561912059783936, -0.9225991368293762, -0.31536537408828735, 0.2221604436635971, -0.26511436700820923, -0.15158408880233765, 0.07433304190635681, -0.7795169107172271, -0.05859699474193614, -0.1569115539570984,-0.603571418124017,-1.1743316650390625,-0.45672607421875,0.2484893798828125
20220111-1117,2022-01-11 11:18:13Z,u01, 147,40,movements,el-ex, rt, d,75620.530181375, -1.7973812376147325, 0.29774203480718303, 3.0297679609122734, 0.06866955757141113, 0.27161720395088196, 0.8273736238479614, -0.9315652847290039, -0.2933623492717743, 0.2147666960954666, -0.2329092025756836, -0.2123444378376007, -0.028472185134887695, -0.777808607791848, -0.04896037867015679, -0.15029220405644114,-0.6083000196619612,-1.1644744873046875,-0.505706787109375,0.1862945556640625
20220111-1117,2022-01-11 11:18:13Z,u01, 148,40,movements,el-ex, rt, d,75620.55512379167, -1.7904355603732438, 0.2798128696671921, 3.0276218762712905, 0.08306866884231567, 0.2570522427558899, 0.6288725733757019, -0.9380174875259399, -0.2761757969856262, 0.2094036340713501, -0.328873872756958, -0.2225271761417389, 0.09241506457328796, -0.7764329943568999, -0.04305368888312605, -0.1439113351173037,-0.6120356324341292,-1.28924560546875,-0.477020263671875,0.3277130126953125
20220111-1117,2022-01-11 11:18:13Z,u01, 149,40,movements,el-ex, rt, d,75620.58006679168, -1.7826828176946514, 0.26586561811540216, 3.0255437395249625, -0.05810030549764633, 0.30680301785469055, 0.4967273473739624, -0.9432872533798218, -0.26274457573890686, 0.20291563868522644, -0.3542134761810303, -0.09766805171966553, 0.19382813572883606, -0.7745843713437801, -0.038430121074322365, -0.1390514757358073,-0.6157978470502816,-1.2975006103515625,-0.36041259765625,0.3967437744140625
20220111-1117,2022-01-11 11:18:13Z,u01, 150,40,movements,el-ex, rt, d,75620.60500979167, -1.7733623557406117, 0.25649728428252677, 3.0176533545549624, -0.3955356180667877, 0.26322120428085327, 0.3467074930667877, -0.9475070238113403, -0.25369399785995483, 0.19460174441337585, -0.29312407970428467, -0.008741945028305054, 0.23720669746398926, -0.7721443986449128, -0.033074125843983226, -0.13774501027299801,-0.6194557693397278,-1.23077392578125,-0.2504425048828125,0.4424896240234375
20220111-1117,2022-01-11 11:18:13Z,u01, 151,40,movements,el-ex, rt, d,75620.62995279167, -1.7651354578621976, 0.25224584855838467, 3.0076445037259067, -0.19875268638134003, 0.20699986815452576, 0.0844922661781311, -0.9501256346702576, -0.24957937002182007, 0.18700680136680603, -0.30680185556411743, -0.14997202157974243, 0.14537537097930908, -0.7698666486012624, -0.028438469509866393, -0.13910847819045355,-0.6222101413240847,-1.256927490234375,-0.3995513916015625,0.3323822021484375
20220111-1117,2022-01-11 11:18:13Z,u01, 152,40,movements,el-ex, rt, d,75620.65489579167, -1.7584970142731473, 0.25496441549268817, 3.007013190329084, 0.0413559153676033, 0.31572845578193665, -0.23461967706680298, -0.9506759643554688, -0.25221097469329834, 0.18056809902191162, -0.37450408935546875, -0.11453402042388916, 0.12741529941558838, -0.7677319526312509, -0.029524535882558267, -0.14023939568448102,-0.6245389365375312,-1.31890869140625,-0.34869384765625,0.320953369140625
20220111-1117,2022-01-11 11:18:13Z,u01, 153,40,movements,el-ex, rt, d,75620.67983879166, -1.7507353542555422, 0.26193663117414956, 3.007705170576048, -0.135812446475029, 0.325278103351593, -0.33957478404045105, -0.9502955079078674, -0.2589516043663025, 0.17286495864391327, -0.307150661945343, -0.06242898106575012, 0.18127618730068207, -0.7650960137090298, -0.03256643530195563, -0.1425356814244128,-0.6270972838757392,-1.2574462890625,-0.321380615234375,0.3541412353515625
20220111-1117,2022-01-11 11:18:13Z,u01, 154,40,movements,el-ex, rt, d,75620.70478179168, -1.7416678176119704, 0.2721188921848788, 3.004147323192303, -0.21592019498348236, 0.3105212450027466, -0.40177851915359497, -0.9491763710975647, -0.2687729597091675, 0.16378429532051086, -0.2734951376914978, -0.008814901113510132, 0.17958414554595947, -0.7620089917560596, -0.03513467192979508, -0.14732834517584575,-0.6296047899352754,-1.2203216552734375,-0.282196044921875,0.336639404296875
20220111-1117,2022-01-11 11:18:13Z,u01, 155,40,movements,el-ex, rt, d,75620.72972379166, -1.734081779862334, 0.28368162051377954, 3.0018161390979032, -0.15102674067020416, 0.2730858623981476, -0.4827027916908264, -0.9472615718841553, -0.2798919975757599, 0.156063511967659, -0.3120461702346802, -0.023406922817230225, 0.10875271260738373, -0.7593062165048383, -0.03854637518049581, -0.15224963017666468,-0.6314968339638839,-1.259307861328125,-0.3032989501953125,0.2648162841796875
20220111-1117,2022-01-11 11:18:13Z,u01, 156,40,movements,el-ex, rt, d,75620.75466679168, -1.726669057503631, 0.29548709858893557, 3.000529005920168, -0.043310340493917465, 0.2690558433532715, -0.4215298593044281, -0.9450621604919434, -0.29120588302612305, 0.14851415157318115, -0.2986053228378296, 0.014136850833892822, 0.0934595912694931, -0.7566073023402217, -0.042455500235333066, -0.15690307363934947,-0.6333437333092318,-1.23260498046875,-0.2784881591796875,0.2301788330078125
20220111-1117,2022-01-11 11:18:13Z,u01, 157,40,movements,el-ex, rt, d,75620.77960979167, -1.7231643608164713, 0.3042384187070324, 3.0048653908256653, 0.14893829822540283, 0.11036333441734314, -0.3511905074119568, -0.9430217146873474, -0.2995666563510895, 0.14480872452259064, -0.29718196392059326, -0.08970025181770325, 0.053082436323165894, -0.7550995112340211, -0.04721327035427214, -0.15869855992104184,-0.634358154908701,-1.240203857421875,-0.3892669677734375,0.1978912353515625
20220111-1117,2022-01-11 11:18:13Z,u01, 158,40,movements,el-ex, rt, d,75620.80455279167, -1.7227090624688837, 0.31310564450381223, 3.0071985109223855, -0.08374305069446564, 0.006964441388845444, -0.4070698022842407, -0.9404247999191284, -0.30801478028297424, 0.14397171139717102, -0.41119861602783203, -0.17121800780296326, 0.09534703195095062, -0.7545751250652508, -0.051012116078813785, -0.16123407917576266,-0.6340485762269663,-1.3714752197265625,-0.462310791015625,0.23577880859375
20220111-1117,2022-01-11 11:18:13Z,u01, 159,40,movements,el-ex, rt, d,75620.82949579167, -1.7236879749922875, 0.3231541171282924, 3.0090580353170036, 0.15571986138820648, -0.044302210211753845, -0.40707409381866455, -0.9371772408485413, -0.31755900382995605, 0.14441359043121338, -0.4445061683654785, -0.12633442878723145, 0.02508091926574707, -0.7544488375930025, -0.054897613254708044, -0.16439268045651814,-0.6330626519002932,-1.381683349609375,-0.4438934326171875,0.16949462890625
20220111-1117,2022-01-11 11:18:13Z,u01, 160,40,movements,el-ex, rt, d,75620.85443879168, -1.7273902326260733, 0.33187301744118425, 3.0152631540643453, 0.1433098018169403, -0.08249566704034805, -0.33547472953796387, -0.9338655471801758, -0.325814425945282, 0.14744482934474945, -0.45341771841049194, -0.18263891339302063, 0.01985250413417816, -0.7550835437907382, -0.05975998557046042, -0.1657677163461851,-0.6315050333052821,-1.3922882080078125,-0.5218658447265625,0.1652679443359375
20220111-1117,2022-01-11 11:18:13Z,u01, 161,40,movements,el-ex, rt, d,75620.87938179167, -1.7283733615009322, 0.3396659418134406, 3.0161233062475046, -0.16272124648094177, 0.028177518397569656, -0.2904497981071472, -0.9311843514442444, -0.33317214250564575, 0.14795994758605957, -0.4692825675010681, -0.16508838534355164, 0.02212977409362793, -0.755030298951767, -0.06252374217192191, -0.1684152228021213,-0.630600023648253,-1.4004669189453125,-0.498260498046875,0.1700897216796875
20220111-1117,2022-01-11 11:18:13Z,u01, 162,40,movements,el-ex, rt, d,75620.90432479167, -1.7244076849569432, 0.34758594980495544, 3.011609794409706, -0.21601013839244843, 0.17719610035419464, -0.27509209513664246, -0.9291269779205322, -0.34062913060188293, 0.14385774731636047, -0.3824423551559448, -0.10202839970588684, -0.03698514401912689, -0.753570301358704, -0.0637234215197171, -0.172644578548883,-0.6310824305053057,-1.2780914306640625,-0.4385833740234375,0.0989532470703125
20220111-1117,2022-01-11 11:18:13Z,u01, 163,40,movements,el-ex, rt, d,75620.92926779167, -1.717195599725044, 0.35418623239676617, 3.006204453882728, -0.2625158727169037, 0.21518202126026154, -0.15778495371341705, -0.9278956651687622, -0.3468272089958191, 0.13682213425636292, -0.24706149101257324, -0.09531140327453613, 0.06965969502925873, -0.7511694808488392, -0.06446301913520164, -0.17655450544633192,-0.6327853751890953,-1.174957275390625,-0.442138671875,0.20648193359375
20220111-1117,2022-01-11 11:18:13Z,u01, 164,40,movements,el-ex, rt, d,75620.95421079166, -1.7078574850303248, 0.3557947987650466, 3.0029823480980244, 0.06188785284757614, 0.46096670627593994, 0.04227083921432495, -0.9285790920257568, -0.34833550453186035, 0.12807512283325195, -0.23624634742736816, 0.03858208656311035, 0.013434886932373047, -0.7482402283404119, -0.06460746496431752, -0.17786536111706852,-0.6358666050014579,-1.1424560546875,-0.2732086181640625,0.1291351318359375
20220111-1117,2022-01-11 11:18:13Z,u01, 165,40,movements,el-ex, rt, d,75620.97915379168, -1.6971457622626105, 0.3511074078127632, 3.0081077670360266, 0.30021756887435913, 0.517977237701416, 0.2743348777294159, -0.9315072298049927, -0.34393787384033203, 0.11832574009895325, -0.007610142230987549, 0.11362171173095703, -0.11576224118471146, -0.7448602050525275, -0.06592530347130288, -0.17416726201106256,-0.6407049814659947,-0.939117431640625,-0.230316162109375,0.0025634765625
20220111-1117,2022-01-11 11:18:13Z,u01, 166,40,movements,el-ex, rt, d,75621.00409679167, -1.6843144998120432, 0.34228241574852697, 3.0093287199456276, -0.29101598262786865, 0.5789322257041931, 0.4359034299850464, -0.9359281063079834, -0.33563798666000366, 0.10670358687639236, 0.059341251850128174, 0.09399980306625366, -0.04243362694978714, -0.7410686402531746, -0.06456827690712763, -0.1701444892619678,-0.6462963944607659,-0.874176025390625,-0.2603759765625,0.116119384765625
20220111-1117,2022-01-11 11:18:13Z,u01, 167,40,movements,el-ex, rt, d,75621.02903979167, -1.66531230499964, 0.3293343901624039, 2.9927001225285714, -0.5734577178955078, 0.5221829414367676, 0.753215491771698, -0.9420343637466431, -0.32341325283050537, 0.0893033817410469, 0.08354437351226807, 0.09814774990081787, 0.05208444595336914, -0.7358982412825315, -0.05572673872061984, -0.17029484209935375,-0.6529532647993059,-0.858489990234375,-0.2252655029296875,0.141387939453125
20220111-1117,2022-01-11 11:18:13Z,u01, 168,40,movements,el-ex, rt, d,75621.05398179167, -1.651723642950399, 0.30836941829589737, 2.9912295759550322, 0.4264158606529236, 0.4747118055820465, 0.8571728467941284, -0.949711263179779, -0.3035053610801697, 0.07702580839395523, 0.19501155614852905, 0.27007338404655457, -0.1119685247540474, -0.7321794250151628, -0.04925641530929731, -0.16289397761066482,-0.659509383226148,-0.7381134033203125,-0.001068115234375,-0.0477142333984375
20220111-1117,2022-01-11 11:18:13Z,u01, 169,40,movements,el-ex, rt, d,75621.07892479167, -1.6410528312426715, 0.2860811381902778, 2.9983515517131423, 0.0735212042927742, 0.5811654925346375, 0.8973021507263184, -0.9569903612136841, -0.2821948230266571, 0.06734563410282135, 0.12820929288864136, 0.0705401599407196, -0.001748211681842804, -0.7291333435138803, -0.04513741557842854, -0.15230453163435853,-0.6656804349889704,-0.8287811279296875,-0.2116546630859375,0.0655975341796875
20220111-1117,2022-01-11 11:18:13Z,u01, 170,40,movements,el-ex, rt, d,75621.10386779167, -1.6238916143297233, 0.2632102927733293, 2.992166681840141, -0.2914482653141022, 0.6395188570022583, 0.9612733721733093, -0.9641989469528198, -0.26018160581588745, 0.051242582499980927, 0.2007102370262146, -0.06393027305603027, -0.022296670824289322, -0.7240857176110135, -0.03634783185145124, -0.14587237387657737,-0.673126966112765,-0.7333526611328125,-0.3061981201171875,0.021453857421875
20220111-1117,2022-01-11 11:18:13Z,u01, 171,40,movements,el-ex, rt, d,75621.12881079168, -1.6067894164484078, 0.24054663523042072, 2.987093686032553, -0.03993045538663864, 0.658257007598877, 0.8703086972236633, -0.9705788493156433, -0.2382335513830185, 0.034949224442243576, 0.3386971354484558, 0.218046173453331, -0.06922054290771484, -0.7188154058854908, -0.027911011657289708, -0.13928810359338145,-0.6805322836713963,-0.6318817138671875,-0.0201873779296875,-0.034271240234375
20220111-1117,2022-01-11 11:18:13Z,u01, 172,40,movements,el-ex, rt, d,75621.15375379167, -1.5882418262548788, 0.21739815193610418, 2.98001471676308, -0.3894030451774597, 0.6756430268287659, 1.0330413579940796, -0.9763134121894836, -0.2156897485256195, 0.017034003511071205, 0.30321764945983887, 0.064765065908432, 0.14145898818969727, -0.7128619383731991, -0.01857036123949246, -0.1333549523785474,-0.6882583050967246,-0.70880126953125,-0.233428955078125,0.1536102294921875
20220111-1117,2022-01-11 11:18:13Z,u01, 173,40,movements,el-ex, rt, d,75621.17869679167, -1.5677665359435227, 0.18904882413556512, 2.976357971530744, 0.3105299472808838, 0.9191471934318542, 1.2275081872940063, -0.9821788668632507, -0.18792475759983063, -0.002975805662572384, 0.2460949420928955, -0.013811692595481873, -0.15283173322677612, -0.7060014145289316, -0.008608127014018252, -0.12459117865907898,-0.6971118220399816,-0.736083984375,-0.2017364501953125,-0.1558074951171875
20220111-1117,2022-01-11 11:18:13Z,u01, 174,40,movements,el-ex, rt, d,75621.20363979167, -1.5466457438169992, 0.16144955558220322, 2.9932352336818027, 0.6613423228263855, 0.928798258304596, 1.013316035270691, -0.9867075085639954, -0.16074907779693604, -0.023834194988012314, 0.45121556520462036, 0.11788713932037354, -0.10739141702651978, -0.6986040012754136, -0.005945728918198945, -0.10903194347926404,-0.7071273938669311,-0.505157470703125,-0.02117919921875,-0.09906005859375
20220111-1117,2022-01-11 11:18:13Z,u01, 175,40,movements,el-ex, rt, d,75621.22858279168, -1.527010184913483, 0.13772778698439694, 3.0018634473482395, -0.05883107706904411, 0.7538101077079773, 0.9676546454429626, -0.9895810484886169, -0.1372927725315094, -0.04335764795541763, 0.539614737033844, 0.05117221176624298, 0.018134836107492447, -0.6916061899957096, -0.001433132078714261, -0.09777356427755185,-0.7156249463317503,-0.4499664306640625,-0.08612060546875,-0.0252227783203125
20220111-1117,2022-01-11 11:18:13Z,u01, 176,40,movements,el-ex, rt, d,75621.25352579168, -1.5102631417329118, 0.11494928611027758, 2.9963335744938084, -0.3454649746417999, 0.6298969388008118, 0.8240096569061279, -0.9915812015533447, -0.11469630897045135, -0.06009699031710625, 0.4591715335845947, -0.17802831530570984, 0.050850093364715576, -0.6854841699115835, 0.007934635763633568, -0.09202049449490157,-0.7222055035799957,-0.54791259765625,-0.257720947265625,-0.036407470703125
20220111-1117,2022-01-11 11:18:13Z,u01, 177,40,movements,el-ex, rt, d,75621.27846879167, -1.4950666166259223, 0.09642853845005564, 2.9930058746175012, 0.07674459367990494, 0.500981330871582, 0.6567532420158386, -0.9925014972686768, -0.09627916663885117, -0.07530586421489716, 0.5912564992904663, 0.11017991602420807, -0.09090816229581833, -0.6797921839648943, 0.015154313145079257, -0.08704554518011604,-0.7280631571437045,-0.4012451171875,0.0139007568359375,-0.1662139892578125
20220111-1117,2022-01-11 11:18:13Z,u01, 178,40,movements,el-ex, rt, d,75621.30341179167, -1.4868765304235314, 0.0835304835287101, 3.0009055478636384, 0.3393549919128418, 0.18578939139842987, 0.4212260842323303, -0.9930065274238586, -0.08343338221311569, -0.08352908492088318, 0.6320750713348389, 0.06046890467405319, -0.06692267209291458, -0.6767206905750709, 0.01686904356586838, -0.07988487621447837,-0.7316987616040678,-0.3730926513671875,-0.054534912109375,-0.1322174072265625
20220111-1117,2022-01-11 11:18:13Z,u01, 179,40,movements,el-ex, rt, d,75621.32835479167, -1.4856083792041073, 0.07579681700265899, 3.0040819513902846, -0.22507211565971375, -0.042105965316295624, 0.20663589239120483, -0.9935128092765808, -0.07572425901889801, -0.08484064787626266, 0.5430582165718079, -0.0693562850356102, 0.07660085707902908, -0.6761908476913608, 0.018590705775281824, -0.07613335975456809,-0.7325461997674634,-0.4504547119140625,-0.14508056640625,-0.00823974609375
20220111-1117,2022-01-11 11:18:13Z,u01, 180,40,movements,el-ex, rt, d,75621.35329779168, -1.490864864049802, 0.07327479361915808, 2.994480288383345, -0.3502481281757355, -0.4484217166900635, -0.09826643019914627, -0.9941322207450867, -0.0732092410326004, -0.07963210344314575, 0.5890572667121887, 0.013425327837467194, 0.015682466328144073, -0.6779795303543634, 0.022971796626645613, -0.07874174007988644,-0.7304900081725665,-0.4067840576171875,-0.0366058349609375,-0.0984344482421875
20220111-1117,2022-01-11 11:18:13Z,u01, 181,40,movements,el-ex, rt, d,75621.37823979167, -1.5047037793687748, 0.07881181532857194, 2.98932973544458, -0.12204373627901077, -0.672743022441864, -0.378562331199646, -0.9947194457054138, -0.0787302553653717, -0.06583943217992783, 0.4847859740257263, 0.008249908685684204, 0.031797051429748535, -0.683036939342201, 0.02325557686802754, -0.0823289357514938,-0.7253562328849639,-0.5099334716796875,-0.0704803466796875,-0.0340423583984375
20220111-1117,2022-01-11 11:18:14Z,u01, 182,40,movements,el-ex, rt, d,75621.40318279168, -1.5242980644777524, 0.09165222831898018, 2.981840149283574, -0.4325656294822693, -0.953891932964325, -0.7158756852149963, -0.9947266578674316, -0.09152396768331528, -0.04628642648458481, 0.46526187658309937, -0.020750202238559723, 0.07143288850784302, -0.69019748251301, 0.02200505688083182, -0.08918676531546516,-0.7177667133093008,-0.533416748046875,-0.0941314697265625,0.0378875732421875
20220111-1117,2022-01-11 11:18:14Z,u01, 183,40,movements,el-ex, rt, d,75621.42812579167, -1.5501778526237575, 0.11275334534087147, 2.9741484695504727, 0.0148377176374197, -1.157728910446167, -0.9442866444587708, -0.9934389591217041, -0.11251458525657654, -0.020486099645495415, 0.37953197956085205, -0.009723618626594543, 0.03334927558898926, -0.6995866776158776, 0.01831477424570427, -0.09893511031606367,-0.7074284466262313,-0.6139068603515625,-0.1222381591796875,0.0128631591796875
20220111-1117,2022-01-11 11:18:14Z,u01, 184,40,movements,el-ex, rt, d,75621.45306879167, -1.5790957571783146, 0.13916588448320455, 2.974800642654117, -0.16062092781066895, -1.1804826259613037, -1.13644540309906, -0.9902979135513306, -0.13871711492538452, 0.0082190977409482, 0.26069897413253784, -0.14456228911876678, 0.11339342594146729, -0.7099332516906385, 0.010214049345644016, -0.10770956651719238,-0.6959088135018809,-0.741424560546875,-0.3172454833984375,0.1632537841796875
20220111-1117,2022-01-11 11:18:14Z,u01, 185,40,movements,el-ex, rt, d,75621.47801179167, -1.6071363696009986, 0.16717849036711505, 2.968284809020618, -0.30047550797462463, -1.0702879428863525, -1.087863802909851, -0.985407292842865, -0.16640084981918335, 0.03582551330327988, 0.19442212581634521, -0.07143789529800415, 0.2561972141265869, -0.7196484505661112, 0.004343337298061689, -0.11974030652574319,-0.683922211822277,-0.790985107421875,-0.2378387451171875,0.292022705078125
20220111-1117,2022-01-11 11:18:14Z,u01, 186,40,movements,el-ex, rt, d,75621.50295479168, -1.6309127664190353, 0.19276148471815055, 2.9701234085564265, 0.3870590329170227, -0.8011732697486877, -1.041563868522644, -0.9797061085700989, -0.1915699541568756, 0.05896749347448349, 0.17739886045455933, 0.13233530521392822, 0.003150947391986847, -0.7276470557403903, -0.003675586369285, -0.12823275918091365,-0.6738491884454183,-0.7931365966796875,-0.000885009765625,0.0096282958984375
20220111-1117,2022-01-11 11:18:14Z,u01, 187,40,movements,el-ex, rt, d,75621.52789779168, -1.6521520891746377, 0.22006434572244762, 2.9822344943211716, 0.3668535351753235, -0.7818731665611267, -1.1575446128845215, -0.972655713558197, -0.21829241514205933, 0.07930619269609451, 0.2588648200035095, 0.3865205645561218, -0.2078157663345337, -0.7344361659290688, -0.01601921437024062, -0.1341052858743515,-0.6651035745637853,-0.7137908935546875,0.1682281494140625,-0.128509521484375
20220111-1117,2022-01-11 11:18:14Z,u01, 188,40,movements,el-ex, rt, d,75621.55284079167, -1.6754136607998527, 0.24759844621991461, 2.9946112538742855, 0.11120480298995972, -0.8401608467102051, -1.0799498558044434, -0.9642030000686646, -0.24507635831832886, 0.10124197602272034, 0.2394106388092041, 0.11421698331832886, -0.0870666652917862, -0.7414999564032172, -0.028263092812074897, -0.14027139277616274,-0.6555172455195973,-0.7472686767578125,-0.201629638671875,0.1171722412109375
20220111-1117,2022-01-11 11:18:14Z,u01, 189,40,movements,el-ex, rt, d,75621.57778391667, -1.696369666043203, 0.271136204191565, 2.991974897087886, -0.3597376346588135, -0.8078539371490479, -0.752773642539978, -0.955880880355835, -0.2678263187408447, 0.12066807597875595, 0.02465224266052246, -0.27622583508491516, 0.2362196445465088, -0.7478007442701553, -0.033586980077770945, -0.1500672343065128,-0.645868215975197,-0.9312286376953125,-0.5440521240234375,0.3568878173828125
20220111-1117,2022-01-11 11:18:14Z,u01, 190,40,movements,el-ex, rt, d,75621.60272691667, -1.7102234418799405, 0.2900917871181593, 2.979427769875603, -0.5300850868225098, -0.6534350514411926, -0.6975533366203308, -0.9489187598228455, -0.28604018688201904, 0.1331690549850464, -0.01252216100692749, 0.03050130605697632, 0.11179551482200623, -0.7519477762313875, -0.03404510137139155, -0.16130094690661823,-0.6382768729190234,-0.94403076171875,-0.173797607421875,0.1686248779296875
20220111-1117,2022-01-11 11:18:14Z,u01, 191,40,movements,el-ex, rt, d,75621.62766991668, -1.7255263837100046, 0.30884590631326847, 2.9804847743477754, 0.3353191316127777, -0.5504549741744995, -0.8086442947387695, -0.9413032531738281, -0.30395933985710144, 0.14682148396968842, 0.04024142026901245, 0.3599286675453186, -0.210725337266922, -0.7562180840591934, -0.0393058790494521, -0.16816985773162665,-0.6311164811377243,-0.90106201171875,0.05596923828125,-0.06390380859375
20220111-1117,2022-01-11 11:18:14Z,u01, 192,40,movements,el-ex, rt, d,75621.65261291667, -1.7467837233255976, 0.32483693819264925, 3.0007939954304246, 0.6850680708885193, -0.6432036757469177, -0.686662495136261, -0.9330647587776184, -0.3191542625427246, 0.16592416167259216, 0.06335955858230591, 0.12806841731071472, -0.2417604923248291, -0.7618551189408351, -0.05038707148355981, -0.16822269486440802,-0.6234894360151693,-0.869781494140625,-0.2293853759765625,-0.03436279296875
20220111-1117,2022-01-11 11:18:14Z,u01, 193,40,movements,el-ex, rt, d,75621.67755591667, -1.7682199797506146, 0.3376492754571574, 3.0107810725229522, -0.17626149952411652, -0.7983205318450928, -0.49014148116111755, -0.9252079129219055, -0.3312700092792511, 0.18506862223148346, 0.04256331920623779, -0.003889232873916626, -0.0021920353174209595, -0.7676884762564926, -0.056468671728851616, -0.1705107277190642,-0.6151355487917571,-0.8826446533203125,-0.3351593017578125,0.1828765869140625
20220111-1117,2022-01-11 11:18:14Z,u01, 194,40,movements,el-ex, rt, d,75621.70249891667, -1.7837661993127376, 0.3508589677484606, 2.9988373527001047, -0.693899929523468, -0.6977506875991821, -0.3354807198047638, -0.9178616404533386, -0.34370458126068115, 0.19848686456680298, -0.0731508731842041, 0.007889151573181152, 0.10131776332855225, -0.7721755177478791, -0.054666266059502144, -0.17957992930671987,-0.607048246807607,-1.0174102783203125,-0.3478851318359375,0.289825439453125
20220111-1117,2022-01-11 11:18:14Z,u01, 195,40,movements,el-ex, rt, d,75621.72744091667, -1.7963078767050535, 0.3586824598061265, 2.9940024662770153, 0.2650523781776428, -0.4934125542640686, -0.25907790660858154, -0.9126514196395874, -0.3510408401489258, 0.2093748152256012, -0.0650860071182251, -0.06135845184326172, -0.13225698471069336, -0.7757326229702448, -0.05409533008866546, -0.18434620393092205,-0.6011065785561535,-0.9777374267578125,-0.4123992919921875,0.077117919921875
20220111-1117,2022-01-11 11:18:14Z,u01, 196,40,movements,el-ex, rt, d,75621.75238391667, -1.8133774064542925, 0.3627607455425684, 3.0083668903773524, 0.5081275701522827, -0.4868033826351166, -0.3098720908164978, -0.9075472354888916, -0.3548566699028015, 0.22457627952098846, -0.029876351356506348, 0.0197431743144989, -0.13236752152442932, -0.7802321427218935, -0.05937963522488027, -0.18208808470082663,-0.5954457893072551,-0.94622802734375,-0.2893829345703125,0.1182403564453125
20220111-1117,2022-01-11 11:18:14Z,u01, 197,40,movements,el-ex, rt, d,75621.77732691666, -1.8288234836429977, 0.36742562620367514, 3.0167018793640232, 0.09026526659727097, -0.46187007427215576, -0.15878909826278687, -0.9023601412773132, -0.35921406745910645, 0.23814202845096588, -0.20245254039764404, 0.17545247077941895, -0.021451950073242188, -0.7843116577296354, -0.06265970661383785, -0.18188072343358566,-0.5897867850585488,-1.1048126220703125,-0.1837615966796875,0.2166900634765625
20220111-1117,2022-01-11 11:18:14Z,u01, 198,40,movements,el-ex, rt, d,75621.80226991668, -1.836283375978257, 0.3674954840015813, 3.0201821717794406, 0.10353583097457886, -0.07499980181455612, 0.020771142095327377, -0.9005342721939087, -0.3592792749404907, 0.24486026167869568, -0.2533200979232788, 0.05393564701080322, -0.015749573707580566, -0.7863932270348781, -0.06337053280759558, -0.18111868041006618,-0.587167734704822,-1.1259765625,-0.32080078125,0.2327117919921875
20220111-1117,2022-01-11 11:18:14Z,u01, 199,40,movements,el-ex, rt, d,75621.82721291667, -1.8376779597502275, 0.36739920917286395, 3.019327602357724, -0.01967448554933071, -0.063230961561203, 0.010467703454196453, -0.9002252221107483, -0.3591894209384918, 0.2461249977350235, -0.11922973394393921, -0.08743530511856079, -0.032532453536987305, -0.7868346294972928, -0.06287894446586939, -0.18137624071500352,-0.5865493575669601,-1.0194549560546875,-0.446624755859375,0.213592529296875
20220111-1117,2022-01-11 11:18:14Z,u01, 200,40,movements,el-ex, rt, d,75621.85215591667, -1.8380400453950547, 0.36745684165374426, 3.0219058945029778, 0.07712945342063904, 0.10197377949953079, -0.047027215361595154, -0.9001161456108093, -0.3592432141304016, 0.24644549190998077, -0.19377118349075317, -0.10338801145553589, 0.10226356983184814, -0.7868559937354714, -0.06387793812741943, -0.18065379542079893,-0.5866357604082765,-1.108978271484375,-0.429351806640625,0.380950927734375
20220111-1117,2022-01-11 11:18:14Z,u01, 201,40,movements,el-ex, rt, d,75621.87709891667, -1.8341736889954616, 0.36596089212601784, 3.02526159665588, 0.34273016452789307, 0.32452282309532166, 0.15923260152339935, -0.9015798568725586, -0.3578467071056366, 0.2431030571460724, -0.23310929536819458, 0.00042489171028137207, 0.10412581264972687, -0.7856936399921906, -0.06509251073230493, -0.17896488374462804,-0.5885744686702045,-1.1346893310546875,-0.357421875,0.34722900390625
20220111-1117,2022-01-11 11:18:14Z,u01, 202,40,movements,el-ex, rt, d,75621.90204191668, -1.828410786024788, 0.35626094431533956, 3.0380397006941218, 0.5461320281028748, 0.46135252714157104, 0.30015984177589417, -0.9062800407409668, -0.34877240657806396, 0.23877651989459991, -0.17236369848251343, -0.08886489272117615, 0.01422940194606781, -0.7840974745836516, -0.06767132955279387, -0.17125154167678763,-0.5926926989382446,-1.0624542236328125,-0.4470367431640625,0.2536163330078125
20220111-1117,2022-01-11 11:18:14Z,u01, 203,40,movements,el-ex, rt, d,75621.92698491667, -1.8188654435966065, 0.34502926034957754, 3.0442051623481063, 0.12149812281131744, 0.47153744101524353, 0.43769633769989014, -0.9122578501701355, -0.3382242023944855, 0.23106229305267334, -0.11256808042526245, -0.13035792112350464, 0.017991527915000916, -0.781651762159541, -0.06746603525215206, -0.1647578142843733,-0.5977655368987347,-1.0248260498046875,-0.4685821533203125,0.249053955078125
20220111-1117,2022-01-11 11:18:14Z,u01, 204,40,movements,el-ex, rt, d,75621.95192791667, -1.8050146479806142, 0.3333981826059243, 3.0407501825943357, -0.06594401597976685, 0.5552220940589905, 0.5463920831680298, -0.919135332107544, -0.3272559642791748, 0.21930328011512756, -0.1284874677658081, -0.0733482837677002, 0.06997278332710266, -0.7782011320385346, -0.06367603366403496, -0.1608657015380168,-0.603714061386494,-1.046234130859375,-0.3851318359375,0.29949951171875
20220111-1117,2022-01-11 11:18:14Z,u01, 205,40,movements,el-ex, rt, d,75621.97687091667, -1.7890587966958935, 0.31864642310949465, 3.0364989436897813, 0.05309978500008583, 0.5982189774513245, 0.6844046711921692, -0.9271296262741089, -0.31328141689300537, 0.20563338696956635, -0.11374849081039429, -0.03396284580230713, 0.10881969332695007, -0.7741893804342447, -0.058715364910486845, -0.15601955566161438,-0.61060715160253,-1.0408782958984375,-0.3472442626953125,0.314453125
20220111-1117,2022-01-11 11:18:14Z,u01, 206,40,movements,el-ex, rt, d,75622.00181391666, -1.7741090374627622, 0.299782079625983, 3.0358743527081504, 0.16279000043869019, 0.5789562463760376, 0.7869173884391785, -0.9357224106788635, -0.2953120172023773, 0.19290965795516968, -0.12448865175247192, -0.1258152723312378, 0.09412334859371185, -0.7704356009266295, -0.05370113289634004, -0.1486026489963269,-0.6176263555877,-1.0676422119140625,-0.4403228759765625,0.28570556640625
20220111-1117,2022-01-11 11:18:14Z,u01, 207,40,movements,el-ex, rt, d,75622.02675591667, -1.7596485161808146, 0.28090692151476976, 3.033109371168371, -0.08083660900592804, 0.5047897100448608, 0.6944964528083801, -0.9437218308448792, -0.27722713351249695, 0.1803734004497528, -0.19330227375030518, -0.13817819952964783, 0.11668471992015839, -0.7667528352054915, -0.047715732417682066, -0.1419333179129962,-0.6242342492520547,-1.13702392578125,-0.4154052734375,0.29705810546875
20220111-1117,2022-01-11 11:18:14Z,u01, 208,40,movements,el-ex, rt, d,75622.05169891666, -1.7462741445956964, 0.26513250284022544, 3.0263993360928887, -0.1169787347316742, 0.43127956986427307, 0.6802933216094971, -0.950237512588501, -0.26203715801239014, 0.16847845911979675, -0.24031412601470947, -0.046129316091537476, 0.12026356160640717, -0.7632525330972212, -0.04104630640535756, -0.1377832614111293,-0.6299019484953572,-1.2073974609375,-0.312652587890625,0.2767791748046875
20220111-1117,2022-01-11 11:18:14Z,u01, 209,40,movements,el-ex, rt, d,75622.07664191668, -1.733738637734309, 0.25148931102673877, 3.0187186992423993, -0.6368901133537292, 0.334062397480011, 0.4132000505924225, -0.9557137489318848, -0.24884669482707977, 0.15711919963359833, -0.37280791997909546, -0.11745578050613403, 0.0801548957824707, -0.7598445234493257, -0.03458174037221651, -0.13484743383704245,-0.6350248371048294,-1.328521728515625,-0.366302490234375,0.237274169921875
20220111-1117,2022-01-11 11:18:14Z,u01, 210,40,movements,el-ex, rt, d,75622.10158491667, -1.7242669554399446, 0.25015347213907624, 2.9821892948525437, -1.5486479997634888, -0.17386366426944733, 0.11527673900127411, -0.9574868083000183, -0.24755266308784485, 0.1481107622385025, -0.6249717473983765, -0.23726484179496765, 0.08356346189975739, -0.7573745449274165, -0.020956643672157882, -0.14582597443951173,-0.6361442166003015,-1.681793212890625,-0.548797607421875,0.2677459716796875
20220111-1117,2022-01-11 11:18:14Z,u01, 211,40,movements,el-ex, rt, d,75622.12652791667, -1.7184689558042037, 0.25477619785335587, 2.966120476445356, 0.2310662567615509, 0.33722326159477234, -0.2561416029930115, -0.9571873545646667, -0.25202882289886475, 0.14238689839839935, -0.825741171836853, -0.20802372694015503, 0.44237565994262695, -0.7555862363454611, -0.016819364115690183, -0.152601747443681,-0.6368040143330234,-1.782928466796875,-0.460052490234375,0.5847625732421875
20220111-1117,2022-01-11 11:18:14Z,u01, 212,40,movements,el-ex, rt, d,75622.15147091667, -1.7194889649502227, 0.2619267243960392, 2.994796061725193, 1.7215051651000977, 0.03281541168689728, -0.6924118399620056, -0.9552347660064697, -0.25894203782081604, 0.14309251308441162, -0.4551960825920105, -0.31321680545806885, 0.39432191848754883, -0.7554148516764396, -0.029910789447122887, -0.14612713803102995,-0.6380443447619604,-1.351043701171875,-0.561981201171875,0.4877777099609375
20220111-1117,2022-01-11 11:18:14Z,u01, 213,40,movements,el-ex, rt, d,75622.17641391668, -1.7355675958682055, 0.2770905013061128, 3.042068619492615, 1.1837067604064941, -0.21264681220054626, -0.9730510115623474, -0.9488280415534973, -0.27355828881263733, 0.15776999294757843, -0.41210341453552246, -0.02821481227874756, 0.03619970381259918, -0.7590937598765093, -0.0515912532157356, -0.1370783206915584,-0.6342906353780218,-1.360931396484375,-0.3017730712890625,0.1939697265625
20220111-1117,2022-01-11 11:18:14Z,u01, 214,40,movements,el-ex, rt, d,75622.20135691667, -1.7453873047026747, 0.29781015856143683, 3.050944596464555, -0.6588330864906311, -0.3609522581100464, -0.8209593296051025, -0.9414483308792114, -0.2934274673461914, 0.16605909168720245, -0.4942512512207031, -0.09139922261238098, -0.13310013711452484, -0.7611284437240258, -0.060934702604720226, -0.14233336680835507,-0.6298505868865887,-1.4338836669921875,-0.3894805908203125,0.0324554443359375
20220111-1117,2022-01-11 11:18:14Z,u01, 215,40,movements,el-ex, rt, d,75622.22629991667, -1.746735590076068, 0.32167020996898205, 3.028663552505914, -1.1203606128692627, -0.3110276460647583, -0.7637959718704224, -0.9340631365776062, -0.31615152955055237, 0.1660553216934204, -0.4001348614692688, -0.06388387084007263, 0.11298203468322754, -0.7612023365955308, -0.05998887387856816, -0.15833030606175344,-0.6260223010311867,-1.334197998046875,-0.380035400390625,0.2790374755859375
20220111-1117,2022-01-11 11:18:14Z,u01, 216,40,movements,el-ex, rt, d,75622.25124291667, -1.7480790411629974, 0.3457833231800763, 3.0103557942267556, -0.48615697026252747, -0.23574014008045197, -0.8952869772911072, -0.9260645508766174, -0.3389337360858917, 0.16591709852218628, -0.32231807708740234, -0.04754093289375305, 0.13973166048526764, -0.7611067640898611, -0.06062216249486907, -0.17310383714668284,-0.6221547849979103,-1.230010986328125,-0.3808746337890625,0.3077239990234375
20220111-1117,2022-01-11 11:18:14Z,u01, 217,40,movements,el-ex, rt, d,75622.27618591668, -1.7528117049948555, 0.36759940266029734, 3.012088369688574, 0.2041584849357605, -0.10108566284179688, -0.8537209033966064, -0.9177771210670471, -0.3593762516975403, 0.16891908645629883, -0.22123032808303833, -0.06967034935951233, 0.14040707051753998, -0.7614850033358453, -0.06782428274539004, -0.18086115025898683,-0.618732251818426,-1.139007568359375,-0.429046630859375,0.309326171875
20220111-1117,2022-01-11 11:18:14Z,u01, 218,40,movements,el-ex, rt, d,75622.30112891668, -1.758478877538925, 0.38595270392307207, 3.0225749999130604, 0.23269523680210114, 0.01656254008412361, -0.7192465662956238, -0.9101712107658386, -0.37644192576408386, 0.17285765707492828, -0.2170259952545166, -0.00940704345703125, 0.08313894271850586, -0.7618922727595234, -0.0771297395858917, -0.1846830473465541,-0.6160059519431271,-1.1294097900390625,-0.3724365234375,0.247314453125
20220111-1117,2022-01-11 11:18:14Z,u01, 219,40,movements,el-ex, rt, d,75622.32607191667, -1.7575207680443339, 0.40018947582160375, 3.027633153156605, -0.18656550347805023, 0.17578554153442383, -0.4720713198184967, -0.904978334903717, -0.38959285616874695, 0.1709732562303543, -0.12515789270401, -0.024561285972595215, 0.022813335061073303, -0.7605845542017249, -0.08365264070096229, -0.1884026642105866,-0.6156442911113253,-1.0301361083984375,-0.414154052734375,0.19378662109375
20220111-1117,2022-01-11 11:18:14Z,u01, 220,40,movements,el-ex, rt, d,75622.35101391668, -1.7495298477475874, 0.4106413913159374, 3.0196811700888095, -0.4057193100452423, 0.24285052716732025, -0.27208635210990906, -0.9022589921951294, -0.3991974890232086, 0.16300338506698608, -0.1076439619064331, -0.1028013825416565, 0.03681039810180664, -0.7578423695908021, -0.08471503846860051, -0.19440515675438963,-0.6170129404645861,-1.0322418212890625,-0.498748779296875,0.1982421875
20220111-1117,2022-01-11 11:18:14Z,u01, 221,40,movements,el-ex, rt, d,75622.37595691667, -1.7376799820153803, 0.41596277459125347, 3.0144663852794737, -0.020283550024032593, 0.5409928560256958, -0.09348160028457642, -0.9020196199417114, -0.40407079458236694, 0.15194553136825562, -0.13814151287078857, 0.08259865641593933, 0.004518032073974609, -0.7540854384180764, -0.08560323883092424, -0.19748164816277142,-0.6205064499175075,-1.0401611328125,-0.32147216796875,0.156463623046875
20220111-1117,2022-01-11 11:18:15Z,u01, 222,40,movements,el-ex, rt, d,75622.40089991667, -1.7237689158621092, 0.41542685280688707, 3.01587866147447, 0.052441585808992386, 0.5815266370773315, 0.11255373060703278, -0.9042598009109497, -0.40358051657676697, 0.1394161432981491, -0.016043484210968018, -0.0016928911209106445, -0.002911105751991272, -0.7497208391709556, -0.08733116665608137, -0.19624318958733422,-0.6259237122358396,-0.9055633544921875,-0.4378814697265625,0.1263885498046875
20220111-1117,2022-01-11 11:18:15Z,u01, 223,40,movements,el-ex, rt, d,75622.42584291667, -1.7089371137697194, 0.410398391252595, 3.0150435711005774, -0.04059098660945892, 0.5948811173439026, 0.26253262162208557, -0.9082266092300415, -0.3989746570587158, 0.12626734375953674, 0.01290196180343628, -0.005673110485076904, -0.0606851726770401, -0.7453812564330451, -0.08683579077032666, -0.19402290704996525,-0.6318396585932355,-0.89532470703125,-0.4046478271484375,0.065582275390625
20220111-1117,2022-01-11 11:18:15Z,u01, 224,40,movements,el-ex, rt, d,75622.45078591668, -1.6918462824210065, 0.40186840863336065, 3.012378387728516, -0.04350295290350914, 0.6894413232803345, 0.4806738793849945, -0.9135972261428833, -0.39113858342170715, 0.11113426089286804, 0.0102921724319458, 0.03988128900527954, -0.01370692253112793, -0.7405357673119733, -0.08469891643792549, -0.19104028999508316,-0.6386991060372829,-0.8998260498046875,-0.3609466552734375,0.1067352294921875
20220111-1117,2022-01-11 11:18:15Z,u01, 225,40,movements,el-ex, rt, d,75622.47572891667, -1.6741877846682767, 0.3881831272366181, 3.009761824551978, -0.007134292274713516, 0.6329484581947327, 0.5980913639068604, -0.9206555485725403, -0.3785073459148407, 0.09552855789661407, 0.07377743721008301, 0.10221642255783081, -0.10726259648799896, -0.7356792740700725, -0.08087201550556489, -0.18621581363614562,-0.6461884040886476,-0.8468780517578125,-0.2762908935546875,-0.0117340087890625
20220111-1117,2022-01-11 11:18:15Z,u01, 226,40,movements,el-ex, rt, d,75622.50067191667, -1.6582787395825276, 0.3725789916277378, 3.007577763657728, -0.05196112021803856, 0.5588868260383606, 0.6928397417068481, -0.927829921245575, -0.36401867866516113, 0.08137650042772293, 0.10431307554244995, 0.12505081295967102, -0.08082723617553711, -0.7313440109741778, -0.07631636841972067, -0.18070882855366355,-0.6531891795274376,-0.82550048828125,-0.2669525146484375,0.0107574462890625
20220111-1117,2022-01-11 11:18:15Z,u01, 227,40,movements,el-ex, rt, d,75622.52561491667, -1.6432753589818452, 0.35385002854201014, 3.002290886219891, -0.21577182412147522, 0.5244506597518921, 0.8551177382469177, -0.9355828166007996, -0.3465118706226349, 0.06792912632226944, 0.054235219955444336, -0.009384125471115112, -0.02494513988494873, -0.727425184470933, -0.06940579739479719, -0.175223789623975,-0.659797001092827,-0.88134765625,-0.35589599609375,0.0429840087890625
20220111-1117,2022-01-11 11:18:15Z,u01, 228,40,movements,el-ex, rt, d,75622.57550050001, -1.6160549621615996, 0.3076611332321046, 2.9919314314975445, -0.28012344241142273, 0.385108083486557, 1.0093835592269897, -0.9520685076713562, -0.30283042788505554, 0.04311876744031906, 0.13717293739318848, 0.017170637845993042, -0.010327696800231934, -0.7203044368653475, -0.052162256979288835, -0.16150419405331806,-0.6725748819222322,-0.7748870849609375,-0.1680908203125,0.0070037841796875
20220111-1117,2022-01-11 11:18:15Z,u01, 229,40,movements,el-ex, rt, d,75622.55055791668, -1.6284176972147162, 0.3316713492926666, 2.9970388159284687, -0.09726780652999878, 0.4889376759529114, 0.9305797219276428, -0.9439300894737244, -0.3256237506866455, 0.05445082113146782, 0.14736038446426392, 0.12959414720535278, -0.040458571165800095, -0.7235168179966605, -0.06122764220546728, -0.16861824013475735,-0.6665900744416697,-0.8148956298828125,-0.2856597900390625,0.0327911376953125
20220111-1117,2022-01-11 11:18:15Z,u01, 230,40,movements,el-ex, rt, d,75622.6004435, -1.6037854057852563, 0.280150598840832, 2.987254845738453, 0.04463769122958183, 0.5433759689331055, 1.1671364307403564, -0.9604910016059875, -0.2765003740787506, 0.031697213649749756, 0.04713034629821777, -0.06479299068450928, -0.08603382110595703, -0.7170008960792307, -0.04193234715720667, -0.15312184113203192,-0.6787526637768582,-0.90704345703125,-0.2763671875,-0.07110595703125
20220111-1117,2022-01-11 11:18:15Z,u01, 231,40,movements,el-ex, rt, d,75622.62538550001, -1.5905158684231044, 0.2513632879125501, 2.990773017584018, 0.017023907974362373, 0.5441440343856812, 1.1065728664398193, -0.9683857560157776, -0.24872463941574097, 0.019098598510026932, 0.22970795631408691, 0.20516084134578705, -0.10047376155853271, -0.7130104310668401, -0.034138319135922746, -0.1415802131058151,-0.6858612134762708,-0.738677978515625,-0.0435638427734375,-0.0813751220703125
20220111-1117,2022-01-11 11:18:15Z,u01, 232,40,movements,el-ex, rt, d,75622.6503285, -1.5792061425034243, 0.22332078575806616, 2.9848713377902896, -0.17610183358192444, 0.308975487947464, 1.1792289018630981, -0.9751328229904175, -0.22146916389465332, 0.008200880140066147, 0.20160382986068726, 0.17024539411067963, -0.044043779373168945, -0.7096283149378448, -0.02298031584723126, -0.13365583149854626,-0.6914011851640082,-0.808349609375,-0.061004638671875,-0.0630645751953125
20220111-1117,2022-01-11 11:18:15Z,u01, 233,40,movements,el-ex, rt, d,75622.6752715, -1.5700656771223422, 0.19312639386710037, 2.9876293402624388, 0.2974697947502136, 0.45061352849006653, 1.2663040161132812, -0.9814088344573975, -0.19192810356616974, -0.0007170661701820791, 0.1741577386856079, 0.11468809843063354, -0.06642162799835205, -0.7067167297124942, -0.013889955621064376, -0.12209462355033934,-0.6967435100108702,-0.8072509765625,-0.077239990234375,-0.067138671875
20220111-1117,2022-01-11 11:18:15Z,u01, 234,40,movements,el-ex, rt, d,75622.7002145, -1.560522352384937, 0.16131855664865144, 2.9885257156914995, -0.6497083902359009, 0.290179044008255, 1.2308253049850464, -0.9869643449783325, -0.16061978042125702, -0.010140403173863888, 0.28573131561279297, -0.24555392563343048, 0.1003044843673706, -0.7035038353874713, -0.0034859724025319005, -0.11067842667963368,-0.7020117987088826,-0.702606201171875,-0.44287109375,0.1585540771484375
20220111-1117,2022-01-11 11:18:15Z,u01, 235,40,movements,el-ex, rt, d,75622.72515750001, -1.55108902709804, 0.13071098288083577, 2.9609806844246354, -1.263697862625122, 0.23614384233951569, 1.1508597135543823, -0.9912770390510559, -0.13033908605575562, -0.019537923857569695, 0.22435498237609863, -0.04467925429344177, 0.05228316783905029, -0.6999691506567778, 0.016559789392182167, -0.10979382668748228,-0.7054887398329603,-0.7669219970703125,-0.175018310546875,0.032745361328125
20220111-1117,2022-01-11 11:18:15Z,u01, 236,40,movements,el-ex, rt, d,75622.75010050001, -1.5422362567947834, 0.10270589033722076, 2.9467077358628972, -0.005436693783849478, 0.31145769357681274, 0.981830894947052, -0.9943246841430664, -0.10252542048692703, -0.028405705466866493, 0.4616404175758362, 0.38794106245040894, -0.07333993911743164, -0.6962982662608888, 0.03107847149427545, -0.10528094277852657,-0.7093086258528878,-0.4763946533203125,0.3546600341796875,-0.0949249267578125
20220111-1117,2022-01-11 11:18:15Z,u01, 237,40,movements,el-ex, rt, d,75622.7750435, -1.5374454135886078, 0.0830153375857572, 2.952621116822563, 0.057033512741327286, 0.11818709969520569, 0.5776108503341675, -0.9960020184516907, -0.08292002230882645, -0.033229898661375046, 0.5433043241500854, 0.08299633860588074, 0.09037405252456665, -0.6943346107169118, 0.03583991404660919, -0.0964767795863315,-0.7122549814930276,-0.45269775390625,7.62939453125e-05,0.0571441650390625
20220111-1117,2022-01-11 11:18:15Z,u01, 238,40,movements,el-ex, rt, d,75622.7999865, -1.5342750719880391, 0.07101861646117948, 2.9446521091902924, -0.5629307627677917, 0.1386089026927948, 0.40530362725257874, -0.9968142509460449, -0.0709589347243309, -0.03642110154032707, 0.32791459560394287, -0.290475994348526, 0.1954481601715088, -0.6927922855321126, 0.042758604572487535, -0.09525134673776114,-0.7135389973212902,-0.6911163330078125,-0.3896636962890625,0.14324951171875
20220111-1117,2022-01-11 11:18:15Z,u01, 239,40,movements,el-ex, rt, d,75622.8249295, -1.5301503264793714, 0.06422459358456804, 2.9301782197145965, -0.2900530695915222, 0.07626502215862274, 0.09236989170312881, -0.9971140027046204, -0.06418044865131378, -0.04055102914571762, 0.45068156719207764, -0.017393052577972412, 0.057137250900268555, -0.6908138119893166, 0.0500076214704982, -0.098181398010244,-0.714587887915202,-0.5464324951171875,-0.081573486328125,0.0165863037109375
20220111-1117,2022-01-11 11:18:15Z,u01, 240,40,movements,el-ex, rt, d,75622.84987250001, -1.5298820593914328, 0.06654767294936582, 2.9316682881620793, 0.23927651345729828, -0.07140287011861801, -0.23543739318847656, -0.9969515204429626, -0.06649856269359589, -0.04081231728196144, 0.5064425468444824, 0.13496476411819458, 0.002405881881713867, -0.6908166075058326, 0.0486441784891391, -0.09845226692782427,-0.7146421131246077,-0.47723388671875,0.0768890380859375,-0.042236328125
20220111-1117,2022-01-11 11:18:15Z,u01, 241,40,movements,el-ex, rt, d,75622.8748155, -1.534754677274779, 0.07583592240645554, 2.9379328603391603, 0.16283220052719116, -0.2639121413230896, -0.533389151096344, -0.9964783191680908, -0.07576325535774231, -0.03593027964234352, 0.5096161365509033, 0.05354645848274231, 0.09255558252334595, -0.6929307827722682, 0.043379601064836404, -0.09929315276428219,-0.7128155762925539,-0.4868621826171875,-0.022216796875,0.0566253662109375
20220111-1117,2022-01-11 11:18:15Z,u01, 242,40,movements,el-ex, rt, d,75622.8997585, -1.5444148956391826, 0.09167728002244221, 2.936749420368142, -0.17522841691970825, -0.5266250371932983, -0.7548369765281677, -0.9954541325569153, -0.09154891222715378, -0.026267599314451218, 0.4655773639678955, -0.04249957948923111, 0.12947803735733032, -0.6966890636550789, 0.03860762781392535, -0.10497057524045444,-0.7086007744893508,-0.552886962890625,-0.1439361572265625,0.099578857421875
20220111-1117,2022-01-11 11:18:15Z,u01, 243,40,movements,el-ex, rt, d,75622.9247015, -1.5596391064757433, 0.11301343963099432, 2.933805316367184, 0.11197302490472794, -0.6635943055152893, -0.9322623014450073, -0.993558943271637, -0.11277302354574203, -0.011085815727710724, 0.26595890522003174, -0.027607828378677368, -0.017036139965057373, -0.7024080100661598, 0.03286456020773626, -0.1131195766671016,-0.7019593239324213,-0.72760009765625,-0.140380859375,-0.0281219482421875
20220111-1117,2022-01-11 11:18:15Z,u01, 244,40,movements,el-ex, rt, d,75622.9496435, -1.5774639938028483, 0.13722991324937828, 2.9463917179639076, 0.8937165141105652, -0.6638733744621277, -1.0200310945510864, -0.9905766844749451, -0.13679960370063782, 0.006604933179914951, 0.29999446868896484, 0.10551910102367401, -0.10853362083435059, -0.7091307152972953, 0.020882895159048454, -0.11692264003543029,-0.6950011467991861,-0.6476287841796875,-0.0055389404296875,-0.1038970947265625
20220111-1117,2022-01-11 11:18:15Z,u01, 245,40,movements,el-ex, rt, d,75622.9745865, -1.598340542720381, 0.16619632915098753, 2.9674172815448743, 0.49302616715431213, -0.7991498708724976, -1.2791410684585571, -0.9858471155166626, -0.16543228924274445, 0.027161255478858948, 0.3907390832901001, 0.11201128363609314, 0.060851454734802246, -0.7166314578518377, 0.0044700350288584545, -0.11970930241310168,-0.6870874132387395,-0.5951080322265625,-0.0534210205078125,0.0880126953125
20220111-1117,2022-01-11 11:18:15Z,u01, 246,40,movements,el-ex, rt, d,75622.99952950001, -1.6210253248922186, 0.19471280111721825, 2.9692487411584585, -0.16083617508411407, -0.9102105498313904, -0.9748862385749817, -0.9798659682273865, -0.19348476827144623, 0.04925911873579025, 0.1748732328414917, -0.11289650201797485, 0.07088852673768997, -0.7242981394378228, -0.004665325970043155, -0.1292047530677461,-0.6772567141070756,-0.8510589599609375,-0.3475341796875,0.0764007568359375
20220111-1117,2022-01-11 11:18:15Z,u01, 247,40,movements,el-ex, rt, d,75623.02447250001, -1.6426694980886702, 0.21654823192288397, 2.970034708041808, 0.07113425433635712, -0.8386363983154297, -0.8127366900444031, -0.9741233587265015, -0.2148597538471222, 0.07013414055109024, 0.10072565078735352, -0.02265852689743042, -0.09224415570497513, -0.7314001407349339, -0.010995721999327912, -0.13684010387640227,-0.6679877670991805,-0.8733978271484375,-0.237518310546875,-0.0221099853515625
20220111-1117,2022-01-11 11:18:15Z,u01, 248,40,movements,el-ex, rt, d,75623.0494155, -1.6639457622350435, 0.23677044073112932, 2.9745531722410754, 0.014658056199550629, -0.7924396395683289, -0.8608213663101196, -0.9678862690925598, -0.2345643937587738, 0.09041973203420639, 0.1758331060409546, 0.1765352487564087, -0.13582992553710938, -0.7381633597825332, -0.01801996950772322, -0.14279415454355465,-0.6590902647046593,-0.778717041015625,-0.0183258056640625,-0.0287628173828125
20220111-1117,2022-01-11 11:18:15Z,u01, 249,40,movements,el-ex, rt, d,75623.0743585, -1.6842813556348377, 0.25816615180189584, 2.976507592856298, 0.038994718343019485, -0.7602674961090088, -0.875001072883606, -0.960640549659729, -0.2553079128265381, 0.10948874801397324, 0.13745927810668945, 0.1511513888835907, -0.06999896466732025, -0.7444111701057581, -0.02442100841979955, -0.15015406688045313,-0.6501610886327607,-0.82318115234375,-0.104156494140625,0.03948974609375
20220111-1117,2022-01-11 11:18:15Z,u01, 250,40,movements,el-ex, rt, d,75623.0993015, -1.7015366636002924, 0.2788396778764149, 2.9786110745730183, 0.034389983862638474, -0.5739932060241699, -0.7094906568527222, -0.9531707763671875, -0.27524033188819885, 0.1253327876329422, -0.0679779052734375, 0.04995959997177124, 0.10638713836669922, -0.7494811783761597, -0.030730433565534065, -0.15728333452197762,-0.6423360577523525,-1.0526123046875,-0.2601318359375,0.1908111572265625
