SessionID,LoggingTime,UID,RecNo,Hertz,Activity,MoveType,Wrist,Side,TimeStamp,DMRoll,DMPitch,DMYaw,DMRotX,DMRotY,DMRotZ,DMGrvX,DMGrvY,DMGrvZ,DMUAccelX,DMUAccelY,DMUAccelZ,DMQuatX,DMQuatY,DMQuatW,DMQuatZ,AccelroX,AceelroY,AceelroZ
20220224-1000,2022-02-24 10:00:20Z,u01, 1,40,movements,el-ex, rt, d,219515.73675566667, -1.5111251096107443, 0.4225267818456151, 0.3987000247920226, -0.029929012060165405, -0.07675676792860031, -0.020828522741794586, -0.9104325771331787, -0.4100663363933563, -0.05439119040966034, -0.0005629658699035645, 0.042939841747283936, 0.04743325710296631, 0.2823827560241098, -0.6269484698972763, 0.726082447875982,0.0,-0.9109954833984375,-0.36712646484375,-0.0069580078125
20220224-1000,2022-02-24 10:00:20Z,u01, 2,40,movements,el-ex, rt, d,219515.7617016667, -1.5111797975330894, 0.4227741979814013, 0.3979280561877299, 0.025456979870796204, 0.01678323745727539, 0.024635298177599907, -0.9103341698646545, -0.41029196977615356, -0.054335348308086395, 0.010645389556884766, 0.014784127473831177, 0.012297511100769043, 0.28222353065118055, -0.6270424258295211, 0.7260630791108407,-0.0003730201220308871,-0.9102325439453125,-0.385986328125,-0.0302581787109375
20220224-1000,2022-02-24 10:00:20Z,u01, 3,40,movements,el-ex, rt, d,219515.7866486667, -1.5130078598193861, 0.4222355161868199, 0.4010245929942005, 0.1586267054080963, -0.08063259720802307, 0.022404301911592484, -0.9106523394584656, -0.40980064868927, -0.052683860063552856, 0.03238701820373535, -0.023487865924835205, 0.021098263561725616, 0.2830146481181401, -0.6273442263610716, 0.7254938897995385,0.0006775692382478549,-0.878265380859375,-0.43328857421875,-0.031585693359375
20220224-1000,2022-02-24 10:00:20Z,u01, 4,40,movements,el-ex, rt, d,219515.81159466668, -1.5167989963346804, 0.42101425495254874, 0.4056672823443538, 0.16110014915466309, 0.4124932885169983, -0.19472208619117737, -0.9113447070121765, -0.4086863398551941, -0.04925806447863579, -0.004808306694030762, -0.05344134569168091, 0.04545873403549194, 0.28406723607965445, -0.6282330560001766, 0.7243093581795564,0.002243408489966736,-0.93798828125,-0.4696502685546875,0.0013275146484375
20220224-1000,2022-02-24 10:00:20Z,u01, 5,40,movements,el-ex, rt, d,219515.83654166668, -1.5203069440098713, 0.4217159990667312, 0.41723472393776, 0.7446545958518982, 0.03591392561793327, -0.12155266851186752, -0.9112251996994019, -0.4093267023563385, -0.04604633152484894, 0.09133994579315186, 0.036600261926651, -0.04599457606673241, 0.2879396364181818, -0.6277480383301495, 0.7231810638979832,0.005685619919981122,-0.81988525390625,-0.3727264404296875,-0.092041015625
20220224-1000,2022-02-24 10:00:20Z,u01, 6,40,movements,el-ex, rt, d,219515.86148766667, -1.5309931788395614, 0.42958444722431216, 0.44894327704933307, 1.6277360916137695, 0.046399787068367004, -0.3072637617588043, -0.9084188342094421, -0.4164930284023285, -0.03617703542113304, 0.05835169553756714, 0.1452222764492035, -0.05412435159087181, 0.30051790257125605, -0.6257798913848152, 0.7196693475011221,0.012827195893014787,-0.8600311279296875,-0.2685394287109375,-0.1031646728515625
20220224-1000,2022-02-24 10:00:20Z,u01, 7,40,movements,el-ex, rt, d,219515.88643466667, -1.550432075139549, 0.4369033121574256, 0.49639961026649027, 1.547707438468933, 0.06307310611009598, -0.10814125835895538, -0.9058786034584045, -0.4231356978416443, -0.018450090661644936, -0.022573113441467285, 0.07666954398155212, 0.03880542516708374, 0.3178954780065034, -0.6242735136300099, 0.71318731689776,0.02427009280690351,-0.9284515380859375,-0.346466064453125,0.020355224609375
20220224-1000,2022-02-24 10:00:20Z,u01, 8,40,movements,el-ex, rt, d,219515.9113806667, -1.557200378435185, 0.43470276924351986, 0.5231340406083951, 0.31372740864753723, 0.20946693420410156, 0.2182449847459793, -0.9069113731384277, -0.4211408197879791, -0.012331079691648483, 0.0026603341102600098, -0.0772874653339386, 0.07870692014694214, 0.3256286347136604, -0.6227362623513131, 0.7106653666366923,0.033469347768553204,-0.9326324462890625,-0.4947967529296875,0.065399169921875
20220224-1000,2022-02-24 10:00:20Z,u01, 9,40,movements,el-ex, rt, d,219515.93632766668, -1.552434726105926, 0.4321470928328013, 0.5139725735219479, -0.7732699513435364, -0.09686475992202759, -0.004128703847527504, -0.9079155325889587, -0.4188214838504791, -0.016672655940055847, 0.03329700231552124, -0.039003223180770874, 0.05739849805831909, 0.3218873824164793, -0.622938347463115, 0.7122640967325694,0.0318780964818115,-0.8746185302734375,-0.45782470703125,0.0407257080078125
20220224-1000,2022-02-24 10:00:20Z,u01, 10,40,movements,el-ex, rt, d,219515.96127366667, -1.5452890969743613, 0.4312284038453537, 0.4930885357049598, -0.5868638753890991, 0.018788132816553116, 0.0523170605301857, -0.908157467842102, -0.41798707842826843, -0.023169605061411858, -0.04554736614227295, 0.06654664874076843, -0.04514390230178833, 0.3149810830799568, -0.6238606530486337, 0.7147829547508392,0.025886513041472936,-0.955841064453125,-0.367645263671875,-0.05224609375
20220224-1000,2022-02-24 10:00:21Z,u01, 11,40,movements,el-ex, rt, d,219515.9862196667, -1.5421011294066465, 0.4299125305770524, 0.4847961232848605, -0.046784259378910065, -0.09420520067214966, 0.03106137365102768, -0.9086280465126038, -0.41679129004478455, -0.02608042024075985, 0.00813060998916626, 0.09820300340652466, -0.038662493228912354, 0.31193079974604493, -0.6242266943434243, 0.7158701307828631,0.023879618545611492,-0.9004974365234375,-0.3185882568359375,-0.0647430419921875
20220224-1000,2022-02-24 10:00:21Z,u01, 12,40,movements,el-ex, rt, d,219516.0111666667, -1.543804212054492, 0.4292666820274296, 0.4854740647758011, 0.0122104836627841, -0.003863050602376461, 0.012478101998567581, -0.9089401960372925, -0.4162041246891022, -0.02454017661511898, -0.054835617542266846, 0.020207971334457397, -0.005641583353281021, 0.31195487011234907, -0.6248312334423318, 0.7153253236689843,0.0240819486724676,-0.9618072509765625,-0.383544921875,-0.0335540771484375
20220224-1000,2022-02-24 10:00:21Z,u01, 13,40,movements,el-ex, rt, d,219516.03611266668, -1.5432070074992734, 0.4288564691266332, 0.4850259075017351, -0.05041135102510452, -0.0014217300340533257, 0.0250514205545187, -0.9090958833694458, -0.4158310890197754, -0.02508770301938057, -0.02606964111328125, 0.015257298946380615, -0.008969847112894058, 0.311675566909366, -0.6247515423039798, 0.7155140644969533,0.024157926494384696,-0.9351654052734375,-0.40057373046875,-0.0340576171875
20220224-1000,2022-02-24 10:00:21Z,u01, 14,40,movements,el-ex, rt, d,219516.06105966668, -1.5430733205233125, 0.4284368957749984, 0.4829111971252586, -0.12912693619728088, -0.06461135298013687, 0.007554183714091778, -0.9092666506767273, -0.41544950008392334, -0.025214064866304398, -0.03746485710144043, 0.037016332149505615, 0.002814296633005142, 0.3108780327429558, -0.6250982451344579, 0.7155777401977131,0.023568547015546615,-0.938018798828125,-0.381256103515625,-0.02587890625
20220224-1000,2022-02-24 10:00:21Z,u01, 15,40,movements,el-ex, rt, d,219516.08600566667, -1.5419406442403913, 0.42780689608206024, 0.4776030770896551, -0.2549155354499817, 0.02163532003760338, 0.020341817289590836, -0.9094992280006409, -0.4148763418197632, -0.026251506060361862, -0.07824808359146118, 0.038579314947128296, 0.006735682487487793, 0.30900205642534273, -0.6256132797217926, 0.7159881902121379,0.022064190475567458,-0.9877471923828125,-0.3762969970703125,-0.0195159912109375
20220224-1000,2022-02-24 10:00:21Z,u01, 16,40,movements,el-ex, rt, d,219516.11095266667, -1.5378864684181275, 0.4268828576351222, 0.4708852240113159, -0.19856040179729462, 0.05043387413024902, 0.01220100000500679, -0.9097679257392883, -0.4140354096889496, -0.029951145872473717, -0.02706068754196167, 0.05343976616859436, -0.027711747214198112, 0.3065588388109478, -0.6253367933605789, 0.7173221752932655,0.02060289783188518,-0.947723388671875,-0.36370849609375,-0.049774169921875
20220224-1000,2022-02-24 10:00:21Z,u01, 17,40,movements,el-ex, rt, d,219516.1358986667, -1.5361555612017417, 0.42644582852869994, 0.4684318382819004, 0.025708481669425964, 0.011616374365985394, -0.009814620018005371, -0.9098954796791077, -0.41363754868507385, -0.03153209015727043, -0.009995877742767334, 0.05139392614364624, -0.04517370089888573, 0.3056323707619179, -0.6251582270471004, 0.7178861311732542,0.020139640823813365,-0.919891357421875,-0.36224365234375,-0.0767059326171875
20220224-1000,2022-02-24 10:00:21Z,u01, 18,40,movements,el-ex, rt, d,219516.1608456667, -1.5375577042646629, 0.425942124760722, 0.46954190031681575, -0.012638140469789505, -0.03728119283914566, -0.043110594153404236, -0.9101470708847046, -0.4131789207458496, -0.030263179913163185, -0.02517104148864746, 0.052506864070892334, 0.007192015647888184, 0.3058301520553208, -0.6255688035489626, 0.7174340086346839,0.020498938708515657,-0.927947998046875,-0.355194091796875,-0.02978515625
20220224-1000,2022-02-24 10:00:21Z,u01, 19,40,movements,el-ex, rt, d,219516.18579166668, -1.536192984119424, 0.4259758203381444, 0.465252507719523, -0.2621957063674927, 0.015314239077270031, -0.03631513565778732, -0.9100909233093262, -0.41320958733558655, -0.03150476515293121, -0.042194902896881104, 0.04458773136138916, 0.02703404426574707, 0.30448574715011467, -0.6257284135580916, 0.7179035815217972,0.019156251232733845,-0.9522857666015625,-0.368621826171875,-0.0044708251953125
20220224-1000,2022-02-24 10:00:21Z,u01, 20,40,movements,el-ex, rt, d,219516.21073866668, -1.5285968384102087, 0.424464762233872, 0.4566551132403822, -0.22571422159671783, 0.08317218720912933, 0.010002627037465572, -0.9104480147361755, -0.41183310747146606, -0.03844326362013817, 0.027711808681488037, 0.03590238094329834, -0.01950955018401146, 0.30123563645338836, -0.6245281901051523, 0.7203519225781502,0.017739983332909215,-0.90203857421875,-0.3697967529296875,-0.0485687255859375
20220224-1000,2022-02-24 10:00:21Z,u01, 21,40,movements,el-ex, rt, d,219516.23568466667, -1.5267202595952476, 0.424300013094889, 0.4530918935216478, -0.04467693343758583, -0.07362062484025955, -0.06422020494937897, -0.910442054271698, -0.41168296337127686, -0.04015471041202545, 0.027599036693572998, -0.00906282663345337, -0.009375210851430893, 0.30005291784486987, -0.6244124369406229, 0.7209682717336059,0.016795230504753067,-0.882843017578125,-0.420745849609375,-0.049530029296875
20220224-1000,2022-02-24 10:00:21Z,u01, 22,40,movements,el-ex, rt, d,219516.2606316667, -1.5288501255992206, 0.42402696447126326, 0.45238974518875685, -0.05888446420431137, 0.0025794031098484993, 0.05957956984639168, -0.9106379747390747, -0.4114341139793396, -0.03822022303938866, -0.054556846618652344, -0.0233955979347229, 0.053082406520843506, 0.29976168379950885, -0.6253261726494184, 0.7203082712441915,0.016317505761392848,-0.9611968994140625,-0.4355316162109375,0.01409912109375
20220224-1000,2022-02-24 10:00:21Z,u01, 23,40,movements,el-ex, rt, d,219516.28557766668, -1.525494241093528, 0.42096144820691017, 0.4491348318699681, -0.23902994394302368, 0.14415210485458374, 0.09757289290428162, -0.9117602109909058, -0.4086381494998932, -0.0413329191505909, -0.011976480484008789, -0.0237044095993042, 0.061322033405303955, 0.2977109613863262, -0.6250613764578711, 0.7213788368227241,0.01670765677559971,-0.923736572265625,-0.432342529296875,0.019989013671875
20220224-1000,2022-02-24 10:00:21Z,u01, 24,40,movements,el-ex, rt, d,219516.31052366667, -1.5178832215458122, 0.41761272430517005, 0.4393447764074906, -0.4358851909637451, 0.08851734548807144, 0.10980771481990814, -0.9127806425094604, -0.40557950735092163, -0.04834318533539772, 0.09483319520950317, -0.028945088386535645, 0.03308451175689697, 0.29348798008641724, -0.6242541257727923, 0.7238321442619237,0.015452496763912305,-0.823150634765625,-0.43853759765625,-0.013824462890625
20220224-1000,2022-02-24 10:00:21Z,u01, 25,40,movements,el-ex, rt, d,219516.33547066667, -1.5138623414326813, 0.41513554413847775, 0.42970167823881156, -0.21775123476982117, -0.0020542973652482033, 0.09678839147090912, -0.9135791063308716, -0.4033139646053314, -0.052069973200559616, 0.04629999399185181, -0.007406890392303467, 0.03295081853866577, 0.2896268663285869, -0.6245648820846839, 0.7251589943868597,0.013398999378476273,-0.867279052734375,-0.4107208251953125,-0.0191192626953125
20220224-1000,2022-02-24 10:00:21Z,u01, 26,40,movements,el-ex, rt, d,219516.3604166667, -1.512212399831707, 0.41248164688416444, 0.4308490782500605, 0.3715076744556427, 0.2534947097301483, 0.11653047055006027, -0.9145570993423462, -0.40088406205177307, -0.0536397248506546, -0.04641085863113403, 0.02388519048690796, 0.051747746765613556, 0.2890906942237688, -0.6241848348901343, 0.7256692145524358,0.014967013559010311,-0.9706878662109375,-0.38372802734375,0.013275146484375
20220224-1000,2022-02-24 10:00:21Z,u01, 27,40,movements,el-ex, rt, d,219516.3853636667, -1.5151038925132192, 0.4115877711807452, 0.45237800143648554, 1.188850998878479, 0.17736172676086426, 0.039097860455513, -0.9150660037994385, -0.40006500482559204, -0.05101500824093819, 0.05150991678237915, 0.10529565811157227, -0.03475458174943924, 0.2955297613978286, -0.622217531632182, 0.7245648995332268,0.022657655390007636,-0.863555908203125,-0.294769287109375,-0.0857696533203125
20220224-1000,2022-02-24 10:00:21Z,u01, 28,40,movements,el-ex, rt, d,219516.41030966668, -1.527975433681689, 0.4139862180873264, 0.49339635267077925, 1.6270561218261719, 0.15423524379730225, -0.05734465643763542, -0.9146854281425476, -0.40226200222969055, -0.039191603660583496, 0.009503483772277832, 0.025156289339065552, -0.05091142654418945, 0.30924331633970376, -0.6203005478847003, 0.7199944273032233,0.034696836925773356,-0.889892578125,-0.3570404052734375,-0.1105804443359375
20220224-1000,2022-02-24 10:00:21Z,u01, 29,40,movements,el-ex, rt, d,219516.43525666668, -1.5393751520560144, 0.4155585163058655, 0.5315502133752624, 1.0511820316314697, 0.1395409107208252, 0.05281613767147064, -0.9144393801689148, -0.40370097756385803, -0.028742220252752304, -0.009037792682647705, -0.03318867087364197, 0.013590337708592415, 0.3217940404125404, -0.6181241669778736, 0.7157169486610605,0.04604731992674527,-0.9234771728515625,-0.4368896484375,-0.0151519775390625
20220224-1000,2022-02-24 10:00:21Z,u01, 30,40,movements,el-ex, rt, d,219516.46020266667, -1.5427079460242188, 0.4131127718030254, 0.5466667976323821, 0.04968142509460449, 0.08322497457265854, 0.14898401498794556, -0.9155144691467285, -0.4014621675014496, -0.025722084566950798, -0.01186913251876831, -0.0384640097618103, 0.0297505222260952, 0.32576320563959016, -0.6172659812730872, 0.7142700704175707,0.051763451673419725,-0.925689697265625,-0.439300537109375,0.0075225830078125
20220224-1000,2022-02-24 10:00:21Z,u01, 31,40,movements,el-ex, rt, d,219516.48514966667, -1.537522843925173, 0.409187117133876, 0.5368191463899652, -0.6579743027687073, 0.005120591260492802, 0.14385636150836945, -0.9169368147850037, -0.3978636860847473, -0.03052094578742981, -0.022318005561828613, -0.034463584423065186, 0.019412636756896973, 0.3213360179808168, -0.6176428506927978, 0.7160416561831349,0.050446843491674886,-0.9392547607421875,-0.4323272705078125,-0.0111083984375
20220224-1000,2022-02-24 10:00:21Z,u01, 32,40,movements,el-ex, rt, d,219516.5100956667, -1.5302856291038256, 0.40434293345240097, 0.5182538234825731, -0.6266654133796692, -0.001191234216094017, 0.19747523963451385, -0.9186067581176758, -0.39341476559638977, -0.03723377361893654, -0.03946202993392944, 0.026105225086212158, -0.03963988646864891, 0.31386129216388736, -0.6187682951458408, 0.7186401039184811,0.046618305888296185,-0.9572601318359375,-0.373046875,-0.066650390625
20220224-1000,2022-02-24 10:00:21Z,u01, 33,40,movements,el-ex, rt, d,219516.53504266668, -1.5248167962418604, 0.39924860281623414, 0.5053532614301125, -0.3486177921295166, 0.013675662688910961, 0.16953423619270325, -0.9203797578811646, -0.388726145029068, -0.042348477989435196, -0.015991270542144775, 0.040978312492370605, -0.028375927358865738, 0.3080876530994684, -0.6196029046437901, 0.7205457193296064,0.04459011491042464,-0.936370849609375,-0.347747802734375,-0.0707244873046875
20220224-1000,2022-02-24 10:00:21Z,u01, 34,40,movements,el-ex, rt, d,219516.55998866668, -1.5227630637871337, 0.3952192995425998, 0.49878288023040873, -0.20343326032161713, -0.048138637095689774, 0.11660237610340118, -0.9218477010726929, -0.38501060009002686, -0.04431343823671341, -0.01992475986480713, -0.011214405298233032, 0.012498978525400162, 0.30468920783678455, -0.6204899413194781, 0.7212676543896809,0.04392847055247545,-0.934783935546875,-0.3952178955078125,-0.0352020263671875
20220224-1000,2022-02-24 10:00:21Z,u01, 35,40,movements,el-ex, rt, d,219516.58493566667, -1.521911562100349, 0.3926927338517254, 0.49350507718364045, -0.20527713000774384, 0.01894286274909973, 0.08149465173482895, -0.9227781891822815, -0.3826775550842285, -0.04514576494693756, -0.07070618867874146, -0.010205686092376709, 0.031168825924396515, 0.30220449937140376, -0.6213691003652668, 0.7216104018355517,0.043026160065673336,-0.9934844970703125,-0.39288330078125,-0.01397705078125
20220224-1000,2022-02-24 10:00:21Z,u01, 36,40,movements,el-ex, rt, d,219516.6098816667, -1.5181125744621664, 0.39008412117395785, 0.4890876012574615, -0.12397581338882446, 0.09959496557712555, 0.10347039252519608, -0.9235939383506775, -0.3802662193775177, -0.04870346188545227, -0.029729485511779785, 0.0201130211353302, 0.011105895042419434, 0.2998937358807068, -0.6210571760860342, 0.7228493632348629,0.04290247007611436,-0.96405029296875,-0.364593505859375,-0.0322418212890625
20220224-1000,2022-02-24 10:00:21Z,u01, 37,40,movements,el-ex, rt, d,219516.63482766668, -1.5152568060386302, 0.387310773860532, 0.48734500992973917, -0.018981557339429855, 0.07211873680353165, 0.09896019846200943, -0.924500584602356, -0.37769976258277893, -0.05139917880296707, -0.006270468235015869, 0.025420039892196655, -0.014045663177967072, 0.29837701517729676, -0.6207024789830012, 0.7237361657609702,0.043654344806091205,-0.9307708740234375,-0.3522796630859375,-0.0654449462890625
20220224-1000,2022-02-24 10:00:21Z,u01, 38,40,movements,el-ex, rt, d,219516.6597745, -1.5139933910329553, 0.38502777541027233, 0.4889642424746669, 0.13620209693908691, 0.08705893158912659, 0.10789896547794342, -0.9252933263778687, -0.3755848705768585, -0.05261598154902458, -0.021209418773651123, -0.002421140670776367, -0.011089324951171875, 0.2980977372803568, -0.6203464750479271, 0.7240606205974375,0.0452140769351046,-0.9448089599609375,-0.36859130859375,-0.066619873046875
20220224-1000,2022-02-24 10:00:21Z,u01, 39,40,movements,el-ex, rt, d,219516.68472050002, -1.5135316520599593, 0.3827370088804284, 0.493307476174747, 0.125857412815094, 0.11723487824201584, 0.10453213006258011, -0.9261254668235779, -0.3734608292579651, -0.05309231951832771, -0.016852498054504395, -0.019452959299087524, 0.011893689632415771, 0.2986772794165709, -0.6198755701237961, 0.7240693425994953,0.047642853895197734,-0.9429779052734375,-0.392913818359375,-0.04119873046875
20220224-1000,2022-02-24 10:00:21Z,u01, 40,40,movements,el-ex, rt, d,219516.70966750002, -1.510523904576284, 0.3796912552596766, 0.49449428174609733, -0.062241509556770325, 0.15238487720489502, 0.12782306969165802, -0.9270927309989929, -0.37063372135162354, -0.05594588443636894, 0.01716524362564087, -0.020647406578063965, 0.031226754188537598, 0.29796522532386416, -0.6190668637707317, 0.7249249010963629,0.0495674176495326,-0.916717529296875,-0.390716552734375,-0.024566650390625
20220224-1000,2022-02-24 10:00:21Z,u01, 41,40,movements,el-ex, rt, d,219516.7346135, -1.5054984489128809, 0.37565289701066806, 0.4908917638289364, -0.1845826953649521, 0.12081050127744675, 0.15213513374328613, -0.9282857179641724, -0.36687996983528137, -0.060701385140419006, 0.02618616819381714, -0.029711216688156128, 0.01552022248506546, 0.2953863758833593, -0.6183819174931406, 0.7265064043485754,0.050389742397768,-0.902099609375,-0.3965911865234375,-0.0451812744140625
20220224-1000,2022-02-24 10:00:21Z,u01, 42,40,movements,el-ex, rt, d,219516.7595605, -1.5024523562126937, 0.37164600017749844, 0.4875720128626294, -0.10955889523029327, 0.0861937403678894, 0.17862726747989655, -0.9295557141304016, -0.3631495535373688, -0.06362862884998322, 0.005758106708526611, 0.006048113107681274, -0.01042216271162033, 0.29294938060710496, -0.6183577823578237, 0.7274703876660237,0.0510015789968013,-0.9177703857421875,-0.36761474609375,-0.0743560791015625
20220224-1000,2022-02-24 10:00:21Z,u01, 43,40,movements,el-ex, rt, d,219516.7845065, -1.5013483528699596, 0.3677480361204371, 0.4872258036732361, -0.024420399218797684, 0.13268513977527618, 0.20818842947483063, -0.930889904499054, -0.3595149517059326, -0.06475254893302917, -0.01202690601348877, 0.022509396076202393, -0.008153840899467468, 0.29151365348055236, -0.6185818577384041, 0.7277593803843612,0.05236868940997608,-0.9429168701171875,-0.337005615234375,-0.072906494140625
20220224-1000,2022-02-24 10:00:21Z,u01, 44,40,movements,el-ex, rt, d,219516.80945350003, -1.5003717048107044, 0.3642856286728621, 0.4873449091613288, -0.07227873802185059, 0.10111603140830994, 0.174955353140831, -0.9320625066757202, -0.35628190636634827, -0.06574888527393341, -0.00937432050704956, 0.008366227149963379, -0.019425570964813232, 0.29036811063086243, -0.618717964351994, 0.7280020321046348,0.05373632317478416,-0.9399566650390625,-0.346221923828125,-0.0829620361328125
20220224-1000,2022-02-24 10:00:21Z,u01, 45,40,movements,el-ex, rt, d,219516.83439950002, -1.4974193087471817, 0.3602859669954092, 0.4856711361585625, -0.05045163258910179, 0.09826477617025375, 0.18846817314624786, -0.93327796459198, -0.35254186391830444, -0.06860432773828506, -0.01131737232208252, -0.004345923662185669, -0.03594880551099777, 0.2884316868866411, -0.6184698853570447, 0.7288938395909766,0.054918037698521105,-0.9445953369140625,-0.3568878173828125,-0.10455322265625
20220224-1000,2022-02-24 10:00:21Z,u01, 46,40,movements,el-ex, rt, d,219516.85934650002, -1.4953303378108593, 0.3553423387600748, 0.4862381114019785, 0.05275304988026619, 0.042208969593048096, 0.17487485706806183, -0.9348591566085815, -0.3479113280773163, -0.07068430632352829, 0.008757412433624268, 0.015254467725753784, -0.016351699829101562, 0.2868901128603285, -0.6183461083212484, 0.7294387146143125,0.057108932823006,-0.923553466796875,-0.3357391357421875,-0.0952911376953125
20220224-1000,2022-02-24 10:00:21Z,u01, 47,40,movements,el-ex, rt, d,219516.8842925, -1.4943307457009902, 0.35115041181474366, 0.4868760458427731, -0.04524941369891167, 0.06305858492851257, 0.16906598210334778, -0.9362340569496155, -0.34397825598716736, -0.07172953337430954, -0.022399544715881348, -0.004502028226852417, 0.029294900596141815, 0.28564986271486825, -0.6184976862134209, 0.7296536541923904,0.058911042144909886,-0.9586334228515625,-0.348480224609375,-0.0424346923828125
20220224-1000,2022-02-24 10:00:21Z,u01, 48,40,movements,el-ex, rt, d,219516.90923850003, -1.489930259003558, 0.34698200921838435, 0.4836195648755403, -0.16339921951293945, 0.1075831800699234, 0.15463243424892426, -0.9373302459716797, -0.340061217546463, -0.07596386969089508, -0.03285413980484009, -0.007305115461349487, 0.022146224975585938, 0.28310855959792547, -0.6179543756503754, 0.7310337095626843,0.059763772217068745,-0.9711761474609375,-0.3509063720703125,-0.048187255859375
20220224-1000,2022-02-24 10:00:21Z,u01, 49,40,movements,el-ex, rt, d,219516.93418550002, -1.4841754298942305, 0.3429104541106907, 0.479798219776019, -0.09089818596839905, 0.16220076382160187, 0.13987094163894653, -0.9382492303848267, -0.336229532957077, -0.0814758688211441, -0.00886392593383789, 0.005098521709442139, 0.00020766258239746094, 0.28037842476755015, -0.6169683991088963, 0.7328513178783732,0.060555675364454165,-0.947113037109375,-0.3311309814453125,-0.081268310546875
20220224-1000,2022-02-24 10:00:21Z,u01, 50,40,movements,el-ex, rt, d,219516.9591315, -1.4818527181040448, 0.33957624711477635, 0.4807035260180325, 0.11008857190608978, 0.09938530623912811, 0.14609235525131226, -0.9391688704490662, -0.3330875635147095, -0.0837540403008461, 0.021947741508483887, 0.03453409671783447, -0.004807889461517334, 0.27945489342673757, -0.6164640633635887, 0.7334785971923827,0.06234004849963931,-0.9125823974609375,-0.302825927734375,-0.08880615234375
20220224-1000,2022-02-24 10:00:22Z,u01, 51,40,movements,el-ex, rt, d,219516.9840785, -1.4828351254009393, 0.3369598736025778, 0.4866563445330596, 0.266423761844635, 0.10685747116804123, 0.13371624052524567, -0.9401155710220337, -0.3306194543838501, -0.08290762454271317, -0.031182706356048584, 0.018516182899475098, 0.004401266574859619, 0.2804329750232375, -0.6163631498806529, 0.7329350971513969,0.0652690524207637,-0.9712982177734375,-0.312103271484375,-0.0785064697265625
20220224-1000,2022-02-24 10:00:22Z,u01, 52,40,movements,el-ex, rt, d,219517.0090245, -1.4824560493761836, 0.3345833733409004, 0.4944660556689066, 0.26896020770072937, 0.1949269324541092, 0.13296955823898315, -0.9408641457557678, -0.3283756673336029, -0.0833330899477005, -0.046074509620666504, 0.007223933935165405, -0.01491815596818924, 0.2820196134858876, -0.615465996217676, 0.7327397394762332,0.0689869805219801,-0.996490478515625,-0.3237152099609375,-0.09759521484375
20220224-1000,2022-02-24 10:00:22Z,u01, 53,40,movements,el-ex, rt, d,219517.0339715, -1.479951914294029, 0.3307308556830467, 0.5025858097018645, 0.345475435256958, 0.1926356852054596, 0.20371711254119873, -0.9419053792953491, -0.3247343599796295, -0.08580300956964493, 0.009944140911102295, 0.006985306739807129, -0.027935929596424103, 0.2831203281540006, -0.6139555165504695, 0.7331318209177521,0.07361663735179153,-0.9319610595703125,-0.3177490234375,-0.113739013671875
20220224-1000,2022-02-24 10:00:22Z,u01, 54,40,movements,el-ex, rt, d,219517.05891750002, -1.4790516587482305, 0.3265840226784766, 0.5128506356071573, 0.35242921113967896, 0.14168275892734528, 0.19412334263324738, -0.9431606531143188, -0.3208094835281372, -0.08677355945110321, 0.035598158836364746, 0.007012456655502319, -0.008685357868671417, 0.28482900071563844, -0.61276884833385, 0.7329127588190063,0.07890424978136179,-0.907073974609375,-0.311279296875,-0.107635498046875
20220224-1000,2022-02-24 10:00:22Z,u01, 55,40,movements,el-ex, rt, d,219517.08386450002, -1.4777490932732735, 0.3226256551915503, 0.5178097581238911, -0.11226893216371536, 0.1310456246137619, 0.15980084240436554, -0.9443038105964661, -0.31705784797668457, -0.08811930567026138, -0.006791949272155762, -0.012287914752960205, 0.06249987334012985, 0.28495432146487754, -0.6121612376436297, 0.7330050733021054,0.08223984308326315,-0.9510955810546875,-0.329345703125,-0.0256195068359375
20220224-1000,2022-02-24 10:00:22Z,u01, 56,40,movements,el-ex, rt, d,219517.1088105, -1.47002411895025, 0.3169166064801251, 0.5077753425405434, -0.6203683018684387, 0.21626850962638855, 0.21419283747673035, -0.9453802704811096, -0.311638206243515, -0.09559185802936554, -0.01664060354232788, -0.020560890436172485, 0.04021782428026199, 0.2796269090820311, -0.6115659106457243, 0.7356244929548184,0.0815632469918991,-0.9695892333984375,-0.3430023193359375,-0.040069580078125
20220224-1000,2022-02-24 10:00:22Z,u01, 57,40,movements,el-ex, rt, d,219517.1337575, -1.460695332494091, 0.30962058368429574, 0.49442225751452956, -0.35594749450683594, 0.16466404497623444, 0.2594664394855499, -0.9466822147369385, -0.30469727516174316, -0.10465388000011444, 0.025783777236938477, 0.008859872817993164, -0.030477821826934814, 0.2726672474955784, -0.6110037914690317, 0.7388286983708935,0.08036897060397424,-0.9208984375,-0.29583740234375,-0.1351318359375
20220224-1000,2022-02-24 10:00:22Z,u01, 58,40,movements,el-ex, rt, d,219517.15870350003, -1.4559320702348388, 0.3038247503309714, 0.4909466869047427, -0.016098853200674057, 0.148689866065979, 0.16667179763317108, -0.9479115009307861, -0.29917195439338684, -0.10936254262924194, -0.024958431720733643, 0.02483421564102173, 0.026660025119781494, 0.2694135942996366, -0.610520305744414, 0.740279009795005,0.08166026332041493,-0.9602203369140625,-0.2652130126953125,-0.0986328125
20220224-1000,2022-02-24 10:00:22Z,u01, 59,40,movements,el-ex, rt, d,219517.18365050002, -1.4507023775851444, 0.29883396499033826, 0.48887976878183104, -0.2505969703197479, 0.21688729524612427, 0.21296019852161407, -0.9487970471382141, -0.29440605640411377, -0.11449575424194336, -0.036218881607055664, -0.00845038890838623, 0.05039370059967041, 0.26683902160146444, -0.6095482417719175, 0.7418333663302368,0.08325356563203279,-0.985015869140625,-0.3028564453125,-0.0641021728515625
20220224-1000,2022-02-24 10:00:22Z,u01, 60,40,movements,el-ex, rt, d,219517.20859650002, -1.442650551866111, 0.29207468806642695, 0.4802246731471971, -0.3874032497406006, 0.21097248792648315, 0.2604154050350189, -0.9497964382171631, -0.2879396677017212, -0.12238302826881409, 0.02567833662033081, 0.011862426996231079, -0.014884881675243378, 0.2615141986196866, -0.6086204144680218, 0.7444771711176214,0.08333850934327663,-0.933258056640625,-0.2843780517578125,-0.12158203125
20220224-1000,2022-02-24 10:00:22Z,u01, 61,40,movements,el-ex, rt, d,219517.2335425, -1.4358642564347568, 0.2836573536553493, 0.4739626783877539, -0.19222940504550934, 0.1896146684885025, 0.3409069776535034, -0.9513121247291565, -0.2798687219619751, -0.1291472464799881, 0.04056066274642944, 0.029517769813537598, -0.047000110149383545, 0.2563748088486099, -0.6080282347383201, 0.7465968390067212,0.08465769008876467,-0.9107513427734375,-0.2503509521484375,-0.1761474609375
20220224-1000,2022-02-24 10:00:22Z,u01, 62,40,movements,el-ex, rt, d,219517.2584895, -1.4310462032874267, 0.27370532816418536, 0.4719155933874753, -0.0983714908361435, 0.1382175236940384, 0.4022963047027588, -0.9533897042274475, -0.2703006863594055, -0.13411052525043488, 0.039891719818115234, 0.021109402179718018, -0.03257632255554199, 0.25203931483185354, -0.6078000646455017, 0.747897671129449,0.08777438048412206,-0.90765380859375,-0.2461700439453125,-0.1770477294921875
20220224-1000,2022-02-24 10:00:22Z,u01, 63,40,movements,el-ex, rt, d,219517.28343550002, -1.426981442172557, 0.26371324540934055, 0.46795262463090714, -0.3562443256378174, 0.12963815033435822, 0.36020129919052124, -0.9554620385169983, -0.26066720485687256, -0.13836489617824554, -0.011731564998626709, -0.009932130575180054, 0.03291149437427521, 0.24711876004692063, -0.6080706112671048, 0.7490457842824644,0.09007121407529262,-0.967193603515625,-0.270599365234375,-0.1054534912109375
20220224-1000,2022-02-24 10:00:22Z,u01, 64,40,movements,el-ex, rt, d,219517.30838250002, -1.4219295347717666, 0.2529510223251149, 0.4595810157112365, -0.3440108001232147, 0.0912972241640091, 0.32905492186546326, -0.9574699997901917, -0.25026217103004456, -0.1435978263616562, -0.037235379219055176, -0.04163852334022522, -0.06430311501026154, 0.24051676983568335, -0.6085661579382261, 0.7506707767823472,0.0910629513386691,-0.9871673583984375,-0.30084228515625,-0.1922607421875
20220224-1000,2022-02-24 10:00:22Z,u01, 65,40,movements,el-ex, rt, d,219517.3333285, -1.4196256745468872, 0.24598024214940836, 0.4567044295398181, 0.052559468895196915, 0.034317560493946075, 0.24618080258369446, -0.9588378667831421, -0.24350717663764954, -0.1460624784231186, -0.055352866649627686, -0.00579090416431427, -0.051920220255851746, 0.23704642599013592, -0.6089152272961378, 0.7513119566820788,0.09252884935299621,-1.014190673828125,-0.249298095703125,-0.1979827880859375
20220224-1000,2022-02-24 10:00:22Z,u01, 66,40,movements,el-ex, rt, d,219517.3582755, -1.420512278722462, 0.24027170310803653, 0.4628386049753224, 0.2958827614784241, 0.006477938033640385, 0.2571074664592743, -0.9603258371353149, -0.23796653747558594, -0.14541807770729065, -0.058427274227142334, 0.023717880249023438, -0.0071849822998046875, 0.23691580662544723, -0.6092305489969849, 0.7505867584248509,0.09658511184826574,-1.0170440673828125,-0.207366943359375,-0.15362548828125
20220224-1000,2022-02-24 10:00:22Z,u01, 67,40,movements,el-ex, rt, d,219517.3832215, -1.4215640045407048, 0.23521706625396768, 0.46820696625601754, -0.005090243183076382, 0.01156404335051775, 0.22966121137142181, -0.9616553783416748, -0.23305408656597137, -0.14458498358726501, -0.06503230333328247, -0.017525747418403625, 0.014641240239143372, 0.23679748652480315, -0.6096182914655013, 0.7498457606447211,0.10011929140135062,-1.0266876220703125,-0.250579833984375,-0.12994384765625
20220224-1000,2022-02-24 10:00:22Z,u01, 68,40,movements,el-ex, rt, d,219517.40816850003, -1.4206470151228459, 0.22904931589034708, 0.46642146516035526, -0.13847392797470093, 0.053177665919065475, 0.2023508995771408, -0.9629254937171936, -0.2270517647266388, -0.14567901194095612, -0.06205332279205322, -0.0082998126745224, -0.01787985861301422, 0.23400187676190817, -0.6102488115923254, 0.7500163271707174,0.10156405263197127,-1.0233154296875,-0.2407684326171875,-0.1616058349609375
20220224-1000,2022-02-24 10:00:22Z,u01, 69,40,movements,el-ex, rt, d,219517.43311450002, -1.4181238236749154, 0.224116216978257, 0.4645734979142408, -0.06031548231840134, 0.1140655130147934, 0.16757401823997498, -0.9636501669883728, -0.2222447693347931, -0.14827673137187958, -0.05321097373962402, -0.003509029746055603, -0.010719731450080872, 0.23154218614588645, -0.6101228156068128, 0.7507180003479328,0.10276701847583963,-1.0168609619140625,-0.2257537841796875,-0.15899658203125
20220224-1000,2022-02-24 10:00:22Z,u01, 70,40,movements,el-ex, rt, d,219517.4580605, -1.4154681205577533, 0.22063640209022484, 0.46503847440092877, 0.05292652174830437, 0.0976327434182167, 0.10824117809534073, -0.9640111923217773, -0.21885064244270325, -0.15095409750938416, -0.03933066129684448, 0.01062917709350586, -0.0030680447816848755, 0.23029753537306924, -0.6094965101451435, 0.751387181729985,0.1043767995268321,-1.0018463134765625,-0.2097625732421875,-0.153839111328125
20220224-1000,2022-02-24 10:00:22Z,u01, 71,40,movements,el-ex, rt, d,219517.4830075, -1.4138912187989272, 0.21881711823795996, 0.4689427685897856, 0.2628729045391083, 0.092268206179142, 0.10099192708730698, -0.9641634821891785, -0.21707509458065033, -0.15253600478172302, -0.04805880784988403, -0.0018579810857772827, -0.02243642508983612, 0.23074980203014597, -0.6086760420732233, 0.7515992010504923,0.10661470580767651,-1.0122222900390625,-0.21893310546875,-0.1749725341796875
20220224-1000,2022-02-24 10:00:22Z,u01, 72,40,movements,el-ex, rt, d,219517.50795350003, -1.4140324190419848, 0.21828842078536895, 0.4794998650710609, 0.5315155386924744, 0.06540936231613159, 0.07498928904533386, -0.9642983078956604, -0.21655897796154022, -0.15241777896881104, -0.030818939208984375, -0.00034470856189727783, -0.036348581314086914, 0.23377766612124212, -0.607568197993788, 0.7509638920923142,0.11073505333167555,-0.998443603515625,-0.21649169921875,-0.194122314453125
20220224-1000,2022-02-24 10:00:22Z,u01, 73,40,movements,el-ex, rt, d,219517.53290050002, -1.4158318353177333, 0.2186263339234112, 0.4940587585810253, 0.5350208878517151, 0.04656430333852768, 0.08970777690410614, -0.9644986391067505, -0.21688885986804962, -0.15067104995250702, -0.023263871669769287, -0.004516169428825378, -0.007806658744812012, 0.23841943864700707, -0.606482190283623, 0.7496056373831301,0.11587500210872093,-0.987762451171875,-0.221405029296875,-0.158477783203125
20220224-1000,2022-02-24 10:00:22Z,u01, 74,40,movements,el-ex, rt, d,219517.5578465, -1.4167714580112405, 0.21777343642494837, 0.5041155439705587, 0.22484013438224792, 0.04379621520638466, 0.11110947281122208, -0.9648222327232361, -0.21605618298053741, -0.14979304373264313, -0.004278779029846191, -0.03035798668861389, 0.013013362884521484, 0.24121800167098867, -0.6057370326660156, 0.7486944327085661,0.11980525854980428,-0.9748077392578125,-0.2455902099609375,-0.134613037109375
20220224-1000,2022-02-24 10:00:22Z,u01, 75,40,movements,el-ex, rt, d,219517.5827935, -1.417036700668775, 0.21530486241223284, 0.5082268548462767, 0.09634567052125931, 0.0015646042302250862, 0.13072417676448822, -0.9653860330581665, -0.21364526450634003, -0.14961834251880646, 0.011299669742584229, -0.01403111219406128, 0.0021575242280960083, 0.24159878096451198, -0.6056573744701494, 0.7482635442330035,0.12211017707918448,-0.9540863037109375,-0.2276763916015625,-0.1474609375
20220224-1000,2022-02-24 10:00:22Z,u01, 76,40,movements,el-ex, rt, d,219517.6077395, -1.4175875853524282, 0.21170032028835983, 0.5109713387092466, 0.09206726402044296, 0.009390237741172314, 0.19199466705322266, -0.9662232398986816, -0.21012257039546967, -0.1492030769586563, 6.705522537231445e-05, -0.007528811693191528, 0.020159587264060974, 0.2411788884003437, -0.6059960410342653, 0.7477748881439523,0.12423552208506272,-0.9624176025390625,-0.2135162353515625,-0.1292266845703125
20220224-1000,2022-02-24 10:00:22Z,u01, 77,40,movements,el-ex, rt, d,219517.6326865, -1.4179513366251337, 0.20670749236632788, 0.5144295698584033, 0.13424061238765717, 0.011640475131571293, 0.23610420525074005, -0.9673020839691162, -0.20523859560489655, -0.14900945127010345, 0.003770589828491211, -0.029212668538093567, 0.011497333645820618, 0.2404698946483534, -0.606357569465995, 0.7472288056836498,0.1270978302464444,-0.963531494140625,-0.2344512939453125,-0.13751220703125
20220224-1000,2022-02-24 10:00:22Z,u01, 78,40,movements,el-ex, rt, d,219517.65763300002, -1.4189350531587273, 0.20154165027626447, 0.5199030285895921, 0.22861289978027344, 0.00038375984877347946, 0.224360391497612, -0.9684834480285645, -0.20018000900745392, -0.14821626245975494, -0.001823127269744873, -0.02137763798236847, 0.007804974913597107, 0.24035196292646557, -0.6067312412436945, 0.7463430170152007,0.13069213641217353,-0.9638824462890625,-0.219329833984375,-0.1514739990234375
20220224-1000,2022-02-24 10:00:22Z,u01, 79,40,movements,el-ex, rt, d,219517.68258000002, -1.4201778954042525, 0.1971976420514453, 0.5269600759571538, 0.22366341948509216, 0.02435913309454918, 0.1935766488313675, -0.9695173501968384, -0.19592206180095673, -0.14714154601097107, -0.02851426601409912, -0.042954251170158386, 0.044755175709724426, 0.24102855996058564, -0.6069056412873691, 0.7452917567511086,0.13457704931204473,-0.9980316162109375,-0.2388763427734375,-0.102386474609375
20220224-1000,2022-02-24 10:00:22Z,u01, 80,40,movements,el-ex, rt, d,219517.707526, -1.4206655514489828, 0.19378602263993075, 0.5317686014216959, 0.09003027528524399, 0.026136860251426697, 0.18576167523860931, -0.9702444076538086, -0.19257542490959167, -0.14676788449287415, -0.03209036588668823, -0.008962690830230713, 0.033883437514305115, 0.24130690817648703, -0.6069489546649057, 0.7446491964677362,0.13741070517982817,-1.003753662109375,-0.2107086181640625,-0.10345458984375
20220224-1000,2022-02-24 10:00:22Z,u01, 81,40,movements,el-ex, rt, d,219517.732472, -1.420254911910482, 0.19026584109916894, 0.5336317355331518, 0.046215254813432693, 0.026994597166776657, 0.15938085317611694, -0.9708482027053833, -0.18911994993686676, -0.14726704359054565, -0.04175567626953125, 0.004717499017715454, 0.024357616901397705, 0.24059139111548192, -0.6070273998695915, 0.7444676318132901,0.13928947936117603,-1.012603759765625,-0.1844024658203125,-0.1229095458984375
20220224-1000,2022-02-24 10:00:22Z,u01, 82,40,movements,el-ex, rt, d,219517.757419, -1.4209399062436248, 0.18775497907363053, 0.5369390501675976, 0.15556950867176056, 0.031894415616989136, 0.1391119360923767, -0.9714154005050659, -0.18665380775928497, -0.14667241275310516, -0.04955035448074341, 0.02422398328781128, -0.015391066670417786, 0.24074997185221553, -0.6072093889956434, 0.7438988881731168,0.1412473810932962,-1.0219879150390625,-0.16644287109375,-0.1566009521484375
20220224-1000,2022-02-24 10:00:22Z,u01, 83,40,movements,el-ex, rt, d,219517.78236500002, -1.4218536534731354, 0.18606635228401147, 0.5422463605500009, 0.18038706481456757, 0.030352909117937088, 0.07376030087471008, -0.9718592762947083, -0.18499457836151123, -0.14583128690719604, -0.04454398155212402, 0.018826380372047424, -0.018017470836639404, 0.24182590626000222, -0.6071281470511438, 0.7431548381256335,0.14365468001102105,-1.0164031982421875,-0.166168212890625,-0.163848876953125
20220224-1000,2022-02-24 10:00:22Z,u01, 84,40,movements,el-ex, rt, d,219517.80731200002, -1.4226440051398952, 0.18516642498672975, 0.5457897206663099, 0.08467616140842438, -0.00022943317890167236, 0.0376921109855175, -0.9721384048461914, -0.1841101199388504, -0.14508762955665588, -0.04843050241470337, 0.0043463557958602905, 0.007361903786659241, 0.24263897302103107, -0.6071099682226657, 0.7426108429978718,0.14516525645447848,-1.0158233642578125,-0.180816650390625,-0.1395416259765625
20220224-1000,2022-02-24 10:00:22Z,u01, 85,40,movements,el-ex, rt, d,219517.832258, -1.4230845333696216, 0.18531476596600344, 0.5477881951418865, 0.08574019372463226, -9.873881936073303e-05, -0.016298484057188034, -0.9721753597259521, -0.184255912899971, -0.14465536177158356, -0.0590595006942749, 0.008200019598007202, 0.006105661392211914, 0.24333023662835748, -0.6070112969242412, 0.7423398910111247,0.14580582295984387,-1.0312347412109375,-0.176055908203125,-0.1385498046875
20220224-1000,2022-02-24 10:00:22Z,u01, 86,40,movements,el-ex, rt, d,219517.857205, -1.4236909983630457, 0.1865736358537513, 0.550788488230553, 0.17587894201278687, -0.004951951093971729, -0.053281668573617935, -0.9720325469970703, -0.1854930818080902, -0.1440316140651703, -0.05399900674819946, 0.009055718779563904, -0.021144628524780273, 0.24473138808587952, -0.6067048192043807, 0.7420050125525953,0.14643920642568362,-1.0300140380859375,-0.172943115234375,-0.162841796875
20220224-1000,2022-02-24 10:00:22Z,u01, 87,40,movements,el-ex, rt, d,219517.88215100003, -1.4249466622359335, 0.188948875013512, 0.5558158629464295, 0.21040299534797668, -0.02990836650133133, -0.07768548280000687, -0.9717740416526794, -0.18782658874988556, -0.14274653792381287, -0.04354584217071533, -0.007363840937614441, 0.004028975963592529, 0.24718920159693686, -0.6062377681445971, 0.7413849814287455,0.1473828842526819,-1.01531982421875,-0.1951904296875,-0.1387176513671875
20220224-1000,2022-02-24 10:00:22Z,u01, 88,40,movements,el-ex, rt, d,219517.90709800003, -1.4265514032905762, 0.1914168929649364, 0.5592900324202511, 0.06971538066864014, -0.046366434544324875, -0.0889945924282074, -0.971540093421936, -0.19025009870529175, -0.1411198377609253, -0.07087934017181396, -0.027767449617385864, 0.05191701650619507, 0.24923285909321663, -0.6060718326069786, 0.7407781650566421,0.14767426120413452,-1.0379486083984375,-0.219085693359375,-0.09088134765625
20220224-1000,2022-02-24 10:00:22Z,u01, 89,40,movements,el-ex, rt, d,219517.93204400002, -1.427134384476313, 0.1935629648548219, 0.559383073246638, -0.020195025950670242, -0.0030742892995476723, -0.09562233090400696, -0.9712159633636475, -0.19235654175281525, -0.14049464464187622, -0.08022147417068481, -0.03089478611946106, 0.05126136541366577, 0.2500615743158961, -0.6059883547822423, 0.7407126964277329,0.1469426179289099,-1.0514373779296875,-0.2232513427734375,-0.0892333984375
20220224-1000,2022-02-24 10:00:22Z,u01, 90,40,movements,el-ex, rt, d,219517.95699, -1.4270525850538875, 0.19562070276372528, 0.5593837170224516, 0.08358592540025711, 0.006754572503268719, -0.07361803203821182, -0.9708106517791748, -0.1943754404783249, -0.14051708579063416, -0.07142579555511475, -0.052008211612701416, 0.028594017028808594, 0.25078182686581896, -0.6056813776168788, 0.7408498024610626,0.14628805155709262,-1.0437774658203125,-0.244537353515625,-0.1101837158203125
20220224-1000,2022-02-24 10:00:23Z,u01, 91,40,movements,el-ex, rt, d,219517.981937, -1.4278790789781899, 0.19900098660231166, 0.5644767614297673, 0.37855005264282227, 0.027720574289560318, -0.12313099205493927, -0.9702704548835754, -0.19769012928009033, -0.13962027430534363, -0.06868523359298706, -0.03877529501914978, -0.0011114329099655151, 0.25357514615619575, -0.6048880118104758, 0.7404106023386625,0.14697705836305408,-1.0389556884765625,-0.2364654541015625,-0.1407318115234375
20220224-1000,2022-02-24 10:00:23Z,u01, 92,40,movements,el-ex, rt, d,219518.00688300002, -1.4305608991933094, 0.20396173258371164, 0.5771291702158012, 0.618237316608429, -0.009064735844731331, -0.12079553306102753, -0.9696584939956665, -0.20255053043365479, -0.13687893748283386, -0.052283644676208496, -0.013452887535095215, -0.0028609633445739746, 0.2593391735704086, -0.6035757800708865, 0.7389365324030678,0.1497076771383605,-1.022369384765625,-0.2156982421875,-0.1414947509765625
20220224-1000,2022-02-24 10:00:23Z,u01, 93,40,movements,el-ex, rt, d,219518.03183000002, -1.4342205099156653, 0.20947204639692613, 0.5911248669918552, 0.4711207449436188, -0.04063398018479347, -0.14861930906772614, -0.9690324664115906, -0.20794351398944855, -0.13317546248435974, -0.0637739896774292, -0.03041401505470276, 0.015454068779945374, 0.26576100090216503, -0.6023149969235317, 0.7370881152062738,0.15260705408913525,-1.032806396484375,-0.2383575439453125,-0.1177215576171875
20220224-1000,2022-02-24 10:00:23Z,u01, 94,40,movements,el-ex, rt, d,219518.056776, -1.4371697563290369, 0.2147618841756018, 0.5993432826096031, 0.26126402616500854, -0.06297557055950165, -0.17951524257659912, -0.9683172702789307, -0.21311478316783905, -0.1301686018705368, -0.04990178346633911, -0.00999923050403595, -0.024265527725219727, 0.2703001014283227, -0.6015426444624684, 0.7358771771463432,0.15352241792665172,-1.025299072265625,-0.2349853515625,-0.1480255126953125
20220224-1000,2022-02-24 10:00:23Z,u01, 95,40,movements,el-ex, rt, d,219518.081723, -1.4403780584834023, 0.22022180652973056, 0.6051846056853525, 0.24823836982250214, -0.09459235519170761, -0.20035766065120697, -0.9675617218017578, -0.21844607591629028, -0.1269080638885498, -0.04228025674819946, 0.02923712134361267, -0.02842627465724945, 0.2741942531369682, -0.6011351593468595, 0.7347817528784218,0.1534594898436366,-1.0098419189453125,-0.189208984375,-0.15533447265625
20220224-1000,2022-02-24 10:00:23Z,u01, 96,40,movements,el-ex, rt, d,219518.106669, -1.4445687519651476, 0.22571502475747576, 0.6114880910183338, 0.31076738238334656, -0.11011911183595657, -0.16815845668315887, -0.9668801426887512, -0.22380331158638, -0.1226992979645729, -0.053154706954956055, 0.016894131898880005, -0.001873314380645752, 0.27830548164790697, -0.6009961812955605, 0.7333596604476015,0.15340589992344839,-1.0179290771484375,-0.1949920654296875,-0.1287384033203125
20220224-1000,2022-02-24 10:00:23Z,u01, 97,40,movements,el-ex, rt, d,219518.131616, -1.4489825226566846, 0.23110119264314705, 0.6177757966668588, 0.2137739509344101, -0.110460065305233, -0.1968783140182495, -0.9662017226219177, -0.22904957830905914, -0.11828233301639557, -0.047241389751434326, -0.04205332696437836, 0.005458950996398926, 0.28238338933297824, -0.6009313223714794, 0.7318676908068468,0.15333281185569286,-1.0134429931640625,-0.2711029052734375,-0.112823486328125
20220224-1000,2022-02-24 10:00:23Z,u01, 98,40,movements,el-ex, rt, d,219518.15656200002, -1.451465975490741, 0.23639834663028614, 0.6183799943772365, -0.1253061294555664, -0.07928463816642761, -0.21382246911525726, -0.9652743339538574, -0.23420266807079315, -0.11573639512062073, -0.015560805797576904, 0.003031998872756958, -0.0358290821313858, 0.2845673349521391, -0.6009602596883157, 0.7313858964304182,0.15146958407707214,-0.98773193359375,-0.2526092529296875,-0.1309051513671875
20220224-1000,2022-02-24 10:00:23Z,u01, 99,40,movements,el-ex, rt, d,219518.18150900002, -1.4525022053911325, 0.24085835851193627, 0.6134383709030076, -0.09892962127923965, -0.14380231499671936, -0.18334946036338806, -0.9643468260765076, -0.2385362982749939, -0.1146116629242897, 0.023749232292175293, 0.08701653778553009, -0.09441840648651123, 0.2846840988603018, -0.6013727069101245, 0.7317007759155856,0.14805365710102789,-0.9405975341796875,-0.151519775390625,-0.2090301513671875
20220224-1000,2022-02-24 10:00:23Z,u01, 100,40,movements,el-ex, rt, d,219518.206455, -1.4571541641210586, 0.24663056293852526, 0.616218949345695, 0.3505541682243347, -0.17104804515838623, -0.23431916534900665, -0.9634854793548584, -0.24413786828517914, -0.10996637493371964, -0.03849822282791138, 0.07644379138946533, -0.008075535297393799, 0.28783177679674754, -0.6018053524879707, 0.7304233744396579,0.1465093680374868,-0.9896087646484375,-0.1602325439453125,-0.1396484375
20220224-1000,2022-02-24 10:00:23Z,u01, 101,40,movements,el-ex, rt, d,219518.23140100003, -1.4639431570871966, 0.2529917614219709, 0.6272661616897565, 0.467384934425354, -0.19042174518108368, -0.20253726840019226, -0.9626461863517761, -0.2503015995025635, -0.10325507074594498, -0.05169719457626343, 0.028728723526000977, 0.04113662242889404, 0.29381211212003355, -0.6017033390230888, 0.7279316955283227,0.1474553021830671,-1.01434326171875,-0.2215728759765625,-0.0621185302734375
20220224-1000,2022-02-24 10:00:23Z,u01, 102,40,movements,el-ex, rt, d,219518.25634800002, -1.4725851426582923, 0.25994330373780844, 0.6354360921512998, 0.2096683531999588, -0.3235701024532318, -0.2981155812740326, -0.9617475867271423, -0.25702574849128723, -0.09475923329591751, -0.056334078311920166, -0.05436030030250549, 0.008974440395832062, 0.29924801997294914, -0.6025537378075766, 0.7251320115749635,0.14684406176791068,-1.010833740234375,-0.3015899658203125,-0.0742034912109375
20220224-1000,2022-02-24 10:00:23Z,u01, 103,40,movements,el-ex, rt, d,219518.28129400001, -1.4810361265798415, 0.2679945694182167, 0.6357849469782293, -0.0372471809387207, -0.3759002089500427, -0.31721505522727966, -0.9604219794273376, -0.2647981345653534, -0.08643993735313416, -0.03547358512878418, 0.008831918239593506, -0.0415201261639595, 0.3026576844749818, -0.6042998895437129, 0.7230242512772772,0.14302465416706217,-0.9958953857421875,-0.2559661865234375,-0.127960205078125
20220224-1000,2022-02-24 10:00:23Z,u01, 104,40,movements,el-ex, rt, d,219518.306241, -1.490605718036626, 0.27649388773656774, 0.6341866937639931, -0.013904107734560966, -0.42700427770614624, -0.36757370829582214, -0.9589270949363708, -0.2729843854904175, -0.0770621970295906, -0.0443994402885437, 0.05101478099822998, -0.05904608964920044, 0.30567070898921334, -0.6066583204189301, 0.7207250757525852,0.13815412689936465,-0.9943389892578125,-0.216522216796875,-0.140533447265625
20220224-1000,2022-02-24 10:00:23Z,u01, 105,40,movements,el-ex, rt, d,219518.331187, -1.5012507786581073, 0.2859800769538328, 0.6349973505973261, 0.1650151014328003, -0.40638914704322815, -0.3606877028942108, -0.9570666551589966, -0.28209784626960754, -0.06666723638772964, -0.07943254709243774, 0.07866767048835754, -0.052061326801776886, 0.3097701234417635, -0.6088586462789721, 0.7179687803596164,0.13362107777569643,-1.0364990234375,-0.20343017578125,-0.1187286376953125
20220224-1000,2022-02-24 10:00:23Z,u01, 106,40,movements,el-ex, rt, d,219518.356134, -1.5118520065432315, 0.29545805137454995, 0.6396725328550715, 0.15193010866641998, -0.35732802748680115, -0.36749041080474854, -0.9550075531005859, -0.2911780774593353, -0.05635755881667137, -0.05025684833526611, -0.020909935235977173, -0.06588048487901688, 0.31499614408385523, -0.6104085929932572, 0.7149580957056926,0.13043722216641143,-1.0157012939453125,-0.2764739990234375,-0.1186981201171875
20220224-1000,2022-02-24 10:00:23Z,u01, 107,40,movements,el-ex, rt, d,219518.38108000002, -1.5205945390816855, 0.30773740385154497, 0.6405933227976955, -0.052767250686883926, -0.3558925986289978, -0.5835039019584656, -0.9518206715583801, -0.30290311574935913, -0.04782328009605408, -0.0381237268447876, -0.05947783589363098, -0.026959948241710663, 0.3198204601316752, -0.6113944985826205, 0.712906036087683,0.12520619843162362,-0.9899444580078125,-0.3623809814453125,-0.0747833251953125
20220224-1000,2022-02-24 10:00:23Z,u01, 108,40,movements,el-ex, rt, d,219518.40602700002, -1.53009430581933, 0.3208680877681454, 0.6437233104249297, 0.47366127371788025, -0.3240659534931183, -0.4750661253929138, -0.9481762051582336, -0.3153904676437378, -0.03861401230096817, -0.04951983690261841, 0.10207259654998779, 0.019433796405792236, 0.32558548357676975, -0.612116889538516, 0.7105171332817155,0.12030191433375936,-0.995330810546875,-0.2373046875,-0.016265869140625
20220224-1000,2022-02-24 10:00:23Z,u01, 109,40,movements,el-ex, rt, d,219518.430973, -1.5435362038801907, 0.3335042023298145, 0.6629831095716626, 0.946540117263794, -0.29240211844444275, -0.5245141386985779, -0.944550096988678, -0.32735615968704224, -0.025754932314157486, -0.016295909881591797, 0.11399251222610474, -0.005220293998718262, 0.3363027005234797, -0.6115742210507608, 0.7059345415953754,0.12055710044908982,-0.960845947265625,-0.2133636474609375,-0.030975341796875
20220224-1000,2022-02-24 10:00:23Z,u01, 110,40,movements,el-ex, rt, d,219518.455919, -1.5579596667191333, 0.3473057486398617, 0.6838469546477354, 0.512448787689209, -0.30968907475471497, -0.4507239758968353, -0.9402158856391907, -0.3403656482696533, -0.012069894932210445, -0.023483633995056152, 0.0013763606548309326, -0.0036160368472337723, 0.34786205253559876, -0.6107020919311107, 0.7010537475339524,0.12065975644597071,-0.9553985595703125,-0.3087005615234375,-0.0311431884765625
20220224-1000,2022-02-24 10:00:23Z,u01, 111,40,movements,el-ex, rt, d,219518.48086600003, -1.565661758975688, 0.35685014937362886, 0.6873148161553697, -0.18605969846248627, -0.23605599999427795, -0.34409141540527344, -0.9369895458221436, -0.3493245542049408, -0.004811078775674105, -0.047995924949645996, -0.04430645704269409, 0.02570044994354248, 0.3523246698544582, -0.6111151999539616, 0.6990474018049659,0.11721090779426474,-0.9849853515625,-0.3936309814453125,0.0208892822265625
20220224-1000,2022-02-24 10:00:23Z,u01, 112,40,movements,el-ex, rt, d,219518.50581200002, -1.5684043836110417, 0.36484619551005826, 0.6794980437809555, -0.27106860280036926, -0.2340584397315979, -0.30428650975227356, -0.9341760873794556, -0.35680562257766724, -0.002234500367194414, -0.001508176326751709, 0.0011842846870422363, 0.032660603523254395, 0.3525466127330914, -0.6120405506585214, 0.6991064160139262,0.11120960844670286,-0.94476318359375,-0.357025146484375,0.0312652587890625
20220224-1000,2022-02-24 10:00:23Z,u01, 113,40,movements,el-ex, rt, d,219518.53075900002, -1.573741191834061, 0.3717603904667641, 0.6762031462447807, 0.0237153060734272, -0.2809154987335205, -0.2513040602207184, -0.9316853284835815, -0.3632561266422272, 0.002743695629760623, 0.0014942288398742676, 0.0029808878898620605, 0.0071440935134887695, 0.35394537711603874, -0.6132654545930173, 0.6980280938791541,0.10670053392144152,-0.9301910400390625,-0.3602752685546875,0.0098876953125
20220224-1000,2022-02-24 10:00:23Z,u01, 114,40,movements,el-ex, rt, d,219518.555705, -1.5812916441943847, 0.37801790805811347, 0.6783651181873072, 0.08227039128541946, -0.2559509575366974, -0.24367617070674896, -0.9293469190597534, -0.369079053401947, 0.009754149243235588, -0.013035953044891357, 0.009414136409759521, -0.006748080253601074, 0.3569123400835897, -0.6144026823085261, 0.6959338637654416,0.10391859287460964,-0.943115234375,-0.3578643798828125,-0.00360107421875
20220224-1000,2022-02-24 10:00:23Z,u01, 115,40,movements,el-ex, rt, d,219518.580652, -1.58677755456951, 0.38365737524501303, 0.6782658830235412, -0.12519150972366333, -0.20898251235485077, -0.2073555886745453, -0.9271835088729858, -0.37431445717811584, 0.01481879223138094, 0.00013571977615356445, -0.0010364949703216553, 0.005887508392333984, 0.3588704142842533, -0.61532220983146, 0.6945545257858372,0.10091922795532693,-0.9270477294921875,-0.3753509521484375,0.0207061767578125
20220224-1000,2022-02-24 10:00:23Z,u01, 116,40,movements,el-ex, rt, d,219518.60559800002, -1.588296470080253, 0.388358346371256, 0.6702699416707295, -0.46728014945983887, -0.15294001996517181, -0.18102678656578064, -0.925390362739563, -0.37866953015327454, 0.0161961168050766, 0.012151777744293213, -0.029228419065475464, 0.03229641914367676, 0.3579030666300539, -0.6164442015874723, 0.6947266393052688,0.09621314132443742,-0.9099578857421875,-0.4019775390625,0.0444183349609375
20220224-1000,2022-02-24 10:00:23Z,u01, 117,40,movements,el-ex, rt, d,219518.63054500002, -1.5851314222696573, 0.393099963582764, 0.6542644472413457, -0.6761550307273865, -0.0915999636054039, -0.15422500669956207, -0.9236312508583069, -0.3830537796020508, 0.01324124913662672, -0.00817728042602539, -0.01906108856201172, 0.06120657920837402, 0.35425530682588413, -0.6173522514189408, 0.6966797652374551,0.08953659726687002,-0.9318084716796875,-0.4021148681640625,0.0744476318359375
20220224-1000,2022-02-24 10:00:23Z,u01, 118,40,movements,el-ex, rt, d,219518.6554910417, -1.581273879183212, 0.3964054710491039, 0.6374283929105085, -0.5343933701515198, -0.11845368146896362, -0.12104760110378265, -0.9224041700363159, -0.3861050605773926, 0.00966489128768444, -0.009999394416809082, 0.007259875535964966, 0.04250502586364746, 0.34989429705261477, -0.6183901896992843, 0.6987483171905016,0.08317648870247629,-0.926910400390625,-0.3769683837890625,0.0565032958984375
20220224-1000,2022-02-24 10:00:23Z,u01, 119,40,movements,el-ex, rt, d,219518.6804380417, -1.5786858479566097, 0.39961485246179734, 0.6250418511849196, -0.38076701760292053, -0.05730843171477318, -0.11048111319541931, -0.92118239402771, -0.3890635669231415, 0.0072678388096392155, -0.027838170528411865, 0.008234649896621704, 0.02695775032043457, 0.34694039263330356, -0.619085037280624, 0.7001832898681432,0.07816386773715439,-0.9490203857421875,-0.380828857421875,0.0342254638671875
20220224-1000,2022-02-24 10:00:23Z,u01, 120,40,movements,el-ex, rt, d,219518.70538404168, -1.5759938868734922, 0.4028854570867272, 0.6165987704831754, -0.27661868929862976, 0.00554423313587904, -0.17162282764911652, -0.9199211001396179, -0.3920744061470032, 0.004781388211995363, -0.02725297212600708, 0.02639755606651306, 0.0008950228802859783, 0.34522910249532884, -0.619037608640801, 0.7014672638568432,0.07451843563460225,-0.947845458984375,-0.368072509765625,0.002105712890625
20220224-1000,2022-02-24 10:00:23Z,u01, 121,40,movements,el-ex, rt, d,219518.73033004167, -1.5724309221796644, 0.407691089696612, 0.6083668637095443, -0.3540845215320587, 0.028847556561231613, -0.21041375398635864, -0.9180376529693604, -0.3964907228946686, 0.0015006214380264282, -0.032493531703948975, 0.028479188680648804, 0.009760499000549316, 0.3440341530531194, -0.6183775644931515, 0.7030452404246622,0.07054947904192943,-0.950531005859375,-0.368011474609375,0.011260986328125
20220224-1000,2022-02-24 10:00:23Z,u01, 122,40,movements,el-ex, rt, d,219518.75527704167, -1.5667369204223847, 0.4124466239981069, 0.598148220341497, -0.38049909472465515, 0.09323347359895706, -0.17541928589344025, -0.9161354303359985, -0.4008519947528839, -0.0037189864087849855, -0.024569034576416016, 0.03490042686462402, 0.0061147212982177734, 0.342153765639549, -0.6173097338176867, 0.7053153851097811,0.06625575699463565,-0.9477081298828125,-0.3674774169921875,0.004425048828125
20220224-1000,2022-02-24 10:00:23Z,u01, 123,40,movements,el-ex, rt, d,219518.7802230417, -1.5596741387573338, 0.4165169763393331, 0.5870205648735485, -0.41209080815315247, 0.08117634057998657, -0.15077327191829681, -0.9144470691680908, -0.40457767248153687, -0.010171071626245975, 0.01089787483215332, 0.05075690150260925, -0.005148648284375668, 0.3397620348443875, -0.6160164152459539, 0.7079754082910512,0.06209952611859315,-0.9035491943359375,-0.35382080078125,-0.01531982421875
20220224-1000,2022-02-24 10:00:23Z,u01, 124,40,movements,el-ex, rt, d,219518.80517004168, -1.5542614279381328, 0.4204055180301858, 0.5770648632455151, -0.31766122579574585, 0.035352397710084915, -0.1742255985736847, -0.9127986431121826, -0.4081307053565979, -0.015094409696757793, 0.013201534748077393, 0.04916772246360779, -0.031032798811793327, 0.3377509177752179, -0.61512365658342, 0.7100483312718269,0.05812510768159751,-0.894134521484375,-0.3610992431640625,-0.0435791015625
20220224-1000,2022-02-24 10:00:23Z,u01, 125,40,movements,el-ex, rt, d,219518.83011604167, -1.5506044090833293, 0.4244039280842852, 0.5709108281303815, -0.11503954976797104, 0.04986555874347687, -0.1574343740940094, -0.911098837852478, -0.41177767515182495, -0.018399333581328392, 0.006649196147918701, 0.06459438800811768, -0.04413104057312012, 0.3370106967216487, -0.614185740274938, 0.7114475553070219,0.05515693724502463,-0.904449462890625,-0.3471832275390625,-0.062530517578125
20220224-1000,2022-02-24 10:00:23Z,u01, 126,40,movements,el-ex, rt, d,219518.85506304167, -1.5497407703687485, 0.4282008022669313, 0.5697027947339053, 0.007924491539597511, -0.033122468739748, -0.14537179470062256, -0.9095126390457153, -0.4152347147464752, -0.01915312558412552, 0.028195559978485107, 0.057080477476119995, -0.03426778316497803, 0.33780941865080893, -0.6134396742188919, 0.7118352149776093,0.053546064582906894,-0.88018798828125,-0.352142333984375,-0.051605224609375
20220224-1000,2022-02-24 10:00:23Z,u01, 127,40,movements,el-ex, rt, d,219518.8800090417, -1.549903717543063, 0.4322121741534481, 0.568132880434148, -0.16227024793624878, -0.050001781433820724, -0.17329655587673187, -0.907843291759491, -0.4188805818557739, -0.018969975411891937, 0.015402376651763916, 0.03858572244644165, -0.020931661128997803, 0.33859197838818617, -0.6130827714220396, 0.7119177367313962,0.05155804526064667,-0.8924407958984375,-0.3802947998046875,-0.0399017333984375
20220224-1000,2022-02-24 10:00:23Z,u01, 128,40,movements,el-ex, rt, d,219518.9049560417, -1.5480141334834496, 0.4362671651858567, 0.5604205960821049, -0.3846420347690582, -0.059469252824783325, -0.17525604367256165, -0.9061000943183899, -0.4225592315196991, -0.02064651995897293, -0.005688786506652832, -0.005403995513916016, 0.027192654088139534, 0.33745528271553493, -0.6130258330606055, 0.712773924246191,0.04771367877887012,-0.90557861328125,-0.42449951171875,-0.0020599365234375
20220224-1000,2022-02-24 10:00:23Z,u01, 129,40,movements,el-ex, rt, d,219518.92990204168, -1.5426335781324143, 0.4404600243723401, 0.5456183078929097, -0.6635462641716003, -0.012319718487560749, -0.16794925928115845, -0.9041969180107117, -0.42635563015937805, -0.025471404194831848, -0.03102952241897583, -0.0028893351554870605, 0.053822342306375504, 0.3341209126519468, -0.6128845840113051, 0.7148304136394316,0.041870813799142814,-0.9352264404296875,-0.4292449951171875,0.028350830078125
20220224-1000,2022-02-24 10:00:23Z,u01, 130,40,movements,el-ex, rt, d,219518.95484804167, -1.5341562723209268, 0.443566766158425, 0.5257588319250132, -0.7018461227416992, 0.010766291059553623, -0.13654938340187073, -0.9026206731796265, -0.42916378378868103, -0.033086877316236496, -0.028852224349975586, 0.02170833945274353, -0.004434406757354736, 0.32886063319906395, -0.6126232490453712, 0.7178529817707311,0.03508141900176598,-0.9323883056640625,-0.4137115478515625,-0.0266876220703125
20220224-1000,2022-02-24 10:00:24Z,u01, 131,40,movements,el-ex, rt, d,219518.97979504167, -1.5266078442666535, 0.44702320046184185, 0.5092538817752957, -0.4400824010372162, 0.019145864993333817, -0.17816214263439178, -0.9008575677871704, -0.4322831630706787, -0.03983346000313759, -0.03916001319885254, 0.06782707571983337, 0.00336504727602005, 0.3247937217528305, -0.6120394662426643, 0.7204617437405503,0.029180913866667046,-0.9400177001953125,-0.3644561767578125,-0.036468505859375
20220224-1000,2022-02-24 10:00:24Z,u01, 132,40,movements,el-ex, rt, d,219519.0047410417, -1.521743459107258, 0.45066644963670505, 0.502059045849292, -0.08579424768686295, 0.12016621977090836, -0.15311644971370697, -0.8990742564201355, -0.4355655312538147, -0.04413757845759392, -0.04454445838928223, 0.048770517110824585, 0.011361781507730484, 0.3237006729265082, -0.6108593005980766, 0.7220712196344659,0.026114310813377062,-0.949554443359375,-0.3782501220703125,-0.0264129638671875
20220224-1000,2022-02-24 10:00:24Z,u01, 133,40,movements,el-ex, rt, d,219519.0296880417, -1.5180029897881686, 0.45459748484691537, 0.5025605675386764, 0.10447336733341217, 0.13484302163124084, -0.16650483012199402, -0.8971862196922302, -0.4391007125377655, -0.047409508377313614, 0.0012053251266479492, 0.033247411251068115, 0.0044713616371154785, 0.3250746374052321, -0.6087870946342634, 0.7232235562375888,0.02554469070385762,-0.8959808349609375,-0.405853271484375,-0.042938232421875
20220224-1000,2022-02-24 10:00:24Z,u01, 134,40,movements,el-ex, rt, d,219519.05463404168, -1.516835543822107, 0.4593838435650162, 0.5055422441900759, 0.1277608871459961, 0.06867580115795135, -0.20586282014846802, -0.895021378993988, -0.4433959126472473, -0.0483429841697216, -0.007215738296508789, 0.02745652198791504, -0.00861794501543045, 0.3275113818698918, -0.6070953820207422, 0.7235595731039008,0.025162501638004875,-0.892486572265625,-0.413360595703125,-0.051849365234375
20220224-1000,2022-02-24 10:00:24Z,u01, 135,40,movements,el-ex, rt, d,219519.07958104167, -1.5162768488273362, 0.46380753061991553, 0.5090873821162072, 0.1519005000591278, 0.10882015526294708, -0.13800427317619324, -0.8930267095565796, -0.447356641292572, -0.04873564466834068, -0.029275476932525635, 0.044921427965164185, -0.024674229323863983, 0.3300051154175407, -0.6055813740136992, 0.7237003211167795,0.025011492485105147,-0.92230224609375,-0.402435302734375,-0.0734100341796875
20220224-1000,2022-02-24 10:00:24Z,u01, 136,40,movements,el-ex, rt, d,219519.1045270417, -1.5158619800276338, 0.46669746556003316, 0.5142236364082389, 0.21386763453483582, 0.11963238567113876, -0.06740514189004898, -0.8917121291160583, -0.44993939995765686, -0.049034956842660904, 0.0059392452239990234, 0.0444980263710022, -0.02428341656923294, 0.33248296253472753, -0.6041006544173932, 0.723771137679527,0.02594249639954843,-0.8925933837890625,-0.3975982666015625,-0.0701141357421875
20220224-1000,2022-02-24 10:00:24Z,u01, 137,40,movements,el-ex, rt, d,219519.1294740417, -1.5149499300092961, 0.4690743555906722, 0.5175724265192837, 0.007877819240093231, 0.043660592287778854, -0.1047656387090683, -0.8905965685844421, -0.4520608186721802, -0.04978838190436363, 0.03015345335006714, 0.018192410469055176, -0.018067359924316406, 0.33424516033212903, -0.6028150478083611, 0.7240115309447428,0.026487298489814293,-0.860443115234375,-0.433868408203125,-0.0678558349609375
20220224-1000,2022-02-24 10:00:24Z,u01, 138,40,movements,el-ex, rt, d,219519.15442004168, -1.5117207615037336, 0.470697880630741, 0.5134309976913978, -0.27585074305534363, 0.05786342918872833, -0.08576404303312302, -0.889697253704071, -0.4535083770751953, -0.052620597183704376, 0.001849353313446045, 0.010667800903320312, -0.009848769754171371, 0.33347816270062214, -0.6020647943216074, 0.7250427223945735,0.02496695280070893,-0.888336181640625,-0.4441070556640625,-0.0589447021484375
20220224-1000,2022-02-24 10:00:24Z,u01, 139,40,movements,el-ex, rt, d,219519.17936604167, -1.5049924024024284, 0.47204670347163274, 0.5027770134711279, -0.4584599435329437, 0.06292616575956345, -0.15642191469669342, -0.8887120485305786, -0.45471012592315674, -0.058565299957990646, 0.021097242832183838, -0.01077452301979065, -0.0044533610343933105, 0.3306302347809226, -0.6011663652166119, 0.7271929881169062,0.02175260198398482,-0.86761474609375,-0.465484619140625,-0.063018798828125
20220224-1000,2022-02-24 10:00:24Z,u01, 140,40,movements,el-ex, rt, d,219519.20431304167, -1.4972717870834533, 0.4763679496654354, 0.48990417130745256, -0.4383895695209503, 0.0816529169678688, -0.30179914832115173, -0.8862653374671936, -0.45855453610420227, -0.06527992337942123, 0.052036821842193604, -0.06315875053405762, -0.044064462184906006, 0.3280946698865113, -0.599761556067787, 0.7296272019340359,0.016855919771719186,-0.839599609375,-0.5329437255859375,-0.114501953125
20220224-1000,2022-02-24 10:00:24Z,u01, 141,40,movements,el-ex, rt, d,219519.2292590417, -1.4875979917392985, 0.48436753741242955, 0.4721225139357856, -0.7664152383804321, -0.010217285715043545, -0.35852548480033875, -0.881908655166626, -0.46564874053001404, -0.07354309409856796, 0.0688440203666687, 0.03272634744644165, 0.03126108646392822, 0.3253244535814101, -0.5978230936383427, 0.7325891555696603,0.009208067698568245,-0.8130645751953125,-0.43292236328125,-0.0422821044921875
20220224-1000,2022-02-24 10:00:24Z,u01, 142,40,movements,el-ex, rt, d,219519.2542060417, -1.4784858797087919, 0.487240225223995, 0.4490678096236652, -0.7513535618782043, -0.11246483027935028, 0.019773099571466446, -0.8798662424087524, -0.4681890606880188, -0.08145233243703842, 0.07334768772125244, 0.1614721715450287, 0.06327921897172928, 0.3193574924242574, -0.5977329045003011, 0.7353398225845684,0.0012409427025885655,-0.8077239990234375,-0.32720947265625,-0.0134429931640625
20220224-1000,2022-02-24 10:00:24Z,u01, 143,40,movements,el-ex, rt, d,219519.27915204168, -1.477672978348704, 0.4815123976244365, 0.43813315862098856, -0.07415319979190826, -0.18796689808368683, 0.2364690601825714, -0.8824553489685059, -0.46312013268470764, -0.08241556584835052, 0.07958364486694336, 0.11299195885658264, -0.035382144153118134, 0.31418011475950836, -0.6000692216679859, 0.7356679212665761,-0.000712977796581582,-0.8028717041015625,-0.350128173828125,-0.1177978515625
20220224-1000,2022-02-24 10:00:24Z,u01, 144,40,movements,el-ex, rt, d,219519.30409904168, -1.4798201503858877, 0.47856588676929246, 0.4374706370999636, -0.13829103112220764, -0.00952419824898243, 0.07134934514760971, -0.8839855194091797, -0.4605066478252411, -0.08064423501491547, 0.007032275199890137, -0.0867956280708313, -0.0074446797370910645, 0.31299966071763274, -0.6014225603323258, 0.7350660925129815,-0.0002957777587377919,-0.88055419921875,-0.51953125,-0.09649658203125
20220224-1000,2022-02-24 10:00:24Z,u01, 145,40,movements,el-ex, rt, d,219519.32904504167, -1.4764414333972995, 0.47385639655642775, 0.427954631306955, -0.45256131887435913, -0.10895004868507385, 0.20272260904312134, -0.8858572840690613, -0.4563211500644684, -0.08383390307426453, 0.0765005350112915, -0.024651169776916504, 0.017412543296813965, 0.3085659060295063, -0.6023870262524665, 0.7361482698810502,-0.001677189495961795,-0.809356689453125,-0.4809722900390625,-0.0664215087890625
20220224-1000,2022-02-24 10:00:24Z,u01, 146,40,movements,el-ex, rt, d,219519.35399204167, -1.4765285712788696, 0.47004328728967026, 0.4188646179248883, -0.22637839615345, -0.16649137437343597, 0.09730058163404465, -0.8875904679298401, -0.4529248774051666, -0.08391989022493362, 0.04332149028778076, 0.08224305510520935, 0.03912018984556198, 0.3045458966189073, -0.6043937883290792, 0.736169875353443,-0.003747431815387836,-0.8280487060546875,-0.3632659912109375,-0.037994384765625
20220224-1000,2022-02-24 10:00:24Z,u01, 147,40,movements,el-ex, rt, d,219519.3789380417, -1.4775540602065829, 0.4663419588560147, 0.41503809559526444, -0.0950128436088562, -0.07937871664762497, 0.12689243257045746, -0.889339029788971, -0.44962185621261597, -0.08316513895988464, 0.028438091278076172, 0.03186672925949097, 0.019719183444976807, 0.3021435584829195, -0.6059098115963517, 0.7359117894485261,-0.004059890926225995,-0.86090087890625,-0.417755126953125,-0.063446044921875
20220224-1000,2022-02-24 10:00:24Z,u01, 148,40,movements,el-ex, rt, d,219519.40388404168, -1.478860850705484, 0.46425578460646505, 0.41361542461501566, -0.034430988132953644, -0.1116037666797638, 0.04901121184229851, -0.8903790712356567, -0.4477574825286865, -0.08208882808685303, 0.06088072061538696, 0.040622442960739136, -0.026751995086669922, 0.30100873954157836, -0.6069178883269374, 0.7355460252167184,-0.0040746184965168575,-0.832550048828125,-0.4111175537109375,-0.1026763916015625
20220224-1000,2022-02-24 10:00:24Z,u01, 149,40,movements,el-ex, rt, d,219519.42883104167, -1.4812883393669063, 0.4624618953689391, 0.41390716099022595, 0.060818564146757126, -0.07824767380952835, 0.06515635550022125, -0.8913741111755371, -0.4461527466773987, -0.07999885827302933, 0.05302584171295166, 0.028779149055480957, -0.018588051199913025, 0.3004902740081958, -0.608034675071755, 0.7348370516066831,-0.0037250942020632394,-0.838348388671875,-0.4173736572265625,-0.0985870361328125
20220224-1000,2022-02-24 10:00:24Z,u01, 150,40,movements,el-ex, rt, d,219519.4537770417, -1.4854186467732475, 0.46058817437928823, 0.41794395753321095, 0.1847040355205536, -0.06794576346874237, 0.08704142272472382, -0.8925283551216125, -0.44447505474090576, -0.07638769596815109, 0.05166226625442505, 0.00815001130104065, -0.007596544921398163, 0.30108447382121406, -0.609224335204767, 0.7336136032888891,-0.002228845467408036,-0.837799072265625,-0.43609619140625,-0.0859832763671875
20220224-1000,2022-02-24 10:00:24Z,u01, 151,40,movements,el-ex, rt, d,219519.4787240417, -1.4874635007945747, 0.4588601741888022, 0.42164855671075213, 0.042977750301361084, -0.0197221077978611, 0.07733599096536636, -0.8934467434883118, -0.44292646646499634, -0.07462626695632935, 0.07516366243362427, 0.007120221853256226, 0.016749747097492218, 0.30163384129021414, -0.609675234868258, 0.7330162456116878,-0.0005916783291156635,-0.8182830810546875,-0.4358062744140625,-0.0578765869140625
20220224-1000,2022-02-24 10:00:24Z,u01, 152,40,movements,el-ex, rt, d,219519.50367004168, -1.4885747493283303, 0.4572815320041015, 0.42009258524257165, -0.12228444963693619, -0.08681245893239975, 0.03537655994296074, -0.8942248821258545, -0.4415105879306793, -0.07369071245193481, 0.06864804029464722, -0.01919800043106079, 0.016333051025867462, 0.3006310428093511, -0.610553535163247, 0.7326968990317395,-0.000792488972937655,-0.81256103515625,-0.4548187255859375,-0.050750732421875
20220224-1000,2022-02-24 10:00:24Z,u01, 153,40,movements,el-ex, rt, d,219519.52861704168, -1.486748364620409, 0.4560437507156033, 0.41511614057143603, -0.20741119980812073, 0.07590800523757935, 0.04712562635540962, -0.8946327567100525, -0.4403996467590332, -0.07536961883306503, 0.045618414878845215, 0.006592214107513428, -0.008797764778137207, 0.2986984395108523, -0.6108145664403958, 0.7332674899947518,-0.0019219620537223037,-0.8490142822265625,-0.433807373046875,-0.08416748046875
20220224-1000,2022-02-24 10:00:24Z,u01, 154,40,movements,el-ex, rt, d,219519.55356304167, -1.4840836120550553, 0.4561115807188741, 0.4144031987552693, 0.17488844692707062, 0.0722084790468216, -0.04553200304508209, -0.8943989872932434, -0.44046053290367126, -0.07775073498487473, 0.11647534370422363, 0.053894370794296265, -0.004341423511505127, 0.29850609107740966, -0.6099333956946568, 0.7340791484049414,-0.0018086708231566662,-0.79144287109375,-0.398284912109375,-0.0781707763671875
20220224-1000,2022-02-24 10:00:24Z,u01, 155,40,movements,el-ex, rt, d,219519.57851004167, -1.4880313581059763, 0.4576152200236518, 0.4220295702895752, 0.3324272036552429, -0.028647560626268387, -0.04189731925725937, -0.8940379023551941, -0.4418099522590637, -0.07416443526744843, 0.10138952732086182, 0.03340849280357361, -0.02140122652053833, 0.30133376214167196, -0.6100129055262107, 0.7328589766211842,-0.00011446761367861491,-0.7926483154296875,-0.4084014892578125,-0.0955657958984375
20220224-1000,2022-02-24 10:00:24Z,u01, 156,40,movements,el-ex, rt, d,219519.6034560417, -1.4905259631968308, 0.45981467775409945, 0.42992401873354874, 0.23945042490959167, 0.07355131208896637, -0.06908094137907028, -0.8932494521141052, -0.4437820315361023, -0.07185585796833038, 0.0880124568939209, 0.0013076066970825195, -0.005994386970996857, 0.3044752275763752, -0.6093988080608539, 0.7320692696675624,0.0016507039882246444,-0.8187408447265625,-0.4396514892578125,-0.07745361328125
20220224-1000,2022-02-24 10:00:24Z,u01, 157,40,movements,el-ex, rt, d,219519.62840204168, -1.4915808547612692, 0.46232924644774936, 0.4343969439139301, 0.08369053155183792, -0.015155386179685593, -0.10891463607549667, -0.8922094702720642, -0.4460340142250061, -0.0708250030875206, 0.12951409816741943, -0.010158002376556396, 0.01639699935913086, 0.3066750384446059, -0.6087182603339005, 0.731715445118228,0.002270095070490641,-0.7626953125,-0.4561920166015625,-0.0544281005859375
20220224-1000,2022-02-24 10:00:24Z,u01, 158,40,movements,el-ex, rt, d,219519.65334875003, -1.4924272143758968, 0.4646366233350952, 0.4346013579443236, -0.043216124176979065, -0.04518352821469307, -0.08713976293802261, -0.8912405967712402, -0.44809797406196594, -0.06998907774686813, 0.10129302740097046, -0.03671950101852417, 0.011624336242675781, 0.30750453417151685, -0.608643100187641, 0.7314318259643927,0.0014287748390419686,-0.7827911376953125,-0.4891510009765625,-0.0601806640625
20220224-1000,2022-02-24 10:00:24Z,u01, 159,40,movements,el-ex, rt, d,219519.67829475002, -1.4927552089927436, 0.46609837248734615, 0.43425036691365276, 0.05627377703785896, 0.0247030146420002, -0.0354577973484993, -0.8906095027923584, -0.4494042694568634, -0.06964561343193054, 0.0813291072845459, -0.008908689022064209, -0.0017653629183769226, 0.3078831287702892, -0.6085927817566534, 0.7313154291392363,0.0007518041120877506,-0.8092803955078125,-0.45831298828125,-0.0714111328125
20220224-1000,2022-02-24 10:00:24Z,u01, 160,40,movements,el-ex, rt, d,219519.70324175002, -1.4934378977029557, 0.46707845700729456, 0.4378435720624973, 0.17507022619247437, 0.03514746576547623, -0.037746720016002655, -0.8902174234390259, -0.4502795934677124, -0.06900352239608765, 0.10780763626098633, -0.017814278602600098, -0.020077168941497803, 0.3093015470394952, -0.6081371492717143, 0.7310945494730821,0.0016260716481147353,-0.786346435546875,-0.462860107421875,-0.0883636474609375
20220224-1000,2022-02-24 10:00:24Z,u01, 161,40,movements,el-ex, rt, d,219519.72818775, -1.495201006023667, 0.4685270100847783, 0.44168174283115774, 0.09928865730762482, -0.018433736637234688, -0.03523748740553856, -0.889686107635498, -0.4515725374221802, -0.0673845186829567, 0.1080242395401001, -0.02852994203567505, -0.012540921568870544, 0.3109497473718369, -0.6079621672023665, 0.7305388672223989,0.0022610197815336464,-0.7816619873046875,-0.4801025390625,-0.079925537109375
20220224-1000,2022-02-24 10:00:24Z,u01, 162,40,movements,el-ex, rt, d,219519.75313475, -1.4948829394828977, 0.46926620392572865, 0.44270910745602304, -0.00365689629688859, 0.07401923090219498, 0.003251580521464348, -0.8893318176269531, -0.4522319436073303, -0.06764217466115952, 0.09932315349578857, 0.0028606057167053223, 0.005523741245269775, 0.3115059570176446, -0.6075713545289725, 0.7306266385391431,0.002433595907095132,-0.7987060546875,-0.4537506103515625,-0.0569305419921875
20220224-1000,2022-02-24 10:00:24Z,u01, 163,40,movements,el-ex, rt, d,219519.77808075002, -1.4933405764786556, 0.46898347747654273, 0.44316478243164975, 0.046174079179763794, 0.02575988695025444, -0.008671857416629791, -0.8893537521362305, -0.45197975635528564, -0.06902365386486053, 0.13164806365966797, 0.007201343774795532, -0.0010903403162956238, 0.3115487513246306, -0.6069806835209459, 0.7310972791797343,0.0029367792469490173,-0.7577056884765625,-0.4447784423828125,-0.0701141357421875
20220224-1000,2022-02-24 10:00:24Z,u01, 164,40,movements,el-ex, rt, d,219519.80302675, -1.4942452968089057, 0.4698207647620231, 0.44490079019097617, 0.08622575551271439, -0.015911657363176346, -0.0011963644064962864, -0.8890383839607239, -0.45272648334503174, -0.06819005310535431, 0.09089672565460205, 0.010923445224761963, -0.05964798480272293, 0.31235381181253113, -0.6069102643218844, 0.7308114270478859,0.0031446100704202173,-0.7944183349609375,-0.4523162841796875,-0.1217193603515625
20220224-1000,2022-02-24 10:00:24Z,u01, 165,40,movements,el-ex, rt, d,219519.82797375, -1.4969657211286218, 0.4679549696789134, 0.44674138500143545, -0.012938212603330612, -0.13566967844963074, 0.09838941693305969, -0.8900611996650696, -0.45106205344200134, -0.06583341956138611, 0.10376054048538208, 0.06873786449432373, -0.041801922023296356, 0.3123014899960259, -0.6079071229582828, 0.7300003027352447,0.00402883010407018,-0.7863006591796875,-0.38232421875,-0.107635498046875
20220224-1000,2022-02-24 10:00:24Z,u01, 166,40,movements,el-ex, rt, d,219519.85291975, -1.4993081994385562, 0.467071468969235, 0.4429577156900001, -0.3483026921749115, -0.060291972011327744, -0.07405652105808258, -0.8906102776527405, -0.4502733647823334, -0.06377674639225006, -0.008468210697174072, -0.06524491310119629, 0.09583555907011032, 0.3108621941561594, -0.6094885756658409, 0.7293022980838737,0.002585498420509591,-0.8767547607421875,-0.4906158447265625,0.0014190673828125
20220224-1000,2022-02-24 10:00:24Z,u01, 167,40,movements,el-ex, rt, d,219519.87786675, -1.490953874373331, 0.4672881315497577, 0.4250698745989457, -0.8411407470703125, -0.001659017987549305, 0.015009703114628792, -0.8899490237236023, -0.4504668116569519, -0.07120709121227264, 0.0068465471267700195, -0.1180604100227356, 0.05831354856491089, 0.3054845243766075, -0.6091597997043211, 0.7318443086039674,-0.0027353955849978573,-0.8831024169921875,-0.5685272216796875,-0.0128936767578125
20220224-1000,2022-02-24 10:00:24Z,u01, 168,40,movements,el-ex, rt, d,219519.90281275002, -1.4811919799384894, 0.4673257656504737, 0.4027136115084592, -0.6667868494987488, -0.1786019653081894, -0.14700809121131897, -0.8891948461532593, -0.45050039887428284, -0.07988964766263962, 0.09312838315963745, 0.09785443544387817, 0.04070519655942917, 0.2987186558742989, -0.6089518386518386, 0.7347484958806098,-0.009470568395985146,-0.792236328125,-0.376251220703125,-0.0292205810546875
20220224-1000,2022-02-24 10:00:24Z,u01, 169,40,movements,el-ex, rt, d,219519.92775975002, -1.479126682922941, 0.4690020947276834, 0.3890014914200421, -0.3378845751285553, 0.027511849999427795, -0.10629229247570038, -0.8882744312286377, -0.4519963562488556, -0.08165665715932846, -0.051758527755737305, 0.0497899055480957, 0.02588587999343872, 0.29511714862724053, -0.6099815885390298, 0.7352619786312337,-0.014770545881294395,-0.940032958984375,-0.4022064208984375,-0.0557708740234375
20220224-1000,2022-02-24 10:00:24Z,u01, 170,40,movements,el-ex, rt, d,219519.95270575, -1.4690230220657985, 0.4699655622574537, 0.3788347018289562, -0.3819003701210022, 0.300529807806015, -0.026885613799095154, -0.8869706392288208, -0.45285558700561523, -0.09058289974927902, -0.013938963413238525, 0.03889983892440796, 0.009528331458568573, 0.2924296757281264, -0.6076128999751045, 0.7382346531602636,-0.017356561259949888,-0.934814453125,-0.429595947265625,-0.0751190185546875
20220224-1000,2022-02-24 10:00:25Z,u01, 171,40,movements,el-ex, rt, d,219519.97765275, -1.461218857651967, 0.47135940561841305, 0.37246936315825063, 0.033502690494060516, 0.03097129613161087, -0.13506534695625305, -0.8856083154678345, -0.4540978670120239, -0.09743299335241318, 0.0726352334022522, 0.10316097736358643, -0.0013217329978942871, 0.2910450033467524, -0.6054554559148095, 0.7405093261787,-0.019039213063157645,-0.8129730224609375,-0.3509368896484375,-0.0987548828125
20220224-1000,2022-02-24 10:00:25Z,u01, 172,40,movements,el-ex, rt, d,219520.00259875003, -1.4642030836402906, 0.4758041357607154, 0.37793914266352924, 0.23962722718715668, 0.03523128852248192, -0.16853995621204376, -0.8838796019554138, -0.4580534100532532, -0.09457404911518097, -0.06268417835235596, 0.0239408016204834, 0.026519954204559326, 0.2941867797595773, -0.605117437070422, 0.7395460860818333,-0.018941817583610465,-0.9222564697265625,-0.41357421875,-0.0680389404296875
20220224-1000,2022-02-24 10:00:25Z,u01, 173,40,movements,el-ex, rt, d,219520.02754475002, -1.462173258158515, 0.4784323432938517, 0.3812222967471653, 0.01612752676010132, 0.20493370294570923, -0.027284622192382812, -0.8824859261512756, -0.46038809418678284, -0.09623712301254272, -0.04649972915649414, -0.03741466999053955, -0.011871278285980225, 0.2960916613086021, -0.603499100974268, 0.7401239396555848,-0.018309100527678535,-0.928985595703125,-0.497802734375,-0.1081085205078125
20220224-1000,2022-02-24 10:00:25Z,u01, 174,40,movements,el-ex, rt, d,219520.05249175002, -1.4578443433393338, 0.47914452191421475, 0.38060885511341797, 0.015032434836030006, 0.06252862513065338, -0.05076145380735397, -0.8817351460456848, -0.46102020144462585, -0.10001944750547409, 0.07805460691452026, 0.016852080821990967, -0.04184144735336304, 0.29618869054703356, -0.6018824933624498, 0.7414048025463296,-0.018133744475295033,-0.8115997314453125,-0.4532470703125,-0.137939453125
20220224-1000,2022-02-24 10:00:25Z,u01, 175,40,movements,el-ex, rt, d,219520.07743775, -1.4582996307929657, 0.4806223669430711, 0.3811001331822511, -0.015028661116957664, -0.01878647319972515, -0.04580078274011612, -0.881102442741394, -0.4623311161994934, -0.09954138100147247, 0.03536874055862427, 0.021428436040878296, 0.009789355099201202, 0.29683587055103566, -0.6017622248558896, 0.7412340780824542,-0.01851345579018382,-0.845733642578125,-0.4409027099609375,-0.089752197265625
20220224-1000,2022-02-24 10:00:25Z,u01, 176,40,movements,el-ex, rt, d,219520.10238475, -1.4542238613706684, 0.48133029421682133, 0.37490985675615646, -0.4348945915699005, 0.0809628888964653, -0.060486383736133575, -0.8803641200065613, -0.4629587233066559, -0.10309362411499023, 0.02394932508468628, 0.0697702169418335, 0.035329461097717285, 0.29525559163841436, -0.6010634927410927, 0.7423806089352772,-0.02044266477748946,-0.8704833984375,-0.4066162109375,-0.053497314453125
20220224-1000,2022-02-24 10:00:25Z,u01, 177,40,movements,el-ex, rt, d,219520.12733075002, -1.4443171302225566, 0.4812214959576788, 0.35954927933475217, -0.5599008798599243, 0.09837164729833603, -0.07028448581695557, -0.8793495893478394, -0.4628622829914093, -0.11181630939245224, 0.07522660493850708, 0.12927469611167908, -0.022537223994731903, 0.29071905054138203, -0.5996451284187593, 0.7451843422303784,-0.024667691923359603,-0.8041229248046875,-0.333587646484375,-0.1343536376953125
20220224-1000,2022-02-24 10:00:25Z,u01, 178,40,movements,el-ex, rt, d,219520.15227775002, -1.4386220188624719, 0.48140269412168357, 0.34806197511580067, -0.21032528579235077, -0.11999877542257309, -0.06133174151182175, -0.8786153793334961, -0.463022917509079, -0.11681140959262848, 0.11144918203353882, 0.19271346926689148, -0.03129028528928757, 0.28741411004617484, -0.5991555937170975, 0.7467336473002528,-0.02818911348258918,-0.762298583984375,-0.2733154296875,-0.1602020263671875
20220224-1000,2022-02-24 10:00:25Z,u01, 179,40,movements,el-ex, rt, d,219520.17722375, -1.4421941691570743, 0.48384005405697006, 0.3448352930498957, -0.15036800503730774, -0.17617802321910858, -0.17730242013931274, -0.8779052495956421, -0.4651818573474884, -0.11352705210447311, -0.011056661605834961, 0.08879327774047852, 0.015977680683135986, 0.28723677589221897, -0.6006092804816004, 0.745533599076176,-0.03071259260217013,-0.8889617919921875,-0.3763885498046875,-0.0975494384765625
20220224-1000,2022-02-24 10:00:25Z,u01, 180,40,movements,el-ex, rt, d,219520.20217075, -1.4354091582033202, 0.48767319454690894, 0.3352182748912384, -0.5322443842887878, 0.305645227432251, -0.2004944235086441, -0.8753414750099182, -0.46857160329818726, -0.1192394345998764, -0.09850502014160156, -0.11873918771743774, 0.02509284019470215, 0.2857913540500704, -0.5989186790792287, 0.74727695136655,-0.034596529555861455,-0.99566650390625,-0.5869903564453125,-0.08782958984375
20220224-1000,2022-02-24 10:00:25Z,u01, 181,40,movements,el-ex, rt, d,219520.22711675, -1.4188057737972328, 0.4886155688785436, 0.3156866232090781, -0.5524404048919678, 0.2095194011926651, -0.10245180875062943, -0.8728043437004089, -0.4694039225578308, -0.1336890608072281, 0.03282320499420166, 0.012876182794570923, -0.006935834884643555, 0.28059794652766157, -0.5953320596502295, 0.7518341991752387,-0.03987492599698261,-0.8399810791015625,-0.4565277099609375,-0.140625
20220224-1000,2022-02-24 10:00:25Z,u01, 182,40,movements,el-ex, rt, d,219520.25206275002, -1.415167721012494, 0.4913141772410982, 0.3133478883008789, 0.4114077687263489, 0.020995359867811203, -0.12527023255825043, -0.8710576295852661, -0.4717850089073181, -0.13666664063930511, 0.03745460510253906, 0.11547702550888062, -0.048971712589263916, 0.2809246533169977, -0.5939259393359232, 0.7527564486702185,-0.041124095795760984,-0.82159423828125,-0.35760498046875,-0.1985931396484375
20220224-1000,2022-02-24 10:00:25Z,u01, 183,40,movements,el-ex, rt, d,219520.27700975002, -1.4242499938811404, 0.49699014387295, 0.33117279328776494, 0.6568394303321838, 0.010910569690167904, -0.1645161211490631, -0.8695998191833496, -0.476781964302063, -0.12835684418678284, -0.04907101392745972, -0.004388749599456787, 0.00027464330196380615, 0.28802731503190365, -0.5940217548722524, 0.7501779171721101,-0.037573128260302846,-0.918670654296875,-0.481170654296875,-0.128082275390625
20220224-1000,2022-02-24 10:00:25Z,u01, 184,40,movements,el-ex, rt, d,219520.30195575, -1.4262599184321254, 0.5011102923042107, 0.34125416074110193, 0.06062055751681328, 0.20358321070671082, -0.0253469068557024, -0.8679046630859375, -0.48039960861206055, -0.12632471323013306, -0.06306463479995728, -0.14214372634887695, 0.04372900724411011, 0.29241520979600527, -0.5927317983252598, 0.7496043984739411,-0.03543606171821784,-0.952789306640625,-0.628143310546875,-0.0766143798828125
20220224-1000,2022-02-24 10:00:25Z,u01, 185,40,movements,el-ex, rt, d,219520.32690275, -1.420274927520894, 0.4994026352833156, 0.33709497069202826, -0.178686261177063, 0.04643068090081215, 0.07004518806934357, -0.8679426908493042, -0.478901207447052, -0.13163962960243225, 0.059471070766448975, -0.03414499759674072, -0.030439123511314392, 0.29069608021891435, -0.5913340650054254, 0.7513686723472599,-0.03556480424906894,-0.8084716796875,-0.5130462646484375,-0.162078857421875
20220224-1000,2022-02-24 10:00:25Z,u01, 186,40,movements,el-ex, rt, d,219520.35184875003, -1.422588144659216, 0.49904713607746665, 0.33611538518442485, 0.09502623975276947, -0.1881842166185379, -0.0383760891854763, -0.8684133291244507, -0.47858911752700806, -0.12965668737888336, -0.004236876964569092, 0.02158835530281067, 0.0011930614709854126, 0.2902408016447364, -0.5923950839093921, 0.7506806220106748,-0.036152235612424644,-0.838775634765625,-0.444061279296875,-0.1506195068359375
20220224-1000,2022-02-24 10:00:25Z,u01, 187,40,movements,el-ex, rt, d,219520.37679575002, -1.4247527268610485, 0.49846247404176974, 0.33667248807999534, -0.11239486187696457, 0.06476867198944092, 0.1307346522808075, -0.868968665599823, -0.47807565331459045, -0.1278173327445984, -0.09225881099700928, -0.049619048833847046, 0.05164557695388794, 0.2901632645423308, -0.5932087446198137, 0.7500719918152603,-0.03606571152499444,-0.9612274169921875,-0.5276947021484375,-0.076171875
20220224-1000,2022-02-24 10:00:25Z,u01, 188,40,movements,el-ex, rt, d,219520.40174175, -1.418919290610122, 0.49397800351093735, 0.33053282357754193, -0.29803162813186646, 0.10080616921186447, 0.13814528286457062, -0.8703186511993408, -0.47413209080696106, -0.13320721685886383, 0.04101872444152832, -0.01071593165397644, 0.0014934688806533813, 0.2868839021334555, -0.5925318731799901, 0.7518664423940742,-0.03606162182638428,-0.861083984375,-0.509002685546875,-0.1193695068359375
20220224-1000,2022-02-24 10:00:25Z,u01, 189,40,movements,el-ex, rt, d,219520.42668775, -1.4190378386318678, 0.4897670977883712, 0.32557886125574753, -0.024360578507184982, -0.26916131377220154, 0.14801515638828278, -0.8723002672195435, -0.47042039036750793, -0.1334046721458435, 0.08120840787887573, 0.08843189477920532, -0.009432777762413025, 0.28393840423012223, -0.593865845858213, 0.7519077710363948,-0.036564986153820644,-0.7910919189453125,-0.381988525390625,-0.1428375244140625
20220224-1000,2022-02-24 10:00:25Z,u01, 190,40,movements,el-ex, rt, d,219520.45163475, -1.427180268141712, 0.48801064004762085, 0.33023938041475676, 0.22016096115112305, -0.16061711311340332, 0.07053834199905396, -0.8741740584373474, -0.468869686126709, -0.12641575932502747, -0.05806165933609009, 0.06371837854385376, 0.030377104878425598, 0.284564807184479, -0.5965022969450681, 0.7496365032662102,-0.03539747173453811,-0.92071533203125,-0.387939453125,-0.1029510498046875
20220224-1000,2022-02-24 10:00:25Z,u01, 191,40,movements,el-ex, rt, d,219520.47658075002, -1.430812949932632, 0.4847003062090679, 0.33362997196622607, -0.033859141170978546, -0.03139161318540573, 0.23492981493473053, -0.87615966796875, -0.46594321727752686, -0.1234552264213562, -0.0158538818359375, 0.00044336915016174316, 0.02129776030778885, 0.284360818097014, -0.5978388672189552, 0.7487333446321378,-0.033556160610011654,-0.8920135498046875,-0.4654998779296875,-0.1021575927734375
20220224-1000,2022-02-24 10:00:25Z,u01, 192,40,movements,el-ex, rt, d,219520.50152775002, -1.4340608134737987, 0.4774916614236868, 0.33394465152098163, 0.053810492157936096, -0.3162849247455597, 0.2868179976940155, -0.8798607587814331, -0.4595528542995453, -0.12106364220380783, 0.11834031343460083, 0.05722436308860779, -0.038100652396678925, 0.2818921014879573, -0.600004184353001, 0.7480228029936897,-0.031524281650028185,-0.762908935546875,-0.41986083984375,-0.1727447509765625
20220224-1000,2022-02-24 10:00:25Z,u01, 193,40,movements,el-ex, rt, d,219520.52647375, -1.4482676776224357, 0.4743072967064971, 0.33802850004595925, 0.10052450001239777, -0.47158658504486084, 0.01595352776348591, -0.8829397559165955, -0.45672231912612915, -0.10873009264469147, -0.042200684547424316, 0.03388601541519165, 0.023464083671569824, 0.2817957368580617, -0.6051661895315689, 0.7439134654279733,-0.03094937874676551,-0.925140380859375,-0.4228363037109375,-0.08526611328125
20220224-1000,2022-02-24 10:00:25Z,u01, 194,40,movements,el-ex, rt, d,219520.55142075, -1.4517984757014788, 0.4723731220688506, 0.33411150283512353, -0.38459861278533936, 0.015345063991844654, 0.2008741796016693, -0.8841935992240906, -0.4550008177757263, -0.10571660846471786, -0.1441115140914917, -0.04264938831329346, 0.055347442626953125, 0.2798840285890576, -0.6072945132585903, 0.7428443678058511,-0.032258038813809065,-1.061737060546875,-0.4984893798828125,-0.024078369140625
20220224-1000,2022-02-24 10:00:25Z,u01, 195,40,movements,el-ex, rt, d,219520.57636675, -1.4469642095481223, 0.4654559062567898, 0.32554459569245947, -0.1465039700269699, -0.04918719083070755, 0.17367172241210938, -0.8867743015289307, -0.448830246925354, -0.11037589609622955, 0.04125422239303589, 0.03923860192298889, -0.07802426069974899, 0.27496320591410855, -0.6076242969428324, 0.7444013832426795,-0.03247423796680576,-0.84552001953125,-0.4095916748046875,-0.1884002685546875
20220224-1000,2022-02-24 10:00:25Z,u01, 196,40,movements,el-ex, rt, d,219520.60131275002, -1.4521833174037686, 0.46478000660803764, 0.3243730517331439, 0.028966959565877914, -0.42161235213279724, -0.08960246294736862, -0.8876394629478455, -0.4482261538505554, -0.10578214377164841, 0.04918408393859863, 0.13720616698265076, -0.0016853958368301392, 0.27428606158572477, -0.6098164364938601, 0.7428159971735264,-0.03340186048201493,-0.8023223876953125,-0.303436279296875,-0.135833740234375
20220224-1000,2022-02-24 10:00:25Z,u01, 197,40,movements,el-ex, rt, d,219520.62625975002, -1.4631146118558729, 0.46929612069762927, 0.32771080757066173, 0.18561473488807678, -0.1813414990901947, -0.18136626482009888, -0.8867208957672119, -0.4522586166858673, -0.09585440158843994, -0.1628548502922058, 0.02904084324836731, 0.08076358586549759, 0.2766793817053881, -0.6127979419489886, 0.7393846634214971,-0.035177691363389774,-1.0495758056640625,-0.4232177734375,-0.0150909423828125
20220224-1000,2022-02-24 10:00:25Z,u01, 198,40,movements,el-ex, rt, d,219520.6512055, -1.4637725405952928, 0.47076505471476365, 0.3312257279454701, 0.09666477888822556, 0.18116965889930725, 0.04772850126028061, -0.8861225247383118, -0.4535682499408722, -0.09519994258880615, -0.07725644111633301, 0.017533063888549805, 0.008560657501220703, 0.2782499820748897, -0.6123536367702358, 0.7391972448260848,-0.03446130513168766,-1.0110321044921875,-0.45025634765625,-0.0640411376953125
20220224-1000,2022-02-24 10:00:25Z,u01, 199,40,movements,el-ex, rt, d,219520.6761525, -1.4650532157125924, 0.4701289003333037, 0.3368467082424931, 0.32452675700187683, -0.19457507133483887, -0.004549483768641949, -0.886530339717865, -0.4530012011528015, -0.09409544616937637, 0.08596265316009521, 0.023023784160614014, -0.058141350746154785, 0.2797307089660324, -0.6121298928656634, 0.7389189764012113,-0.032349789851058186,-0.800567626953125,-0.4299774169921875,-0.1522369384765625
20220224-1000,2022-02-24 10:00:25Z,u01, 200,40,movements,el-ex, rt, d,219520.70109850002, -1.4770032864598885, 0.4719962870582514, 0.3458635080560255, 0.28221315145492554, -0.2737257480621338, -0.011860060505568981, -0.8867478966712952, -0.4546652138233185, -0.08341553062200546, -0.08032381534576416, -0.06187540292739868, 0.0253712460398674, 0.2829452632709986, -0.615007490615374, 0.735340795831188,-0.03133524263305382,-0.9291229248046875,-0.5004425048828125,-0.0814361572265625
20220224-1000,2022-02-24 10:00:25Z,u01, 201,40,movements,el-ex, rt, d,219520.72604550002, -1.4816976475643526, 0.46947444528386967, 0.35047546250696315, 0.013754052110016346, 0.056030645966529846, 0.2409229874610901, -0.8882688283920288, -0.45241764187812805, -0.07935367524623871, -0.10936611890792847, -0.08995604515075684, 0.05555009841918945, 0.2834360422216232, -0.6164309955334711, 0.7340363917854605,-0.029454160912710303,-0.9976348876953125,-0.5423736572265625,-0.0238037109375
20220224-1000,2022-02-24 10:00:25Z,u01, 202,40,movements,el-ex, rt, d,219520.7509915, -1.4793827239468298, 0.46335956267732914, 0.34756848767398163, -0.2594980299472809, -0.07905667275190353, 0.16298338770866394, -0.8908209800720215, -0.44695594906806946, -0.08166074752807617, 0.04668945074081421, -0.04959556460380554, 0.007243700325489044, 0.28049304272591036, -0.6168413729501394, 0.7348735988994688,-0.02812885002529414,-0.8537139892578125,-0.5089569091796875,-0.066741943359375
20220224-1000,2022-02-24 10:00:25Z,u01, 203,40,movements,el-ex, rt, d,219520.7759375, -1.4795169021992614, 0.45931519243507685, 0.3392823072985167, -0.301630437374115, -0.12275994569063187, 0.14829738438129425, -0.8926247954368591, -0.4433343708515167, -0.08170532435178757, -0.015761494636535645, -0.024835795164108276, 0.009821295738220215, 0.276552320181937, -0.618600154784039, 0.7348218491693914,-0.029826216891165713,-0.90838623046875,-0.468170166015625,-0.0718841552734375
20220224-1000,2022-02-24 10:00:25Z,u01, 204,40,movements,el-ex, rt, d,219520.8008845, -1.4772850221547682, 0.45375879588023554, 0.33498635322595416, -0.030076518654823303, 0.12591013312339783, 0.23557403683662415, -0.8948789834976196, -0.4383470416069031, -0.08392606675624847, -0.022830426692962646, 0.029945552349090576, -0.007138311862945557, 0.2733555250273411, -0.6191233503878708, 0.7356011567187621,-0.029223392603781984,-0.9372711181640625,-0.4213104248046875,-0.09271240234375
20220224-1000,2022-02-24 10:00:25Z,u01, 205,40,movements,el-ex, rt, d,219520.82583050002, -1.4738949628540687, 0.44887777243052224, 0.334830319531301, -0.10154138505458832, 0.10537449270486832, 0.14361374080181122, -0.8967083096504211, -0.43395474553108215, -0.08716525137424469, 0.048822999000549316, 0.054987430572509766, 0.00452374666929245, 0.2716807847799887, -0.618552281157241, 0.7367797340344899,-0.027173904440011276,-0.8478851318359375,-0.37896728515625,-0.0826416015625
20220224-1000,2022-02-24 10:00:25Z,u01, 206,40,movements,el-ex, rt, d,219520.85077750002, -1.4683942649465132, 0.4457010712885065, 0.32578645418751173, -0.6298454403877258, 0.042016491293907166, 0.026827678084373474, -0.8975819945335388, -0.4310905635356903, -0.09223687648773193, 0.018370509147644043, 0.00212019681930542, 0.017224788665771484, 0.2678675801537512, -0.6181654481903353, 0.7384408370235039,-0.02869931406675663,-0.86572265625,-0.4276580810546875,-0.07672119140625
20220224-1000,2022-02-24 10:00:25Z,u01, 207,40,movements,el-ex, rt, d,219520.8757235, -1.4563372571610365, 0.44229233149281155, 0.3013332188919274, -1.0286465883255005, 0.07798394560813904, 0.09812623262405396, -0.8978593349456787, -0.42801234126091003, -0.10321929305791855, -0.009580910205841064, 0.0076631903648376465, 0.03280007839202881, 0.2593230046455661, -0.6173669364927902, 0.7418782419693404,-0.03501980972557295,-0.907440185546875,-0.42034912109375,-0.0704193115234375
20220224-1000,2022-02-24 10:00:25Z,u01, 208,40,movements,el-ex, rt, d,219520.9006705, -1.4457766177739715, 0.4366402394079414, 0.2802985602875953, -0.3727290630340576, 0.04689946398139, 0.13438482582569122, -0.8991052508354187, -0.4228973090648651, -0.1129951924085617, -0.016345977783203125, 0.04882803559303284, -0.04279692471027374, 0.2510472114073513, -0.6168287441881158, 0.744935275102496,-0.039613483707133135,-0.912628173828125,-0.383758544921875,-0.1470947265625
20220224-1000,2022-02-24 10:00:25Z,u01, 209,40,movements,el-ex, rt, d,219520.92561650003, -1.4458512448042091, 0.4346537947738141, 0.2826085148855664, 0.46516475081443787, 0.030865035951137543, 0.05104406923055649, -0.8999452590942383, -0.42109641432762146, -0.11303253471851349, -0.02978801727294922, 0.10760465264320374, -0.04384295642375946, 0.25105809944926427, -0.6168091776789975, 0.7450263658371987,-0.03810465844040423,-0.9297332763671875,-0.3134918212890625,-0.1568756103515625
20220224-1000,2022-02-24 10:00:25Z,u01, 210,40,movements,el-ex, rt, d,219520.95056250002, -1.4529758199430705, 0.4352010298995732, 0.3017068549291919, 0.7205056548118591, 0.05167490988969803, 0.05136864259839058, -0.9004988670349121, -0.42159271240234375, -0.10659090429544449, -0.04214346408843994, 0.031288087368011475, 0.019829511642456055, 0.25701609829095196, -0.6169661836888094, 0.7431460558049414,-0.03208579533517297,-0.94049072265625,-0.3739776611328125,-0.100860595703125
20220224-1000,2022-02-24 10:00:26Z,u01, 211,40,movements,el-ex, rt, d,219520.97550950001, -1.4570698016862722, 0.4352504211401833, 0.31440124448581763, 0.19064846634864807, 0.051476240158081055, 0.06435155868530273, -0.9009069800376892, -0.42163747549057007, -0.10290103405714035, -0.039904236793518066, -0.05613046884536743, 0.03574717044830322, 0.26088754680250786, -0.6168364221417016, 0.7420721923513243,-0.027918828005815133,-0.9408111572265625,-0.4777679443359375,-0.0671539306640625
20220224-1000,2022-02-24 10:00:26Z,u01, 212,40,movements,el-ex, rt, d,219521.0004555, -1.4551391411648535, 0.43304362681123665, 0.3137979074332869, -0.21085043251514435, 0.08392246067523956, 0.09365417808294296, -0.9016286730766296, -0.4196354150772095, -0.10474730283021927, -0.04560649394989014, -0.05756792426109314, 0.02036631852388382, 0.2599584115911174, -0.6164803101312536, 0.7427222160642782,-0.027155485890386966,-0.949462890625,-0.4985809326171875,-0.0807647705078125
20220224-1000,2022-02-24 10:00:26Z,u01, 213,40,movements,el-ex, rt, d,219521.0254025, -1.4512269712037178, 0.4296071738309892, 0.309909479245382, -0.035919494926929474, 0.09830352663993835, 0.14617811143398285, -0.9026384353637695, -0.41651371121406555, -0.1084451973438263, -0.02657604217529297, 0.001184701919555664, 0.006913304328918457, 0.2576118773445346, -0.6159655189893282, 0.7439733897311955,-0.02695032471089931,-0.9292144775390625,-0.4153289794921875,-0.101531982421875
20220224-1000,2022-02-24 10:00:26Z,u01, 214,40,movements,el-ex, rt, d,219521.05034850002, -1.4507887586107846, 0.4264138190739707, 0.312183427190982, 0.1357034295797348, 0.02582380175590515, 0.12275726348161697, -0.9039067029953003, -0.4136084020137787, -0.10899940878152847, -0.027535617351531982, 0.016513705253601074, 0.0047820210456848145, 0.2571994957732285, -0.6159129118556049, 0.7442280926780727,-0.02498586424702981,-0.926605224609375,-0.3917694091796875,-0.1057586669921875
20220224-1000,2022-02-24 10:00:26Z,u01, 215,40,movements,el-ex, rt, d,219521.07529550002, -1.4511777350096269, 0.42340680741100645, 0.3157974936010075, 0.09786362946033478, 0.05071956664323807, 0.156701922416687, -0.9051798582077026, -0.4108687937259674, -0.10879573971033096, -0.036836862564086914, -0.0039566755294799805, 0.006119430065155029, 0.2572546991338995, -0.6159725242723542, 0.7442332433970168,-0.022690785366322408,-0.9420166015625,-0.414825439453125,-0.1026763916015625
20220224-1000,2022-02-24 10:00:26Z,u01, 216,40,movements,el-ex, rt, d,219521.1002415, -1.4513280705769271, 0.42029306204395056, 0.31948224309852674, 0.14960192143917084, 0.0639280453324318, 0.11742322891950607, -0.9064619541168213, -0.4080280363559723, -0.10881159454584122, -0.023347675800323486, 0.02346077561378479, -0.007307708263397217, 0.25729760459108925, -0.6159481663673558, 0.744307493502421,-0.020302809804057076,-0.9328155517578125,-0.3919219970703125,-0.11865234375
20220224-1000,2022-02-24 10:00:26Z,u01, 217,40,movements,el-ex, rt, d,219521.1251875, -1.4521087291951829, 0.4177134599414105, 0.3254827400899338, 0.253824383020401, 0.06839083880186081, 0.12462801486253738, -0.9075888395309448, -0.4056715667247772, -0.10822821408510208, -0.011875391006469727, 0.01680123805999756, 0.004361733794212341, 0.2582352504801089, -0.6157925369867582, 0.7441871975423056,-0.01731170686296485,-0.919464111328125,-0.3888702392578125,-0.1038665771484375
20220224-1000,2022-02-24 10:00:26Z,u01, 218,40,movements,el-ex, rt, d,219521.1501345, -1.453210852899951, 0.4155996944370881, 0.3321679407518654, 0.16949914395809174, 0.08024350553750992, 0.10710521042346954, -0.9085569977760315, -0.4037386476993561, -0.10732821375131607, -0.005139291286468506, 0.004065185785293579, 0.022764094173908234, 0.25954573422145044, -0.6156069403542913, 0.7439493955972701,-0.01426304891984781,-0.916107177734375,-0.398101806640625,-0.088531494140625
20220224-1000,2022-02-24 10:00:26Z,u01, 219,40,movements,el-ex, rt, d,219521.17508050002, -1.4517291686007083, 0.41283663365734247, 0.3347659390653818, 0.02039620652794838, 0.11110235005617142, 0.12349403649568558, -0.9095012545585632, -0.4012092649936676, -0.10880639404058456, -0.002180933952331543, 0.009012579917907715, 0.036510348320007324, 0.25938930603683896, -0.6150723452635731, 0.7444829534089334,-0.012183463799669336,-0.91168212890625,-0.3921966552734375,-0.072296142578125
20220224-1000,2022-02-24 10:00:26Z,u01, 220,40,movements,el-ex, rt, d,219521.20002750002, -1.4487633696682796, 0.40844365840446367, 0.3350206150669024, -0.018937116488814354, 0.11128071695566177, 0.16503635048866272, -0.910915195941925, -0.3971814811229706, -0.11171679198741913, 0.020656228065490723, 0.023722589015960693, 0.007239922881126404, 0.2579468619972737, -0.6144957456532786, 0.7454888526258538,-0.010242928638597437,-0.89208984375,-0.37579345703125,-0.098052978515625
20220224-1000,2022-02-24 10:00:26Z,u01, 221,40,movements,el-ex, rt, d,219521.2249735, -1.447617017539996, 0.4046190977874845, 0.33664581664304594, 0.08583424240350723, 0.12362778931856155, 0.16258157789707184, -0.9122874140739441, -0.39366865158081055, -0.1129467636346817, -0.00014257431030273438, 0.02368873357772827, -0.005568161606788635, 0.2571109042815158, -0.6143456681711995, 0.7459262896477048,-0.00821774976613715,-0.9124298095703125,-0.3699798583984375,-0.1185150146484375
20220224-1000,2022-02-24 10:00:26Z,u01, 222,40,movements,el-ex, rt, d,219521.2499205, -1.4489819937386421, 0.4018413736700849, 0.3429107178857209, 0.2644244134426117, 0.1676957905292511, 0.1575736403465271, -0.9135226011276245, -0.3911136984825134, -0.111833855509758, -0.022085368633270264, 0.022385001182556152, 0.018221259117126465, 0.2580573988877709, -0.6144017025793199, 0.7455808081704984,-0.0051337834519035175,-0.9367828369140625,-0.3699493408203125,-0.0949859619140625
20220224-1000,2022-02-24 10:00:26Z,u01, 223,40,movements,el-ex, rt, d,219521.27486650003, -1.449860745626542, 0.3988302638231569, 0.35257822855639015, 0.3417726755142212, 0.11478158086538315, 0.16376934945583344, -0.9147853851318359, -0.38834068179130554, -0.111172616481781, 0.005498826503753662, 0.032063186168670654, 0.012417852878570557, 0.25997100944884377, -0.6138638017998825, 0.7453763999924674,-0.0006419726316607144,-0.9092864990234375,-0.3562774658203125,-0.0987548828125
20220224-1000,2022-02-24 10:00:26Z,u01, 224,40,movements,el-ex, rt, d,219521.29981250002, -1.4520667732272534, 0.39674010698067524, 0.362882343005393, 0.36706629395484924, 0.05759231746196747, 0.09652373194694519, -0.9158324599266052, -0.38641372323036194, -0.10925021767616272, -0.0327913761138916, 0.01129162311553955, 0.002301439642906189, 0.2624047607201143, -0.6136111406892346, 0.7447229494468584,0.0036048697970392785,-0.9369659423828125,-0.3743896484375,-0.1118927001953125
20220224-1000,2022-02-24 10:00:26Z,u01, 225,40,movements,el-ex, rt, d,219521.3247595, -1.453038766894061, 0.39508837282629805, 0.37178589815297775, 0.2623351216316223, 0.12609735131263733, 0.12187490612268448, -0.916570782661438, -0.38488975167274475, -0.10843481868505478, -0.04860877990722656, 0.006227642297744751, 0.013433694839477539, 0.2645622477667132, -0.6130166467980455, 0.7444216536377617,0.00734235919341969,-0.965179443359375,-0.378662109375,-0.095001220703125
20220224-1000,2022-02-24 10:00:26Z,u01, 226,40,movements,el-ex, rt, d,219521.3497055, -1.4526781858818858, 0.39219815779071565, 0.37886821434369994, 0.2711605131626129, 0.10815023630857468, 0.15911780297756195, -0.9176323413848877, -0.382220596075058, -0.1088959351181984, -0.004288434982299805, -0.013088881969451904, -0.03975510597229004, 0.26572435516889736, -0.6123255665246119, 0.7445315342658114,0.01099066689446171,-0.92724609375,-0.3939971923828125,-0.1361541748046875
20220224-1000,2022-02-24 10:00:26Z,u01, 227,40,movements,el-ex, rt, d,219521.3746525, -1.4542838648410639, 0.3888732910918857, 0.38874812493222305, 0.41429001092910767, 0.052764538675546646, 0.19757790863513947, -0.919063150882721, -0.3791460692882538, -0.10756950825452805, 0.017619669437408447, -0.00531432032585144, -0.07104980200529099, 0.2676036502376882, -0.612048635373153, 0.7440044061251551,0.015562912729259692,-0.9014434814453125,-0.38446044921875,-0.178619384765625
20220224-1000,2022-02-24 10:00:26Z,u01, 228,40,movements,el-ex, rt, d,219521.39959850002, -1.4577881930859558, 0.38445756259494185, 0.39931233688553186, 0.24645142257213593, 0.014968027360737324, 0.24787850677967072, -0.9210891127586365, -0.37505635619163513, -0.10453594475984573, 0.0136488676071167, -0.046803414821624756, -0.03335767984390259, 0.26933848595938303, -0.6125265772144273, 0.7428647356114003,0.02049525349184761,-0.906402587890625,-0.4127197265625,-0.1523590087890625
20220224-1000,2022-02-24 10:00:26Z,u01, 229,40,movements,el-ex, rt, d,219521.42454550002, -1.457077674361781, 0.37721061188265614, 0.400098313688508, -0.22726716101169586, 0.05849872902035713, 0.33319100737571716, -0.9236907362937927, -0.36832863092422485, -0.10549601167440414, 0.024124085903167725, -0.07062092423439026, 0.003933615982532501, 0.2670606940993795, -0.6131317787713287, 0.743104847398723,0.023306220614870865,-0.899566650390625,-0.4389495849609375,-0.1015625
20220224-1000,2022-02-24 10:00:26Z,u01, 230,40,movements,el-ex, rt, d,219521.4494915, -1.4547385156487231, 0.3672266967118308, 0.39377522977438634, -0.2018342763185501, -0.06257982552051544, 0.396318256855011, -0.9270480275154114, -0.3590284287929535, -0.10807684808969498, 0.04766875505447388, -0.01783311367034912, 0.01272476464509964, 0.2616229241760307, -0.6144225114097044, 0.7439309580744422,0.024600634380172237,-0.874176025390625,-0.3910980224609375,-0.097808837890625
20220224-1000,2022-02-24 10:00:26Z,u01, 231,40,movements,el-ex, rt, d,219521.4744375, -1.4582831096785576, 0.3572994336044384, 0.3964897448762298, 0.3087800443172455, -0.06558667123317719, 0.3717706799507141, -0.930921196937561, -0.349745512008667, -0.10518516600131989, -0.01837390661239624, 0.03495669364929199, -0.009270906448364258, 0.2590491746817946, -0.616685447240555, 0.7428205449218196,0.02846556384339799,-0.9492950439453125,-0.314788818359375,-0.1144561767578125
20220224-1000,2022-02-24 10:00:26Z,u01, 232,40,movements,el-ex, rt, d,219521.4993845, -1.4620397747397391, 0.3508038929237797, 0.41121743433310304, 0.6804845333099365, 0.15983153879642487, 0.2844509482383728, -0.9335485100746155, -0.3436528444290161, -0.10193171352148056, -0.05645710229873657, 0.101602703332901, 0.03628849983215332, 0.26139449444090523, -0.6170146356107162, 0.7414158379975729,0.03561599846917257,-0.9993896484375,-0.245513916015625,-0.080902099609375
20220224-1000,2022-02-24 10:00:26Z,u01, 233,40,movements,el-ex, rt, d,219521.52433050002, -1.4641096636192479, 0.34608150039559754, 0.42998453225226785, 0.5805923938751221, 0.14253750443458557, 0.2275615930557251, -0.9353607296943665, -0.3392142653465271, -0.10017085075378418, -0.0026733875274658203, 0.04931250214576721, 0.04415595531463623, 0.26558510787754164, -0.6159375973642531, 0.7403784322816398,0.0438784051402068,-0.9380340576171875,-0.2899017333984375,-0.0560150146484375
20220224-1000,2022-02-24 10:00:26Z,u01, 234,40,movements,el-ex, rt, d,219521.54927750002, -1.463800712958495, 0.34170622039983245, 0.4401189795383547, 0.1709498018026352, 0.20077210664749146, 0.2296450287103653, -0.9367963075637817, -0.3350951671600342, -0.10061734914779663, -0.033326923847198486, -0.022814959287643433, -0.0020436495542526245, 0.2671853070551353, -0.6150636851965082, 0.7401987405024485,0.04913743389484909,-0.9664459228515625,-0.3616180419921875,-0.0919342041015625
20220224-1000,2022-02-24 10:00:26Z,u01, 235,40,movements,el-ex, rt, d,219521.5742235, -1.4590646234091749, 0.33625471396994006, 0.443139556988861, 0.05895708501338959, 0.24600377678871155, 0.2367522120475769, -0.938110888004303, -0.3299538791179657, -0.10525508970022202, -0.013824045658111572, 0.01095360517501831, -0.011276185512542725, 0.26610756598318364, -0.6136442115804916, 0.7415180727964943,0.05271235527681778,-0.951934814453125,-0.319000244140625,-0.1165313720703125
20220224-1000,2022-02-24 10:00:26Z,u01, 236,40,movements,el-ex, rt, d,219521.5991705, -1.4537507091353936, 0.3296815099951163, 0.4440474734934166, -0.07272358238697052, 0.20026318728923798, 0.29266393184661865, -0.93967205286026, -0.32374170422554016, -0.11048950999975204, 0.006169795989990234, -0.009998559951782227, 0.019089460372924805, 0.2639614017546564, -0.6124374441936271, 0.7430442419365342,0.05594717717681302,-0.9317626953125,-0.3243408203125,-0.0986175537109375
20220224-1000,2022-02-24 10:00:26Z,u01, 237,40,movements,el-ex, rt, d,219521.62411650002, -1.4482019243551223, 0.32198175811110125, 0.44164686613584536, -0.12873035669326782, 0.1894361823797226, 0.3129948377609253, -0.9414907097816467, -0.31644710898399353, -0.11600323021411896, -0.0007549524307250977, -0.032429903745651245, 0.00966481864452362, 0.2603863001864162, -0.6117167316564376, 0.7447132689031958,0.05834331907217055,-0.9422454833984375,-0.348876953125,-0.1063385009765625
20220224-1000,2022-02-24 10:00:26Z,u01, 238,40,movements,el-ex, rt, d,219521.64906304167, -1.4434990242577717, 0.3137607384125712, 0.4417664284701379, 0.0657099261879921, 0.19273868203163147, 0.34484222531318665, -0.943483293056488, -0.30863794684410095, -0.12075585126876831, -0.006040632724761963, -0.003694206476211548, -0.008608095347881317, 0.2574064013231274, -0.6110352037420247, 0.7460349649620663,0.06172345105995192,-0.9482421875,-0.315093994140625,-0.1278228759765625
20220224-1000,2022-02-24 10:00:26Z,u01, 239,40,movements,el-ex, rt, d,219521.6740100417, -1.4397207116208617, 0.30540818593824076, 0.44585488355077213, 0.11390785127878189, 0.22295738756656647, 0.36179035902023315, -0.9455431699752808, -0.3006824851036072, -0.12465234845876694, -0.010786175727844238, -0.004874736070632935, 0.014194078743457794, 0.2556030466346464, -0.6101974335094154, 0.7469299580590242,0.0664970419848252,-0.956329345703125,-0.3055572509765625,-0.1104583740234375
20220224-1000,2022-02-24 10:00:26Z,u01, 240,40,movements,el-ex, rt, d,219521.69895604168, -1.4350770282244292, 0.29624634998960603, 0.4491195157646173, 0.0424402579665184, 0.20211641490459442, 0.3918921947479248, -0.9476439356803894, -0.2919321358203888, -0.12940910458564758, 0.004101395606994629, -0.013426721096038818, -0.00427304208278656, 0.2532145918198496, -0.609243643411531, 0.7480752684081838,0.07133025849493047,-0.94415283203125,-0.3062591552734375,-0.12152099609375
20220224-1000,2022-02-24 10:00:26Z,u01, 241,40,movements,el-ex, rt, d,219521.72390304168, -1.431731163527606, 0.28691054766157453, 0.45195691676920763, 0.08658108860254288, 0.1417505443096161, 0.37213581800460815, -0.9498633742332458, -0.282990425825119, -0.1329510658979416, -0.01514822244644165, -0.01736357808113098, -0.04083113372325897, 0.2506608458620738, -0.6088461282828814, 0.7488103964250435,0.07588491907636691,-0.9650115966796875,-0.30035400390625,-0.1737823486328125
20220224-1000,2022-02-24 10:00:26Z,u01, 242,40,movements,el-ex, rt, d,219521.74884904167, -1.4296928555984998, 0.27823615879450825, 0.45695846550457675, 0.19650742411613464, 0.14446717500686646, 0.3542126715183258, -0.9519851207733154, -0.2746600806713104, -0.1352270543575287, -0.040934860706329346, 0.003099411725997925, -0.032680511474609375, 0.24903542511739774, -0.6085785296186692, 0.7490495461329187,0.08086029094857433,-0.9915924072265625,-0.2811431884765625,-0.171478271484375
20220224-1000,2022-02-24 10:00:26Z,u01, 243,40,movements,el-ex, rt, d,219521.77379604167, -1.4273415310268902, 0.2709229836412833, 0.4626674173556312, 0.10322058200836182, 0.14682292938232422, 0.30899664759635925, -0.9536269903182983, -0.26762086153030396, -0.137748584151268, -0.023347556591033936, 0.058087170124053955, -0.01113128662109375, 0.2480836555479306, -0.6079310879060814, 0.7493543501234812,0.08568756172501879,-0.9769744873046875,-0.20953369140625,-0.1488800048828125
20220224-1000,2022-02-24 10:00:26Z,u01, 244,40,movements,el-ex, rt, d,219521.7987420417, -1.4241454586738995, 0.263848111181115, 0.46438408764455125, -0.06765075773000717, 0.15597595274448395, 0.2524113953113556, -0.9550310969352722, -0.2607974112033844, -0.14106889069080353, -0.02469003200531006, 0.03409761190414429, 0.018022119998931885, 0.24595522603414377, -0.6074303089686985, 0.7500710198387556,0.089039316508839,-0.973876953125,-0.2139892578125,-0.1271820068359375
20220224-1000,2022-02-24 10:00:26Z,u01, 245,40,movements,el-ex, rt, d,219521.82368804168, -1.4192552497523456, 0.25744742596806636, 0.46095398883506844, -0.26384788751602173, 0.17917600274085999, 0.19564898312091827, -0.9559605717658997, -0.25461292266845703, -0.14598651230335236, -0.04048430919647217, -0.013163596391677856, 0.003973051905632019, 0.24241612402746876, -0.6068287762501899, 0.7515415925891781,0.09043627218288547,-0.9964447021484375,-0.2677764892578125,-0.1420135498046875
20220224-1000,2022-02-24 10:00:26Z,u01, 246,40,movements,el-ex, rt, d,219521.84863504168, -1.4130658931166127, 0.25256895698604, 0.4563489740246934, -0.08366607874631882, 0.1988866627216339, 0.15420813858509064, -0.9562538862228394, -0.2498922348022461, -0.15209373831748962, -0.04513472318649292, 0.06187346577644348, -0.009786650538444519, 0.23899559626672645, -0.6056684190671793, 0.7534982867477912,0.09103439002871877,-1.0021820068359375,-0.1980133056640625,-0.15911865234375
20220224-1000,2022-02-24 10:00:26Z,u01, 247,40,movements,el-ex, rt, d,219521.87358104167, -1.4081728417671582, 0.25016894633214243, 0.45888715764591453, 0.24255286157131195, 0.2335231453180313, 0.041501764208078384, -0.9560874104499817, -0.24756765365600586, -0.15686757862567902, -0.05126750469207764, 0.06644579768180847, 0.008018121123313904, 0.23867675231591345, -0.6038208527314599, 0.7547973907509996,0.09335345850446775,-1.007354736328125,-0.181121826171875,-0.1488494873046875
20220224-1000,2022-02-24 10:00:26Z,u01, 248,40,movements,el-ex, rt, d,219521.89852804167, -1.4044609848961227, 0.2511808917334212, 0.46726989092628146, 0.362075537443161, 0.21444477140903473, 0.017205744981765747, -0.9552509188652039, -0.2485479712486267, -0.1603737622499466, -0.03650939464569092, 0.02908080816268921, 0.02702730894088745, 0.24138931709213787, -0.6012855516043534, 0.755544989271006,0.09663712234577343,-0.9937591552734375,-0.21136474609375,-0.135040283203125
