SessionID,LoggingTime,UID,RecNo,Hertz,Activity,MoveType,Wrist,Side,TimeStamp,DMRoll,DMPitch,DMYaw,DMRotX,DMRotY,DMRotZ,DMGrvX,DMGrvY,DMGrvZ,DMUAccelX,DMUAccelY,DMUAccelZ,DMQuatX,DMQuatY,DMQuatW,DMQuatZ,AccelroX,AceelroY,AceelroZ
20220224-0922,2022-02-24 09:22:17Z,u01, 1,40,movements,el-ex, rt, d,218568.801416875, -1.378671032041355, 0.43497888622993774, 0.36033006322455946, 0.26367220282554626, -0.06876382976770401, 0.13483242690563202, -0.8901928067207336, -0.42139124870300293, -0.17316444218158722, -0.06676197052001953, -0.00013270974159240723, -0.03469096124172211, 0.2751003415340062, -0.5811519438737821, 0.7658864606954326,0.0,-0.946319580078125,-0.4196319580078125,-0.210693359375
20220224-0922,2022-02-24 09:22:17Z,u01, 2,40,movements,el-ex, rt, d,218568.826363875, -1.3831770630461768, 0.4331762498313438, 0.36864495046401446, 0.23152829706668854, 0.01972615346312523, 0.15788587927818298, -0.8917088508605957, -0.4197557866573334, -0.1692928522825241, -0.06367427110671997, -0.026639968156814575, -0.019641682505607605, 0.27687677538676525, -0.5819732150279194, 0.7646151720154875,0.0031380906480021897,-0.952789306640625,-0.4470367431640625,-0.1888427734375
20220224-0922,2022-02-24 09:22:17Z,u01, 3,40,movements,el-ex, rt, d,218568.851310875, -1.3829426754811072, 0.42948513609468375, 0.37172935481728375, -0.04969892278313637, 0.013441493734717369, 0.17828768491744995, -0.8931851387023926, -0.41640275716781616, -0.16979004442691803, -9.465217590332031e-05, -0.029138535261154175, 0.0038963109254837036, 0.27645520130230783, -0.5819600481609281, 0.7647641224430675,0.005535848480301031,-0.89703369140625,-0.4427947998046875,-0.1708831787109375
20220224-0922,2022-02-24 09:22:17Z,u01, 4,40,movements,el-ex, rt, d,218568.876257875, -1.38023926456828, 0.42442048123318715, 0.3679027988513439, -0.17859186232089996, -0.45901381969451904, 0.4933363199234009, -0.894782304763794, -0.4117927551269531, -0.17260132730007172, 0.296622633934021, -0.08187481760978699, -0.06944906711578369, 0.2735216172168777, -0.5821385230487798, 0.7656786198640858,0.006069483443213786,-0.5569000244140625,-0.4879913330078125,-0.24188232421875
20220224-0922,2022-02-24 09:22:17Z,u01, 5,40,movements,el-ex, rt, d,218568.90120387502, -1.3791388339346808, 0.41853001127398215, 0.3643209058695267, -0.09880012273788452, 0.021921861916780472, 0.19232209026813507, -0.896957516670227, -0.4064177870750427, -0.1740449070930481, -0.0219876766204834, 0.006866455078125, -0.02972114086151123, 0.27036171135977843, -0.582994075885673, 0.7661442207501388,0.0067362115060764505,-0.9116058349609375,-0.407440185546875,-0.1947174072265625
20220224-0922,2022-02-24 09:22:17Z,u01, 6,40,movements,el-ex, rt, d,218568.92615087502, -1.378286133260248, 0.4138007629505334, 0.3634642617168736, -0.09013506770133972, 0.008972909301519394, 0.1576329469680786, -0.8986853957176208, -0.40209218859672546, -0.1751754730939865, 0.01619333028793335, 0.035515040159225464, -0.01758904755115509, 0.2684091169833608, -0.5834113522592125, 0.7665005949015036,0.008038321784683056,-0.8818511962890625,-0.36468505859375,-0.191802978515625
20220224-0922,2022-02-24 09:22:17Z,u01, 7,40,movements,el-ex, rt, d,218568.95109787502, -1.3761891705667038, 0.41001509681486065, 0.3594782084929828, -0.2588517367839813, 0.04644098877906799, 0.08097099512815475, -0.8998029828071594, -0.39862316846847534, -0.1773526668548584, -0.01674652099609375, 0.027865171432495117, 0.01628066599369049, 0.2658746461679859, -0.5836388744220915, 0.7672106702263657,0.00800200075128682,-0.910247802734375,-0.3721160888671875,-0.1662445068359375
20220224-0922,2022-02-24 09:22:17Z,u01, 8,40,movements,el-ex, rt, d,218568.97604487502, -1.3716540321020851, 0.40712090836248827, 0.35326423740933016, -0.1746557056903839, 0.10778170824050903, 0.05942455679178238, -0.9001165628433228, -0.3959672152996063, -0.1816590428352356, -0.008467912673950195, 0.0370347797870636, 0.013873174786567688, 0.26299970592347977, -0.5830965904600868, 0.7686211381404459,0.007140379535168495,-0.90570068359375,-0.3576507568359375,-0.1708221435546875
20220224-0922,2022-02-24 09:22:17Z,u01, 9,40,movements,el-ex, rt, d,218569.00099187501, -1.3689879852282107, 0.4053048933169954, 0.35197517137047774, 0.06446260213851929, 0.0477929413318634, 0.07696519792079926, -0.9003320336341858, -0.3942989706993103, -0.18420197069644928, 0.04481762647628784, 0.06629610061645508, -0.007387623190879822, 0.2619566502575355, -0.5824755180710688, 0.7694436293157295,0.0075735210239619155,-0.8549957275390625,-0.327789306640625,-0.193145751953125
20220224-0922,2022-02-24 09:22:17Z,u01, 10,40,movements,el-ex, rt, d,218569.025937875, -1.370239383467106, 0.40377296322717887, 0.3574240237343202, 0.3010087311267853, 0.03464072197675705, 0.10473990440368652, -0.9011527895927429, -0.39289069175720215, -0.1831952929496765, 0.00909358263015747, 0.045326024293899536, -0.009263992309570312, 0.26299410468769374, -0.5824400879479305, 0.7690889195921591,0.009993312886783123,-0.8943328857421875,-0.35003662109375,-0.1913299560546875
20220224-0922,2022-02-24 09:22:17Z,u01, 11,40,movements,el-ex, rt, d,218569.050884875, -1.3731525932326851, 0.4022210343421214, 0.3662296871541409, 0.20672500133514404, 0.10076068341732025, 0.08794980496168137, -0.9022793173789978, -0.39146310091018677, -0.1806887537240982, -0.009753584861755371, -0.007783055305480957, 0.01290293037891388, 0.2650149101213175, -0.5825999649384362, 0.7682202171807138,0.013488273547865637,-0.917999267578125,-0.392120361328125,-0.1702880859375
20220224-0922,2022-02-24 09:22:17Z,u01, 12,40,movements,el-ex, rt, d,218569.075831875, -1.3708036426029397, 0.3989109921030379, 0.36828238184602474, -0.03404393047094345, 0.04184890165925026, 0.13984043896198273, -0.9031175374984741, -0.38841506838798523, -0.18306410312652588, 0.038981854915618896, -0.03254437446594238, -0.0036121606826782227, 0.2643994937567134, -0.5818598242104919, 0.7689520697288252,0.015644667550148927,-0.861480712890625,-0.4200592041015625,-0.188323974609375
20220224-0922,2022-02-24 09:22:17Z,u01, 13,40,movements,el-ex, rt, d,218569.100778875, -1.370283248614415, 0.39365829800177266, 0.36804505635573814, 0.004613284021615982, -0.08413759618997574, 0.18080884218215942, -0.9050089716911316, -0.3835694491863251, -0.18393786251544952, 0.03959161043167114, -0.004202127456665039, -0.024680495262145996, 0.2624260629968083, -0.5823775650740862, 0.7692006550752839,0.01729732037606163,-0.8543853759765625,-0.3939666748046875,-0.2107696533203125
20220224-0922,2022-02-24 09:22:17Z,u01, 14,40,movements,el-ex, rt, d,218569.12572487502, -1.3713779284199108, 0.3888406754478072, 0.36801526547541835, -0.1377919316291809, -0.010462572798132896, 0.17308594286441803, -0.9070104360580444, -0.37911587953567505, -0.18331098556518555, -0.01632922887802124, -0.006717771291732788, -0.009026214480400085, 0.26068312193592463, -0.5834284993274779, 0.7689645140011301,0.018679452813718467,-0.9247894287109375,-0.386077880859375,-0.188690185546875
20220224-0922,2022-02-24 09:22:17Z,u01, 15,40,movements,el-ex, rt, d,218569.15067187502, -1.3698479843210594, 0.3843014003431912, 0.36290834222056123, -0.3136306703090668, 0.03417453542351723, 0.1659085899591446, -0.9084059000015259, -0.3749115765094757, -0.18504004180431366, -0.03081822395324707, -0.008999526500701904, 0.0005153417587280273, 0.2575327105849786, -0.5840863651684745, 0.7695341153287162,0.018361008240017962,-0.9367828369140625,-0.3895111083984375,-0.1816558837890625
20220224-0922,2022-02-24 09:22:17Z,u01, 16,40,movements,el-ex, rt, d,218569.17561887502, -1.3641579384529232, 0.37993482736672785, 0.35494933484336233, -0.2835024297237396, 0.07523202896118164, 0.13604342937469482, -0.9089319109916687, -0.37085995078086853, -0.19053995609283447, -0.024051368236541748, 0.00022402405738830566, 0.00648827850818634, 0.253570058700878, -0.5834657203043498, 0.7713408349566157,0.01741142262865686,-0.931671142578125,-0.37030029296875,-0.1841278076171875
20220224-0922,2022-02-24 09:22:17Z,u01, 17,40,movements,el-ex, rt, d,218569.200565875, -1.3602832122723505, 0.37544546709523036, 0.34932395148418227, -0.1636027991771698, 0.003559168428182602, 0.1746254563331604, -0.9098058342933655, -0.36668699979782104, -0.19440633058547974, 0.01353520154953003, 0.010226458311080933, 0.01819765567779541, 0.2502558998526783, -0.5832399311201356, 0.7725987707462514,0.0171522874813253,-0.89532470703125,-0.3550262451171875,-0.1691741943359375
20220224-0922,2022-02-24 09:22:17Z,u01, 18,40,movements,el-ex, rt, d,218569.225512875, -1.3599030360347415, 0.3712263522327582, 0.3484093464218347, -0.004633044824004173, 0.07355969399213791, 0.16863852739334106, -0.9112367033958435, -0.3627585172653198, -0.19507434964179993, -0.012240469455718994, 0.009014040231704712, -0.0102633535861969, 0.24844110194556868, -0.5837292533737592, 0.77279142383278,0.018182902624017838,-0.9238433837890625,-0.35260009765625,-0.20709228515625
20220224-0922,2022-02-24 09:22:17Z,u01, 19,40,movements,el-ex, rt, d,218569.250458875, -1.3601588712377433, 0.36763610923313644, 0.3511294509760094, 0.08973740041255951, 0.07943915575742722, 0.15525028109550476, -0.9125542640686035, -0.35941049456596375, -0.19511227309703827, 0.016481876373291016, 0.029637545347213745, -0.017870157957077026, 0.24792253629276698, -0.5839334558563589, 0.7727499241354017,0.020339422515475825,-0.898529052734375,-0.3323822021484375,-0.212982177734375
20220224-0922,2022-02-24 09:22:17Z,u01, 20,40,movements,el-ex, rt, d,218569.275405875, -1.3620359298556162, 0.36503803471395646, 0.35500553059753565, 0.08705472946166992, 0.032711461186409, 0.10069423913955688, -0.9138292074203491, -0.35698482394218445, -0.1935918629169464, 0.006618082523345947, 0.029424458742141724, -0.02032129466533661, 0.24812367291788817, -0.5844986857639817, 0.7721999969467056,0.022427232283815213,-0.9100494384765625,-0.328277587890625,-0.21343994140625
20220224-0922,2022-02-24 09:22:17Z,u01, 21,40,movements,el-ex, rt, d,218569.30035287503, -1.3610944404067655, 0.3633584524831083, 0.3568390761852753, 0.02357598952949047, 0.092830128967762, 0.06407224386930466, -0.9142317175865173, -0.355415403842926, -0.1945766657590866, -0.037718236446380615, 0.02458968758583069, -0.01823781430721283, 0.24803376041933936, -0.5841155007292113, 0.772478155170338,0.023784609045098326,-0.953643798828125,-0.329315185546875,-0.213653564453125
20220224-0922,2022-02-24 09:22:17Z,u01, 22,40,movements,el-ex, rt, d,218569.32529987502, -1.3579408978924778, 0.36154128130971497, 0.3573367959967016, 0.07148825377225876, 0.0565168596804142, 0.06464003026485443, -0.914243221282959, -0.35371628403663635, -0.19759486615657806, -0.012163400650024414, 0.020906925201416016, -0.017996758222579956, 0.24747486135687652, -0.5830598269103378, 0.773417777603749,0.024943083591410176,-0.92486572265625,-0.332763671875,-0.2169036865234375
20220224-0922,2022-02-24 09:22:17Z,u01, 23,40,movements,el-ex, rt, d,218569.35024587502, -1.3565241378770252, 0.3599360954566413, 0.3609326888074092, 0.23518113791942596, 0.032612260431051254, 0.0318620391190052, -0.9145160913467407, -0.35221442580223083, -0.19901041686534882, -0.023380517959594727, 0.00982251763343811, -0.03702794015407562, 0.24791543027356208, -0.5822651724786563, 0.7738056282613894,0.027017145750315774,-0.93115234375,-0.3396759033203125,-0.23748779296875
20220224-0922,2022-02-24 09:22:18Z,u01, 24,40,movements,el-ex, rt, d,218569.375192875, -1.35671378413649, 0.35941947174228345, 0.36770648593409017, 0.2688726484775543, 0.07129247486591339, 0.05229027941823006, -0.9147316217422485, -0.3517308533191681, -0.19887563586235046, -0.024492621421813965, 0.01385548710823059, -0.016731292009353638, 0.24969962031386245, -0.5815602114252436, 0.7736608787969863,0.029777480733305717,-0.936553955078125,-0.3386383056640625,-0.2151641845703125
20220224-0922,2022-02-24 09:22:18Z,u01, 25,40,movements,el-ex, rt, d,218569.400139875, -1.3568672372200827, 0.3582054402181465, 0.373855026544782, 0.2021421641111374, 0.02207852527499199, 0.051583148539066315, -0.9151785969734192, -0.3505941331386566, -0.19882574677467346, -0.010678768157958984, -0.03507170081138611, -0.03307752311229706, 0.25104452054585574, -0.5810023862165177, 0.773534217316519,0.032520442414229356,-0.9204864501953125,-0.380706787109375,-0.2294769287109375
20220224-0922,2022-02-24 09:22:18Z,u01, 26,40,movements,el-ex, rt, d,218569.425086875, -1.3566862618019797, 0.35721449112482734, 0.37874151283293384, 0.19302543997764587, 0.021663736552000046, 0.08130975067615509, -0.9154817461967468, -0.34966591000556946, -0.19906510412693024, -0.0343930721282959, -0.045719802379608154, -0.024537384510040283, 0.2520977420188953, -0.5804430831884263, 0.7735148431308131,0.034746533149269176,-0.950714111328125,-0.3961334228515625,-0.2224578857421875
20220224-0922,2022-02-24 09:22:18Z,u01, 27,40,movements,el-ex, rt, d,218569.45003354168, -1.3569163285132293, 0.3559460325732065, 0.38293258301925104, 0.04896347224712372, 0.05703052133321762, 0.06364978849887848, -0.9159600734710693, -0.34847724437713623, -0.1989484280347824, -0.04772382974624634, -0.050601065158843994, 0.00632128119468689, 0.25285409970205575, -0.5801642755412474, 0.773384922255753,0.0367394586293841,-0.964935302734375,-0.39862060546875,-0.1964263916015625
20220224-0922,2022-02-24 09:22:18Z,u01, 28,40,movements,el-ex, rt, d,218569.47498054168, -1.3544474762122458, 0.35338241194298126, 0.38077833759841173, -0.2200084775686264, 0.0525076724588871, 0.10938958823680878, -0.9163357615470886, -0.346073180437088, -0.20140033960342407, -0.015915095806121826, -0.0534629225730896, 0.006911635398864746, 0.2512458198639318, -0.5798063210676191, 0.7741634781001019,0.0370274422539153,-0.9309539794921875,-0.4001007080078125,-0.1963043212890625
20220224-0922,2022-02-24 09:22:18Z,u01, 29,40,movements,el-ex, rt, d,218569.49992754168, -1.3501361072684077, 0.3495195603707269, 0.3743659185205364, -0.2513448894023895, 0.08063238114118576, 0.11909854412078857, -0.9167565703392029, -0.3424464464187622, -0.20564018189907074, -0.020895957946777344, -0.03174477815628052, -0.019671261310577393, 0.24789112055447116, -0.579422037820367, 0.7755658980890462,0.036299398638521385,-0.9340667724609375,-0.379425048828125,-0.2262725830078125
20220224-0922,2022-02-24 09:22:18Z,u01, 30,40,movements,el-ex, rt, d,218569.52487454168, -1.346360073417879, 0.3453012247053454, 0.37051434552318824, -0.11115559190511703, 0.1197299063205719, 0.15115681290626526, -0.917373538017273, -0.338480144739151, -0.20942001044750214, -0.021240174770355225, 0.0025121867656707764, -0.009864255785942078, 0.24515412839844755, -0.5789554785968769, 0.7767692492938676,0.03659714869729491,-0.937591552734375,-0.3361968994140625,-0.21942138671875
20220224-0922,2022-02-24 09:22:18Z,u01, 31,40,movements,el-ex, rt, d,218569.54982154167, -1.3429052324541235, 0.34192588192471257, 0.3681663952219516, -0.19236430525779724, 0.13027097284793854, 0.11500492691993713, -0.9177523851394653, -0.33530211448669434, -0.2128450721502304, -0.008333921432495117, -0.035776376724243164, 0.028595030307769775, 0.24316524219336633, -0.5783149030381657, 0.7778439639975123,0.03716584583010518,-0.928253173828125,-0.37109375,-0.1904144287109375
20220224-0922,2022-02-24 09:22:18Z,u01, 32,40,movements,el-ex, rt, d,218569.5747675417, -1.3389583400653398, 0.337421019521105, 0.3643158506434483, -0.12294866889715195, 0.1025547906756401, 0.1746217906475067, -0.9183657765388489, -0.3310546278953552, -0.21681050956249237, 0.0077672600746154785, -0.019210785627365112, -0.005906969308853149, 0.24031132372082784, -0.5777934013366056, 0.7790986469451686,0.03755478540381435,-0.91217041015625,-0.3477935791015625,-0.2253265380859375
20220224-0922,2022-02-24 09:22:18Z,u01, 33,40,movements,el-ex, rt, d,218569.5997145417, -1.3366677473053714, 0.3330877838865668, 0.36535480040908025, 0.13450081646442413, 0.10613934695720673, 0.1953887790441513, -0.9192536473274231, -0.3269626498222351, -0.2192443162202835, -0.007854998111724854, -0.005389004945755005, -0.03623378276824951, 0.23895973155027214, -0.5773006910952494, 0.7797787419505158,0.03958836799971366,-0.9264984130859375,-0.327545166015625,-0.2563934326171875
20220224-0922,2022-02-24 09:22:18Z,u01, 34,40,movements,el-ex, rt, d,218569.6246615417, -1.3371234927444933, 0.33079757456817405, 0.3731390856684086, 0.3842109739780426, 0.08753569424152374, 0.16259901225566864, -0.9200794696807861, -0.32479745149612427, -0.21899814903736115, -0.018137574195861816, -0.011872410774230957, -0.030651092529296875, 0.2403654673354068, -0.5768235137734947, 0.7795033769549888,0.04328353580234867,-0.9378814697265625,-0.33502197265625,-0.250274658203125
20220224-0922,2022-02-24 09:22:18Z,u01, 35,40,movements,el-ex, rt, d,218569.6496085417, -1.3403700455436451, 0.32981996760945215, 0.38650401772031984, 0.5223311185836792, -0.005825743079185486, 0.11877210438251495, -0.9210943579673767, -0.32387271523475647, -0.2160823494195938, -0.0020775198936462402, 0.0002948641777038574, -0.04290527105331421, 0.24393181589968815, -0.5765900602104372, 0.7782663200833114,0.04840104989225136,-0.9189910888671875,-0.321197509765625,-0.2614593505859375
20220224-0922,2022-02-24 09:22:18Z,u01, 36,40,movements,el-ex, rt, d,218569.67455454168, -1.3443693585973937, 0.32947860852711236, 0.3967684192249153, 0.18757778406143188, -0.028038637712597847, 0.09256206452846527, -0.9220588207244873, -0.32354971766471863, -0.21242168545722961, -0.042708516120910645, -0.031522274017333984, -0.0098075270652771, 0.24686633092871982, -0.5769282234215929, 0.7768564388430694,0.05200791799911092,-0.9658203125,-0.3564910888671875,-0.22027587890625
20220224-0922,2022-02-24 09:22:18Z,u01, 37,40,movements,el-ex, rt, d,218569.69950154168, -1.3443589252493966, 0.32756311176440983, 0.39703270109893785, -0.18880730867385864, 0.026249101385474205, 0.0721670463681221, -0.9226588606834412, -0.3217366635799408, -0.21257005631923676, -0.05190461874008179, -0.020014405250549316, 0.005737006664276123, 0.24623672283680562, -0.5771329557703193, 0.7768566948544122,0.052712831275661065,-0.977752685546875,-0.3455810546875,-0.208892822265625
20220224-0922,2022-02-24 09:22:18Z,u01, 38,40,movements,el-ex, rt, d,218569.72444854167, -1.3417143299700425, 0.32437103161305697, 0.3910992637989698, -0.26389944553375244, 0.032575108110904694, 0.05237570032477379, -0.9230889678001404, -0.31871268153190613, -0.21524149179458618, -0.03484243154525757, -0.027570247650146484, -0.0058280229568481445, 0.24327777827017585, -0.5772306079112441, 0.7777818624417123,0.051730976962029274,-0.957763671875,-0.345367431640625,-0.220733642578125
20220224-0922,2022-02-24 09:22:18Z,u01, 39,40,movements,el-ex, rt, d,218569.74939554167, -1.3399686975420526, 0.3223687903688742, 0.3873588063032373, -0.018810484558343887, 0.004330886527895927, 0.03376147150993347, -0.9233312010765076, -0.31681421399116516, -0.21699810028076172, -0.03804868459701538, -0.01933687925338745, -0.015530765056610107, 0.2414130945938226, -0.5772526895098636, 0.778387030259278,0.05111403456283958,-0.959381103515625,-0.3362274169921875,-0.2298431396484375
20220224-0922,2022-02-24 09:22:18Z,u01, 40,40,movements,el-ex, rt, d,218569.7743415417, -1.3403125661219828, 0.3226038946364381, 0.3899012648185252, 0.17231017351150513, 0.02872617356479168, 0.0076781390234827995, -0.9233331680297852, -0.3170371949672699, -0.21666355431079865, -0.04375350475311279, -0.009989142417907715, -0.016063690185546875, 0.24224262568996885, -0.5770500296959727, 0.7782216131348373,0.05198829422622231,-0.9656982421875,-0.328521728515625,-0.2325439453125
20220224-0922,2022-02-24 09:22:18Z,u01, 41,40,movements,el-ex, rt, d,218569.7992885417, -1.3414069495943055, 0.32284970376352545, 0.39406910094442915, 0.1138366162776947, -0.009559694677591324, 0.052567582577466965, -0.9234938025474548, -0.31727030873298645, -0.21563521027565002, -0.012419164180755615, -0.04796397686004639, -0.013704583048820496, 0.24356471631794505, -0.576939014705991, 0.7777955564452207,0.05339974166764927,-0.936614990234375,-0.360382080078125,-0.2294921875
20220224-0922,2022-02-24 09:22:18Z,u01, 42,40,movements,el-ex, rt, d,218569.8242355417, -1.3425979694881056, 0.3218049693810616, 0.3966672458431128, 0.06175113469362259, -0.007460924796760082, 0.07507255673408508, -0.924072265625, -0.3162793815135956, -0.2146100103855133, -0.0213925838470459, -0.052967995405197144, -0.01051834225654602, 0.2439608310226877, -0.5772158253364633, 0.7773831206282549,0.054591951018235774,-0.946075439453125,-0.367889404296875,-0.22442626953125
20220224-0922,2022-02-24 09:22:18Z,u01, 43,40,movements,el-ex, rt, d,218569.8491825417, -1.3433302918910963, 0.31964260031867864, 0.3979903988762863, 0.003138357773423195, -0.04101768881082535, 0.10297729820013046, -0.924893319606781, -0.31422728300094604, -0.21408696472644806, -0.008181393146514893, -0.04299613833427429, -0.012948781251907349, 0.2435650588655498, -0.5776093681098524, 0.777136660834226,0.05569455114531757,-0.9341278076171875,-0.35845947265625,-0.22576904296875
20220224-0922,2022-02-24 09:22:18Z,u01, 44,40,movements,el-ex, rt, d,218569.87412954168, -1.3449622348608918, 0.3172692385731427, 0.39925050514338867, 0.06874983012676239, -0.0618244968354702, 0.11028920114040375, -0.9259657263755798, -0.3119732439517975, -0.21274369955062866, -0.01991117000579834, -0.03530147671699524, -0.01995299756526947, 0.2430995670072787, -0.5783863320950104, 0.7766295245167426,0.05672968319398358,-0.9468536376953125,-0.346343994140625,-0.2325897216796875
20220224-0922,2022-02-24 09:22:18Z,u01, 45,40,movements,el-ex, rt, d,218569.89907554167, -1.3470617027324705, 0.31593034998723313, 0.40223361208589536, 0.09964169561862946, -0.058606866747140884, 0.07704097032546997, -0.9268167614936829, -0.310700923204422, -0.21089167892932892, -0.03766053915023804, -0.03858795762062073, -0.011505335569381714, 0.24352947702211708, -0.5790056573201418, 0.7759352931719592,0.05805238777069055,-0.9639739990234375,-0.3466033935546875,-0.22344970703125
20220224-0922,2022-02-24 09:22:18Z,u01, 46,40,movements,el-ex, rt, d,218569.92402254167, -1.3492799087406473, 0.3152014836887028, 0.4046548628399977, 0.07578323781490326, -0.06801767647266388, 0.03663841634988785, -0.9275029301643372, -0.31000804901123047, -0.20888498425483704, -0.03659290075302124, -0.043415963649749756, -0.01268807053565979, 0.24402740207263512, -0.5796620857686454, 0.775220710628326,0.05894999765691994,-0.9651947021484375,-0.35284423828125,-0.221160888671875
20220224-0922,2022-02-24 09:22:18Z,u01, 47,40,movements,el-ex, rt, d,218569.94896954167, -1.3508286160091434, 0.3151783976845396, 0.40657334092243297, 0.06480062752962112, -0.033100973814725876, 0.013622847385704517, -0.9278323650360107, -0.30998608469963074, -0.20744988322257996, -0.05298715829849243, -0.04703900218009949, -0.004632160067558289, 0.2446209777468273, -0.5800307199014577, 0.774714894586824,0.05951145468669766,-0.9800567626953125,-0.3556976318359375,-0.212738037109375
20220224-0922,2022-02-24 09:22:18Z,u01, 48,40,movements,el-ex, rt, d,218569.97391654167, -1.352424850368365, 0.315198721956348, 0.4086486626190154, 0.10348866879940033, -0.05981773883104324, 0.01666291058063507, -0.9281561970710754, -0.31000539660453796, -0.20596721768379211, -0.042989253997802734, -0.04791995882987976, -0.012172624468803406, 0.24527823665931725, -0.580392086559945, 0.774189839872863,0.06011318031165819,-0.972686767578125,-0.35736083984375,-0.217926025390625
20220224-0922,2022-02-24 09:22:18Z,u01, 49,40,movements,el-ex, rt, d,218569.9988625417, -1.3542601025607428, 0.3158358424177639, 0.4117451415133338, 0.12267188727855682, -0.01745550148189068, -0.02651451900601387, -0.9283396005630493, -0.3106110692024231, -0.20422101020812988, -0.07501721382141113, -0.06347334384918213, 0.0018435269594192505, 0.24646628789006825, -0.5806409089907488, 0.7735654171413635,0.06088488914218387,-1.0023651123046875,-0.372772216796875,-0.2074737548828125
20220224-0922,2022-02-24 09:22:18Z,u01, 50,40,movements,el-ex, rt, d,218570.0238095417, -1.35576681194795, 0.3174109085319517, 0.4141897807719359, 0.07139571011066437, -0.03536592423915863, -0.05807071179151535, -0.9281671047210693, -0.3121078610420227, -0.2027173936367035, -0.05726063251495361, -0.03930202126502991, 0.005314230918884277, 0.24779913145437485, -0.5807210119847735, 0.7730586334230642,0.061146973053290754,-0.985382080078125,-0.3503265380859375,-0.1978302001953125
20220224-0922,2022-02-24 09:22:18Z,u01, 51,40,movements,el-ex, rt, d,218570.04875654168, -1.356495473071714, 0.31930734548825407, 0.41411721748374447, -0.04185042530298233, -0.03206227719783783, -0.08217818289995193, -0.9277346730232239, -0.31390899419784546, -0.20191480219364166, -0.05482453107833862, -0.03487640619277954, 0.006434231996536255, 0.24849434910157464, -0.5807694497222008, 0.7728555551928324,0.06042973101815513,-0.9835968017578125,-0.34869384765625,-0.1952056884765625
20220224-0922,2022-02-24 09:22:18Z,u01, 52,40,movements,el-ex, rt, d,218570.07370354168, -1.356914532683391, 0.3213413381618398, 0.4122836274426998, -0.026469100266695023, -0.03762727975845337, -0.10726149380207062, -0.9271932244300842, -0.3158395290374756, -0.20139004290103912, -0.06200343370437622, -0.018739908933639526, 0.007954180240631104, 0.24871859118677442, -0.5808993378605155, 0.7727941219449126,0.05902658443775205,-0.989593505859375,-0.3339996337890625,-0.194549560546875
20220224-0922,2022-02-24 09:22:18Z,u01, 53,40,movements,el-ex, rt, d,218570.09864954167, -1.3581678078852295, 0.3247305409419549, 0.41228685156083694, 0.07873807847499847, -0.05338560789823532, -0.14976514875888824, -0.9263932108879089, -0.31905341148376465, -0.2000008076429367, -0.06001102924346924, -0.009330928325653076, 0.0055731236934661865, 0.24999536515502604, -0.5809491470178212, 0.772437312918103,0.05780030434128197,-0.988067626953125,-0.3272552490234375,-0.19415283203125
20220224-0922,2022-02-24 09:22:18Z,u01, 54,40,movements,el-ex, rt, d,218570.12359654167, -1.3609197525813421, 0.3295735292526751, 0.4148120050655757, 0.18388409912586212, -0.07518377900123596, -0.18920676410198212, -0.9254180192947388, -0.32363954186439514, -0.19712644815444946, -0.060299694538116455, -0.01617366075515747, -0.010118603706359863, 0.25257545856729685, -0.5810700573161962, 0.7715736912932722,0.05689642531685429,-0.985687255859375,-0.341064453125,-0.2079315185546875
20220224-0922,2022-02-24 09:22:18Z,u01, 55,40,movements,el-ex, rt, d,218570.14854354167, -1.3646963780598722, 0.33539985766089786, 0.41882597956754497, 0.16580362617969513, -0.10749031603336334, -0.21216507256031036, -0.9242945313453674, -0.32914677262306213, -0.1932409554719925, -0.05045217275619507, -0.032059282064437866, 0.00032386183738708496, 0.2559688517212184, -0.5812568041117954, 0.7703710491193126,0.056115654857585906,-0.977508544921875,-0.3587646484375,-0.19427490234375
20220224-0922,2022-02-24 09:22:18Z,u01, 56,40,movements,el-ex, rt, d,218570.17349054167, -1.3684522103421386, 0.3408709400295129, 0.4204557464099489, 0.0455908440053463, -0.1380542814731598, -0.2022990584373474, -0.9232357144355774, -0.33430805802345276, -0.18940332531929016, -0.04635334014892578, -0.037777483463287354, 0.0027576833963394165, 0.2585314137109305, -0.5817730185446619, 0.7692392486421263,0.05452038038244805,-0.9696044921875,-0.3724517822265625,-0.1859893798828125
20220224-0922,2022-02-24 09:22:18Z,u01, 57,40,movements,el-ex, rt, d,218570.1984375417, -1.3717544001127548, 0.3456544820718155, 0.420195059396044, 0.034291982650756836, -0.13855522871017456, -0.18768976628780365, -0.9222781658172607, -0.33881253004074097, -0.18603530526161194, -0.04760098457336426, -0.03397494554519653, -0.003875747323036194, 0.2602747003120304, -0.5824426420399866, 0.768286947641751,0.05246764565956735,-0.9691619873046875,-0.373046875,-0.1887359619140625
20220224-0922,2022-02-24 09:22:18Z,u01, 58,40,movements,el-ex, rt, d,218570.22338354168, -1.3754887632493626, 0.35037094908318434, 0.42092479020280843, 0.1148567721247673, -0.1700097620487213, -0.17818807065486908, -0.9213883280754089, -0.3432462513446808, -0.18227769434452057, -0.03419303894042969, -0.02041637897491455, -0.023761898279190063, 0.2622861703355144, -0.5831527401064831, 0.7671783928262729,0.050753702987119176,-0.9550018310546875,-0.362640380859375,-0.2064971923828125
20220224-0922,2022-02-24 09:22:18Z,u01, 59,40,movements,el-ex, rt, d,218570.24833054168, -1.3810847297604285, 0.35603574942294774, 0.4238569714762326, 0.1519813984632492, -0.1785070300102234, -0.23105521500110626, -0.9204697012901306, -0.3485613465309143, -0.1767493188381195, -0.05241525173187256, -0.005518823862075806, -0.014916524291038513, 0.26531972507176327, -0.5841496257249312, 0.7654682260884357,0.04932494229878315,-0.969512939453125,-0.3555450439453125,-0.1984710693359375
20220224-0922,2022-02-24 09:22:18Z,u01, 60,40,movements,el-ex, rt, d,218570.27327754168, -1.3860525665616563, 0.36264169718714223, 0.42565943186390015, 0.07249050587415695, -0.19197264313697815, -0.2648516595363617, -0.9190530180931091, -0.35474535822868347, -0.17174769937992096, -0.03677278757095337, 0.005944699048995972, -0.015996649861335754, 0.26833352890641504, -0.5849130404231836, 0.7639654989407669,0.04722903709279297,-0.9531707763671875,-0.3464202880859375,-0.1888275146484375
20220224-0922,2022-02-24 09:22:18Z,u01, 61,40,movements,el-ex, rt, d,218570.29822454168, -1.3922587870093692, 0.37026547859118686, 0.4273900907936748, 0.23635369539260864, -0.2474151849746704, -0.30654376745224, -0.9174129962921143, -0.3618629276752472, -0.1655554622411728, -0.04015231132507324, 0.05819776654243469, -0.08676405251026154, 0.2717030356603055, -0.5860031797348397, 0.7620952042524618,0.04459380985747596,-0.952728271484375,-0.306121826171875,-0.24273681640625
20220224-0922,2022-02-24 09:22:18Z,u01, 62,40,movements,el-ex, rt, d,218570.32317054167, -1.4015976526119358, 0.38146349474013697, 0.43641467656235544, 0.5735593438148499, -0.2502862811088562, -0.4457133412361145, -0.914867103099823, -0.37227916717529297, -0.15628857910633087, -0.0603218674659729, 0.07604509592056274, -0.11771367490291595, 0.2785241975143079, -0.586753766912771, 0.7591345387616584,0.04311477127673319,-0.9738616943359375,-0.297088623046875,-0.2726898193359375
20220224-0922,2022-02-24 09:22:18Z,u01, 63,40,movements,el-ex, rt, d,218570.34811754167, -1.4135194925130679, 0.3962123600890156, 0.4511070495329274, 0.643016517162323, -0.2801622748374939, -0.5025767087936401, -0.9111429452896118, -0.38592690229415894, -0.14449505507946014, -0.03831982612609863, 0.06447002291679382, -0.039282023906707764, 0.28826832887945075, -0.5870722621200218, 0.7552934312261094,0.04218172423546068,-0.9529876708984375,-0.310089111328125,-0.1930084228515625
20220224-0922,2022-02-24 09:22:19Z,u01, 64,40,movements,el-ex, rt, d,218570.37306454167, -1.4253527088700457, 0.41128240398366817, 0.46275421409263184, 0.3730773329734802, -0.305085688829422, -0.5429691076278687, -0.9069309830665588, -0.3997851312160492, -0.13284538686275482, -0.033620595932006836, 0.004262089729309082, -0.01299828290939331, 0.2971627162400428, -0.5875981870972472, 0.751552531601598,0.03989262145013339,-0.93939208984375,-0.400665283203125,-0.143524169921875
20220224-0922,2022-02-24 09:22:19Z,u01, 65,40,movements,el-ex, rt, d,218570.3980115417, -1.4342866370847507, 0.4256970120627997, 0.46773414721393636, 0.1822829395532608, -0.25302210450172424, -0.5388284921646118, -0.9022784233093262, -0.41295570135116577, -0.12394057959318161, -0.03363466262817383, -0.016991227865219116, -0.010977879166603088, 0.3037493418798173, -0.5880187482941011, 0.7487981135434835,0.035660582235270355,-0.936981201171875,-0.43408203125,-0.141204833984375
20220224-0922,2022-02-24 09:22:19Z,u01, 66,40,movements,el-ex, rt, d,218570.42295754168, -1.4404636755257596, 0.4392689575986199, 0.469325052879665, 0.07898072153329849, -0.20430687069892883, -0.5057026743888855, -0.8973866701126099, -0.4252779483795166, -0.11762555688619614, -0.025388479232788086, 0.00869777798652649, 0.01845848560333252, 0.30894959041846803, -0.5879943638390379, 0.746902574436462,0.03081028633698346,-0.9228668212890625,-0.4163360595703125,-0.0963897705078125
20220224-0922,2022-02-24 09:22:19Z,u01, 67,40,movements,el-ex, rt, d,218570.447904, -1.4444024763205003, 0.4518154471142445, 0.4684056354925434, -0.020454883575439453, -0.15838965773582458, -0.49191543459892273, -0.8924793601036072, -0.4365995228290558, -0.11340846866369247, -0.022742807865142822, -0.0071413516998291016, 0.027897939085960388, 0.3129915113130075, -0.5876496244210396, 0.7456840006527304,0.02568366666227795,-0.91534423828125,-0.436798095703125,-0.085479736328125
20220224-0922,2022-02-24 09:22:19Z,u01, 68,40,movements,el-ex, rt, d,218570.47285100003, -1.4462178784522965, 0.46332235460734406, 0.46426671981711043, -0.14546306431293488, -0.12850672006607056, -0.45550695061683655, -0.887639582157135, -0.4469226598739624, -0.1111564040184021, -0.03069514036178589, -0.032599955797195435, 0.021297171711921692, 0.3156864810397723, -0.587165943507495, 0.7451020438324889,0.02002383589334944,-0.918853759765625,-0.4811248779296875,-0.0895843505859375
20220224-0922,2022-02-24 09:22:19Z,u01, 69,40,movements,el-ex, rt, d,218570.49779800003, -1.4463313701890108, 0.47339029000198474, 0.45794307231938314, -0.18705882132053375, -0.10791482776403427, -0.41036951541900635, -0.8831427693367004, -0.45590636134147644, -0.11049147695302963, -0.043691396713256836, -0.03242069482803345, 0.031374379992485046, 0.31722911290612404, -0.5866173822797841, 0.7450110148412556,0.014295531722423649,-0.9259033203125,-0.4838104248046875,-0.082550048828125
20220224-0922,2022-02-24 09:22:19Z,u01, 70,40,movements,el-ex, rt, d,218570.52274500002, -1.4453493516946279, 0.4826229562097706, 0.45100752826408247, -0.21966096758842468, -0.07275843620300293, -0.34935009479522705, -0.8788198828697205, -0.46410414576530457, -0.11082726716995239, -0.042261481285095215, -0.02498576045036316, 0.05011237412691116, 0.31830441842850543, -0.5858913410286826, 0.7452088112570906,0.008792058023588067,-0.920135498046875,-0.4875030517578125,-0.05926513671875
20220224-0922,2022-02-24 09:22:19Z,u01, 71,40,movements,el-ex, rt, d,218570.547691, -1.4436690524577147, 0.49014356749522126, 0.4445883343133667, -0.16731247305870056, -0.045379411429166794, -0.3102177381515503, -0.8751454949378967, -0.4707525670528412, -0.11185810714960098, -0.02349025011062622, -0.013332486152648926, 0.029445171356201172, 0.3189569039494416, -0.5850960959996212, 0.7455948108930955,0.004163988924874684,-0.899444580078125,-0.4894561767578125,-0.0839691162109375
20220224-0922,2022-02-24 09:22:19Z,u01, 72,40,movements,el-ex, rt, d,218570.572638, -1.4427271924363325, 0.4962237456718077, 0.4403845239246631, -0.08435307443141937, -0.03522384539246559, -0.25089356303215027, -0.8721846342086792, -0.4761081635951996, -0.11231465637683868, -0.0194014310836792, -0.0009272396564483643, 0.013361237943172455, 0.3197784210984508, -0.5844522516712356, 0.7457590556923135,0.000724741402173934,-0.891937255859375,-0.4778900146484375,-0.0994415283203125
20220224-0922,2022-02-24 09:22:19Z,u01, 73,40,movements,el-ex, rt, d,218570.597585, -1.4410123551040792, 0.501796527136963, 0.4357919946814464, -0.19284886121749878, -0.01737121306359768, -0.20253442227840424, -0.8693463206291199, -0.4810013771057129, -0.11346500366926193, -0.007896482944488525, -0.014466702938079834, 0.02804608643054962, 0.3203191897150804, -0.583663529645064, 0.746140564955299,-0.00256576131298053,-0.882476806640625,-0.4947662353515625,-0.082611083984375
20220224-0922,2022-02-24 09:22:19Z,u01, 74,40,movements,el-ex, rt, d,218570.622532, -1.438909729203424, 0.5052492512894124, 0.43012571346480494, -0.1289213001728058, -0.04225745424628258, -0.12245083600282669, -0.867454469203949, -0.4840255677700043, -0.11507359892129898, 0.007011473178863525, -0.00033414363861083984, 0.01639479398727417, 0.31983714726797496, -0.5832387173270571, 0.7466636726242282,-0.0054900381503970586,-0.8595123291015625,-0.481842041015625,-0.0986480712890625
20220224-0922,2022-02-24 09:22:19Z,u01, 75,40,movements,el-ex, rt, d,218570.647478, -1.440350734216592, 0.5078237588497034, 0.4295108940526261, 0.07654958963394165, -0.09627135097980499, -0.11898173391819, -0.8663811087608337, -0.486276775598526, -0.1136610135436058, -0.012097954750061035, 0.0199529230594635, -0.015398040413856506, 0.3205235142205675, -0.5834673676453416, 0.7461797973411106,-0.006804534866347356,-0.8721466064453125,-0.4700775146484375,-0.12774658203125
20220224-0922,2022-02-24 09:22:19Z,u01, 76,40,movements,el-ex, rt, d,218570.67242500003, -1.443411292212916, 0.5108736049539296, 0.43126009545034827, 0.03772902488708496, -0.08304169774055481, -0.07360506802797318, -0.865249514579773, -0.488939493894577, -0.11081991344690323, -0.01586902141571045, 0.06642374396324158, 0.0008953958749771118, 0.32205179603187467, -0.5838430303627788, 0.7452188337436938,-0.007657337908941408,-0.878692626953125,-0.4177093505859375,-0.1091766357421875
20220224-0922,2022-02-24 09:22:19Z,u01, 77,40,movements,el-ex, rt, d,218570.69737200002, -1.447090571441904, 0.5131079450718266, 0.43176189135849263, -0.10069002956151962, -0.12480579316616058, -0.12503349781036377, -0.8645652532577515, -0.490887314081192, -0.10750062763690948, 0.011003971099853516, 0.02454829216003418, -0.006467454135417938, 0.32293503568956017, -0.5847757263782735, 0.744091839553468,-0.008807374168564197,-0.8482818603515625,-0.4581756591796875,-0.1214141845703125
20220224-0922,2022-02-24 09:22:19Z,u01, 78,40,movements,el-ex, rt, d,218570.72231900002, -1.446315162583395, 0.515233427520536, 0.42526095914079903, -0.2503249943256378, -0.08686227351427078, -0.13059698045253754, -0.8634442687034607, -0.4927379786968231, -0.1080411821603775, -0.026097118854522705, 0.029145538806915283, 0.009179249405860901, 0.3217523674601815, -0.5851963971342042, 0.7442317873446496,-0.011809118204596791,-0.891082763671875,-0.4596099853515625,-0.098785400390625
20220224-0922,2022-02-24 09:22:19Z,u01, 79,40,movements,el-ex, rt, d,218570.747265, -1.4439506668929636, 0.5173089789380773, 0.41755192819063125, -0.22470642626285553, -0.09748449176549911, -0.1583249568939209, -0.8621701002120972, -0.49454301595687866, -0.1099528819322586, -0.0008820891380310059, 0.06244468688964844, 0.013440854847431183, 0.3202118636434065, -0.5852246771651696, 0.7448164930323852,-0.01498985598423086,-0.867584228515625,-0.431854248046875,-0.093505859375
20220224-0922,2022-02-24 09:22:19Z,u01, 80,40,movements,el-ex, rt, d,218570.772212, -1.4436147218949242, 0.5194079372447253, 0.41247799018199227, -0.03447333350777626, -0.11043031513690948, -0.14248040318489075, -0.8611016869544983, -0.4963662326335907, -0.11011061817407608, 0.0008264780044555664, 0.06411531567573547, -0.01414191722869873, 0.3194378707851617, -0.5855801718473641, 0.7448141864190471,-0.017523246753802013,-0.859527587890625,-0.4331207275390625,-0.126953125
20220224-0922,2022-02-24 09:22:19Z,u01, 81,40,movements,el-ex, rt, d,218570.797159, -1.4471106399095566, 0.5232361205413385, 0.4136266658689341, 0.10146516561508179, -0.11665472388267517, -0.18618135154247284, -0.8595893383026123, -0.4996859133243561, -0.10686439275741577, 0.0030831098556518555, 0.03299587965011597, -0.024056188762187958, 0.3210332450966729, -0.5860933868781842, 0.7436893107431585,-0.01892864992905713,-0.86041259765625,-0.4612579345703125,-0.1367950439453125
20220224-0922,2022-02-24 09:22:19Z,u01, 82,40,movements,el-ex, rt, d,218570.822106, -1.4512895328816584, 0.5273088779587113, 0.41518572566468487, 0.011760642752051353, -0.14052636921405792, -0.1823318749666214, -0.8580008149147034, -0.5032095909118652, -0.10302787274122238, 0.01193147897720337, 0.014272212982177734, -0.012466147541999817, 0.32281818687471425, -0.5867490806114417, 0.7423601756796057,-0.0203791222356563,-0.8459014892578125,-0.489959716796875,-0.1141510009765625
20220224-0922,2022-02-24 09:22:19Z,u01, 83,40,movements,el-ex, rt, d,218570.84705200003, -1.4531353868978611, 0.5299618810775512, 0.4126757309539671, -0.10612931102514267, -0.1351325362920761, -0.14562992751598358, -0.8568606376647949, -0.5055004358291626, -0.1012868732213974, -0.010113120079040527, -0.013008356094360352, 0.0043628886342048645, 0.32295137097256266, -0.5874172085811771, 0.7417124934448589,-0.022493653509573996,-0.8632659912109375,-0.51605224609375,-0.09942626953125
20220224-0922,2022-02-24 09:22:19Z,u01, 84,40,movements,el-ex, rt, d,218570.87199900002, -1.4531268002919224, 0.5320254712931701, 0.4086528837805558, -0.10098095238208771, -0.10379551351070404, -0.09113672375679016, -0.8558219075202942, -0.5072798728942871, -0.10117153078317642, -0.009870052337646484, -0.014005959033966064, 0.005681827664375305, 0.32246152645650006, -0.5877353117984642, 0.7416042433738742,-0.024672859284766646,-0.86541748046875,-0.5211944580078125,-0.0949859619140625
20220224-0922,2022-02-24 09:22:19Z,u01, 85,40,movements,el-ex, rt, d,218570.89694600002, -1.4529576638983668, 0.533306176549224, 0.4044116673498563, -0.142835795879364, -0.08557882905006409, -0.05757729709148407, -0.8551591038703918, -0.5083831548690796, -0.10123984515666962, -0.021763503551483154, -0.05930483341217041, 0.06365726888179779, 0.32164653810940513, -0.5881526854490146, 0.7415591570494576,-0.02664554205875519,-0.871978759765625,-0.555938720703125,-0.0435791015625
20220224-0922,2022-02-24 09:22:19Z,u01, 86,40,movements,el-ex, rt, d,218570.92189300002, -1.4506596658652815, 0.5330283901828408, 0.39842319634187723, -0.2620231509208679, 0.0213987547904253, 0.05959513410925865, -0.8550642728805542, -0.508143961429596, -0.10322163254022598, -0.02472686767578125, -0.10612905025482178, 0.07932615280151367, 0.3198235349386709, -0.5883044186356357, 0.7421615982527687,-0.02840573923791978,-0.878143310546875,-0.616119384765625,-0.02734375
20220224-0922,2022-02-24 09:22:19Z,u01, 87,40,movements,el-ex, rt, d,218570.946839, -1.4459439492380104, 0.5295362366709793, 0.39033173918524117, -0.2920568585395813, 0.030337054282426834, 0.15248079597949982, -0.8563233613967896, -0.5051331520080566, -0.10747302323579788, 0.03190648555755615, -0.056481778621673584, 0.010533764958381653, 0.31633342963318745, -0.5883847791718134, 0.7435496817455507,-0.02949932420592738,-0.8270721435546875,-0.5713348388671875,-0.0919036865234375
20220224-0922,2022-02-24 09:22:19Z,u01, 88,40,movements,el-ex, rt, d,218570.971786, -1.4428717105756288, 0.5243101023872268, 0.38415792418283096, -0.22896818816661835, 0.0365251749753952, 0.22734545171260834, -0.8585959076881409, -0.5006158947944641, -0.11043864488601685, 0.02467268705368042, -0.005838513374328613, 0.018153250217437744, 0.3127903795289061, -0.5890185528516866, 0.7445431046222951,-0.029578066608970777,-0.836334228515625,-0.50482177734375,-0.092529296875
20220224-0922,2022-02-24 09:22:19Z,u01, 89,40,movements,el-ex, rt, d,218570.996733, -1.438293330581618, 0.5182475743227254, 0.3766185571833568, -0.4745021462440491, 0.12422394007444382, 0.20721600949764252, -0.8610739707946777, -0.49535858631134033, -0.11476732790470123, 0.020146846771240234, -0.04712188243865967, 0.02028469741344452, 0.30857274654306077, -0.5894057999410772, 0.7459916117026519,-0.029668206532221353,-0.848907470703125,-0.5382080078125,-0.0904693603515625
20220224-0922,2022-02-24 09:22:19Z,u01, 90,40,movements,el-ex, rt, d,218571.02168, -1.4285557852322779, 0.5123457523730021, 0.35958750280350776, -0.7101373076438904, -0.027159996330738068, 0.09343352913856506, -0.8627945780754089, -0.49022313952445984, -0.12355878949165344, 0.05749678611755371, 0.018772363662719727, -0.01987403631210327, 0.3016811212239394, -0.5892445228839351, 0.7488101014948163,-0.032600559612668945,-0.8050384521484375,-0.4636077880859375,-0.148345947265625
20220224-0922,2022-02-24 09:22:19Z,u01, 91,40,movements,el-ex, rt, d,218571.04662600002, -1.421080053998917, 0.5099450548397715, 0.3402972286485906, -0.5940585732460022, -0.11909458041191101, -0.06204647943377495, -0.8630079627037048, -0.48812928795814514, -0.1301804631948471, -0.014006078243255615, 0.15609806776046753, -0.0716935396194458, 0.2952965152063427, -0.5896691769760137, 0.7507673262188471,-0.037929185108674546,-0.861297607421875,-0.34136962890625,-0.1967315673828125
20220224-0922,2022-02-24 09:22:19Z,u01, 92,40,movements,el-ex, rt, d,218571.07157300002, -1.418845387176011, 0.5111200718764518, 0.3313247959505206, 0.02961767092347145, -0.055938780307769775, -0.12945374846458435, -0.862147331237793, -0.48915448784828186, -0.13202175498008728, -0.06938636302947998, 0.15549057722091675, -0.08167779445648193, 0.2931036154310107, -0.5899825376737796, 0.7511994878940702,-0.04135368616320351,-0.9317169189453125,-0.3338775634765625,-0.214263916015625
20220224-0922,2022-02-24 09:22:19Z,u01, 93,40,movements,el-ex, rt, d,218571.09652000002, -1.4224857001430011, 0.5166602109909088, 0.337157743413992, 0.33750465512275696, -0.008225052617490292, -0.22519412636756897, -0.8599287271499634, -0.4939790368080139, -0.1284799724817276, -0.04476475715637207, 0.09509912133216858, -0.0168144553899765, 0.2966749797580533, -0.5896982052085232, 0.7500110269262268,-0.041512782498401735,-0.90625,-0.384918212890625,-0.1593780517578125
20220224-0922,2022-02-24 09:22:19Z,u01, 94,40,movements,el-ex, rt, d,218571.12146700002, -1.4260745731009568, 0.5219814797729836, 0.3454668159918039, 0.28623124957084656, 0.0668247640132904, -0.08311734348535538, -0.857771098613739, -0.49859872460365295, -0.1250121295452118, -0.026002705097198486, 0.023531615734100342, 0.022213444113731384, 0.3008921727435115, -0.5890312701535563, 0.7489000414761645,-0.04067900004841385,-0.8820343017578125,-0.4800872802734375,-0.103118896484375
20220224-0922,2022-02-24 09:22:19Z,u01, 95,40,movements,el-ex, rt, d,218571.146413, -1.4258140234737002, 0.5235917327390772, 0.3505775694524975, 0.06446696072816849, 0.1315370500087738, 0.00625208206474781, -0.8569429516792297, -0.4999938905239105, -0.12511944770812988, 0.03338038921356201, -0.023016303777694702, 0.03265100717544556, 0.30295704797142314, -0.5879262707153928, 0.7490118925990517,-0.039254103139360896,-0.8318634033203125,-0.5191802978515625,-0.09857177734375
20220224-0922,2022-02-24 09:22:19Z,u01, 96,40,movements,el-ex, rt, d,218571.17136, -1.4216138201140855, 0.5233157959352858, 0.3483322719137873, -0.19538235664367676, 0.17552733421325684, -0.024857699871063232, -0.8565462231636047, -0.4997549057006836, -0.1287381798028946, 0.003946185111999512, -0.04861542582511902, 0.0778956413269043, 0.3022849275846623, -0.5867322515650896, 0.7502126908779164,-0.039369690700902626,-0.8579254150390625,-0.5516510009765625,-0.04913330078125
20220224-0922,2022-02-24 09:22:19Z,u01, 97,40,movements,el-ex, rt, d,218571.196307, -1.413143907195425, 0.523990113091732, 0.34224803181627045, -0.1453041434288025, 0.25180426239967346, -0.03517238795757294, -0.8550921082496643, -0.5003388524055481, -0.13593541085720062, -0.005198299884796143, 0.0051760077476501465, 0.037104010581970215, 0.3009067532464264, -0.5843692530104353, 0.7525419845887604,-0.040598422267229206,-0.8735504150390625,-0.51708984375,-0.0855865478515625
20220224-0922,2022-02-24 09:22:19Z,u01, 98,40,movements,el-ex, rt, d,218571.221254, -1.4072257168590954, 0.5250277509669591, 0.34329268906075733, 0.2371806502342224, 0.2662609815597534, -0.012189309112727642, -0.8537598252296448, -0.5012370347976685, -0.14090895652770996, 0.0441744327545166, 0.06305050849914551, 0.003991678357124329, 0.30169121113547515, -0.5818315347554875, 0.7542427711905805,-0.0396508138863384,-0.8090972900390625,-0.4386444091796875,-0.1378936767578125
20220224-0922,2022-02-24 09:22:19Z,u01, 99,40,movements,el-ex, rt, d,218571.24620000002, -1.4035677910844548, 0.5253969205020637, 0.3512262657573845, 0.22425007820129395, 0.3296210467815399, 0.08562566339969635, -0.8530562520027161, -0.5015564560890198, -0.14400018751621246, 0.060957372188568115, 0.0028687715530395508, 0.002123787999153137, 0.30419200229522336, -0.5791952426316757, 0.755438912931636,-0.03622222338417397,-0.7974395751953125,-0.4866943359375,-0.13665771484375
20220224-0922,2022-02-24 09:22:19Z,u01, 100,40,movements,el-ex, rt, d,218571.27114700002, -1.396784709530722, 0.5234467073622558, 0.353977318624381, -0.022124286741018295, 0.3078843057155609, 0.12110510468482971, -0.8530216217041016, -0.4998683035373688, -0.1499522626399994, 0.06734669208526611, -0.02173808217048645, 0.0032082796096801758, 0.30442457555209657, -0.5764976572801814, 0.7575305886659971,-0.03351830049177812,-0.7852630615234375,-0.5198822021484375,-0.1479949951171875
20220224-0922,2022-02-24 09:22:19Z,u01, 101,40,movements,el-ex, rt, d,218571.29609400002, -1.3901006942807532, 0.5211014240924835, 0.35480046762515766, 0.057699140161275864, 0.2703312635421753, 0.0784105658531189, -0.8531511425971985, -0.4978356659412384, -0.15586072206497192, 0.06262391805648804, 0.033999085426330566, -0.0029835104942321777, 0.3039488927945518, -0.5741817727168305, 0.7595671339331712,-0.03143298533889338,-0.78961181640625,-0.469451904296875,-0.1568450927734375
20220224-0922,2022-02-24 09:22:19Z,u01, 102,40,movements,el-ex, rt, d,218571.32104100002, -1.3837998837610925, 0.5194586929029881, 0.3565535521655294, 0.03309708833694458, 0.30182307958602905, 0.09244295954704285, -0.8529546856880188, -0.4964103102684021, -0.16138498485088348, 0.0622594952583313, 0.04101178050041199, -0.019325092434883118, 0.3039698635872896, -0.5717602933752294, 0.7614690639409257,-0.029280638926277802,-0.7885589599609375,-0.4555816650390625,-0.181610107421875
20220224-0922,2022-02-24 09:22:19Z,u01, 103,40,movements,el-ex, rt, d,218571.34598800002, -1.3787272678596956, 0.5176166911455613, 0.35938169117917457, 0.1553158313035965, 0.20403000712394714, 0.09081077575683594, -0.8530211448669434, -0.49481046199798584, -0.1658838540315628, 0.10553890466690063, 0.031416356563568115, -0.05303424596786499, 0.30419959510275113, -0.5696671675486649, 0.7630343483930426,-0.02684108332776458,-0.744903564453125,-0.458160400390625,-0.2180023193359375
20220224-0922,2022-02-24 09:22:20Z,u01, 104,40,movements,el-ex, rt, d,218571.370934, -1.3772705259865234, 0.5162595262878653, 0.3656972993103898, 0.2377397119998932, 0.17436181008815765, 0.1085100769996643, -0.8534368276596069, -0.49363061785697937, -0.16725529730319977, 0.06898254156112671, -0.028738707304000854, -0.030102074146270752, 0.3055366316564839, -0.5683482338151609, 0.7635852201433663,-0.023774246781774255,-0.786224365234375,-0.5257110595703125,-0.196044921875
20220224-0922,2022-02-24 09:22:20Z,u01, 105,40,movements,el-ex, rt, d,218571.395881, -1.3756100711247425, 0.5144787928837966, 0.37013169646544075, -0.03566479682922363, 0.12827792763710022, 0.1076810359954834, -0.8540188074111938, -0.4920811653137207, -0.1688423603773117, 0.07630902528762817, -0.05934080481529236, 0.004779651761054993, 0.3061869121233909, -0.5672992107976269, 0.764178738276728,-0.021256968607324733,-0.780792236328125,-0.5526885986328125,-0.1649017333984375
20220224-0922,2022-02-24 09:22:20Z,u01, 106,40,movements,el-ex, rt, d,218571.420828, -1.3700676778691978, 0.5104683201023827, 0.36525220504081835, -0.2951812446117401, 0.12086115777492523, 0.1299302875995636, -0.854996919631958, -0.4885859191417694, -0.17396514117717743, 0.09776437282562256, -0.03422588109970093, -0.005218982696533203, 0.30344605763375965, -0.5665138288536066, 0.7658599911854841,-0.02099818739600795,-0.7550811767578125,-0.5183258056640625,-0.181640625
20220224-0922,2022-02-24 09:22:20Z,u01, 107,40,movements,el-ex, rt, d,218571.445775, -1.3643414656793267, 0.5058841043257245, 0.3570055151180147, -0.33644434809684753, 0.004053184762597084, 0.11143023520708084, -0.8561699986457825, -0.48458099365234375, -0.17931541800498962, 0.13093513250350952, 0.020011961460113525, -0.02934865653514862, 0.299545310240321, -0.5662286618311495, 0.7675810876477102,-0.021837791230837622,-0.720489501953125,-0.4627685546875,-0.210174560546875
20220224-0922,2022-02-24 09:22:20Z,u01, 108,40,movements,el-ex, rt, d,218571.4707206667, -1.3595696504183392, 0.501353691198061, 0.3476680239085211, -0.3578994572162628, 0.0257664043456316, 0.0959223136305809, -0.8574423789978027, -0.4806130826473236, -0.1838572472333908, 0.08154839277267456, 0.003074049949645996, -0.008037492632865906, 0.2953392501216437, -0.5664327909535884, 0.7690166718523996,-0.02327854318424205,-0.77734375,-0.4786224365234375,-0.1907196044921875
20220224-0922,2022-02-24 09:22:20Z,u01, 109,40,movements,el-ex, rt, d,218571.4956676667, -1.355592987541251, 0.49789423251391957, 0.3404685468307217, -0.1527877002954483, 0.01414576731622219, 0.09245281666517258, -0.8583236336708069, -0.47757649421691895, -0.18761947751045227, 0.09131020307540894, 0.07816246151924133, -0.0018643736839294434, 0.2921082804745501, -0.5664477167034306, 0.7702049753266217,-0.024371172724181656,-0.7676849365234375,-0.4154815673828125,-0.1927947998046875
20220224-0922,2022-02-24 09:22:20Z,u01, 110,40,movements,el-ex, rt, d,218571.5206146667, -1.3565471005767054, 0.4953199019150974, 0.34353811339031437, 0.2783036231994629, 0.026239382103085518, 0.07023505866527557, -0.8597007989883423, -0.47531312704086304, -0.18706123530864716, 0.11395812034606934, 0.10070991516113281, -0.028271019458770752, 0.29204290531708077, -0.5667277306503545, 0.770080303914686,-0.02251535498381413,-0.7442474365234375,-0.3785858154296875,-0.2175445556640625
20220224-0922,2022-02-24 09:22:20Z,u01, 111,40,movements,el-ex, rt, d,218571.5455616667, -1.3583600112871523, 0.4956394372016543, 0.34715147740615787, -0.042990054935216904, -0.040301162749528885, 0.021577909588813782, -0.8598901033401489, -0.47559425234794617, -0.1854703575372696, 0.12560659646987915, -0.04569178819656372, -0.0028690844774246216, 0.2931615023832663, -0.5668519692861296, 0.7695930069281626,-0.02149075587385424,-0.733367919921875,-0.5084381103515625,-0.188201904296875
20220224-0922,2022-02-24 09:22:20Z,u01, 112,40,movements,el-ex, rt, d,218571.57050766668, -1.3580200522691637, 0.49413370714922444, 0.34383194993244975, -0.07864635437726974, -0.04784516617655754, 0.01982548087835312, -0.860525906085968, -0.47426915168762207, -0.18591366708278656, 0.11704152822494507, 0.021235764026641846, -0.008361399173736572, 0.29168429154095155, -0.5674182224125295, 0.7697155936301117,-0.022242207148192306,-0.7436676025390625,-0.4507293701171875,-0.19525146484375
20220224-0922,2022-02-24 09:22:20Z,u01, 113,40,movements,el-ex, rt, d,218571.59545466668, -1.3578198002619244, 0.4940786030814997, 0.3422741026026917, -0.056565750390291214, -0.0658770278096199, -0.02153647132217884, -0.8605141043663025, -0.4742206633090973, -0.18609148263931274, 0.13416534662246704, 0.044380635023117065, 0.003565683960914612, 0.29122476322607177, -0.5675758919581598, 0.7697570907923814,-0.02279518619020443,-0.736297607421875,-0.429595947265625,-0.1841583251953125
20220224-0922,2022-02-24 09:22:20Z,u01, 114,40,movements,el-ex, rt, d,218571.62040166667, -1.3590202065372825, 0.4952051847023632, 0.3409389031654622, -0.011429065838456154, -0.03817196562886238, -0.09445255994796753, -0.8602139353752136, -0.4752121865749359, -0.1849459707736969, 0.11064136028289795, 0.02240768074989319, -0.01053456962108612, 0.29123572951103105, -0.568074614143122, 0.7693532657581929,-0.023840070920258027,-0.754791259765625,-0.4524078369140625,-0.1958160400390625
20220224-0922,2022-02-24 09:22:20Z,u01, 115,40,movements,el-ex, rt, d,218571.64534866667, -1.3597123864829859, 0.49752011927685214, 0.3426536878616865, 0.16199764609336853, 0.011089721694588661, -0.07723215222358704, -0.8592639565467834, -0.47724777460098267, -0.1841195523738861, 0.10975229740142822, -0.0033124685287475586, -0.00722581148147583, 0.29254391295593807, -0.5677660482447681, 0.7690793692530271,-0.024014108050455563,-0.7561492919921875,-0.4821929931640625,-0.1905975341796875
20220224-0922,2022-02-24 09:22:20Z,u01, 116,40,movements,el-ex, rt, d,218571.6702946667, -1.361900361307281, 0.5006569833061643, 0.3461472742755304, 0.11002951860427856, -0.0244874469935894, -0.09643328189849854, -0.8581959009170532, -0.4800019860267639, -0.18192768096923828, 0.09582114219665527, -0.03072488307952881, 0.006451427936553955, 0.29463152408186366, -0.5676516744504972, 0.7683673499472841,-0.023986105102299926,-0.7663421630859375,-0.5145416259765625,-0.175018310546875
20220224-0922,2022-02-24 09:22:20Z,u01, 117,40,movements,el-ex, rt, d,218571.6952416667, -1.3620734261615632, 0.5026828484173074, 0.34698806542027677, 0.029019825160503387, -0.004555681720376015, -0.059578731656074524, -0.8572744727134705, -0.48177823424339294, -0.18157732486724854, 0.08218896389007568, -0.012621819972991943, -0.005983904004096985, 0.29559163267132804, -0.5673067301230464, 0.7682426181512,-0.02433079880200506,-0.782257080078125,-0.4964447021484375,-0.1817626953125
20220224-0922,2022-02-24 09:22:20Z,u01, 118,40,movements,el-ex, rt, d,218571.7201886667, -1.3632817987722692, 0.5044155139871043, 0.3473343817576509, 0.04607091099023819, -0.05810000002384186, -0.04680314660072327, -0.8566750288009644, -0.48329582810401917, -0.18036901950836182, 0.0718088150024414, 0.0015453696250915527, -0.02193218469619751, 0.29629343029145067, -0.5674730789946384, 0.76783018175768,-0.02492607548483816,-0.7880096435546875,-0.4830169677734375,-0.2039337158203125
20220224-0922,2022-02-24 09:22:20Z,u01, 119,40,movements,el-ex, rt, d,218571.7451356667, -1.3645541745968786, 0.5056737803503086, 0.3496199977687295, 0.15551641583442688, 0.0013981480151414871, 0.009530633687973022, -0.856307864189148, -0.4843969941139221, -0.179154172539711, 0.054046630859375, -0.021569132804870605, -0.03880256414413452, 0.297374767002588, -0.5674426529950025, 0.7674438124091503,-0.024636988311323327,-0.8123016357421875,-0.4952545166015625,-0.2233428955078125
20220224-0922,2022-02-24 09:22:20Z,u01, 120,40,movements,el-ex, rt, d,218571.77008166668, -1.3679800170338945, 0.5058974578360418, 0.3544846617304877, 0.14972664415836334, -0.09215883910655975, 0.05754543095827103, -0.8568105101585388, -0.4845926761627197, -0.17619773745536804, 0.0923452377319336, -0.070415198802948, -0.0066332221031188965, 0.2987941331420999, -0.5679992957657867, 0.7665203732255108,-0.023353107004074003,-0.76513671875,-0.5569915771484375,-0.1809539794921875
20220224-0922,2022-02-24 09:22:20Z,u01, 121,40,movements,el-ex, rt, d,218571.79502866667, -1.3702794067489206, 0.504225749873034, 0.3560838363814554, -0.04523886367678642, -0.06025922670960426, 0.13453687727451324, -0.8580060601234436, -0.48312968015670776, -0.17438822984695435, 0.02734816074371338, -0.10784319043159485, 0.005564749240875244, 0.29862847591453856, -0.5688821654628515, 0.7659539817189667,-0.022551551644831525,-0.8243560791015625,-0.59112548828125,-0.1669769287109375
20220224-0922,2022-02-24 09:22:20Z,u01, 122,40,movements,el-ex, rt, d,218571.81997566667, -1.370365601813344, 0.5000494896793745, 0.3553695306556988, 0.03751244395971298, -0.07757223397493362, 0.17499183118343353, -0.8599907159805298, -0.47946897149086, -0.17471441626548767, 0.03894603252410889, -0.03163933753967285, -0.02931104600429535, 0.29694085212236243, -0.5696217346169438, 0.7660903494521963,-0.02150719106167559,-0.819793701171875,-0.504852294921875,-0.2067718505859375
20220224-0922,2022-02-24 09:22:20Z,u01, 123,40,movements,el-ex, rt, d,218571.84492266667, -1.3727253090990015, 0.49754215635225485, 0.35809738429840904, 0.11736147105693817, -0.06489185988903046, 0.10288887470960617, -0.8615765571594238, -0.47726714611053467, -0.17292062938213348, 0.01811671257019043, 0.05304235219955444, -0.02381114661693573, 0.29680331561293216, -0.5704800393815445, 0.7655452771329194,-0.02001330227328485,-0.8370819091796875,-0.423675537109375,-0.2021636962890625
20220224-0922,2022-02-24 09:22:20Z,u01, 124,40,movements,el-ex, rt, d,218571.8698686667, -1.3746341459585147, 0.49675408331265836, 0.3613190758629584, 0.06387637555599213, 0.0009763035923242569, 0.0391702838242054, -0.8622738718986511, -0.47657445073127747, -0.17134898900985718, 0.020019352436065674, 0.02866801619529724, -0.015296697616577148, 0.2974244521185881, -0.5708451631627015, 0.7650624232371523,-0.01881238150804687,-0.838714599609375,-0.4475250244140625,-0.186767578125
20220224-0922,2022-02-24 09:22:20Z,u01, 125,40,movements,el-ex, rt, d,218571.8948156667, -1.3772064027934865, 0.49676178054483316, 0.36342922771678815, 0.11479954421520233, -0.14174316823482513, 0.01555563509464264, -0.8627081513404846, -0.4765812158584595, -0.16912972927093506, 0.06120985746383667, 0.026996344327926636, -0.007597789168357849, 0.2980058945189932, -0.5715134496385577, 0.7643471369486,-0.01839092367667461,-0.792999267578125,-0.451690673828125,-0.185943603515625
20220224-0922,2022-02-24 09:22:20Z,u01, 126,40,movements,el-ex, rt, d,218571.9197626667, -1.382271630413775, 0.49602964452799375, 0.3679743478103251, 0.15164975821971893, -0.09673827886581421, 0.08651995658874512, -0.8638962507247925, -0.47593745589256287, -0.16482311487197876, 0.0011491775512695312, 0.004791885614395142, 0.016568496823310852, 0.2990024676510019, -0.5728751781581504, 0.7629655382793259,-0.017176775731504612,-0.865478515625,-0.473876953125,-0.147186279296875
20220224-0922,2022-02-24 09:22:20Z,u01, 127,40,movements,el-ex, rt, d,218571.94470966668, -1.3828916806717666, 0.4936389430856045, 0.3677936864073297, -0.17085564136505127, -0.04671811684966087, 0.09609682112932205, -0.8651134967803955, -0.47383353114128113, -0.16449947655200958, 0.013413846492767334, -0.02996581792831421, 0.029809966683387756, 0.29810179642099655, -0.5734854688252058, 0.7628728065636214,-0.016570616894378554,-0.859039306640625,-0.5104827880859375,-0.1356048583984375
20220224-0922,2022-02-24 09:22:20Z,u01, 128,40,movements,el-ex, rt, d,218571.96965566667, -1.3809429403739288, 0.4911699293476493, 0.36297723225970535, -0.0988275483250618, -0.045632414519786835, 0.038912028074264526, -0.8659375905990601, -0.4716578423976898, -0.1664053350687027, 0.024232447147369385, 0.04793661832809448, 0.003746405243873596, 0.2958643384416856, -0.5738132343682761, 0.7634804036862006,-0.01732670376858919,-0.842437744140625,-0.418853759765625,-0.1635894775390625
20220224-0922,2022-02-24 09:22:20Z,u01, 129,40,movements,el-ex, rt, d,218571.99460266667, -1.3812616713829378, 0.491106448240667, 0.36210227744404383, 0.05641752853989601, -0.03455532714724541, -0.04952815920114517, -0.8660200238227844, -0.47160184383392334, -0.16613496840000153, 0.030219972133636475, 0.0805496871471405, -0.011828482151031494, 0.29558799574139316, -0.574073385922688, 0.76338362193677,-0.017687447678513324,-0.8369903564453125,-0.3855438232421875,-0.176483154296875
20220224-0922,2022-02-24 09:22:20Z,u01, 130,40,movements,el-ex, rt, d,218572.01954966667, -1.3838781422806068, 0.49296050449715834, 0.3645227174007514, 0.1254110038280487, -0.061819106340408325, -0.006597935222089291, -0.8655911087989807, -0.47323596477508545, -0.1637057065963745, 0.029012858867645264, 0.09097287058830261, 0.01131601631641388, 0.29691510852922215, -0.5744463105486516, 0.7625862380530269,-0.017746846562395335,-0.835906982421875,-0.38177490234375,-0.15252685546875
20220224-0922,2022-02-24 09:22:20Z,u01, 131,40,movements,el-ex, rt, d,218572.0444956667, -1.3880871089954767, 0.49502508416128344, 0.36909501163554564, 0.11915084719657898, -0.058198004961013794, -0.11091022938489914, -0.8653098940849304, -0.47505372762680054, -0.15988317131996155, -0.005326032638549805, 0.017457962036132812, -0.004423677921295166, 0.29891997019279287, -0.5750697924927114, 0.7613424600009504,-0.017295981947104744,-0.8619537353515625,-0.447601318359375,-0.167388916015625
20220224-0922,2022-02-24 09:22:20Z,u01, 132,40,movements,el-ex, rt, d,218572.0694426667, -1.3882690509389501, 0.49659724458328036, 0.36801060573096733, -0.09310951828956604, -0.05893496796488762, -0.049365971237421036, -0.8646034002304077, -0.4764365553855896, -0.1595899611711502, -0.000279843807220459, 0.005580931901931763, 0.009046569466590881, 0.2991597624597691, -0.575072563629632, 0.7612240799340534,-0.01824234144014164,-0.8616943359375,-0.4686279296875,-0.150726318359375
20220224-0922,2022-02-24 09:22:20Z,u01, 133,40,movements,el-ex, rt, d,218572.0943896667, -1.3891115177562563, 0.49654837956946246, 0.36470238056106585, -0.15514914691448212, -0.19457101821899414, -0.029088864102959633, -0.8647604584693909, -0.47639361023902893, -0.15886572003364563, 0.07466042041778564, 0.057616204023361206, -0.038308560848236084, 0.29818267924363673, -0.575894288493465, 0.7609521371261021,-0.01961133602284526,-0.798248291015625,-0.4242706298828125,-0.197052001953125
20220224-0922,2022-02-24 09:22:20Z,u01, 134,40,movements,el-ex, rt, d,218572.11933666668, -1.392785067082863, 0.4950184795923405, 0.35553030149471665, -0.4735705554485321, -0.4495634436607361, 0.01556322630494833, -0.8660544753074646, -0.47504791617393494, -0.15581677854061127, 0.08535397052764893, 0.0729941725730896, 0.03431089222431183, 0.29495691201089114, -0.5788713440700978, 0.7598501791522136,-0.023150038484462676,-0.7845306396484375,-0.406005859375,-0.1162261962890625
20220224-0922,2022-02-24 09:22:20Z,u01, 135,40,movements,el-ex, rt, d,218572.14428266668, -1.393978995171145, 0.49247406898086915, 0.3370323729882379, -0.8300158381462097, -0.3231339156627655, -0.013984346762299538, -0.8674271106719971, -0.4728074073791504, -0.15499480068683624, -0.06575465202331543, 0.0035080909729003906, 0.04381905496120453, 0.2886732665220322, -0.5823833330853556, 0.7593585831736243,-0.02952896370834862,-0.9242706298828125,-0.4663238525390625,-0.0986785888671875
20220224-0922,2022-02-24 09:22:20Z,u01, 136,40,movements,el-ex, rt, d,218572.16922966667, -1.3914859258427816, 0.4891853606884227, 0.3174381896836954, -0.4103604853153229, -0.25123417377471924, -0.005778614431619644, -0.8685632348060608, -0.4699069559574127, -0.15743333101272583, -0.03596240282058716, 0.021191805601119995, -0.04488319158554077, 0.28183122183090675, -0.5846832451713829, 0.7599028727226818,-0.035556208609190454,-0.9004974365234375,-0.4451904296875,-0.2085418701171875
20220224-0922,2022-02-24 09:22:20Z,u01, 137,40,movements,el-ex, rt, d,218572.19417666667, -1.3989916203645067, 0.49118755099952893, 0.3163763798698482, 0.30623775720596313, -0.3672770857810974, -0.13112793862819672, -0.8687916994094849, -0.4716733694076538, -0.15074864029884338, 0.0012379884719848633, 0.0747922956943512, -0.022820308804512024, 0.2820930332424193, -0.5874088872661243, 0.7575987170505706,-0.03766263343048698,-0.86199951171875,-0.38262939453125,-0.1905059814453125
20220224-0922,2022-02-24 09:22:20Z,u01, 138,40,movements,el-ex, rt, d,218572.21912366667, -1.4121242919633412, 0.4965812004652788, 0.32536859981809024, 0.2217385321855545, -0.32558295130729675, -0.173261359333992, -0.8681716918945312, -0.4764224588871002, -0.13892240822315216, -0.048545777797698975, -0.002062588930130005, 0.06836557388305664, 0.28639443286877186, -0.5903533063929144, 0.753675131367519,-0.03788048586660969,-0.9187164306640625,-0.483123779296875,-0.0671539306640625
20220224-0922,2022-02-24 09:22:20Z,u01, 139,40,movements,el-ex, rt, d,218572.2440696667, -1.4187117636908064, 0.5003183690188557, 0.3242880444492124, -0.23440419137477875, -0.2385747730731964, -0.14349140226840973, -0.8673020005226135, -0.47970491647720337, -0.1329296976327896, -0.0245436429977417, -0.06100550293922424, 0.04499310255050659, 0.28725533488805954, -0.5924690046188974, 0.7515507548760921,-0.04045020201342914,-0.899383544921875,-0.5466461181640625,-0.0870361328125
20220224-0922,2022-02-24 09:22:20Z,u01, 140,40,movements,el-ex, rt, d,218572.2690166667, -1.4210130752657362, 0.5014330275528849, 0.31722412180276344, -0.16496360301971436, -0.2483685314655304, -0.04541011154651642, -0.8670763969421387, -0.4806826412677765, -0.1308535486459732, 0.03345835208892822, -0.008071601390838623, 0.010171592235565186, 0.2855011027059373, -0.5941904934619657, 0.7506720868511193,-0.04379675317771081,-0.8311004638671875,-0.487457275390625,-0.121734619140625
20220224-0922,2022-02-24 09:22:20Z,u01, 141,40,movements,el-ex, rt, d,218572.29396366669, -1.424686797521961, 0.5019544821522821, 0.31313832763584415, -0.18986591696739197, -0.13922427594661713, -0.0202568881213665, -0.8673032522201538, -0.4811398386955261, -0.1276307851076126, -0.008398711681365967, -0.030044853687286377, 0.040716513991355896, 0.2843850980999, -0.5960786219156691, 0.7494646928437486,-0.04602300674200843,-0.8708038330078125,-0.50762939453125,-0.095458984375
20220224-0922,2022-02-24 09:22:20Z,u01, 142,40,movements,el-ex, rt, d,218572.31891066668, -1.4235424583838652, 0.5009049760376358, 0.30586000392029833, -0.28594157099723816, -0.08130098879337311, -0.0010325289331376553, -0.8676555752754211, -0.4802195429801941, -0.1286972016096115, 0.021082758903503418, -0.03130078315734863, 0.059177935123443604, 0.28187437139917876, -0.5968234573264786, 0.7496805739051521,-0.04824546657700529,-0.8443145751953125,-0.5096893310546875,-0.0695037841796875
20220224-0922,2022-02-24 09:22:20Z,u01, 143,40,movements,el-ex, rt, d,218572.34385666667, -1.4219001012405905, 0.5001993166858949, 0.2997725939133341, -0.13261237740516663, -0.03157218545675278, -0.01151619479060173, -0.8677777647972107, -0.4796004593372345, -0.1301722377538681, 0.03599083423614502, 0.02375948429107666, 0.02230764925479889, 0.27985033072646726, -0.5971579985619715, 0.7500528252660481,-0.05006663533413441,-0.8302154541015625,-0.4606170654296875,-0.106536865234375
20220224-0922,2022-02-24 09:22:20Z,u01, 144,40,movements,el-ex, rt, d,218572.36880366667, -1.4218631777895536, 0.5005413578970217, 0.2979512120530671, -0.03937085345387459, -0.049681149423122406, -0.032667819410562515, -0.8676109313964844, -0.4799005687236786, -0.1301799714565277, 0.0240744948387146, 0.0218774676322937, 0.019431456923484802, 0.27942735852941347, -0.5973528010805108, 0.7500024551278366,-0.0508561645774005,-0.84478759765625,-0.458221435546875,-0.1107177734375
20220224-0922,2022-02-24 09:22:21Z,u01, 145,40,movements,el-ex, rt, d,218572.39375066667, -1.4266790871059223, 0.5021841431807309, 0.29873215248952983, -0.049748457968235016, 0.009698955342173576, -0.019148414954543114, -0.8674464225769043, -0.481341153383255, -0.1258867383003235, -0.03317314386367798, 0.014574795961380005, -0.0037368685007095337, 0.280113190556879, -0.5988265459580445, 0.7485070501067759,-0.05177439444070003,-0.900299072265625,-0.471221923828125,-0.1243438720703125
20220224-0922,2022-02-24 09:22:21Z,u01, 146,40,movements,el-ex, rt, d,218572.41869766667, -1.4291545462187811, 0.5030134843672314, 0.3001386878553159, 0.06676547229290009, 0.017963476479053497, -0.022129889577627182, -0.8673596382141113, -0.48206794261932373, -0.12368259578943253, -0.009532272815704346, 0.02361774444580078, -0.04681931436061859, 0.28076052040961424, -0.5994432694745602, 0.7477639186676717,-0.051867097647839866,-0.876190185546875,-0.458984375,-0.1712188720703125
20220224-0922,2022-02-24 09:22:21Z,u01, 147,40,movements,el-ex, rt, d,218572.4436436667, -1.4306670908667478, 0.5040124909470473, 0.3024552222735989, 0.059272997081279755, 0.009435366839170456, -0.03327854722738266, -0.8670686483383179, -0.48294296860694885, -0.12230324000120163, -0.011227309703826904, -0.00762706995010376, -0.02476121485233307, 0.2817646824581494, -0.5995473663508027, 0.7473252874480614,-0.051541563433477544,-0.8768310546875,-0.48858642578125,-0.150054931640625
20220224-0922,2022-02-24 09:22:21Z,u01, 148,40,movements,el-ex, rt, d,218572.468591125, -1.4309913330951778, 0.505165737577798, 0.30236940719181016, -0.09057401865720749, -0.018713712692260742, -0.06308012455701828, -0.8665560483932495, -0.48395249247550964, -0.12194439023733139, -0.011419296264648438, -8.678436279296875e-05, -0.016590356826782227, 0.2821330121557081, -0.5995237852196559, 0.7471735729988301,-0.05199778808321137,-0.8782501220703125,-0.483551025390625,-0.1385498046875
20220224-0922,2022-02-24 09:22:21Z,u01, 149,40,movements,el-ex, rt, d,218572.493538125, -1.4253329592116082, 0.504741460679588, 0.2954627808678349, -0.21511009335517883, -0.05143038183450699, -0.04628835618495941, -0.8660553693771362, -0.48358115553855896, -0.12687547504901886, -0.03035271167755127, 0.03274497389793396, -0.019288673996925354, 0.28006563855829686, -0.5984358774038856, 0.7487054493958903,-0.05364636380711579,-0.893310546875,-0.4564056396484375,-0.14007568359375
20220224-0922,2022-02-24 09:22:21Z,u01, 150,40,movements,el-ex, rt, d,218572.518485125, -1.421084880099102, 0.5043644840623376, 0.2895186442148791, -0.07262810319662094, -0.02601916342973709, -0.04361121356487274, -0.8656885623931885, -0.48325115442276, -0.13058052957057953, -0.03213834762573242, 0.02545708417892456, -0.03232249617576599, 0.2782714086083301, -0.5977246479583559, 0.7498318071647483,-0.05515721090101122,-0.895538330078125,-0.4586639404296875,-0.163909912109375
20220224-0922,2022-02-24 09:22:21Z,u01, 151,40,movements,el-ex, rt, d,218572.543431125, -1.4204724746279196, 0.505320557266115, 0.2873768110340718, -0.06064511463046074, -0.06286779046058655, -0.049633752554655075, -0.8651512265205383, -0.4840879738330841, -0.13104140758514404, 0.018853187561035156, 0.03634944558143616, -0.01622132956981659, 0.2779844597507073, -0.5976654028910707, 0.7499090166258303,-0.05618683378362621,-0.851409912109375,-0.445648193359375,-0.1470489501953125
20220224-0922,2022-02-24 09:22:21Z,u01, 152,40,movements,el-ex, rt, d,218572.56837812503, -1.4201031739489545, 0.5061104023174533, 0.28387504536456565, -0.16358235478401184, -0.09204072505235672, -0.08155719935894012, -0.8647246956825256, -0.4847789406776428, -0.13130350410938263, 0.023995935916900635, 0.019813120365142822, -0.012693896889686584, 0.2772261070207193, -0.5979079661736203, 0.7498811938853116,-0.05770591237231709,-0.840972900390625,-0.4661407470703125,-0.1451263427734375
20220224-0922,2022-02-24 09:22:21Z,u01, 153,40,movements,el-ex, rt, d,218572.59332512502, -1.4177599426555219, 0.5056237614036493, 0.27687849047314056, -0.19888614118099213, -0.12053734809160233, -0.06968642771244049, -0.8646475076675415, -0.484353244304657, -0.13336530327796936, -0.02326124906539917, 0.015130311250686646, 0.00979943573474884, 0.27503163719310664, -0.5980593161607857, 0.7504003512456209,-0.059848220725407075,-0.878143310546875,-0.4700469970703125,-0.1265411376953125
20220224-0922,2022-02-24 09:22:21Z,u01, 154,40,movements,el-ex, rt, d,218572.61827212502, -1.4152661246013494, 0.505695298361694, 0.2704390333263101, -0.17071765661239624, -0.03956959396600723, -0.051028650254011154, -0.8642781376838684, -0.48441582918167114, -0.13551580905914307, -0.03931671380996704, -0.001820683479309082, 0.02290576696395874, 0.2732073298033321, -0.5979965288631471, 0.7509463928999978,-0.0619466079417344,-0.901702880859375,-0.48834228515625,-0.1136932373046875
20220224-0922,2022-02-24 09:22:21Z,u01, 155,40,movements,el-ex, rt, d,218572.643218125, -1.413370885233538, 0.5057781458118104, 0.2658315513518594, -0.06771331280469894, -0.07776078581809998, -0.039990510791540146, -0.8639799356460571, -0.484488308429718, -0.13714726269245148, 0.03382575511932373, 0.00919237732887268, 0.0017558485269546509, 0.2719185540490251, -0.5979018871634296, 0.7513641499253914,-0.06344569429922697,-0.83819580078125,-0.480926513671875,-0.1320037841796875
20220224-0922,2022-02-24 09:22:21Z,u01, 156,40,movements,el-ex, rt, d,218572.668165125, -1.4163936950612839, 0.5069802559253739, 0.265712775766742, 0.06562663614749908, -0.13271458446979523, -0.053106848150491714, -0.8638145327568054, -0.4855395555496216, -0.13444533944129944, 0.014907240867614746, 0.014271944761276245, -0.01712040603160858, 0.27221187058784996, -0.5988973438008875, 0.7503926512294051,-0.06429147356372716,-0.852996826171875,-0.474517822265625,-0.1511688232421875
20220224-0922,2022-02-24 09:22:21Z,u01, 157,40,movements,el-ex, rt, d,218572.693112125, -1.4212718657111378, 0.5073176691512283, 0.26870718451063746, 0.09648735076189041, -0.0882408618927002, 0.021158860996365547, -0.8642981052398682, -0.4858345091342926, -0.13020551204681396, 0.010828375816345215, -0.03505471348762512, -0.025632739067077637, 0.27307231593457765, -0.6002738983262097, 0.7490085832704487,-0.06394371570981411,-0.86431884765625,-0.5203704833984375,-0.154541015625
20220224-0922,2022-02-24 09:22:21Z,u01, 158,40,movements,el-ex, rt, d,218572.718059125, -1.427021646045663, 0.5068834519203125, 0.2722654798052652, 0.08660342544317245, -0.19627411663532257, 0.03073585405945778, -0.8652410507202148, -0.4854549169540405, -0.12526406347751617, 0.02316969633102417, -0.05270719528198242, -0.014460906386375427, 0.27380614145532867, -0.6019951513034726, 0.7474158226382688,-0.06325702556209495,-0.8451995849609375,-0.5391082763671875,-0.1378326416015625
20220224-0922,2022-02-24 09:22:21Z,u01, 159,40,movements,el-ex, rt, d,218572.74300512503, -1.429573019766667, 0.5051470786717038, 0.27165393279238215, -0.09581419080495834, -0.12405239045619965, 0.10517440736293793, -0.8663912415504456, -0.4839361608028412, -0.12317459285259247, -0.028445124626159668, -0.06039056181907654, 0.02412956953048706, 0.27293115388648076, -0.6032588908632421, 0.7467158930697058,-0.06326644754361066,-0.898162841796875,-0.5468597412109375,-0.096649169921875
20220224-0922,2022-02-24 09:22:21Z,u01, 160,40,movements,el-ex, rt, d,218572.76795212502, -1.4312019628402906, 0.5018762833051004, 0.2686417567779687, -0.08298111706972122, -0.19960740208625793, 0.12374508380889893, -0.8681535124778748, -0.4810712933540344, -0.12198270857334137, 0.0034227371215820312, -0.0378800630569458, -0.01569753885269165, 0.27082098841990276, -0.6047021066569841, 0.7462933332924818,-0.06354161004316056,-0.864471435546875,-0.517578125,-0.1396484375
20220224-0922,2022-02-24 09:22:21Z,u01, 161,40,movements,el-ex, rt, d,218572.79289912502, -1.4334495481885667, 0.49933880121744867, 0.2664506822778629, -0.05992656201124191, -0.14380918443202972, 0.13596946001052856, -0.8696318864822388, -0.47884517908096313, -0.12019789963960648, -0.035885632038116455, -0.0007079839706420898, 0.009296834468841553, 0.26919471989266514, -0.606164378101582, 0.7456704849178553,-0.06383092233942028,-0.9025115966796875,-0.4797515869140625,-0.114837646484375
20220224-0922,2022-02-24 09:22:21Z,u01, 162,40,movements,el-ex, rt, d,218572.81784612502, -1.4367193316868851, 0.49639859528512786, 0.2653820167235554, -0.0811547115445137, -0.1367354840040207, 0.1084636002779007, -0.8714117407798767, -0.4762619137763977, -0.11754144728183746, -0.01536792516708374, -0.01090538501739502, 0.010851748287677765, 0.267733685583589, -0.6079045565641353, 0.7447902506951928,-0.06370328032100858,-0.886077880859375,-0.485260009765625,-0.1064453125
20220224-0922,2022-02-24 09:22:21Z,u01, 163,40,movements,el-ex, rt, d,218572.842792125, -1.439373387746605, 0.49410736513887793, 0.26358084847687774, -0.05918264016509056, -0.1257372945547104, 0.1048349142074585, -0.8728002905845642, -0.47424596548080444, -0.115370973944664, -0.021563053131103516, 0.031924277544021606, 0.02676302194595337, 0.2662967620346354, -0.60942640961472, 0.7440381004094664,-0.06397499042312299,-0.890716552734375,-0.4480133056640625,-0.089202880859375
20220224-0922,2022-02-24 09:22:21Z,u01, 164,40,movements,el-ex, rt, d,218572.867739125, -1.440696580839592, 0.49245960094345914, 0.26317746047314294, -0.003961995244026184, -0.006718502379953861, 0.04335850477218628, -0.8737257122993469, -0.47279465198516846, -0.11431719362735748, -0.029258787631988525, 0.03555414080619812, 0.024427421391010284, 0.26555349845511095, -0.6101825474397999, 0.743702424962663,-0.06375886033374234,-0.9010467529296875,-0.4373626708984375,-0.08935546875
20220224-0922,2022-02-24 09:22:21Z,u01, 165,40,movements,el-ex, rt, d,218572.892686125, -1.4409740137220033, 0.4908703500910763, 0.2638141875565202, 0.048094313591718674, 0.01672537252306938, 0.09113754332065582, -0.8745014071464539, -0.4713936448097229, -0.11417192965745926, 0.04427075386047363, 0.036258816719055176, 0.029409170150756836, 0.26518154127510934, -0.6104037892804052, 0.743715271508506,-0.06303575249764098,-0.8416290283203125,-0.4360504150390625,-0.0794830322265625
20220224-0922,2022-02-24 09:22:21Z,u01, 166,40,movements,el-ex, rt, d,218572.91763212503, -1.4440807823722197, 0.48924657481814837, 0.26721260284643944, 0.1657244712114334, -0.06468147039413452, 0.06742888689041138, -0.8756100535392761, -0.4699609875679016, -0.11155109852552414, 0.04833954572677612, 0.03970891237258911, 0.010202035307884216, 0.2655535999551527, -0.6113147606943813, 0.7429500822108812,-0.061649783282314186,-0.831939697265625,-0.4319610595703125,-0.1029052734375
20220224-0922,2022-02-24 09:22:21Z,u01, 167,40,movements,el-ex, rt, d,218572.94257912503, -1.447810820130065, 0.4878598377478277, 0.27393435647219955, 0.2475701868534088, 0.08599558472633362, 0.05541662871837616, -0.8766659498214722, -0.468736469745636, -0.10836410522460938, -0.024975836277008057, 0.02952754497528076, 0.013988316059112549, 0.26701169165088384, -0.6119826004065911, 0.742076916866753,-0.05919290063900867,-0.9064483642578125,-0.4408111572265625,-0.0982208251953125
20220224-0922,2022-02-24 09:22:21Z,u01, 168,40,movements,el-ex, rt, d,218572.96752612502, -1.4499736784423218, 0.4871662197257537, 0.28176245105619546, 0.2504430115222931, 0.07045544683933258, 0.05124419182538986, -0.8772209286689758, -0.4681236743927002, -0.10650692880153656, 0.028893351554870605, 0.01901179552078247, 0.016174733638763428, 0.2691022985398101, -0.6118255376686426, 0.7416725968121755,-0.05634944853985385,-0.8447723388671875,-0.4490814208984375,-0.0904388427734375
20220224-0922,2022-02-24 09:22:21Z,u01, 169,40,movements,el-ex, rt, d,218572.99247312502, -1.453654688631942, 0.486119070127983, 0.2893934929452844, 0.2717530131340027, -0.06717266142368317, 0.07116203755140305, -0.8780933022499084, -0.46719807386398315, -0.10333438217639923, 0.03911936283111572, 0.00893092155456543, -0.02870011329650879, 0.27097213478273435, -0.6122964251615269, 0.7408013044195046,-0.053670947691657644,-0.8271636962890625,-0.4581146240234375,-0.127593994140625
20220224-0922,2022-02-24 09:22:21Z,u01, 170,40,movements,el-ex, rt, d,218573.017419125, -1.4581861606706439, 0.4851565776658318, 0.2970863567698571, 0.23745837807655334, 0.0010726433247327805, 0.05878279730677605, -0.878998875617981, -0.4663468599319458, -0.09940475225448608, -0.04920840263366699, -0.008628636598587036, -0.018027059733867645, 0.2728763150137237, -0.6130547622824126, 0.7396546471969505,-0.05111974403284297,-0.9319305419921875,-0.47503662109375,-0.1156463623046875
20220224-0922,2022-02-24 09:22:21Z,u01, 171,40,movements,el-ex, rt, d,218573.042366125, -1.4592274897756705, 0.48366319283246806, 0.3015431968503773, 0.05110035836696625, 0.07028873264789581, 0.0766637995839119, -0.8797930479049683, -0.46502530574798584, -0.09856680035591125, -0.03480333089828491, -0.012956172227859497, -0.001607351005077362, 0.273699678857601, -0.6130294315095016, 0.7395071859021721,-0.04911635700878586,-0.9231414794921875,-0.480499267578125,-0.09967041015625
20220224-0922,2022-02-24 09:22:21Z,u01, 172,40,movements,el-ex, rt, d,218573.067313125, -1.456996490157985, 0.48166735265419164, 0.3006104915442852, -0.11781859397888184, 0.038092512637376785, 0.0711577832698822, -0.8804913759231567, -0.46325746178627014, -0.10063457489013672, 0.008573770523071289, -0.01777583360671997, 1.7940998077392578e-05, 0.2727776429163565, -0.6125969895021784, 0.7402471091214895,-0.048491703453979795,-0.8710784912109375,-0.481048583984375,-0.099639892578125
20220224-0922,2022-02-24 09:22:21Z,u01, 173,40,movements,el-ex, rt, d,218573.092260125, -1.4531082015553698, 0.4798745213177564, 0.2955309344428476, -0.21971789002418518, 0.032411523163318634, 0.03762198984622955, -0.8809168338775635, -0.46166786551475525, -0.10415475815534592, -0.006564795970916748, -0.010408520698547363, 0.028974533081054688, 0.2706955123760505, -0.6120837859640734, 0.7413851008173418,-0.049248677115319606,-0.8834381103515625,-0.47674560546875,-0.0776214599609375
20220224-0922,2022-02-24 09:22:21Z,u01, 174,40,movements,el-ex, rt, d,218573.11720612503, -1.448588486035825, 0.47870743453287645, 0.288435784113308, -0.3071616590023041, 0.11119595170021057, -0.011326511390507221, -0.8809712529182434, -0.4606322944164276, -0.10820078104734421, -0.037424683570861816, -0.0003356337547302246, 0.0374150276184082, 0.2682319875277826, -0.611515503562083, 0.7426378771170601,-0.05088491064691719,-0.9203643798828125,-0.4591064453125,-0.068511962890625
20220224-0922,2022-02-24 09:22:21Z,u01, 175,40,movements,el-ex, rt, d,218573.14215312502, -1.4409815600436309, 0.47784578543612016, 0.2793535165038074, -0.32183361053466797, 0.19233009219169617, 0.003471209667623043, -0.8805160522460938, -0.45986732840538025, -0.11495042592287064, -0.029441773891448975, 0.024808764457702637, 0.04273039102554321, 0.2653545774988373, -0.6100096204566008, 0.7447618516705364,-0.05296260339348807,-0.9135894775390625,-0.43524169921875,-0.0674591064453125
20220224-0922,2022-02-24 09:22:21Z,u01, 176,40,movements,el-ex, rt, d,218573.16710012502, -1.4330574257859654, 0.4771447013839358, 0.27244505761720944, -0.1850002557039261, 0.24041347205638885, 0.01464237179607153, -0.8798965811729431, -0.45924466848373413, -0.12196829169988632, -0.01220846176147461, 0.016663551330566406, 0.031468212604522705, 0.26321679564533257, -0.6080565547968286, 0.7470205998553249,-0.05426133766471708,-0.8916473388671875,-0.442413330078125,-0.0902099609375
20220224-0922,2022-02-24 09:22:21Z,u01, 177,40,movements,el-ex, rt, d,218573.19204712502, -1.4315401245557038, 0.4762512194131232, 0.2733605785974353, 0.09385067969560623, 0.2157326191663742, 0.05967056751251221, -0.8801165223121643, -0.4584507942199707, -0.12336012721061707, 0.008275151252746582, 0.008621752262115479, 0.03183770179748535, 0.2632208483715083, -0.6074822800263674, 0.7475464192499989,-0.053426401067907914,-0.872833251953125,-0.4509124755859375,-0.0897674560546875
20220224-0922,2022-02-24 09:22:21Z,u01, 178,40,movements,el-ex, rt, d,218573.216993125, -1.432001088931626, 0.47483830728421356, 0.2807184614716077, 0.29799506068229675, 0.15631435811519623, 0.101648710668087, -0.8808138966560364, -0.45719465613365173, -0.12304390221834183, 0.010071218013763428, -0.002750962972640991, 0.006207168102264404, 0.2649446621057217, -0.6068627309928024, 0.7476593405231771,-0.050273268763613765,-0.8714447021484375,-0.46002197265625,-0.1176605224609375
20220224-0922,2022-02-24 09:22:21Z,u01, 179,40,movements,el-ex, rt, d,218573.241940125, -1.4325555228863565, 0.47302887258975934, 0.29011018103408104, 0.2852018475532532, 0.15427565574645996, 0.1091180071234703, -0.8816998600959778, -0.45558464527130127, -0.12266932427883148, -0.009977877140045166, -0.01839900016784668, -0.006328694522380829, 0.267142310768782, -0.6060530710521135, 0.7477942690359854,-0.04624155478616021,-0.89117431640625,-0.4759979248046875,-0.1340789794921875
20220224-0922,2022-02-24 09:22:21Z,u01, 180,40,movements,el-ex, rt, d,218573.266887125, -1.4312244902851023, 0.4708010109149606, 0.2936461360078372, -0.08841562271118164, 0.09806276857852936, 0.11997924745082855, -0.8825386762619019, -0.45360028743743896, -0.12398367375135422, -0.013747215270996094, -0.033597469329833984, 0.02591521292924881, 0.2674596313243636, -0.6053705554814566, 0.748368131932881,-0.044009215625922304,-0.8969879150390625,-0.4889678955078125,-0.0970611572265625
20220224-0922,2022-02-24 09:22:21Z,u01, 181,40,movements,el-ex, rt, d,218573.291834125, -1.4267380580206959, 0.4663343618743593, 0.2892140095228208, -0.1624596267938614, 0.08760959655046463, 0.19271044433116913, -0.8839699029922485, -0.44961509108543396, -0.1282314509153366, 0.005079030990600586, -0.048889487981796265, -0.03172658383846283, 0.264642621117371, -0.6048541614683604, 0.74980930921089,-0.04360727329256481,-0.889068603515625,-0.50506591796875,-0.1473388671875
20220224-0922,2022-02-24 09:22:21Z,u01, 182,40,movements,el-ex, rt, d,218573.31678012502, -1.4278413791522249, 0.45992985020425764, 0.29306734352572666, 0.4222943186759949, -0.0610915943980217, 0.3621557950973511, -0.8869428038597107, -0.4438852369785309, -0.12766370177268982, 0.06504356861114502, -0.009041279554367065, -0.0918799489736557, 0.2635240311918746, -0.6055767775176358, 0.7498099217406687,-0.04020908939380041,-0.819366455078125,-0.45123291015625,-0.2224578857421875
20220224-0922,2022-02-24 09:22:21Z,u01, 183,40,movements,el-ex, rt, d,218573.34172712502, -1.438415286767645, 0.4535884592914648, 0.31000290309049855, 0.5868431925773621, -0.12078309059143066, 0.31869521737098694, -0.8910156488418579, -0.4381939470767975, -0.11864747852087021, -0.01853024959564209, -0.018333792686462402, -0.0491688996553421, 0.26623703020597655, -0.6081069852961944, 0.7471429069367144,-0.03318472573690828,-0.8917999267578125,-0.4409637451171875,-0.1780548095703125
20220224-0922,2022-02-24 09:22:21Z,u01, 184,40,movements,el-ex, rt, d,218573.36667412502, -1.4435962268243405, 0.44712760165418874, 0.31933921276256416, -0.027730941772460938, 0.004281485453248024, 0.28413283824920654, -0.8944078087806702, -0.43237730860710144, -0.11438634991645813, -0.04400753974914551, -0.052745312452316284, 0.001394815742969513, 0.2667372836623961, -0.6096376362779347, 0.7459187289685855,-0.02825336501297465,-0.9348297119140625,-0.4843902587890625,-0.1111297607421875
20220224-0922,2022-02-24 09:22:22Z,u01, 185,40,movements,el-ex, rt, d,218573.391620125, -1.4419540290384012, 0.4392358869556972, 0.3139821413518266, -0.3596344590187073, -0.06512555480003357, 0.27758705615997314, -0.8975748419761658, -0.42524799704551697, -0.11628980189561844, 0.03189808130264282, -0.0026388466358184814, 0.019533582031726837, 0.26236170166651496, -0.6107548101273154, 0.7465874322119819,-0.027421896125768952,-0.8631591796875,-0.433502197265625,-0.0999908447265625
20220224-0922,2022-02-24 09:22:22Z,u01, 186,40,movements,el-ex, rt, d,218573.416567125, -1.4386732331637402, 0.4318160375828317, 0.3040901198549874, -0.41529181599617004, 0.022383321076631546, 0.22902996838092804, -0.9002916216850281, -0.41852083802223206, -0.11964632570743561, -0.02086615562438965, -0.006497442722320557, 0.04165840148925781, 0.2567749526222982, -0.6117544120434688, 0.7476802191567643,-0.028238230640594053,-0.9242401123046875,-0.425445556640625,-0.0769195556640625
20220224-0922,2022-02-24 09:22:22Z,u01, 187,40,movements,el-ex, rt, d,218573.441514125, -1.4333939109809937, 0.42439244284477845, 0.29606003169379996, -0.1774272322654724, 0.10690240561962128, 0.27791860699653625, -0.9027002453804016, -0.4117671847343445, -0.12481968849897385, -0.011926770210266113, 0.011773347854614258, 0.03357189893722534, 0.25176979906684116, -0.6117206255695072, 0.7494122963248847,-0.02812430185559367,-0.92059326171875,-0.4071502685546875,-0.0821380615234375
20220224-0922,2022-02-24 09:22:22Z,u01, 188,40,movements,el-ex, rt, d,218573.466461, -1.4304105496961834, 0.4176628221176348, 0.29694504811914113, 0.14388296008110046, 0.15632574260234833, 0.28179842233657837, -0.9050470590591431, -0.40562528371810913, -0.12789703905582428, -0.011029422283172607, 0.03593546152114868, 0.0014167577028274536, 0.24969298204686735, -0.611314070303813, 0.7505418686468471,-0.025204078297520027,-0.9167633056640625,-0.3682708740234375,-0.127197265625
20220224-0922,2022-02-24 09:22:22Z,u01, 189,40,movements,el-ex, rt, d,218573.49140700002, -1.4297240798922033, 0.41166782235285887, 0.30567424634047735, 0.38065898418426514, 0.18457596004009247, 0.2608014643192291, -0.9073503017425537, -0.40013837814331055, -0.12885789573192596, -0.023786604404449463, -0.00014534592628479004, 0.0008669644594192505, 0.2502384706809129, -0.6106977641227737, 0.7510219124979207,-0.01987007260790502,-0.925537109375,-0.3987579345703125,-0.1357269287109375
20220224-0922,2022-02-24 09:22:22Z,u01, 190,40,movements,el-ex, rt, d,218573.51635400002, -1.4295553364504419, 0.4070078405994741, 0.31820632743116806, 0.471418172121048, 0.2163015902042389, 0.2287827581167221, -0.9091649055480957, -0.3958633840084076, -0.12927211821079254, -0.04612678289413452, -0.01955711841583252, 0.03791755437850952, 0.2524094156269041, -0.6096338494415903, 0.7512994002358556,-0.013609226978899491,-0.9554443359375,-0.4140625,-0.090118408203125
20220224-0922,2022-02-24 09:22:22Z,u01, 191,40,movements,el-ex, rt, d,218573.54130100002, -1.4295474615489778, 0.40307391493425776, 0.3334001169343068, 0.5830275416374207, 0.23729808628559113, 0.22492742538452148, -0.910698652267456, -0.3922477662563324, -0.12949751317501068, -0.012946248054504395, 0.012303978204727173, 0.0022542476654052734, 0.2556414647603735, -0.6081929662897967, 0.7514686437930462,-0.006605363759708771,-0.9267425537109375,-0.3878021240234375,-0.1246490478515625
20220224-0922,2022-02-24 09:22:22Z,u01, 192,40,movements,el-ex, rt, d,218573.56624800002, -1.429996576180502, 0.39966517542013436, 0.34972980617807875, 0.5285921096801758, 0.2331060767173767, 0.2165244221687317, -0.9120752811431885, -0.38910993933677673, -0.129275381565094, -0.009586036205291748, 0.005214095115661621, -0.017956852912902832, 0.25939543332414416, -0.6066929371239389, 0.7514235248920319,0.0005948108415134712,-0.92181396484375,-0.385162353515625,-0.146453857421875
20220224-0922,2022-02-24 09:22:22Z,u01, 193,40,movements,el-ex, rt, d,218573.591194, -1.4286548878751455, 0.39576288233302653, 0.36081843983525813, 0.2204587608575821, 0.2172456830739975, 0.21408504247665405, -0.9133971929550171, -0.38551220297813416, -0.13071309030056, -0.035134851932525635, -0.02734479308128357, 0.01283872127532959, 0.26137552813538556, -0.6052489454310751, 0.7518762033833711,0.0062221215131210705,-0.9457855224609375,-0.4100189208984375,-0.11761474609375
20220224-0922,2022-02-24 09:22:22Z,u01, 194,40,movements,el-ex, rt, d,218573.616141, -1.4237102606519967, 0.3910996637304454, 0.3624980413326428, -0.12857376039028168, 0.2284025400876999, 0.18220838904380798, -0.9145081043243408, -0.3812052607536316, -0.13548989593982697, -0.038265883922576904, -0.022191286087036133, 0.012427568435668945, 0.26021666282734185, -0.603773420889488, 0.7534343970198769,0.00903244042750101,-0.9512176513671875,-0.4050445556640625,-0.1243896484375
20220224-0922,2022-02-24 09:22:22Z,u01, 195,40,movements,el-ex, rt, d,218573.641088, -1.4165007557614053, 0.38585679595726513, 0.35759699268789, -0.21044692397117615, 0.1944648027420044, 0.18848147988319397, -0.9154695868492126, -0.37635308504104614, -0.1423846334218979, -0.013881981372833252, -0.011052221059799194, -0.029200658202171326, 0.256844910677668, -0.6023606715283827, 0.7557085396360219,0.009833567603654003,-0.9331512451171875,-0.3914031982421875,-0.163665771484375
20220224-0922,2022-02-24 09:22:22Z,u01, 196,40,movements,el-ex, rt, d,218573.66603400002, -1.411631894503279, 0.3807394086286288, 0.3556282727984173, 0.02439524419605732, 0.13581527769565582, 0.20255833864212036, -0.9166553020477295, -0.3716070353984833, -0.14714357256889343, -0.006318271160125732, 0.012735605239868164, -0.03817462921142578, 0.254403274219653, -0.6014209767219495, 0.7572596429906134,0.01138273784343613,-0.9237060546875,-0.357147216796875,-0.18426513671875
20220224-0922,2022-02-24 09:22:22Z,u01, 197,40,movements,el-ex, rt, d,218573.69098100002, -1.4096275867142105, 0.3757662043019014, 0.3581347011040509, 0.041487809270620346, 0.12037239968776703, 0.21885955333709717, -0.9181713461875916, -0.36698538064956665, -0.1492752581834793, -0.022349894046783447, -0.00464242696762085, 0.026731714606285095, 0.25336763816945873, -0.6009718914857353, 0.7579153815554441,0.014207885685194488,-0.938018798828125,-0.3600311279296875,-0.1275787353515625
20220224-0922,2022-02-24 09:22:22Z,u01, 198,40,movements,el-ex, rt, d,218573.71592800002, -1.4049575366409668, 0.3704480505423796, 0.3570138595356371, -0.13875512778759003, 0.20940813422203064, 0.2065684050321579, -0.9193760752677917, -0.3620331287384033, -0.1538815200328827, -0.0205652117729187, -0.03980699181556702, 0.03274179995059967, 0.2510918941925411, -0.6000100839334708, 0.759395426245101,0.01610218488375581,-0.938629150390625,-0.4019927978515625,-0.123138427734375
20220224-0922,2022-02-24 09:22:22Z,u01, 199,40,movements,el-ex, rt, d,218573.74087500002, -1.4001860849978052, 0.36526259858988236, 0.3576374648557625, 0.16048164665699005, 0.1913929134607315, 0.1868668645620346, -0.9204691052436829, -0.35719457268714905, -0.1585831195116043, 0.004087328910827637, 0.008668631315231323, -0.032365620136260986, 0.24937527088263972, -0.5987657432278505, 0.7608842448619465,0.01861900739016159,-0.9123992919921875,-0.355804443359375,-0.1852874755859375
20220224-0922,2022-02-24 09:22:22Z,u01, 200,40,movements,el-ex, rt, d,218573.765821, -1.3988178535457254, 0.3630536103120664, 0.3672478784238471, 0.4434073567390442, 0.1944374442100525, 0.1233089342713356, -0.9210262894630432, -0.35513046383857727, -0.1599770039319992, -0.02634596824645996, 0.016751617193222046, -0.019359752535820007, 0.2514405585371505, -0.5973182905885361, 0.7612173393385814,0.023163006849930445,-0.9485015869140625,-0.33917236328125,-0.176422119140625
20220224-0922,2022-02-24 09:22:22Z,u01, 201,40,movements,el-ex, rt, d,218573.790768, -1.3970459928989887, 0.3620810663272464, 0.3762488358548537, 0.1298407018184662, 0.21471010148525238, 0.07953069359064102, -0.9210811257362366, -0.3542211353778839, -0.1616683155298233, -0.038330256938934326, -0.031658321619033813, 0.04428227245807648, 0.253753292541381, -0.5956300082654526, 0.7616416848429043,0.02712845027024724,-0.961822509765625,-0.3788909912109375,-0.113800048828125
20220224-0922,2022-02-24 09:22:22Z,u01, 202,40,movements,el-ex, rt, d,218573.815715, -1.3911951076230242, 0.35971940388153023, 0.3738627664825528, -0.29061460494995117, 0.17538538575172424, 0.08440834283828735, -0.920940101146698, -0.35201162099838257, -0.1672036498785019, -0.012623012065887451, -0.037896186113357544, 0.012769222259521484, 0.25211370501766117, -0.5940007176929584, 0.7634352020897576,0.027721636779252656,-0.9332275390625,-0.3884735107421875,-0.155120849609375
20220224-0922,2022-02-24 09:22:22Z,u01, 203,40,movements,el-ex, rt, d,218573.840662, -1.3850768256509958, 0.35595291334537704, 0.36682904007622225, -0.2108718752861023, 0.12274181097745895, 0.10878418385982513, -0.9211963415145874, -0.34848371148109436, -0.17307864129543304, -0.026084423065185547, -0.013225823640823364, -0.023561522364616394, 0.24858207426796236, -0.5930157084490844, 0.7653819793698153,0.027011743940603683,-0.9431610107421875,-0.363922119140625,-0.1931610107421875
20220224-0922,2022-02-24 09:22:22Z,u01, 204,40,movements,el-ex, rt, d,218573.86560800002, -1.3815618673218557, 0.3532607031004422, 0.36503679586423315, 0.008221367374062538, 0.10229786485433578, 0.08344001322984695, -0.9215003848075867, -0.34595900774002075, -0.176491379737854, -0.037712693214416504, 0.00019484758377075195, -0.012534677982330322, 0.2470270854821734, -0.5922262496527695, 0.7664740232614562,0.027625163083517146,-0.958587646484375,-0.345458984375,-0.1888580322265625
20220224-0922,2022-02-24 09:22:22Z,u01, 205,40,movements,el-ex, rt, d,218573.89055500002, -1.3804117372386082, 0.35155087043351013, 0.3663933184001817, 0.02805708907544613, 0.030112018808722496, 0.07277025282382965, -0.9218762516975403, -0.3443542420864105, -0.17766277492046356, -0.00816202163696289, -0.016271919012069702, -0.0006516426801681519, 0.2467917063309054, -0.5918297611687372, 0.7668114138387169,0.028835280751980663,-0.9326324462890625,-0.3564300537109375,-0.1785736083984375
20220224-0922,2022-02-24 09:22:22Z,u01, 206,40,movements,el-ex, rt, d,218573.91550200002, -1.3805743860164454, 0.34935745038692906, 0.36650272741137113, -0.030239006504416466, -0.024955295026302338, 0.10262449085712433, -0.9226446151733398, -0.3422941565513611, -0.17765522003173828, -0.01152878999710083, -0.03101205825805664, -0.0066253989934921265, 0.24602986757856338, -0.5921500597295766, 0.766781374668122,0.029560156610380528,-0.9349822998046875,-0.3730926513671875,-0.1859283447265625
20220224-0922,2022-02-24 09:22:22Z,u01, 207,40,movements,el-ex, rt, d,218573.940448, -1.3806857770767227, 0.3465268267894554, 0.36676487199789815, 0.057419538497924805, -0.019208328798413277, 0.1261507123708725, -0.9236120581626892, -0.33963313698768616, -0.17773480713367462, -0.02430945634841919, -0.01302790641784668, -0.007079824805259705, 0.24508084634035562, -0.5925098951179999, 0.7667682753093419,0.03055416822431445,-0.94915771484375,-0.3579864501953125,-0.1891021728515625
20220224-0922,2022-02-24 09:22:22Z,u01, 208,40,movements,el-ex, rt, d,218573.965395, -1.3832181992460482, 0.34404073220310344, 0.37163251246455, 0.26184993982315063, -0.060185521841049194, 0.12305086106061935, -0.9248859882354736, -0.3372937738895416, -0.17555218935012817, -0.003077089786529541, 0.007154673337936401, -0.014236792922019958, 0.24566122842950486, -0.5931900733744523, 0.7659589717449021,0.03290603399860065,-0.926605224609375,-0.327880859375,-0.19122314453125
20220224-0922,2022-02-24 09:22:22Z,u01, 209,40,movements,el-ex, rt, d,218573.990342, -1.3879529308517224, 0.34330071425275, 0.3811797685110167, 0.4457017779350281, -0.08031556010246277, 0.10198420286178589, -0.9259520769119263, -0.3365970253944397, -0.17121650278568268, -0.00896906852722168, 0.002643197774887085, -0.015108764171600342, 0.24830843562879235, -0.5939146967001204, 0.7643931535802412,0.036211852434822,-0.931427001953125,-0.329010009765625,-0.18994140625
20220224-0922,2022-02-24 09:22:22Z,u01, 210,40,movements,el-ex, rt, d,218574.015289, -1.3933013178759412, 0.343202663070491, 0.39386106134991905, 0.4713517129421234, -0.08187809586524963, 0.10004349052906036, -0.926887035369873, -0.3365046977996826, -0.16626755893230438, -0.013664603233337402, -0.016141146421432495, -0.0019150376319885254, 0.2521428343519647, -0.5943822099124749, 0.762561686940911,0.040415264109725346,-0.9408416748046875,-0.353515625,-0.167144775390625
20220224-0922,2022-02-24 09:22:22Z,u01, 211,40,movements,el-ex, rt, d,218574.04023500002, -1.3968298310502734, 0.3427449671471437, 0.4024826268034306, 0.13958975672721863, -0.034103985875844955, 0.06714726239442825, -0.9276196360588074, -0.3360736668109894, -0.16302265226840973, -0.025261223316192627, -0.04818841814994812, 0.041760846972465515, 0.2546152364008283, -0.5946929914266238, 0.7613328716363401,0.04340074276747247,-0.951751708984375,-0.379425048828125,-0.126068115234375
20220224-0922,2022-02-24 09:22:22Z,u01, 212,40,movements,el-ex, rt, d,218574.06518200002, -1.3967905505970366, 0.34096840239070286, 0.4014087262803208, -0.18262964487075806, 0.01668609119951725, 0.06128417328000069, -0.9281997084617615, -0.33439990878105164, -0.16316218674182892, -0.025566041469573975, -0.04867196083068848, 0.0360715389251709, 0.2536574802832291, -0.5950435207757626, 0.7613688468054187,0.04357152307832407,-0.9537506103515625,-0.383392333984375,-0.1277923583984375
20220224-0922,2022-02-24 09:22:22Z,u01, 213,40,movements,el-ex, rt, d,218574.09012900002, -1.3952994160515426, 0.3388423073996973, 0.39850411226414745, -0.004250748548656702, 0.02885187417268753, 0.06431452184915543, -0.9286532998085022, -0.33239543437957764, -0.16466982662677765, -0.03397780656814575, -0.018388807773590088, 0.005932450294494629, 0.25199711500335664, -0.5951155687929599, 0.7618768482960185,0.04334123438869791,-0.9593963623046875,-0.356048583984375,-0.1569671630859375
20220224-0922,2022-02-24 09:22:22Z,u01, 214,40,movements,el-ex, rt, d,218574.11507600002, -1.3957542752529297, 0.3384883128808815, 0.40225583500924134, 0.2512745261192322, 0.03617137297987938, 0.0017244424670934677, -0.9288437962532043, -0.3320615589618683, -0.1642678678035736, -0.04303401708602905, -0.02201855182647705, -0.0023277699947357178, 0.2529960687830286, -0.5948605362299947, 0.7616588437962588,0.044827166758494796,-0.9732818603515625,-0.3543701171875,-0.1668548583984375
20220224-0922,2022-02-24 09:22:22Z,u01, 215,40,movements,el-ex, rt, d,218574.140022, -1.3976136206202157, 0.34007907945061105, 0.4096604976123758, 0.29817306995391846, 0.014135314151644707, -0.012313611805438995, -0.9286262392997742, -0.33356162905693054, -0.16244933009147644, -0.04296177625656128, -0.020167559385299683, 0.00757242739200592, 0.25581095810990717, -0.5944207999284074, 0.7609372077457449,0.04689481654876532,-0.9733123779296875,-0.3570404052734375,-0.1540985107421875
20220224-0922,2022-02-24 09:22:22Z,u01, 216,40,movements,el-ex, rt, d,218574.164969, -1.4001793772631825, 0.3418501539479025, 0.4172349524146574, 0.30330634117126465, -0.0009908415377140045, -0.01772269234061241, -0.9284564256668091, -0.3352307677268982, -0.1599656343460083, -0.03978997468948364, 0.001337975263595581, -0.0018082857131958008, 0.2587568653896624, -0.5941902646721138, 0.7599963049698687,0.04887135062544079,-0.968292236328125,-0.3318023681640625,-0.16302490234375
20220224-0922,2022-02-24 09:22:22Z,u01, 217,40,movements,el-ex, rt, d,218574.189916, -1.4039523776848555, 0.34373388195709137, 0.4271876175792855, 0.4372508227825165, -0.027065850794315338, -0.011316191405057907, -0.9284290075302124, -0.3370048999786377, -0.15635628998279572, -0.030143260955810547, 0.05390861630439758, -0.010803937911987305, 0.2624799472095021, -0.5940758665991153, 0.7586310108374992,0.051547255926150726,-0.9579620361328125,-0.2945556640625,-0.17388916015625
20220224-0922,2022-02-24 09:22:22Z,u01, 218,40,movements,el-ex, rt, d,218574.21486200002, -1.408858597721332, 0.3451461911153809, 0.4389021296470288, 0.4208753705024719, -0.0346171110868454, 0.02041284181177616, -0.9287142753601074, -0.33833426237106323, -0.15172246098518372, -0.017971515655517578, 0.06321829557418823, 0.007007881999015808, 0.26659196897191767, -0.5941948287003859, 0.7568683457601341,0.054877450496019387,-0.9451446533203125,-0.2800750732421875,-0.14306640625
20220224-0922,2022-02-24 09:22:22Z,u01, 219,40,movements,el-ex, rt, d,218574.23980900002, -1.412685558341974, 0.34736161219589257, 0.4465650230358853, 0.14953312277793884, -0.07623506337404251, -0.09991323947906494, -0.9285456538200378, -0.3404181897640228, -0.14804881811141968, -0.025510132312774658, -0.04782643914222717, 0.03249375522136688, 0.26975874349660794, -0.5943112062741961, 0.7555314095864847,0.05653958682241089,-0.9545440673828125,-0.3939361572265625,-0.1175994873046875
20220224-0922,2022-02-24 09:22:22Z,u01, 220,40,movements,el-ex, rt, d,218574.26475600002, -1.4174657627871796, 0.35006416895948217, 0.4512805829740284, 0.34097108244895935, -0.16414394974708557, -0.06833832710981369, -0.92833012342453, -0.34295809268951416, -0.14346745610237122, -0.02055281400680542, 0.00386202335357666, -0.020137488842010498, 0.2722484488318845, -0.5951025544884321, 0.7539952008268008,0.05678849962480331,-0.9488983154296875,-0.3353729248046875,-0.167694091796875
20220224-0922,2022-02-24 09:22:22Z,u01, 221,40,movements,el-ex, rt, d,218574.28970300002, -1.425843505616228, 0.35449714024427154, 0.46445089638695175, 0.6379911303520203, -0.14156347513198853, -0.12472404539585114, -0.9279857873916626, -0.3471188247203827, -0.13546425104141235, -0.0478745698928833, -0.007968395948410034, -0.035983726382255554, 0.2779655938688151, -0.5958212861804909, 0.7511554699599202,0.05913848464368876,-0.975494384765625,-0.3453216552734375,-0.1786956787109375
20220224-0922,2022-02-24 09:22:22Z,u01, 222,40,movements,el-ex, rt, d,218574.314649, -1.4353268086425057, 0.35995454325378606, 0.48040231550008344, 0.5680921673774719, -0.1770496368408203, -0.1622626930475235, -0.9273379445075989, -0.3522316813468933, -0.1264002025127411, -0.031219065189361572, -0.0414603054523468, -0.00450509786605835, 0.2849034354984406, -0.5963471556326707, 0.7479023821658701,0.06198421960096678,-0.958953857421875,-0.39630126953125,-0.12896728515625
20220224-0922,2022-02-24 09:22:22Z,u01, 223,40,movements,el-ex, rt, d,218574.339596, -1.4440273937298784, 0.3659770361509219, 0.4906494869586012, 0.23573902249336243, -0.20926494896411896, -0.19713746011257172, -0.9262815117835999, -0.35786178708076477, -0.11805680394172668, -0.042514145374298096, -0.03834789991378784, 0.02276545763015747, 0.29030766316295153, -0.5972378570798894, 0.7450598002558823,0.06256413715909759,-0.964752197265625,-0.3976593017578125,-0.0973663330078125
20220224-0922,2022-02-24 09:22:22Z,u01, 224,40,movements,el-ex, rt, d,218574.364543, -1.4500271589409568, 0.37124127676726604, 0.49248692270402866, -0.007198734674602747, -0.22061040997505188, -0.2163885086774826, -0.9250902533531189, -0.3627724349498749, -0.11226873844861984, -0.051518023014068604, -0.04257732629776001, -0.005102112889289856, 0.2928449995325927, -0.59842078742654, 0.7432760006060979,0.06062363830435058,-0.9766082763671875,-0.404754638671875,-0.11810302734375
20220224-0922,2022-02-24 09:22:23Z,u01, 225,40,movements,el-ex, rt, d,218574.38949, -1.4556817185276258, 0.3765315837800328, 0.4912699541150958, -0.03715706616640091, -0.2523559033870697, -0.21951647102832794, -0.923790693283081, -0.36769723892211914, -0.10681402683258057, -0.0701819658279419, -0.010659635066986084, 0.003847546875476837, 0.29445252363842345, -0.5999089065493927, 0.7416816448650471,0.05757775394000053,-0.98724365234375,-0.374755859375,-0.110321044921875
20220224-0922,2022-02-24 09:22:23Z,u01, 226,40,movements,el-ex, rt, d,218574.41443600002, -1.4610037182815305, 0.3823254836844911, 0.4886528723326232, -0.12642866373062134, -0.24661365151405334, -0.26540759205818176, -0.9222131967544556, -0.3730790615081787, -0.10166101157665253, -0.08317321538925171, -0.04980304837226868, 0.021277472376823425, 0.2957847579422942, -0.6013990962643784, 0.7402208759180173,0.05388522084366554,-1.005126953125,-0.4249420166015625,-0.079864501953125
20220224-0922,2022-02-24 09:22:23Z,u01, 227,40,movements,el-ex, rt, d,218574.43938300002, -1.465715763852433, 0.3886039778906801, 0.4832111880849112, -0.2233406901359558, -0.27379122376441956, -0.285081684589386, -0.9203341603279114, -0.3788968622684479, -0.09706676006317139, -0.0699915885925293, -0.06408101320266724, 0.013570435345172882, 0.29639610763316726, -0.6030057758552777, 0.7390029979782736,0.049069490752794265,-0.990264892578125,-0.4439544677734375,-0.0840911865234375
20220224-0922,2022-02-24 09:22:23Z,u01, 228,40,movements,el-ex, rt, d,218574.4643299167, -1.469846672401753, 0.3952186549976382, 0.47627552306191856, -0.21420811116695404, -0.24904444813728333, -0.27951714396476746, -0.9182136654853821, -0.3850100040435791, -0.09300950914621353, -0.07984834909439087, -0.03953525424003601, 0.02512294054031372, 0.29663555647736384, -0.6045681024231148, 0.7379684134009719,0.043671957148242124,-0.9986419677734375,-0.4248504638671875,-0.065826416015625
20220224-0922,2022-02-24 09:22:23Z,u01, 229,40,movements,el-ex, rt, d,218574.48927591668, -1.4745684989281982, 0.40139203744006025, 0.4721987447649618, -0.006865339353680611, -0.22261585295200348, -0.22961464524269104, -0.9162591695785522, -0.390700101852417, -0.08844278752803802, -0.07231175899505615, -0.03553879261016846, 0.02914692461490631, 0.2975830770109845, -0.6059892078928856, 0.7366612775840385,0.0393866283369767,-0.992340087890625,-0.426544189453125,-0.05487060546875
20220224-0922,2022-02-24 09:22:23Z,u01, 230,40,movements,el-ex, rt, d,218574.51422291668, -1.4822196029448333, 0.4068244184074566, 0.47776121451720877, 0.4855748116970062, -0.1895218789577484, -0.16658008098602295, -0.9147814512252808, -0.39569494128227234, -0.08124092221260071, -0.04434007406234741, 0.007328331470489502, 0.001757688820362091, 0.3012438425491548, -0.6071504644160722, 0.7342628258221278,0.0384495951938138,-0.9571533203125,-0.3865966796875,-0.0803375244140625
20220224-0922,2022-02-24 09:22:23Z,u01, 231,40,movements,el-ex, rt, d,218574.53916991668, -1.4945589079212829, 0.4129452487785908, 0.4955494337373888, 0.7751271724700928, -0.19136685132980347, -0.19457383453845978, -0.9132822155952454, -0.40130874514579773, -0.0697614848613739, -0.030931532382965088, 0.030138760805130005, 0.055280692875385284, 0.30893059188515265, -0.6080141005541994, 0.7302052136586683,0.040999635916029176,-0.9403228759765625,-0.3651885986328125,-0.021728515625
20220224-0922,2022-02-24 09:22:23Z,u01, 232,40,movements,el-ex, rt, d,218574.56411691668, -1.5074891450826837, 0.41954000473225034, 0.5169080856002517, 0.7601322531700134, -0.14024294912815094, -0.21396404504776, -0.911446750164032, -0.407340407371521, -0.05777833238244057, -0.04521811008453369, 0.02490943670272827, 0.03786540776491165, 0.3178699509568727, -0.6083334017250837, 0.725885206347417,0.04449352640164006,-0.955780029296875,-0.380279541015625,-0.020660400390625
20220224-0922,2022-02-24 09:22:23Z,u01, 233,40,movements,el-ex, rt, d,218574.58906291667, -1.5187613333098435, 0.42597458518654413, 0.5346257804151301, 0.5121421217918396, -0.17869871854782104, -0.21822349727153778, -0.9094038009643555, -0.4132084846496582, -0.04736357927322388, -0.01013648509979248, 0.017014026641845703, 0.009979307651519775, 0.32560605399733494, -0.6085219047965291, 0.7221383886959155,0.046881460860250856,-0.9214019775390625,-0.386505126953125,-0.036285400390625
20220224-0922,2022-02-24 09:22:23Z,u01, 234,40,movements,el-ex, rt, d,218574.61400991667, -1.5280284963670518, 0.4319280569365137, 0.5444237115057806, 0.26624923944473267, -0.22101300954818726, -0.2086770087480545, -0.907329797744751, -0.41862255334854126, -0.038828205317258835, -0.021686196327209473, -0.03650131821632385, -0.013402879238128662, 0.3307183274309076, -0.6092711104447585, 0.719180481744393,0.0468344607882446,-0.9297027587890625,-0.4575653076171875,-0.0546722412109375
20220224-0922,2022-02-24 09:22:23Z,u01, 235,40,movements,el-ex, rt, d,218574.6389569167, -1.5380483197979657, 0.436884969847955, 0.552645080032723, 0.376259982585907, -0.29016390442848206, -0.1572953760623932, -0.9055883884429932, -0.42311906814575195, -0.029666820541024208, -0.01772099733352661, -0.015677958726882935, -0.03387099876999855, 0.3350371185784929, -0.6106690748748086, 0.7160173677447702,0.04639641946258627,-0.92388916015625,-0.439422607421875,-0.0623321533203125
20220224-0922,2022-02-24 09:22:23Z,u01, 236,40,movements,el-ex, rt, d,218574.6639039167, -1.5500879637893024, 0.4409004535470107, 0.5630817727340315, 0.3268950581550598, -0.30587875843048096, -0.15844778716564178, -0.904173731803894, -0.426753968000412, -0.018726633861660957, -0.029206275939941406, -0.05165478587150574, -0.0329551100730896, 0.3397747459914315, -0.6125273910055876, 0.7121679005373046,0.04669126371792742,-0.93365478515625,-0.4822845458984375,-0.05133056640625
20220224-0922,2022-02-24 09:22:23Z,u01, 237,40,movements,el-ex, rt, d,218574.68884991668, -1.5600645582331474, 0.4446414325585669, 0.5676391700340079, 0.03133460879325867, -0.34138354659080505, -0.13141809403896332, -0.9027129411697388, -0.43013420701026917, -0.009688078425824642, -0.00944209098815918, -0.018550455570220947, -0.03805685043334961, 0.34257084157017226, -0.6146553338082215, 0.7090783655147697,0.045297694435806335,-0.9132232666015625,-0.4528350830078125,-0.05059814453125
20220224-0922,2022-02-24 09:22:23Z,u01, 238,40,movements,el-ex, rt, d,218574.71379691668, -1.567612354798099, 0.44817067068709426, 0.5653054369124663, -0.215220108628273, -0.3252697288990021, -0.15930525958538055, -0.9012364745140076, -0.4333176016807556, -0.0028695212677121162, -0.03289109468460083, -0.02594137191772461, -0.01977473497390747, 0.3431123005692076, -0.6171216966790645, 0.7068775745019142,0.041935965740615644,-0.936065673828125,-0.4603424072265625,-0.0204315185546875
20220224-0922,2022-02-24 09:22:23Z,u01, 239,40,movements,el-ex, rt, d,218574.73874391668, -1.5713834958587982, 0.4516630898295735, 0.5563655335544258, -0.38183340430259705, -0.2976584732532501, -0.12031298875808716, -0.8997222185134888, -0.4364624619483948, 0.0005282891215756536, -0.03147578239440918, -0.03649890422821045, -0.012491464614868164, 0.3415042386320469, -0.6193859859134708, 0.7059561482625413,0.036900719881602706,-0.9341888427734375,-0.469512939453125,-0.0096435546875
20220224-0922,2022-02-24 09:22:23Z,u01, 240,40,movements,el-ex, rt, d,218574.76368991667, -1.5728339585466322, 0.45475536050660886, 0.5441850435616009, -0.49434030055999756, -0.224036306142807, -0.11238621920347214, -0.8983666300773621, -0.43924254179000854, 0.0018305429257452488, -0.05227118730545044, -0.05148014426231384, 0.0200808048248291, 0.3387082685958936, -0.6214434650322149, 0.7057672148470283,0.031262564011795724,-0.9510345458984375,-0.4927520751953125,0.02459716796875
20220224-0922,2022-02-24 09:22:23Z,u01, 241,40,movements,el-ex, rt, d,218574.78863691667, -1.570244808071936, 0.4572294679307701, 0.5283947013362641, -0.6529932618141174, -0.1073436439037323, -0.08006861805915833, -0.8972787261009216, -0.4414638578891754, -0.0004948660498484969, -0.04627883434295654, -0.06853052973747253, 0.04813259840011597, 0.3345289890199057, -0.6227703609506338, 0.7068308272131201,0.02524762088875032,-0.94720458984375,-0.5106048583984375,0.0510711669921875
20220224-0922,2022-02-24 09:22:23Z,u01, 242,40,movements,el-ex, rt, d,218574.8135839167, -1.5628650362949998, 0.45892834701770313, 0.5079509536246535, -0.764176607131958, -0.04887767136096954, -0.048296310007572174, -0.896499514579773, -0.4429875910282135, -0.00711054727435112, -0.01669323444366455, -0.03291881084442139, 0.0459287166595459, 0.3286112902865038, -0.6232650689862783, 0.7093715909475369,0.018633671169258847,-0.9122467041015625,-0.4732818603515625,0.0372161865234375
20220224-0922,2022-02-24 09:22:23Z,u01, 243,40,movements,el-ex, rt, d,218574.8385309167, -1.5557637560207447, 0.4588008404715791, 0.4907629538194478, -0.3717418909072876, 0.0254460908472538, 0.02434832975268364, -0.8964828252792358, -0.4428732693195343, -0.013477456755936146, -0.03328084945678711, 0.006212562322616577, 0.004489779472351074, 0.32315590981296993, -0.6235635729263729, 0.7117233805151557,0.013729117396209634,-0.928924560546875,-0.431610107421875,0.0003814697265625
20220224-0922,2022-02-24 09:22:23Z,u01, 244,40,movements,el-ex, rt, d,218574.86347691668, -1.5518106884018168, 0.4592975418380644, 0.48585228698765676, -0.02092929370701313, 0.10418584197759628, -0.039987582713365555, -0.8962023854255676, -0.44331854581832886, -0.017017019912600517, -0.04569196701049805, 0.0018666088581085205, 0.011096419766545296, 0.3217576192295292, -0.6228671806361031, 0.7129891408758857,0.012443117406899573,-0.9409332275390625,-0.44049072265625,-0.0062103271484375
20220224-0922,2022-02-24 09:22:23Z,u01, 245,40,movements,el-ex, rt, d,218574.88842391668, -1.5494532532408052, 0.460900595968961, 0.4874272288257156, 0.11013324558734894, 0.1407603621482849, -0.07515036314725876, -0.8954482078552246, -0.4447548985481262, -0.019114520400762558, -0.02793729305267334, 0.016562819480895996, 0.008265318349003792, 0.32274280557299173, -0.6215141363121575, 0.7137175396804307,0.012823114767991639,-0.9246368408203125,-0.4285430908203125,-0.0098876953125
20220224-0922,2022-02-24 09:22:23Z,u01, 246,40,movements,el-ex, rt, d,218574.91337091668, -1.5469081772885511, 0.4623832922618376, 0.4906873733966322, 0.09731189906597137, 0.1729103922843933, -0.03682714328169823, -0.8947364687919617, -0.4460824131965637, -0.021377665922045708, -0.005684554576873779, 0.030600905418395996, -0.0035401564091444016, 0.3242095484658759, -0.6198381531197069, 0.7144901093117639,0.013879939676869402,-0.89898681640625,-0.4149627685546875,-0.026458740234375
20220224-0922,2022-02-24 09:22:23Z,u01, 247,40,movements,el-ex, rt, d,218574.93831691667, -1.5422470885371304, 0.46256726436666074, 0.49149796004050583, -0.06917774677276611, 0.22202226519584656, 0.0038619618862867355, -0.8945451974868774, -0.44624704122543335, -0.025545524433255196, 0.006697237491607666, 0.002231508493423462, -0.01141149178147316, 0.32448552060329294, -0.6180100197912799, 0.7159273392738041,0.014861462693530614,-0.8886566162109375,-0.439453125,-0.0371551513671875
20220224-0922,2022-02-24 09:22:23Z,u01, 248,40,movements,el-ex, rt, d,218574.96326391667, -1.5339076578040483, 0.46221430258123763, 0.4850150027937478, -0.40212076902389526, 0.20540207624435425, 0.023217350244522095, -0.8944582343101501, -0.4459311366081238, -0.03301034867763519, 0.012958109378814697, -0.007010698318481445, 0.023702267557382584, 0.32231215557305215, -0.6161247443038478, 0.7185463341003046,0.014007948448553853,-0.8800506591796875,-0.45208740234375,-0.0083770751953125
