SessionID,LoggingTime,UID,RecNo,Hertz,Activity,MoveType,Wrist,Side,TimeStamp,DMRoll,DMPitch,DMYaw,DMRotX,DMRotY,DMRotZ,DMGrvX,DMGrvY,DMGrvZ,DMUAccelX,DMUAccelY,DMUAccelZ,DMQuatX,DMQuatY,DMQuatW,DMQuatZ,AccelroX,AceelroY,AceelroZ
20220224-0954,2022-02-24 09:54:24Z,u01, 1,40,movements,el-ex, rt, d,219159.837991875, -1.4432058742653524, 0.5026223043602988, 0.44435446681882546, -0.07007993012666702, 0.014055895619094372, 0.15793129801750183, -0.869199275970459, -0.48172518610954285, -0.11150727421045303, 0.0028508901596069336, 0.046712279319763184, 0.01545339822769165, 0.3230934221087303, -0.5829725596618501, 0.745488987398881,5.551115123125783e-17,-0.8663482666015625,-0.4350128173828125,-0.0960540771484375
20220224-0954,2022-02-24 09:54:24Z,u01, 2,40,movements,el-ex, rt, d,219159.862938875, -1.4409601011756914, 0.4986835791960627, 0.4415958297489264, -0.25408273935317993, 0.0936075747013092, 0.11080946028232574, -0.8708212375640869, -0.4782698452472687, -0.11370377987623215, -0.04412639141082764, 0.01794266700744629, 0.07709819078445435, 0.32096144694560885, -0.583208247918969, 0.7462248939316095,0.0006421272557127766,-0.905792236328125,-0.4585723876953125,-0.038848876953125
20220224-0954,2022-02-24 09:54:24Z,u01, 3,40,movements,el-ex, rt, d,219159.887884875, -1.4323922353276086, 0.495050051221087, 0.43047495678547987, -0.4613196551799774, 0.08238901197910309, 0.0702308788895607, -0.8715306520462036, -0.47507569193840027, -0.12139955908060074, 0.03844630718231201, 0.0672692060470581, 0.02761922776699066, 0.31649066195290565, -0.5823520247835174, 0.7487984471282275,-0.0009446706937605298,-0.8330841064453125,-0.407806396484375,-0.093780517578125
20220224-0954,2022-02-24 09:54:24Z,u01, 4,40,movements,el-ex, rt, d,219159.91283087502, -1.4269832811981857, 0.4930724669146397, 0.42045907421841, -0.20040328800678253, 0.011495067737996578, 0.011135004460811615, -0.8717891573905945, -0.4733346104621887, -0.12624621391296387, -0.03174483776092529, 0.10391926765441895, -0.03415393829345703, 0.3129059669431699, -0.5822085118201402, 0.7504085363162556,-0.0031947177552243966,-0.8767547607421875,-0.356689453125,-0.1543426513671875
20220224-0954,2022-02-24 09:54:24Z,u01, 5,40,movements,el-ex, rt, d,219159.93777787502, -1.4253959337613695, 0.49294797476306873, 0.42069247405931354, 0.16887930035591125, 0.12523947656154633, 0.004719181917607784, -0.8716459274291992, -0.473224937915802, -0.12763839960098267, -0.09551715850830078, 0.0471537709236145, -0.005417987704277039, 0.312933697917399, -0.5815954756597924, 0.7508736603173995,-0.002817759214266413,-0.9671630859375,-0.4260711669921875,-0.133056640625
20220224-0954,2022-02-24 09:54:25Z,u01, 6,40,movements,el-ex, rt, d,219159.962723875, -1.4255686841180482, 0.4929144482205262, 0.42836000645452643, 0.3097529411315918, 0.0961114838719368, 0.09364645183086395, -0.871683657169342, -0.4731954038143158, -0.12749013304710388, -0.19449371099472046, 0.022481262683868408, 0.02484448254108429, 0.315149644594084, -0.5804615731749843, 0.750829591669568,4.475638134388005e-05,-0.591278076171875,-0.506195068359375,-0.2285614013671875
20220224-0954,2022-02-24 09:54:25Z,u01, 7,40,movements,el-ex, rt, d,219159.987669875, -1.4241124303655142, 0.49315021857053964, 0.4336421210917063, -0.007762426044791937, 0.11403216421604156, 0.03369604051113129, -0.871386706829071, -0.47340309619903564, -0.12874306738376617, 0.02337944507598877, -0.023804575204849243, -0.011332377791404724, 0.3167604901874567, -0.5790433965795043, 0.7512434955493288,0.0021806880969122977,-0.8480072021484375,-0.4972076416015625,-0.14007568359375
20220224-0954,2022-02-24 09:54:25Z,u01, 8,40,movements,el-ex, rt, d,219160.012616875, -1.4209957259110866, 0.4919605458624436, 0.42912003623743256, -0.29069194197654724, 0.02648460492491722, 0.017748897895216942, -0.871537446975708, -0.47235482931137085, -0.13154225051403046, -0.05468630790710449, -0.0028648972511291504, 0.027462318539619446, 0.31504217366315385, -0.5787722371654662, 0.7521763362705051,0.0013646985766941344,-0.898101806640625,-0.4777374267578125,-0.1060333251953125
20220224-0954,2022-02-24 09:54:25Z,u01, 9,40,movements,el-ex, rt, d,219160.03756287502, -1.4141996562217976, 0.48946691768006745, 0.42022063850040314, -0.316631019115448, 0.19131262600421906, 0.07554209232330322, -0.8717842698097229, -0.4701554775238037, -0.13764549791812897, -0.09634023904800415, 0.0020920932292938232, 0.01791001856327057, 0.31161036467924647, -0.5779932824928111, 0.7542034601397997,-0.00010401051912134474,-0.9681243896484375,-0.4680633544921875,-0.1197357177734375
20220224-0954,2022-02-24 09:54:25Z,u01, 10,40,movements,el-ex, rt, d,219160.06250987502, -1.4064355428566933, 0.48623698629402506, 0.4144014112234634, -0.10492133349180222, 0.17240571975708008, 0.11142705380916595, -0.8721827864646912, -0.4673023223876953, -0.14465761184692383, 0.018743395805358887, 0.018831253051757812, -0.01784825325012207, 0.30881598762733664, -0.5764580441930688, 0.7565242183949972,-4.231525664349922e-05,-0.8671112060546875,-0.44805908203125,-0.1589202880859375
20220224-0954,2022-02-24 09:54:25Z,u01, 11,40,movements,el-ex, rt, d,219160.087455875, -1.4035869399331744, 0.4842550774246347, 0.4142740848445905, -0.008752722293138504, 0.08045395463705063, 0.04748908430337906, -0.8726786971092224, -0.4655492305755615, -0.14729537069797516, -0.011064648628234863, 0.007510870695114136, -0.00861869752407074, 0.3080918096292022, -0.5757010932720561, 0.7573947121476516,0.0009944388983095243,-0.8837432861328125,-0.458038330078125,-0.155914306640625
20220224-0954,2022-02-24 09:54:25Z,u01, 12,40,movements,el-ex, rt, d,219160.11240187503, -1.3997203814996173, 0.4822159839502653, 0.4105499107439157, -0.3083343207836151, 0.10166697204113007, 0.0744318887591362, -0.8730363845825195, -0.4637435972690582, -0.15082985162734985, -0.03405296802520752, 0.01275479793548584, 0.052853405475616455, 0.3063101798495504, -0.5751166409855055, 0.7585607303518958,0.000839952080797457,-0.9134521484375,-0.455047607421875,-0.102142333984375
20220224-0954,2022-02-24 09:54:25Z,u01, 13,40,movements,el-ex, rt, d,219160.13734887503, -1.392442845125631, 0.47786677330579785, 0.4002232353657874, -0.3923822343349457, 0.09528304636478424, 0.1145816296339035, -0.8738921284675598, -0.45988595485687256, -0.15753565728664398, 0.003027200698852539, 0.02191293239593506, 0.01901663839817047, 0.30182335949884287, -0.5745736064155577, 0.7607677361212675,-0.0005665220215436695,-0.8708648681640625,-0.4379730224609375,-0.138519287109375
20220224-0954,2022-02-24 09:54:25Z,u01, 14,40,movements,el-ex, rt, d,219160.16229487502, -1.3882049693861132, 0.4740702184320369, 0.39467880558424223, -0.008971833623945713, 0.056110404431819916, 0.10828625410795212, -0.8749274015426636, -0.45651140809059143, -0.16155356168746948, -0.0351983904838562, 0.038954585790634155, -0.04917012155056, 0.298900049333793, -0.574353533128709, 0.7620867393725552,-0.0008147191492203776,-0.8951873779296875,-0.4152679443359375,-0.2057342529296875
20220224-0954,2022-02-24 09:54:25Z,u01, 15,40,movements,el-ex, rt, d,219160.187240875, -1.3895016560120292, 0.4730822976823479, 0.4005791822611407, 0.3423565924167633, 0.07731915265321732, 0.05225587636232376, -0.8755793571472168, -0.45563220977783203, -0.160500168800354, -0.06950432062149048, 0.023945748805999756, -0.024741291999816895, 0.30024730986732184, -0.5741092850348825, 0.7617399749438418,0.0015576720982282133,-0.9450836181640625,-0.4316864013671875,-0.18524169921875
20220224-0954,2022-02-24 09:54:25Z,u01, 16,40,movements,el-ex, rt, d,219160.212187875, -1.392057762740648, 0.47365291273657056, 0.4105396889681617, 0.3091021180152893, 0.041963160037994385, 0.04155249893665314, -0.8757307529449463, -0.45614007115364075, -0.15821531414985657, 0.005659222602844238, 0.03724047541618347, 0.011563360691070557, 0.3033090009612813, -0.5734945417569645, 0.7609763257677373,0.004779348502158887,-0.8863525390625,-0.4220123291015625,-0.1489715576171875
20220224-0954,2022-02-24 09:54:25Z,u01, 17,40,movements,el-ex, rt, d,219160.23713387502, -1.395262914110858, 0.4736398575208242, 0.4159250162147314, 0.044897157698869705, -0.09379993379116058, 0.0248822420835495, -0.876239001750946, -0.45612844824790955, -0.15540866553783417, -0.0003783106803894043, 0.02622738480567932, -0.0009174048900604248, 0.30485816460964626, -0.5738964792488455, 0.7600420901582163,0.006344013090401779,-0.876617431640625,-0.429901123046875,-0.1563262939453125
20220224-0954,2022-02-24 09:54:25Z,u01, 18,40,movements,el-ex, rt, d,219160.26208087502, -1.3961374390021797, 0.4726470082875246, 0.413764059695209, -0.16390392184257507, -0.0346432663500309, 0.03209608048200607, -0.8768203258514404, -0.45524469017982483, -0.1547209620475769, -0.08385789394378662, 0.015883058309555054, 0.0010346770286560059, 0.3038937878926524, -0.574706954097567, 0.7598210162735635,0.005711683842972881,-0.9616241455078125,-0.4428558349609375,-0.1567230224609375
20220224-0954,2022-02-24 09:54:25Z,u01, 19,40,movements,el-ex, rt, d,219160.2870269167, -1.3941931137676467, 0.4708565499568949, 0.409518748446839, -0.13529159128665924, 0.0046471478417515755, 0.022343583405017853, -0.8773188591003418, -0.4536497890949249, -0.15656843781471252, -0.029358506202697754, 0.02719709277153015, 0.00019657611846923828, 0.3020429523501685, -0.5748789733126637, 0.7604338126381405,0.004972834291611716,-0.90667724609375,-0.42645263671875,-0.1563720703125
20220224-0954,2022-02-24 09:54:25Z,u01, 20,40,movements,el-ex, rt, d,219160.31197291668, -1.393400132712422, 0.4698798286314617, 0.40651528421864735, -0.08826286345720291, -0.05559868365526199, -0.007946479134261608, -0.8776301145553589, -0.4527791440486908, -0.15734221041202545, -0.01810663938522339, -0.0009562969207763672, 0.03428030014038086, 0.3008357481561435, -0.5751754069334385, 0.7606924520372539,0.004266372191568557,-0.8845062255859375,-0.4474334716796875,-0.1310272216796875
20220224-0954,2022-02-24 09:54:25Z,u01, 21,40,movements,el-ex, rt, d,219160.33691991668, -1.3932952306473074, 0.4686976820869974, 0.4045557380218907, -0.056485556066036224, -0.0031270859763026237, 0.030038852244615555, -0.8781399130821228, -0.4517247974872589, -0.15752868354320526, -0.03894394636154175, -0.0033991336822509766, 0.051495566964149475, 0.2998576471016398, -0.5756049445098484, 0.7607556274050722,0.0039193448987195345,-0.917083740234375,-0.4551239013671875,-0.1060333251953125
20220224-0954,2022-02-24 09:54:25Z,u01, 22,40,movements,el-ex, rt, d,219160.36186591667, -1.3918393309588366, 0.4660185994792855, 0.4012934791819747, -0.2250581979751587, -0.008113056421279907, 0.05780842900276184, -0.8790974020957947, -0.4493330121040344, -0.15902185440063477, 0.01827263832092285, -0.017036736011505127, 0.030466780066490173, 0.2979759076466517, -0.5759335275979588, 0.7612470108100898,0.003762173003562963,-0.869171142578125,-0.4597625732421875,-0.1248321533203125
20220224-0954,2022-02-24 09:54:25Z,u01, 23,40,movements,el-ex, rt, d,219160.3868119167, -1.3892934186148873, 0.4627657416157557, 0.3943311576266464, -0.25579848885536194, -0.016403410583734512, 0.10063932090997696, -0.8801226019859314, -0.446424663066864, -0.16152240335941315, 0.011302292346954346, -0.02284419536590576, 0.018364667892456055, 0.2948220219593089, -0.5764709629529425, 0.7620727541402696,0.00253872715383896,-0.8688201904296875,-0.469268798828125,-0.143157958984375
20220224-0954,2022-02-24 09:54:25Z,u01, 24,40,movements,el-ex, rt, d,219160.41175891669, -1.3912863221340834, 0.4607524543434002, 0.3923644330969147, -0.019351670518517494, -0.01761634647846222, 0.06656164675951004, -0.8813252449035645, -0.4446222186088562, -0.15992823243141174, -0.017829537391662598, 0.021923184394836426, 0.019639194011688232, 0.2935476121473844, -0.5778111132305946, 0.7615507799921652,0.00214655457286983,-0.8931121826171875,-0.4357147216796875,-0.148529052734375
20220224-0954,2022-02-24 09:54:25Z,u01, 25,40,movements,el-ex, rt, d,219160.43670491668, -1.3948762208045462, 0.45994695972456023, 0.39548280890555204, 0.08246906846761703, 0.05711508169770241, 0.08601144701242447, -0.8822459578514099, -0.44390058517456055, -0.1568259596824646, -0.04713642597198486, 0.02356669306755066, 0.028423503041267395, 0.2941705830451177, -0.5788356321791354, 0.760528489164877,0.0030661888219922773,-0.92938232421875,-0.4203338623046875,-0.1284027099609375
20220224-0954,2022-02-24 09:54:25Z,u01, 26,40,movements,el-ex, rt, d,219160.46165191667, -1.395501469491491, 0.46011456082676633, 0.397741521415024, -0.017033256590366364, 0.08036907017230988, 0.08895882964134216, -0.8822707533836365, -0.44405075907707214, -0.1562613695859909, -0.008156120777130127, -0.009349018335342407, 0.012355968356132507, 0.2948841532318844, -0.5787163855851879, 0.7603398078427926,0.003778676697566652,-0.9014434814453125,-0.45257568359375,-0.1353912353515625
20220224-0954,2022-02-24 09:54:25Z,u01, 27,40,movements,el-ex, rt, d,219160.4865979167, -1.3949462614741082, 0.45830597785014515, 0.39981244975412056, 0.18016600608825684, 0.05573303624987602, 0.09844160825014114, -0.8829730153083801, -0.4424295425415039, -0.15689140558242798, 0.0039446353912353516, 0.007370889186859131, -0.02256697416305542, 0.29484674185183485, -0.5784632182138315, 0.7605382521651673,0.005233620139091011,-0.8790283203125,-0.43505859375,-0.1794586181640625
20220224-0954,2022-02-24 09:54:25Z,u01, 28,40,movements,el-ex, rt, d,219160.51154391668, -1.3989218864420414, 0.4560396068156187, 0.408846695718239, 0.3411122262477875, 0.06476268172264099, 0.09560368210077286, -0.8845753073692322, -0.44039592146873474, -0.1535508781671524, -0.027488231658935547, -0.004107832908630371, 0.0058613121509552, 0.2966799836104478, -0.5789693839920391, 0.7594061604923412,0.00881333308464971,-0.9037017822265625,-0.4374847412109375,-0.154937744140625
20220224-0954,2022-02-24 09:54:25Z,u01, 29,40,movements,el-ex, rt, d,219160.53649091668, -1.4025210160198749, 0.4544512024406614, 0.4193189348942083, 0.34690457582473755, 0.10229800641536713, 0.15567892789840698, -0.8858108520507812, -0.43896928429603577, -0.150483176112175, -0.026710569858551025, -0.010020583868026733, -0.00025813281536102295, 0.29917583635359224, -0.5790096978315402, 0.7583394103279782,0.012766945452352518,-0.9125213623046875,-0.4489898681640625,-0.1507415771484375
20220224-0954,2022-02-24 09:54:25Z,u01, 30,40,movements,el-ex, rt, d,219160.56143691667, -1.404430496194937, 0.45192139141642346, 0.4301180798984085, 0.3968282639980316, 0.060748834162950516, 0.1853935569524765, -0.8871889710426331, -0.43669483065605164, -0.14897489547729492, 0.011181771755218506, -0.028759300708770752, -0.027065515518188477, 0.3014337038933526, -0.5784896492147653, 0.7577498953534869,0.017396917732476258,-0.87939453125,-0.4609527587890625,-0.1753387451171875
20220224-0954,2022-02-24 09:54:25Z,u01, 31,40,movements,el-ex, rt, d,219160.5863829167, -1.4082027507651187, 0.4484085793865271, 0.44138458503675987, 0.3715319037437439, 0.013197691179811954, 0.21606718003749847, -0.889252781867981, -0.4335319995880127, -0.14587454497814178, -0.012175381183624268, -0.039047956466674805, -0.0066673606634140015, 0.3035102783172895, -0.5787436737880414, 0.7565994415025128,0.022237323240802465,-0.90142822265625,-0.4725799560546875,-0.1525421142578125
20220224-0954,2022-02-24 09:54:25Z,u01, 32,40,movements,el-ex, rt, d,219160.6113299167, -1.4116367736349937, 0.44367125218562437, 0.45193885923785787, 0.3121836483478546, 0.07822442799806595, 0.27726349234580994, -0.8917664885520935, -0.42925816774368286, -0.143143892288208, -0.015002429485321045, -0.053148478269577026, -0.00010536611080169678, 0.3049674431029643, -0.5791570700098969, 0.7555324758833373,0.02725293157447045,-0.913726806640625,-0.4836273193359375,-0.1428375244140625
20220224-0954,2022-02-24 09:54:25Z,u01, 33,40,movements,el-ex, rt, d,219160.63627591668, -1.4133289009937589, 0.43769648906958125, 0.46051605875909796, 0.22407299280166626, 0.05725156515836716, 0.28740862011909485, -0.8945244550704956, -0.4238542318344116, -0.1420343667268753, 0.03064805269241333, -0.037968337535858154, 0.002660810947418213, 0.3054122919319843, -0.5794015408364241, 0.7549709822369193,0.03218890692658882,-0.8638763427734375,-0.461822509765625,-0.139373779296875
20220224-0954,2022-02-24 09:54:25Z,u01, 34,40,movements,el-ex, rt, d,219160.66122291668, -1.4158667565556362, 0.4314164849050098, 0.46848871848675777, 0.314972460269928, 0.017700031399726868, 0.28985247015953064, -0.8974941968917847, -0.4181579053401947, -0.14017170667648315, -0.001919865608215332, -0.01418459415435791, -0.008555516600608826, 0.3056003732183104, -0.5801056435144424, 0.7541397074721268,0.03686641610134689,-0.8863372802734375,-0.4385833740234375,-0.149078369140625
20220224-0954,2022-02-24 09:54:25Z,u01, 35,40,movements,el-ex, rt, d,219160.68616891667, -1.4196266256346743, 0.42543279393392663, 0.4799039415084372, 0.4166224002838135, 0.06590777635574341, 0.3275790810585022, -0.9004724621772766, -0.41271504759788513, -0.13717064261436462, -0.040186166763305664, 0.030314505100250244, 0.0005284100770950317, 0.3069278603758402, -0.5806978301346694, 0.7528442840545865,0.04255460661732008,-0.9406585693359375,-0.3824005126953125,-0.1366424560546875
20220224-0954,2022-02-24 09:54:25Z,u01, 36,40,movements,el-ex, rt, d,219160.7111149167, -1.4221026165992, 0.4189374380233346, 0.4920224241723746, 0.31104323267936707, 0.11692988127470016, 0.29941022396087646, -0.9034414291381836, -0.40679001808166504, -0.13533493876457214, -0.01838785409927368, 0.008367776870727539, 0.005742266774177551, 0.30827342071095104, -0.5807753661138227, 0.7518507666913956,0.048866747172550296,-0.9273223876953125,-0.39300537109375,-0.135589599609375
20220224-0954,2022-02-24 09:54:25Z,u01, 37,40,movements,el-ex, rt, d,219160.7360619167, -1.4211917059216101, 0.4121454560551982, 0.4963169344248569, -0.047689203172922134, 0.07563763111829758, 0.3046979606151581, -0.9060291647911072, -0.40057605504989624, -0.13656651973724365, 0.012397944927215576, -0.005002647638320923, 0.01088009774684906, 0.3071674090133656, -0.5808312314575905, 0.7519906887012595,0.052853572667565685,-0.8936309814453125,-0.40557861328125,-0.1256866455078125
20220224-0954,2022-02-24 09:54:25Z,u01, 38,40,movements,el-ex, rt, d,219160.76100791668, -1.4191967304237727, 0.40411845316559025, 0.49537193088913606, -0.09229552000761032, 0.0737985223531723, 0.3094315528869629, -0.9089041352272034, -0.393208384513855, -0.13885487616062164, -0.0029459595680236816, 0.018864482641220093, -0.02981555461883545, 0.30407977273488684, -0.5814705951523406, 0.7525650861243376,0.05543811302338886,-0.9060821533203125,-0.3809356689453125,-0.166046142578125
20220224-0954,2022-02-24 09:54:25Z,u01, 39,40,movements,el-ex, rt, d,219160.78595391667, -1.4172185413403335, 0.39626312937056796, 0.49527699281443666, 0.020749177783727646, 0.08967901766300201, 0.3037793040275574, -0.911652147769928, -0.3859737515449524, -0.1411207616329193, -0.011871039867401123, 0.01542922854423523, -0.028312578797340393, 0.30128824535374255, -0.5819493184630773, 0.7531032162679673,0.05827702298087395,-0.92352294921875,-0.37054443359375,-0.16943359375
20220224-0954,2022-02-24 09:54:25Z,u01, 40,40,movements,el-ex, rt, d,219160.81090091667, -1.4167769535139823, 0.3888745097182531, 0.4999189813491543, 0.26832127571105957, 0.09211581200361252, 0.3407871127128601, -0.914382815361023, -0.3791472017765045, -0.14195695519447327, -0.006622612476348877, 0.012341082096099854, -0.04438318312168121, 0.30007472910332755, -0.5822170409810318, 0.7530411842489642,0.06251110429952328,-0.921875,-0.3647918701171875,-0.180999755859375
20220224-0954,2022-02-24 09:54:25Z,u01, 41,40,movements,el-ex, rt, d,219160.83584691669, -1.418736056185753, 0.3821660362560036, 0.5127609682396934, 0.5384731292724609, 0.13484111428260803, 0.33605650067329407, -0.9171526432037354, -0.3729311227798462, -0.14054740965366364, 0.0117112398147583, 0.009375184774398804, -0.04568588733673096, 0.30156258505310907, -0.5820535216224292, 0.7519832904158302,0.06924529099992294,-0.9054412841796875,-0.363555908203125,-0.1862335205078125
20220224-0954,2022-02-24 09:54:25Z,u01, 42,40,movements,el-ex, rt, d,219160.86079391668, -1.4211267561634313, 0.37501893397196157, 0.5278199743186558, 0.4061509370803833, 0.11746704578399658, 0.3997413218021393, -0.9200982451438904, -0.3662901520729065, -0.13874828815460205, 0.033837080001831055, 0.0017881393432617188, 0.02001987397670746, 0.30357203772886676, -0.5817816347845458, 0.7506420160220655,0.0768825451365091,-0.88397216796875,-0.3610076904296875,-0.13232421875
20220224-0954,2022-02-24 09:54:25Z,u01, 43,40,movements,el-ex, rt, d,219160.88573991667, -1.420273977307718, 0.36437829951556255, 0.5337274121290801, -0.07856915146112442, 0.10863034427165985, 0.5470579862594604, -0.9237808585166931, -0.3563684821128845, -0.14010941982269287, 0.02532804012298584, -0.05168205499649048, 0.03807413578033447, 0.3015983536638648, -0.5822230863780011, 0.750475369056772,0.08271382006492112,-0.8984527587890625,-0.408050537109375,-0.1020355224609375
20220224-0954,2022-02-24 09:54:25Z,u01, 44,40,movements,el-ex, rt, d,219160.9106859167, -1.4164772649567772, 0.3495203195920737, 0.5302864500971979, -0.3046400547027588, 0.11451199650764465, 0.5480130910873413, -0.9283722639083862, -0.3424471616744995, -0.14441373944282532, -0.001895308494567871, -0.06479471921920776, -0.0037031322717666626, 0.29530718233386, -0.583598150040326, 0.7514419863146735,0.08684508508765032,-0.917510986328125,-0.4169769287109375,-0.1459197998046875
20220224-0954,2022-02-24 09:54:25Z,u01, 45,40,movements,el-ex, rt, d,219160.9356329167, -1.410635519240386, 0.33520256716464275, 0.5240213542661372, -0.28974834084510803, 0.1806686371564865, 0.5182389616966248, -0.932257890701294, -0.32896047830581665, -0.1506010890007019, -0.022194862365722656, -0.035755157470703125, 0.019192561507225037, 0.28824650807325625, -0.5844770343455256, 0.7531267275417158,0.09000510103265202,-0.9544525146484375,-0.364715576171875,-0.13140869140625
20220224-0954,2022-02-24 09:54:25Z,u01, 46,40,movements,el-ex, rt, d,219160.96057891668, -1.4047605566508747, 0.32187584907889444, 0.5213859856667443, -0.06353733688592911, 0.20674997568130493, 0.5182154178619385, -0.9355977177619934, -0.3163466155529022, -0.15678609907627106, 0.0013934969902038574, -0.005613833665847778, -0.0007454156875610352, 0.28254669236646945, -0.5846146741540696, 0.7546683684109325,0.09417440154818696,-0.938018798828125,-0.327484130859375,-0.1503143310546875
20220224-0954,2022-02-24 09:54:26Z,u01, 47,40,movements,el-ex, rt, d,219160.98552491667, -1.4006275469723826, 0.30899442183532205, 0.5239685704913737, 0.04167676344513893, 0.18777428567409515, 0.5358307957649231, -0.9388801455497742, -0.3041008412837982, -0.16132833063602448, -0.0051354169845581055, -0.016623646020889282, -0.005663678050041199, 0.27857525954130846, -0.5845781924922001, 0.755437265581862,0.09989376068719347,-0.9440155029296875,-0.3207244873046875,-0.1669921875
20220224-0954,2022-02-24 09:54:26Z,u01, 48,40,movements,el-ex, rt, d,219161.01047191667, -1.396114793288981, 0.29617005702886573, 0.5258438585690884, -0.11675062775611877, 0.23444552719593048, 0.49276095628738403, -0.9419060349464417, -0.29185914993286133, -0.1662277728319168, -0.05324190855026245, -0.00809815526008606, -0.003754928708076477, 0.2743676406304949, -0.5844728466026706, 0.7563159309739214,0.10535824880251105,-0.994964599609375,-0.31085205078125,-0.172088623046875
20220224-0954,2022-02-24 09:54:26Z,u01, 49,40,movements,el-ex, rt, d,219161.0354179167, -1.389783041817822, 0.2836466932098911, 0.5236670331714119, -0.20647887885570526, 0.22152206301689148, 0.43763917684555054, -0.9443560242652893, -0.27985846996307373, -0.17283280193805695, -0.03631126880645752, 0.009732067584991455, -0.01868005096912384, 0.26895185985317555, -0.5841647879341807, 0.7579217405418381,0.10941300171156759,-0.9806671142578125,-0.2701263427734375,-0.1915130615234375
20220224-0954,2022-02-24 09:54:26Z,u01, 50,40,movements,el-ex, rt, d,219161.0603649167, -1.3835809004477715, 0.2734088734786706, 0.5205085666027215, -0.15326425433158875, 0.20808695256710052, 0.3467654883861542, -0.9460315108299255, -0.27001523971557617, -0.1792103499174118, -0.027479350566864014, 0.04366636276245117, -0.0152779221534729, 0.26403630560146557, -0.5836776951504553, 0.7595994085828706,0.11231231777208733,-0.976715087890625,-0.2304840087890625,-0.193115234375
20220224-0954,2022-02-24 09:54:26Z,u01, 51,40,movements,el-ex, rt, d,219161.08531091668, -1.3788118664218687, 0.2652399104496539, 0.5197486470345553, -0.033884741365909576, 0.1698911041021347, 0.2856094539165497, -0.9472997784614563, -0.26214081048965454, -0.18413469195365906, -0.04150038957595825, 0.036325931549072266, -0.0008931159973144531, 0.2606179818026739, -0.5831045514462059, 0.7607792935627128,0.11524925628861898,-0.988800048828125,-0.2258148193359375,-0.185028076171875
20220224-0954,2022-02-24 09:54:26Z,u01, 52,40,movements,el-ex, rt, d,219161.11025691667, -1.3746788548830886, 0.25873679198556926, 0.5209851966474645, 0.017240796238183975, 0.18155021965503693, 0.23897968232631683, -0.9481826424598694, -0.2558595836162567, -0.1883765161037445, -0.053740084171295166, 0.040725886821746826, -0.015511155128479004, 0.2584005189693078, -0.5822721982457929, 0.7617012900026106,0.11831959532608674,-1.007080078125,-0.2194061279296875,-0.20269775390625
20220224-0954,2022-02-24 09:54:26Z,u01, 53,40,movements,el-ex, rt, d,219161.13520391667, -1.3707367492347144, 0.2536851852151475, 0.5217652192942157, -0.047378942370414734, 0.1330852210521698, 0.17726092040538788, -0.9486871957778931, -0.2509728968143463, -0.19236725568771362, -0.029553771018981934, 0.023739010095596313, 0.0025024116039276123, 0.2565722021689131, -0.5813665571448383, 0.762633383969984,0.12072259649301742,-0.978240966796875,-0.22723388671875,-0.1898651123046875
20220224-0954,2022-02-24 09:54:26Z,u01, 54,40,movements,el-ex, rt, d,219161.1601499167, -1.3681155872874984, 0.24949255479085553, 0.5209060291817884, -0.046446871012449265, 0.05860532075166702, 0.15058183670043945, -0.9492022395133972, -0.24691225588321686, -0.19506338238716125, -0.038270413875579834, -0.008336782455444336, -0.006016671657562256, 0.25464971704167544, -0.5810523459274983, 0.7633052119577091,0.12205325046981536,-0.9810638427734375,-0.25146484375,-0.1981048583984375
20220224-0954,2022-02-24 09:54:26Z,u01, 55,40,movements,el-ex, rt, d,219161.18509591668, -1.3665343451344913, 0.2464277201176673, 0.5214317432649188, 0.018812958151102066, 0.08534905314445496, 0.09852796792984009, -0.9496290683746338, -0.24394115805625916, -0.19671662151813507, -0.07155019044876099, 0.010252818465232849, 0.005508914589881897, 0.2535971245000531, -0.5808013315395447, 0.7636266683708007,0.12342076809508262,-1.02117919921875,-0.2336883544921875,-0.1912078857421875
20220224-0954,2022-02-24 09:54:26Z,u01, 56,40,movements,el-ex, rt, d,219161.21004291667, -1.3644395246437042, 0.24426827815257188, 0.5220554519587156, -0.03452456369996071, 0.08998002111911774, 0.055381566286087036, -0.94972825050354, -0.24184638261795044, -0.19881296157836914, -0.051385700702667236, -0.01085442304611206, 0.023337125778198242, 0.25286649977112935, -0.5802172464083815, 0.7641206689721325,0.12460388723767968,-1.0059661865234375,-0.25140380859375,-0.172760009765625
20220224-0954,2022-02-24 09:54:26Z,u01, 57,40,movements,el-ex, rt, d,219161.2349889167, -1.3626091132374802, 0.24295073433855577, 0.5196471792988373, -0.1459859162569046, 0.007915911264717579, 0.040118053555488586, -0.9496736526489258, -0.24056774377822876, -0.20061668753623962, -0.02711772918701172, -0.014742285013198853, 0.018243879079818726, 0.25157645922297633, -0.5800008109461743, 0.7647553497118108,0.12432839369871101,-0.9767913818359375,-0.25531005859375,-0.182373046875
20220224-0954,2022-02-24 09:54:26Z,u01, 58,40,movements,el-ex, rt, d,219161.2599359167, -1.3623172150627938, 0.2412863338766622, 0.5170031035570907, -0.07632464170455933, -0.005694372579455376, 0.04480395093560219, -0.9500055909156799, -0.2389518916606903, -0.20097652077674866, -0.047186970710754395, -0.025696590542793274, 0.004519790410995483, 0.25018716371736116, -0.5804464878646023, 0.764946376885587,0.12387673756057702,-0.99285888671875,-0.2603607177734375,-0.197998046875
20220224-0954,2022-02-24 09:54:26Z,u01, 59,40,movements,el-ex, rt, d,219161.284882125, -1.362216087454108, 0.24010126515478525, 0.5153926449963274, -0.09784890711307526, 0.005899031646549702, 0.021326454356312752, -0.9502617716789246, -0.2378009855747223, -0.20113110542297363, -0.041575074195861816, -0.014823570847511292, 0.008748501539230347, 0.2492829483148753, -0.5807688535632635, 0.7650343562245335,0.12364562164785742,-0.9918365478515625,-0.25262451171875,-0.1923828125
20220224-0954,2022-02-24 09:54:26Z,u01, 60,40,movements,el-ex, rt, d,219161.30982812503, -1.3618114361570137, 0.23889579171567113, 0.5119096691631528, -0.19040094316005707, -0.01622624322772026, 0.027375560253858566, -0.9504598379135132, -0.236629918217659, -0.2015748918056488, -0.019770324230194092, -0.02466157078742981, 0.028372615575790405, 0.24780810665205996, -0.5812088217992396, 0.7653246911492494,0.1227419455196892,-0.971923828125,-0.2540740966796875,-0.1718597412109375
20220224-0954,2022-02-24 09:54:26Z,u01, 61,40,movements,el-ex, rt, d,219161.33477512503, -1.3615185534342664, 0.23758268744950056, 0.5074879609835211, -0.14506636559963226, -0.026906318962574005, 0.011587274260818958, -0.9507039189338684, -0.23535390198230743, -0.2019176483154297, -0.021082699298858643, -0.02523571252822876, 0.02322220802307129, 0.24602675281081882, -0.5818178504005808, 0.7656351151736234,0.12149810770655989,-0.9717864990234375,-0.260589599609375,-0.1786956787109375
20220224-0954,2022-02-24 09:54:26Z,u01, 62,40,movements,el-ex, rt, d,219161.35972112502, -1.3616518833463311, 0.23646732112254598, 0.505771185096637, -0.023959072306752205, 0.024350546300411224, 0.05321627855300903, -0.9509870409965515, -0.23426972329616547, -0.20184527337551117, -0.029466569423675537, -0.02984468638896942, 0.02598792314529419, 0.24512905114024586, -0.5822277155739592, 0.7656627271353049,0.12117477976538629,-0.9780120849609375,-0.2589569091796875,-0.176544189453125
20220224-0954,2022-02-24 09:54:26Z,u01, 63,40,movements,el-ex, rt, d,219161.384667125, -1.360598149776254, 0.2350576082895595, 0.5050349622017285, -0.0760745108127594, 0.05106811225414276, 0.055696144700050354, -0.9510958194732666, -0.232899010181427, -0.2029159516096115, -0.015228092670440674, -0.04870195686817169, 0.024922385811805725, 0.2443371310822131, -0.5821008448216679, 0.7659663449180104,0.12146437313204797,-0.9663238525390625,-0.2816009521484375,-0.1779937744140625
20220224-0954,2022-02-24 09:54:26Z,u01, 64,40,movements,el-ex, rt, d,219161.409614125, -1.3600539450865334, 0.2339460709184639, 0.5029473269816802, -0.09854549169540405, 0.020584702491760254, 0.03696100786328316, -0.9512377381324768, -0.23181790113449097, -0.20348751544952393, -0.030253350734710693, -0.04010897874832153, 0.012997061014175415, 0.24329106066893857, -0.5822934826650715, 0.7662136877986585,0.1210798253513635,-0.9765777587890625,-0.273284912109375,-0.1857452392578125
20220224-0954,2022-02-24 09:54:26Z,u01, 65,40,movements,el-ex, rt, d,219161.43456012502, -1.3595979266392553, 0.23281381352946762, 0.5016069595734165, -0.03031027875840664, 0.022417955100536346, 0.04415334016084671, -0.9514009356498718, -0.23071633279323578, -0.20397618412971497, -0.04469287395477295, -0.029140859842300415, -0.009387239813804626, 0.24245993525226758, -0.5824303282867848, 0.7663894250417651,0.12097681114684766,-0.99609375,-0.259857177734375,-0.2133636474609375
20220224-0954,2022-02-24 09:54:26Z,u01, 66,40,movements,el-ex, rt, d,219161.45950712502, -1.3600779036069794, 0.2321454884334996, 0.5017947445285563, -0.011475171893835068, 0.0020549604669213295, 0.03144107758998871, -0.9516493082046509, -0.2300659865140915, -0.20355170965194702, -0.058772504329681396, -0.041296303272247314, -0.013336464762687683, 0.242299723709244, -0.5826791460441364, 0.7662156280240344,0.12120022115555673,-1.0043792724609375,-0.27001953125,-0.2220001220703125
20220224-0954,2022-02-24 09:54:26Z,u01, 67,40,movements,el-ex, rt, d,219161.484453125, -1.3602740692609603, 0.23198388948332443, 0.501237783357725, -0.018853195011615753, -0.019903603941202164, -0.00911380909383297, -0.9517255425453186, -0.22990871965885162, -0.2033727914094925, -0.0629381537437439, -0.028224200010299683, -0.019786745309829712, 0.24209032763175092, -0.582842926446804, 0.7661867077990011,0.12101378920877218,-1.0146636962890625,-0.2581329345703125,-0.2231597900390625
20220224-0954,2022-02-24 09:54:26Z,u01, 68,40,movements,el-ex, rt, d,219161.509399125, -1.3613502218705034, 0.23312970355583226, 0.500962937763, 0.002668144181370735, -0.06319528073072433, -0.06975758075714111, -0.9516856670379639, -0.23102368414402008, -0.20229358971118927, -0.07863366603851318, -0.0027867555618286133, -0.025748789310455322, 0.24249328542198434, -0.5831382424198843, 0.7659284137142252,0.12041853496126009,-1.02838134765625,-0.2332305908203125,-0.229736328125
20220224-0954,2022-02-24 09:54:26Z,u01, 69,40,movements,el-ex, rt, d,219161.534346125, -1.3632736261706935, 0.2356345448129703, 0.5005604796651214, 0.018719714134931564, -0.10115884989500046, -0.13433197140693665, -0.9515036940574646, -0.23346003890037537, -0.20034286379814148, -0.09283840656280518, -0.013289853930473328, -0.026906058192253113, 0.24340444275885603, -0.5835947595086908, 0.765475275796458,0.11924380840392501,-1.044342041015625,-0.2467498779296875,-0.2272491455078125
20220224-0954,2022-02-24 09:54:26Z,u01, 70,40,movements,el-ex, rt, d,219161.55929212502, -1.3659863497532554, 0.2402951582903633, 0.5008945053338544, 0.09013590961694717, -0.11430460959672928, -0.2203570157289505, -0.9509681463241577, -0.23798932135105133, -0.19753757119178772, -0.09023076295852661, 0.014539539813995361, -0.024996429681777954, 0.24535910140878558, -0.5839778482306238, 0.7648173484995524,0.11757336398170531,-1.04150390625,-0.224578857421875,-0.222930908203125
20220224-0954,2022-02-24 09:54:26Z,u01, 71,40,movements,el-ex, rt, d,219161.584238125, -1.3698944034757785, 0.246602511445962, 0.5029085682598989, 0.1591927409172058, -0.15018059313297272, -0.26707524061203003, -0.9502428770065308, -0.24411067366600037, -0.19351619482040405, -0.10096567869186401, -0.012679517269134521, -0.01957261562347412, 0.2484656577547127, -0.5843857605161047, 0.7637618260436977,0.1158708076571221,-1.05120849609375,-0.2567901611328125,-0.2130889892578125
20220224-0954,2022-02-24 09:54:26Z,u01, 72,40,movements,el-ex, rt, d,219161.609185125, -1.3737894685885141, 0.25519457766741543, 0.504027882431003, 0.04828040301799774, -0.14722007513046265, -0.37287771701812744, -0.9488975405693054, -0.2524336874485016, -0.1893959492444992, -0.10299766063690186, -0.03435525298118591, 0.013202905654907227, 0.25212525857943263, -0.5845809425057088, 0.7628290819485068,0.1130923538018192,-1.0566558837890625,-0.287933349609375,-0.182098388671875
20220224-0954,2022-02-24 09:54:26Z,u01, 73,40,movements,el-ex, rt, d,219161.634131125, -1.37587786365352, 0.26515088397920616, 0.5008311140998264, -0.12337647378444672, -0.08607663214206696, -0.42746299505233765, -0.9467782974243164, -0.2620548903942108, -0.18691778182983398, -0.09272682666778564, 0.010864675045013428, 0.06837248802185059, 0.25490009424789295, -0.5844373779883761, 0.7626909276022202,0.10845053830015466,-1.0395050048828125,-0.251190185546875,-0.1185455322265625
20220224-0954,2022-02-24 09:54:26Z,u01, 74,40,movements,el-ex, rt, d,219161.65907812503, -1.3746010952741419, 0.2735408619035481, 0.49402877162543885, -0.2569424510002136, 0.010094511322677135, -0.3815896511077881, -0.9443491697311401, -0.2701423466205597, -0.18769124150276184, -0.07966828346252441, -0.031920671463012695, 0.058190107345581055, 0.255871510343675, -0.5836815474849228, 0.7636516248186044,0.10335349185428355,-1.0279541015625,-0.2844696044921875,-0.1221923828125
20220224-0954,2022-02-24 09:54:26Z,u01, 75,40,movements,el-ex, rt, d,219161.68402412502, -1.3708788906652611, 0.28216858075904216, 0.48322887670167153, -0.3979452848434448, 0.002928410656750202, -0.4569273293018341, -0.9413245916366577, -0.27843913435935974, -0.19073502719402313, -0.056676626205444336, -0.041491925716400146, 0.009613394737243652, 0.2556516479236839, -0.5824729371291895, 0.7654841434820984,0.09696196581252253,-0.9980010986328125,-0.3199310302734375,-0.181121826171875
20220224-0954,2022-02-24 09:54:26Z,u01, 76,40,movements,el-ex, rt, d,219161.708970125, -1.3678646144676039, 0.29278395985519623, 0.47305230169597595, -0.15401650965213776, 0.001964080147445202, -0.5231966376304626, -0.9377973675727844, -0.2886188328266144, -0.19296497106552124, -0.07183104753494263, 0.02514532208442688, -0.028424546122550964, 0.25638960592279825, -0.5811900576279849, 0.7670514296817199,0.09008172126240999,-1.0029754638671875,-0.262237548828125,-0.22406005859375
20220224-0954,2022-02-24 09:54:26Z,u01, 77,40,movements,el-ex, rt, d,219161.733917125, -1.3665408030259931, 0.3054838398252548, 0.47003383765471696, 0.13601264357566833, 0.0016199992969632149, -0.5194037556648254, -0.9338762760162354, -0.3007546365261078, -0.19344712793827057, -0.07248669862747192, -0.0069999098777771, -0.018893957138061523, 0.26004976555605885, -0.5793535655664623, 0.767780719103715,0.08506700284285751,-1.0063629150390625,-0.3077545166015625,-0.21234130859375
20220224-0954,2022-02-24 09:54:26Z,u01, 78,40,movements,el-ex, rt, d,219161.75886312503, -1.3684186454391638, 0.3199183259060792, 0.4737860316102713, 0.35287731885910034, -0.07402016222476959, -0.5470375418663025, -0.9298880100250244, -0.3144890367984772, -0.19080057740211487, -0.049939870834350586, 0.009313255548477173, 0.0008441507816314697, 0.2664209090275982, -0.5775981387682368, 0.7672868153434361,0.08167743600616606,-0.9793853759765625,-0.3067779541015625,-0.1971282958984375
20220224-0954,2022-02-24 09:54:26Z,u01, 79,40,movements,el-ex, rt, d,219161.78380912502, -1.3732608602582401, 0.3342628122469643, 0.48068365236504995, 0.35967954993247986, -0.12954920530319214, -0.5033270716667175, -0.9262821674346924, -0.3280728757381439, -0.18539120256900787, -0.06167882680892944, -0.04077786207199097, -0.009463310241699219, 0.2737540437056678, -0.5765094270216403, 0.7657929385127378,0.07910100854780794,-0.9879608154296875,-0.3688507080078125,-0.194854736328125
20220224-0954,2022-02-24 09:54:26Z,u01, 80,40,movements,el-ex, rt, d,219161.808756125, -1.3783572016786407, 0.3474855050026724, 0.4841586628897385, 0.060342662036418915, -0.20968025922775269, -0.4779346287250519, -0.9228760600090027, -0.34053468704223633, -0.17982274293899536, -0.045965611934661865, -0.04815247654914856, -0.028795242309570312, 0.27967030191980924, -0.5760843251342224, 0.7643370665696236,0.0755011676382566,-0.972930908203125,-0.395477294921875,-0.2068939208984375
20220224-0954,2022-02-24 09:54:26Z,u01, 81,40,movements,el-ex, rt, d,219161.833702125, -1.383408337426064, 0.3588931380300403, 0.48116736925245446, -0.08388396352529526, -0.2557069957256317, -0.476215660572052, -0.9198957085609436, -0.35123810172080994, -0.17442379891872406, -0.06660032272338867, -0.008838802576065063, -0.01643286645412445, 0.28304299591534826, -0.5767796503234888, 0.7630944581450052,0.06999117779447528,-0.9864959716796875,-0.360076904296875,-0.19085693359375
20220224-0954,2022-02-24 09:54:26Z,u01, 82,40,movements,el-ex, rt, d,219161.858649125, -1.3879232498030492, 0.36976765974125303, 0.47653846840278713, -0.07211298495531082, -0.25228816270828247, -0.4582967162132263, -0.916863739490509, -0.3613988161087036, -0.1695641428232193, -0.06185042858123779, -0.002309739589691162, -0.024313807487487793, 0.28570632713882466, -0.5775723561137203, 0.7620203905241103,0.06408659291742685,-0.9907684326171875,-0.3682098388671875,-0.1913299560546875
20220224-0954,2022-02-24 09:54:26Z,u01, 83,40,movements,el-ex, rt, d,219161.88359512502, -1.3941616297845547, 0.3809366138288092, 0.473914417176257, 0.056964773684740067, -0.322702556848526, -0.4403485059738159, -0.9138728976249695, -0.3717901110649109, -0.16312165558338165, -0.036780357360839844, 0.019876629114151, -0.04247504472732544, 0.28907565141786545, -0.5786833680353247, 0.7603476781894971,0.05858635116117694,-0.950653076171875,-0.3519134521484375,-0.205596923828125
20220224-0954,2022-02-24 09:54:26Z,u01, 84,40,movements,el-ex, rt, d,219161.908541125, -1.4029011898722061, 0.39218887484714227, 0.4755533955890662, 0.19086378812789917, -0.31548792123794556, -0.4254045784473419, -0.911081075668335, -0.3822120130062103, -0.15441979467868805, -0.05058896541595459, 0.01078253984451294, -0.04044997692108154, 0.2937406113891315, -0.5800918543131305, 0.7578014511948681,0.05428632534068267,-0.9626617431640625,-0.369415283203125,-0.1977081298828125
20220224-0954,2022-02-24 09:54:26Z,u01, 85,40,movements,el-ex, rt, d,219161.933488125, -1.411884391987983, 0.4031191678370494, 0.47856318862596997, 0.12688885629177094, -0.3214561939239502, -0.40680253505706787, -0.9082521200180054, -0.392289400100708, -0.14555944502353668, -0.027188122272491455, 0.016831517219543457, -0.021386757493019104, 0.2986541184086045, -0.5814000306540849, 0.755133471969347,0.050531520890636894,-0.9354400634765625,-0.375457763671875,-0.1669464111328125
20220224-0954,2022-02-24 09:54:26Z,u01, 86,40,movements,el-ex, rt, d,219161.958434125, -1.4191424183920438, 0.4128252482149043, 0.4768855759726651, -0.13833807408809662, -0.3149310350418091, -0.36257606744766235, -0.90547776222229, -0.4011988341808319, -0.1383817493915558, -0.01714491844177246, 0.02432200312614441, 0.018615737557411194, 0.3016975931639422, -0.5829131063646532, 0.7530661774338968,0.045630882389195104,-0.92333984375,-0.372161865234375,-0.125091552734375
20220224-0954,2022-02-24 09:54:27Z,u01, 87,40,movements,el-ex, rt, d,219161.98338012502, -1.4224863008548652, 0.4202842612312633, 0.46802977648723804, -0.45875605940818787, -0.24145610630512238, -0.3266911208629608, -0.902950644493103, -0.4080199897289276, -0.13490721583366394, 0.0010187625885009766, 0.050598084926605225, 0.05992579460144043, 0.3017560015394572, -0.5843712057135948, 0.7522670930811427,0.039343338085532864,-0.9019317626953125,-0.357421875,-0.074981689453125
20220224-0954,2022-02-24 09:54:27Z,u01, 88,40,movements,el-ex, rt, d,219162.00832712502, -1.4194930272885218, 0.4254264308480316, 0.4460985189207668, -1.0859330892562866, -0.26305508613586426, -0.29033541679382324, -0.9004566669464111, -0.41270923614501953, -0.1372913271188736, 0.003606081008911133, 0.06348133087158203, 0.1050039678812027, 0.29706493029254744, -0.5857531602603472, 0.7534951318393235,0.02984594940422447,-0.8934173583984375,-0.3440093994140625,-0.0177154541015625
20220224-0954,2022-02-24 09:54:27Z,u01, 89,40,movements,el-ex, rt, d,219162.033273125, -1.4113417601852165, 0.42673307086549767, 0.41178523403097417, -1.221593976020813, -0.2038394957780838, -0.22956909239292145, -0.8987746834754944, -0.4138990640640259, -0.14454083144664764, -0.016966521739959717, 0.06084108352661133, 0.01662658154964447, 0.2873582617486896, -0.587498778630821, 0.756279625479067,0.017657347958091762,-0.915740966796875,-0.353057861328125,-0.1279144287109375
20220224-0954,2022-02-24 09:54:27Z,u01, 90,40,movements,el-ex, rt, d,219162.058220125, -1.4046918285511083, 0.42853019596810654, 0.38540058826853063, -0.5514506101608276, -0.16462478041648865, -0.21865525841712952, -0.8970585465431213, -0.4155343472957611, -0.15039114654064178, 0.019418656826019287, 0.11269310116767883, -0.054457902908325195, 0.2801902224776363, -0.5884707872163034, 0.7583741723302949,0.008023936990218028,-0.88238525390625,-0.3079376220703125,-0.2002716064453125
20220224-0954,2022-02-24 09:54:27Z,u01, 91,40,movements,el-ex, rt, d,219162.08316612503, -1.40658887143219, 0.4342418807812223, 0.38117446643379693, 0.2788519263267517, -0.14281608164310455, -0.27442339062690735, -0.8949859738349915, -0.42072275280952454, -0.14829868078231812, 0.01960444450378418, 0.11638620495796204, -0.04652528464794159, 0.2809664261443999, -0.5889894094547222, 0.7577142665627132,0.004296999424306058,-0.8753814697265625,-0.3043365478515625,-0.19482421875
20220224-0954,2022-02-24 09:54:27Z,u01, 92,40,movements,el-ex, rt, d,219162.10811212502, -1.41339513889749, 0.4432445495151512, 0.38891994654731615, 0.24690288305282593, -0.15582755208015442, -0.3413026034832001, -0.8921977281570435, -0.4288727343082428, -0.14160433411598206, 0.0051430463790893555, 0.014810115098953247, -0.029629603028297424, 0.2864236374976037, -0.5892022822458026, 0.755507346468979,0.0033244907970215176,-0.886627197265625,-0.39056396484375,-0.171356201171875
20220224-0954,2022-02-24 09:54:27Z,u01, 93,40,movements,el-ex, rt, d,219162.13305912502, -1.4178723464497862, 0.45136390115810937, 0.3888061870676397, -0.16967405378818512, -0.20743875205516815, -0.2994898557662964, -0.8893518447875977, -0.4361932575702667, -0.13707341253757477, 0.0013053417205810547, -0.018625587224960327, -0.025508776307106018, 0.28923168394073706, -0.5897527682828582, 0.7540138551116362,-2.0225383565941613e-05,-0.8880462646484375,-0.4548187255859375,-0.1625823974609375
20220224-0954,2022-02-24 09:54:27Z,u01, 94,40,movements,el-ex, rt, d,219162.158005125, -1.4191495154936002, 0.45700510861890975, 0.3799851386429692, -0.32858818769454956, -0.20360806584358215, -0.25499507784843445, -0.8870794773101807, -0.44126254320144653, -0.13556353747844696, 0.005060374736785889, 0.011071443557739258, -0.01577286422252655, 0.2885948129609376, -0.5907040388936488, 0.7534938011659913,-0.005378103466919915,-0.8826446533203125,-0.4343719482421875,-0.1537933349609375
20220224-0954,2022-02-24 09:54:27Z,u01, 95,40,movements,el-ex, rt, d,219162.18295112503, -1.419604885722844, 0.4620876203512406, 0.3702057370898573, -0.2983416020870209, -0.18544317781925201, -0.2586238980293274, -0.8849124908447266, -0.445817768573761, -0.13482004404067993, -0.011693954467773438, 0.009523212909698486, 0.008691087365150452, 0.2874763223521462, -0.59156347447486, 0.7531889104223489,-0.010793262414187432,-0.8966064453125,-0.4362945556640625,-0.126129150390625
20220224-0954,2022-02-24 09:54:27Z,u01, 96,40,movements,el-ex, rt, d,219162.20789812502, -1.4206240852953242, 0.4669197802764722, 0.36392392471430685, -0.07262077927589417, -0.12108980864286423, -0.23048926889896393, -0.8829092383384705, -0.4501379132270813, -0.13359422981739044, -0.019968688488006592, 0.01732233166694641, -0.00944143533706665, 0.28729763772945194, -0.592168009987094, 0.7527121651207207,-0.014888562793206273,-0.902679443359375,-0.4326324462890625,-0.1457672119140625
20220224-0954,2022-02-24 09:54:27Z,u01, 97,40,movements,el-ex, rt, d,219162.232844125, -1.4226549218064848, 0.472696062026776, 0.3625240801879128, 0.0332820788025856, -0.10385942459106445, -0.2230745106935501, -0.8805921673774719, -0.4552883505821228, -0.13141490519046783, -0.0186539888381958, -0.0005984306335449219, -0.00818750262260437, 0.28888102374923935, -0.592317735113303, 0.7519292422587444,-0.017602192284568496,-0.8992462158203125,-0.4558868408203125,-0.1396026611328125
20220224-0954,2022-02-24 09:54:27Z,u01, 98,40,movements,el-ex, rt, d,219162.257790125, -1.4250051715082366, 0.4782553704476642, 0.3641013426784551, 0.15405313670635223, -0.03255907818675041, -0.20447199046611786, -0.8783807754516602, -0.4602310061454773, -0.12897524237632751, -0.028586387634277344, 0.006358325481414795, -0.018027648329734802, 0.29126088037283, -0.592181964923847, 0.7510791631149976,-0.019175727051508218,-0.9119110107421875,-0.456695556640625,-0.1488037109375
20220224-0954,2022-02-24 09:54:27Z,u01, 99,40,movements,el-ex, rt, d,219162.282737125, -1.4285068923837936, 0.48362020408189466, 0.36866063708108204, 0.2050071656703949, -0.10090078413486481, -0.16818076372146606, -0.8763702511787415, -0.46498724818229675, -0.1255466490983963, -0.0070525407791137695, 0.02940988540649414, -0.002459093928337097, 0.29443749183092893, -0.5920584730112586, 0.7499223465712302,-0.019741914558234652,-0.8834228515625,-0.435577392578125,-0.1280059814453125
20220224-0954,2022-02-24 09:54:27Z,u01, 100,40,movements,el-ex, rt, d,219162.30768250002, -1.432687478142057, 0.4880499253941362, 0.3721880113660841, 0.04648749530315399, -0.0766027644276619, -0.14131972193717957, -0.8748388886451721, -0.46890437602996826, -0.12159709632396698, -0.04738718271255493, 0.026353657245635986, 0.031234800815582275, 0.2969707697368352, -0.5924608124766023, 0.7485843441502803,-0.020498437375539524,-0.9206695556640625,-0.44024658203125,-0.0967254638671875
20220224-0954,2022-02-24 09:54:27Z,u01, 101,40,movements,el-ex, rt, d,219162.33262950002, -1.4329686665425583, 0.4901871171096821, 0.3706420906733088, -0.09010157734155655, -0.03267698734998703, -0.06903020292520523, -0.8738784193992615, -0.4707909822463989, -0.12121313065290451, -0.0039141178131103516, -0.001071929931640625, 0.016354963183403015, 0.2972469422744099, -0.5924843379329535, 0.7484186051707075,-0.02182394874705562,-0.8777923583984375,-0.47186279296875,-0.1048583984375
20220224-0954,2022-02-24 09:54:27Z,u01, 102,40,movements,el-ex, rt, d,219162.3575755, -1.43171615654695, 0.4905068965523787, 0.36758776814439037, -0.04969310015439987, -0.05963284149765968, -0.0867166593670845, -0.8735767602920532, -0.47107309103012085, -0.12228669971227646, 0.021937847137451172, 0.031741976737976074, 0.035388171672821045, 0.29646651105463473, -0.5924223656458889, 0.748745395868181,-0.02288671932711689,-0.849609375,-0.451751708984375,-0.0973968505859375
20220224-0954,2022-02-24 09:54:27Z,u01, 103,40,movements,el-ex, rt, d,219162.38252150003, -1.4330555840567216, 0.49105846786008095, 0.3678470903212646, 0.09596240520477295, -0.04561282694339752, -0.018687739968299866, -0.873482346534729, -0.4715595543384552, -0.12108080834150314, 0.004982352256774902, 0.03329649567604065, 0.04072825610637665, 0.296718268997475, -0.59280508017499, 0.7483339833212527,-0.02317019365069889,-0.868499755859375,-0.438262939453125,-0.080352783203125
20220224-0954,2022-02-24 09:54:27Z,u01, 104,40,movements,el-ex, rt, d,219162.40746850002, -1.4353090654794547, 0.4906346404356489, 0.3708453641237216, 0.07362627238035202, 0.03782334178686142, 0.037615347653627396, -0.8739509582519531, -0.47118574380874634, -0.11913911998271942, 0.027942419052124023, -0.020696699619293213, -0.027116134762763977, 0.29743563290774466, -0.5932642632257262, 0.7477131784316465,-0.022243605575237413,-0.862548828125,-0.4873046875,-0.1386871337890625
20220224-0954,2022-02-24 09:54:27Z,u01, 105,40,movements,el-ex, rt, d,219162.4324145, -1.4349304386511805, 0.48955667119246954, 0.36954893167810643, -0.2750794589519501, -0.050689343363046646, 0.04331251233816147, -0.8744083642959595, -0.4702346920967102, -0.11953871697187424, 0.0326266884803772, -0.017100602388381958, 0.01652681827545166, 0.2966838455701395, -0.593472270559201, 0.7478445307353516,-0.022316034919485417,-0.8417816162109375,-0.487335205078125,-0.1030120849609375
20220224-0954,2022-02-24 09:54:27Z,u01, 106,40,movements,el-ex, rt, d,219162.4573605, -1.4293435677242456, 0.4866411150253596, 0.354772372012737, -0.7687066197395325, 0.02522186189889908, 0.03383691981434822, -0.8750805854797363, -0.467659592628479, -0.12461480498313904, -0.06408274173736572, -0.00931498408317566, 0.03576314449310303, 0.29135672113708955, -0.5939729434469108, 0.7494186030051836,-0.026064563057107637,-0.942474365234375,-0.497589111328125,-0.0794677734375
20220224-0954,2022-02-24 09:54:27Z,u01, 107,40,movements,el-ex, rt, d,219162.4823075, -1.4205721528901656, 0.4829820929162932, 0.3375315255536471, -0.29293742775917053, 0.022268950939178467, 0.07622698694467545, -0.875639796257019, -0.46442222595214844, -0.13254080712795258, -0.007218539714813232, 0.10173603892326355, -0.016247376799583435, 0.28508625607101173, -0.5936795654660295, 0.7519083963484795,-0.03007070013509211,-0.8828582763671875,-0.3626861572265625,-0.1487884521484375
20220224-0954,2022-02-24 09:54:27Z,u01, 108,40,movements,el-ex, rt, d,219162.50725350002, -1.422024881588156, 0.48344152898607406, 0.342426636852017, 0.44944730401039124, 0.05003153905272484, -0.049823954701423645, -0.8756203651428223, -0.46482905745506287, -0.1312369555234909, -0.02432781457901001, 0.0651707649230957, -0.0234106183052063, 0.2866782946132677, -0.5934619399743798, 0.7515326350914814,-0.028588914416391442,-0.8840484619140625,-0.3721160888671875,-0.1797332763671875
20220224-0954,2022-02-24 09:54:27Z,u01, 109,40,movements,el-ex, rt, d,219162.53220050002, -1.4243696204449428, 0.4855704793419718, 0.3517236592721965, 0.14042598009109497, 0.10860996693372726, -0.017003890126943588, -0.874944806098938, -0.46671298146247864, -0.12903884053230286, -0.04770863056182861, -0.023933470249176025, 0.024134919047355652, 0.2901452218928071, -0.5927025667526934, 0.7508906082648013,-0.02613311446113531,-0.9226531982421875,-0.4906463623046875,-0.1049041748046875
20220224-0954,2022-02-24 09:54:27Z,u01, 110,40,movements,el-ex, rt, d,219162.5571465, -1.422401134542654, 0.4862294336329754, 0.3534559370725405, 0.10951496660709381, 0.06667030602693558, -0.01323731429874897, -0.8743845224380493, -0.46729564666748047, -0.13071537017822266, 0.06278479099273682, 0.0819959044456482, -0.03246186673641205, 0.2909128484661554, -0.5916181437464583, 0.7514731614455772,-0.02541272644072029,-0.8189544677734375,-0.3991241455078125,-0.1563873291015625
20220224-0954,2022-02-24 09:54:27Z,u01, 111,40,movements,el-ex, rt, d,219162.5820925, -1.4246412106402897, 0.48688294636552176, 0.3590626226072819, 0.2418409138917923, -0.010371750220656395, 0.015480350703001022, -0.8743728995323181, -0.46787333488464355, -0.12871186435222626, 0.00993192195892334, 0.04882115125656128, -0.04136240482330322, 0.2927708906302152, -0.5915481984425868, 0.7508577186876281,-0.02384823542494946,-0.86444091796875,-0.4190521240234375,-0.170074462890625
20220224-0954,2022-02-24 09:54:27Z,u01, 112,40,movements,el-ex, rt, d,219162.6070395, -1.424266903001671, 0.4866092869783252, 0.3603244059726136, -0.17482195794582367, 0.06733450293540955, 0.04963485896587372, -0.8744513392448425, -0.467631459236145, -0.129057839512825, -0.03710883855819702, -0.044804513454437256, 0.03172224760055542, 0.2930533662740495, -0.5912620453279852, 0.7509922969769,-0.023229809762696563,-0.9181365966796875,-0.5098114013671875,-0.096466064453125
20220224-0954,2022-02-24 09:54:27Z,u01, 113,40,movements,el-ex, rt, d,219162.63198550002, -1.417597343677914, 0.4838668730317788, 0.3525444836605253, -0.3026665151119232, 0.16937929391860962, 0.0882764607667923, -0.8748352527618408, -0.4652056097984314, -0.13508231937885284, 0.01936638355255127, 0.011607527732849121, -0.020648658275604248, 0.2898795668023771, -0.5902784750229028, 0.7529618439293793,-0.024284389706817122,-0.85546875,-0.4535980224609375,-0.155731201171875
20220224-0954,2022-02-24 09:54:27Z,u01, 114,40,movements,el-ex, rt, d,219162.6569315, -1.4118627460250215, 0.48098224449119364, 0.3474400769733877, -0.07539743185043335, 0.029019199311733246, 0.03855304419994354, -0.8753675222396851, -0.46265020966529846, -0.140308678150177, 0.05525338649749756, 0.041965335607528687, -0.003505215048789978, 0.2874349233346656, -0.589259555297114, 0.7546900708148687,-0.024438834265517073,-0.8011016845703125,-0.432525634765625,-0.144439697265625
20220224-0954,2022-02-24 09:54:27Z,u01, 115,40,movements,el-ex, rt, d,219162.6818785, -1.4103970754150983, 0.4798641781810247, 0.3474662863149119, 0.021445592865347862, 0.12492302060127258, 0.06522213667631149, -0.8756710886955261, -0.46165868639945984, -0.14167407155036926, -0.008545279502868652, 0.06906524300575256, 0.008205711841583252, 0.2870681123867231, -0.5888589495672146, 0.7551609951227907,-0.0238541124350391,-0.88421630859375,-0.3925933837890625,-0.1334686279296875
20220224-0954,2022-02-24 09:54:27Z,u01, 116,40,movements,el-ex, rt, d,219162.70682450003, -1.4065413692014443, 0.4781918154574031, 0.34703609367447646, -0.1445322185754776, 0.16973888874053955, 0.06778909265995026, -0.8758788704872131, -0.460174560546875, -0.14517539739608765, 0.037759244441986084, 0.027893006801605225, 0.017581641674041748, 0.2863990773795921, -0.5876970901563923, 0.7563481864866372,-0.022919736954982117,-0.843505859375,-0.43310546875,-0.1273040771484375
20220224-0954,2022-02-24 09:54:27Z,u01, 117,40,movements,el-ex, rt, d,219162.73177150002, -1.4006515978904288, 0.4758471150653105, 0.3415178688140459, -0.2256188988685608, 0.017022989690303802, 0.04216642305254936, -0.8760695457458496, -0.4580916166305542, -0.15051384270191193, 0.05148446559906006, 0.054801732301712036, 0.006501615047454834, 0.28402084860370125, -0.5865792669527922, 0.7580956823458259,-0.023408309634112057,-0.8245849609375,-0.403289794921875,-0.144012451171875
20220224-0954,2022-02-24 09:54:27Z,u01, 118,40,movements,el-ex, rt, d,219162.75671750001, -1.3975190623506473, 0.473445989054809, 0.3349866692644315, -0.29630911350250244, 0.03846929222345352, 0.0679512768983841, -0.8766746520996094, -0.4559559226036072, -0.15344661474227905, -0.0749092698097229, 0.08840221166610718, 0.06013937294483185, 0.28129333656399313, -0.5866436313448916, 0.7590223953079588,-0.0246657758948019,-0.9459075927734375,-0.3695068359375,-0.10430908203125
20220224-0954,2022-02-24 09:54:27Z,u01, 119,40,movements,el-ex, rt, d,219162.7816635, -1.39087887644983, 0.4685084126449509, 0.32609315979836045, -0.42163950204849243, 0.16746236383914948, 0.17571203410625458, -0.8778408169746399, -0.45155593752861023, -0.15966542065143585, -0.008145630359649658, 0.033846527338027954, 0.06844860315322876, 0.27701465158070926, -0.5860291570168908, 0.7610396497789527,-0.025525746360771928,-0.885986328125,-0.4177093505859375,-0.091217041015625
20220224-0954,2022-02-24 09:54:27Z,u01, 120,40,movements,el-ex, rt, d,219162.8066105, -1.383249931151039, 0.463157797930342, 0.31404845444087137, -0.4558926522731781, -0.018608175218105316, 0.05472036451101303, -0.8789582252502441, -0.4467754364013672, -0.16680577397346497, 0.10225534439086914, 0.0655040442943573, -0.029666170477867126, 0.27167460360126067, -0.5854827272535853, 0.7633182996520649,-0.027350976451611164,-0.770904541015625,-0.3952789306640625,-0.179656982421875
20220224-0954,2022-02-24 09:54:27Z,u01, 121,40,movements,el-ex, rt, d,219162.83155650002, -1.3812971931521338, 0.4625409573025232, 0.30742149572493843, 0.020160485059022903, -0.0024746106937527657, -0.06757691502571106, -0.8789013624191284, -0.44622349739074707, -0.16857370734214783, 0.0011699795722961426, 0.09621736407279968, -0.039693281054496765, 0.2695403971738855, -0.5857141943151731, 0.763820273792461,-0.02941935067077489,-0.8777313232421875,-0.350006103515625,-0.2082672119140625
20220224-0954,2022-02-24 09:54:27Z,u01, 122,40,movements,el-ex, rt, d,219162.8565025, -1.3823912649161698, 0.46394962122624595, 0.31289200373888953, 0.2946489155292511, 0.060793373733758926, -0.0018079597502946854, -0.8784670233726501, -0.44748368859291077, -0.16749416291713715, 0.05231022834777832, 0.008701860904693604, -0.04989756643772125, 0.2716321324748756, -0.5852084288643813, 0.7635228899591675,-0.027929366571386505,-0.84808349609375,-0.422149658203125,-0.2187347412109375
20220224-0954,2022-02-24 09:54:27Z,u01, 123,40,movements,el-ex, rt, d,219162.8814495, -1.3852708697695202, 0.46473789757165973, 0.31865540091735406, 0.11017343401908875, -0.11266642808914185, 0.01594933308660984, -0.878598690032959, -0.44818851351737976, -0.16489869356155396, 0.12321221828460693, -0.010002464056015015, -0.06599706411361694, 0.27356233046854406, -0.585418058659614, 0.7627278480134791,-0.026375423130712394,-0.7553863525390625,-0.45819091796875,-0.23089599609375
20220224-0954,2022-02-24 09:54:27Z,u01, 124,40,movements,el-ex, rt, d,219162.9063955, -1.389067680493087, 0.4644700164824573, 0.320255444375162, 0.011601517908275127, -0.16245250403881073, 0.01137069333344698, -0.8793364763259888, -0.44794902205467224, -0.1615833342075348, 0.16766643524169922, 0.06255775690078735, -0.07936793565750122, 0.27388546338750963, -0.5866814178058899, 0.7616464678236464,-0.026199258495045286,-0.7246246337890625,-0.3942413330078125,-0.2413330078125
20220224-0954,2022-02-24 09:54:27Z,u01, 125,40,movements,el-ex, rt, d,219162.93134150002, -1.3942791182352927, 0.4643962017413014, 0.31773124853788903, -0.2323097139596939, -0.3201282024383545, -0.049932144582271576, -0.8801992535591125, -0.4478830397129059, -0.15700437128543854, 0.163280189037323, 0.01633390784263611, -0.045815229415893555, 0.2730467562567552, -0.5890189141380014, 0.7600834374897769,-0.027848339724480198,-0.7169189453125,-0.431549072265625,-0.20281982421875
20220224-0954,2022-02-24 09:54:27Z,u01, 126,40,movements,el-ex, rt, d,219162.95628850002, -1.3974187768728246, 0.4641472989787297, 0.30845725390935, -0.3641153872013092, -0.2395736575126648, -0.03593850135803223, -0.8807976841926575, -0.4476604759693146, -0.1542593091726303, 0.09442061185836792, -0.003374159336090088, -0.029334187507629395, 0.2701741593858711, -0.5915033943712271, 0.7590282928973281,-0.03171648239222297,-0.7940521240234375,-0.4676666259765625,-0.185638427734375
20220224-0954,2022-02-24 09:54:28Z,u01, 127,40,movements,el-ex, rt, d,219162.9812345, -1.3998326706994397, 0.4638135726381199, 0.3013486805853185, -0.12268045544624329, -0.2438420206308365, -0.05228112265467644, -0.8813146352767944, -0.4473620355129242, -0.15215812623500824, 0.16514313220977783, 0.03114795684814453, -0.02841414511203766, 0.26790925908053687, -0.5934185433669343, 0.7582084470931585,-0.03462977826606162,-0.7161712646484375,-0.4162139892578125,-0.180572509765625
20220224-0954,2022-02-24 09:54:28Z,u01, 128,40,movements,el-ex, rt, d,219163.0061815, -1.405358747448265, 0.46478045488846276, 0.2993225275383198, -0.07170062512159348, -0.21942856907844543, -0.07503543049097061, -0.8817148804664612, -0.44822657108306885, -0.14721429347991943, 0.12475675344467163, -0.03497356176376343, 0.02540355920791626, 0.26755342353930267, -0.5956576357993925, 0.7564910255176029,-0.03644965359894431,-0.7400665283203125,-0.475921630859375,-0.1342010498046875
20220224-0954,2022-02-24 09:54:28Z,u01, 129,40,movements,el-ex, rt, d,219163.03112750003, -1.4074474744194843, 0.46605959913149364, 0.29529932212440146, -0.1563752293586731, -0.08669248968362808, -0.06522554904222488, -0.8814540505409241, -0.4493696391582489, -0.1452789604663849, 0.11219733953475952, -0.03697383403778076, 0.023498833179473877, 0.26677013409719597, -0.5968200848107106, 0.7557411745714283,-0.03866432640072048,-0.769256591796875,-0.4863433837890625,-0.1217803955078125
20220224-0954,2022-02-24 09:54:28Z,u01, 130,40,movements,el-ex, rt, d,219163.05607350002, -1.40752420544062, 0.4678811527255522, 0.2929388546489325, 0.020346440374851227, -0.04090096428990364, -0.10802434384822845, -0.8806560635566711, -0.45099616050720215, -0.14507803320884705, 0.15871679782867432, 0.024512887001037598, 0.01925431191921234, 0.26671245322917675, -0.5969300198331166, 0.7555968606690591,-0.040157126313332125,-0.7212371826171875,-0.4256591796875,-0.1310882568359375
20220224-0954,2022-02-24 09:54:28Z,u01, 131,40,movements,el-ex, rt, d,219163.08102050002, -1.40813606891915, 0.4712253084181651, 0.29417319405201775, 0.0795544683933258, 0.08385581523180008, -0.12151172757148743, -0.87925124168396, -0.45397838950157166, -0.14429408311843872, 0.08555006980895996, -0.013795047998428345, 0.032722070813179016, 0.26825791797608434, -0.5965657129953107, 0.7552997196538866,-0.04085730181170649,-0.793701171875,-0.4677734375,-0.111572265625
20220224-0954,2022-02-24 09:54:28Z,u01, 132,40,movements,el-ex, rt, d,219163.1059665, -1.4066607477414474, 0.4746441742346451, 0.29823153264156826, 0.27551743388175964, 0.141346737742424, -0.13433519005775452, -0.8775011897087097, -0.4570219814777374, -0.14533667266368866, 0.15023672580718994, 0.009725809097290039, -0.01542973518371582, 0.27071175488682775, -0.5950183293535093, 0.7556782949139709,-0.0402340465124858,-0.74078369140625,-0.4568939208984375,-0.15399169921875
20220224-0954,2022-02-24 09:54:28Z,u01, 133,40,movements,el-ex, rt, d,219163.13091250003, -1.4079963365596082, 0.4798134947335853, 0.3068422163830909, 0.33255913853645325, 0.08144505321979523, -0.1554519087076187, -0.8753515481948853, -0.4616137444972992, -0.1437797099351883, 0.1432347297668457, -0.006388634443283081, -0.012058019638061523, 0.27507769162179496, -0.5936686021924096, 0.7552359686348796,-0.03884036005338132,-0.73211669921875,-0.4680023193359375,-0.1558380126953125
20220224-0954,2022-02-24 09:54:28Z,u01, 134,40,movements,el-ex, rt, d,219163.15585950002, -1.407724182994016, 0.48402806439304835, 0.3121391627455494, 0.08387251943349838, 0.13047391176223755, -0.10539613664150238, -0.873384952545166, -0.4653483033180237, -0.14370080828666687, 0.09417951107025146, -0.05491545796394348, -0.0013947486877441406, 0.2781445719652627, -0.5922712161345938, 0.7552440391868318,-0.03817020905873325,-0.7874298095703125,-0.522491455078125,-0.14385986328125
20220224-0954,2022-02-24 09:54:28Z,u01, 135,40,movements,el-ex, rt, d,219163.18080550001, -1.4052131173596876, 0.4859325742777694, 0.31246324558300276, 0.004822375252842903, 0.06692357361316681, -0.05765777453780174, -0.8721457123756409, -0.46703317761421204, -0.14574715495109558, 0.13659566640853882, -0.02527645230293274, -0.041371166706085205, 0.27896195405388197, -0.5910217010562387, 0.7559138395067976,-0.03831566428949962,-0.7355499267578125,-0.4923095703125,-0.1871185302734375
20220224-0954,2022-02-24 09:54:28Z,u01, 136,40,movements,el-ex, rt, d,219163.2057525, -1.4049601584574811, 0.4869215553703451, 0.3119075210792294, -0.07029224932193756, -0.10431376099586487, -0.04416866600513458, -0.8716528415679932, -0.46790745854377747, -0.1458914428949356, 0.14594465494155884, -0.025577157735824585, -0.006467357277870178, 0.2791525070000507, -0.5908706763456669, 0.7559362748811113,-0.03881089289045536,-0.7180023193359375,-0.5042266845703125,-0.174713134765625
20220224-0954,2022-02-24 09:54:28Z,u01, 137,40,movements,el-ex, rt, d,219163.2306985, -1.4072991292624615, 0.4871612968863118, 0.30822388776260773, -0.1518162041902542, -0.13360200822353363, -0.004833643324673176, -0.8718808889389038, -0.4681193232536316, -0.14383399486541748, 0.06050997972488403, -0.013173460960388184, -0.000574946403503418, 0.27810134295680855, -0.5922352935799056, 0.7551610987052012,-0.04060605929793354,-0.811370849609375,-0.481292724609375,-0.1444091796875
20220224-0954,2022-02-24 09:54:28Z,u01, 138,40,movements,el-ex, rt, d,219163.25564450002, -1.4073425666035806, 0.48618330946658067, 0.3041963417902261, -0.1377263367176056, -0.08367972075939178, 0.055795349180698395, -0.8723383545875549, -0.4672548770904541, -0.143870547413826, 0.11618900299072266, -0.028396397829055786, -0.033558428287506104, 0.2765611156385832, -0.5929407026349284, 0.7551071340322675,-0.04181559302599991,-0.7827606201171875,-0.494842529296875,-0.17303466796875
20220224-0954,2022-02-24 09:54:28Z,u01, 139,40,movements,el-ex, rt, d,219163.28059150002, -1.4116084634627233, 0.48427116473218784, 0.3021243616934966, -0.03110586479306221, -0.3180396854877472, 0.0823948010802269, -0.8738248348236084, -0.46556344628334045, -0.1402893364429474, 0.13452118635177612, -0.011533170938491821, -0.0285642147064209, 0.27517930432196447, -0.595089644799931, 0.7538786786505982,-0.04256487501620865,-0.7393035888671875,-0.4770965576171875,-0.168853759765625
20220224-0954,2022-02-24 09:54:28Z,u01, 140,40,movements,el-ex, rt, d,219163.305537625, -1.4182616194197417, 0.4815865232847631, 0.30019037174543717, -0.1795520931482315, -0.22654472291469574, 0.13562946021556854, -0.8759710192680359, -0.4631858170032501, -0.1346619874238968, -0.006841540336608887, -0.017542392015457153, 0.0367923378944397, 0.2735113986677968, -0.5982144412627055, 0.7519664212607674,-0.04333149874961906,-0.8760223388671875,-0.4802398681640625,-0.10223388671875
20220224-0954,2022-02-24 09:54:28Z,u01, 141,40,movements,el-ex, rt, d,219163.330483625, -1.4197624669457238, 0.4771802260223451, 0.29245549948569466, -0.35559964179992676, -0.20106513798236847, 0.10133466869592667, -0.8781812191009521, -0.4592762291431427, -0.13365291059017181, 0.04631781578063965, 0.0247822105884552, 0.03459306061267853, 0.26960485248085975, -0.6004055040243921, 0.7515324213479104,-0.045005119271178895,-0.8318634033203125,-0.4344940185546875,-0.09906005859375
20220224-0954,2022-02-24 09:54:28Z,u01, 142,40,movements,el-ex, rt, d,219163.355430625, -1.4210328407078097, 0.47520548366083454, 0.2844304786689717, -0.1618015319108963, -0.21272678673267365, 0.004100330173969269, -0.8792455792427063, -0.4575211703777313, -0.1326722800731659, 0.028476417064666748, 0.09814611077308655, 0.023343324661254883, 0.266464510504554, -0.6022130255677041, 0.7510497624177349,-0.047545432928861986,-0.83868408203125,-0.3604736328125,-0.107025146484375
20220224-0954,2022-02-24 09:54:28Z,u01, 143,40,movements,el-ex, rt, d,219163.38037662502, -1.425675232413023, 0.47502571660885984, 0.285858638693899, 0.2135738581418991, -0.09143570810556412, 0.020677775144577026, -0.8799332976341248, -0.4573613107204437, -0.12860094010829926, -0.01674950122833252, 0.04340553283691406, 0.01132214069366455, 0.26672119577638725, -0.6037874898512887, 0.7496917576301272,-0.04756967763387915,-0.8966827392578125,-0.4139556884765625,-0.117279052734375
20220224-0954,2022-02-24 09:54:28Z,u01, 144,40,movements,el-ex, rt, d,219163.405322625, -1.4311118271634713, 0.47562619116821664, 0.2914821444865196, 0.11964482814073563, -0.10362818837165833, -0.012899093329906464, -0.8803471922874451, -0.4578952193260193, -0.12377694249153137, -0.019936561584472656, 0.027719467878341675, 0.04713227599859238, 0.2685044477226403, -0.6049932974115729, 0.748155458653732,-0.04638819016114154,-0.89007568359375,-0.4375,-0.0828399658203125
20220224-0954,2022-02-24 09:54:28Z,u01, 145,40,movements,el-ex, rt, d,219163.430269625, -1.432276659877159, 0.4767028238212086, 0.2927609281295011, 0.04948648065328598, 0.041030652821063995, -0.0439247190952301, -0.8800022006034851, -0.458852082490921, -0.12268328666687012, -0.0035580992698669434, 0.08734628558158875, 0.05127233266830444, 0.26924265941112935, -0.6051171347471603, 0.7477880654715044,-0.046420101294062266,-0.8835601806640625,-0.3715057373046875,-0.0714111328125
20220224-0954,2022-02-24 09:54:28Z,u01, 146,40,movements,el-ex, rt, d,219163.455215625, -1.434066070686295, 0.4778749767114804, 0.2973338244198133, 0.33067288994789124, -0.01904706284403801, -0.053694259375333786, -0.8796867728233337, -0.45989325642585754, -0.12103499472141266, 0.045763373374938965, 0.12029358744621277, -0.012830138206481934, 0.27099644961758795, -0.605015229130588, 0.7473031553000165,-0.045337904790685946,-0.8324432373046875,-0.3311309814453125,-0.12945556640625
20220224-0954,2022-02-24 09:54:28Z,u01, 147,40,movements,el-ex, rt, d,219163.48016262503, -1.4412360913643547, 0.48245860318370026, 0.3106661750789259, 0.6126747131347656, -0.025033583864569664, -0.14685004949569702, -0.8784325122833252, -0.4639585316181183, -0.11445102840662003, -0.00203019380569458, 0.0577542781829834, 0.026728510856628418, 0.2764739812161477, -0.6052574852165733, 0.7452443044513712,-0.04285550185462067,-0.880462646484375,-0.4062042236328125,-0.0877227783203125
20220224-0954,2022-02-24 09:54:28Z,u01, 148,40,movements,el-ex, rt, d,219163.50510862502, -1.4478013737671438, 0.4877042151700391, 0.32848198422166597, 0.6554506421089172, 0.13967487215995789, -0.12626440823078156, -0.8767374157905579, -0.46859899163246155, -0.10838134586811066, -0.018663644790649414, -0.004637092351913452, 0.05023039132356644, 0.28354781306374105, -0.6044914912898595, 0.7434237935554797,-0.03888112761325252,-0.9063568115234375,-0.467437744140625,-0.061981201171875
20220224-0954,2022-02-24 09:54:28Z,u01, 149,40,movements,el-ex, rt, d,219163.530054625, -1.4514251763551957, 0.4920577746501808, 0.34587370579841237, 0.6296495199203491, 0.15613646805286407, -0.06865749508142471, -0.875090479850769, -0.47244054079055786, -0.10495956987142563, 0.03782552480697632, -0.04467982053756714, 0.01314767450094223, 0.2902302419096618, -0.6027326284838427, 0.742493959489354,-0.034386830698085125,-0.8372650146484375,-0.517120361328125,-0.0918121337890625
20220224-0954,2022-02-24 09:54:28Z,u01, 150,40,movements,el-ex, rt, d,219163.555001625, -1.4568189975522312, 0.49495592551967504, 0.36189525894903923, 0.4529723525047302, 0.05051450431346893, -0.029326269403100014, -0.8742799758911133, -0.47499287128448486, -0.10008185356855392, 0.009243905544281006, -0.031248003244400024, 0.047027237713336945, 0.2959605280546774, -0.6019688018479941, 0.7410322972818967,-0.030201105535803408,-0.85150146484375,-0.52252197265625,-0.0694732666015625
20220224-0954,2022-02-24 09:54:28Z,u01, 151,40,movements,el-ex, rt, d,219163.57994762502, -1.4579750952795945, 0.49634978126467316, 0.36603634207356983, -0.1586117297410965, 0.0502779483795166, -0.0295907873660326, -0.8737364411354065, -0.47621896862983704, -0.09899640828371048, -0.03895282745361328, 0.01645636558532715, 0.050580501556396484, 0.29766444391118735, -0.6015793162425376, 0.7407020908901703,-0.029304225167615106,-0.912689208984375,-0.4597625732421875,-0.0484161376953125
20220224-0954,2022-02-24 09:54:28Z,u01, 152,40,movements,el-ex, rt, d,219163.60489362502, -1.4506326544675792, 0.4964361928267274, 0.3574690321005618, -0.3375183343887329, 0.16731862723827362, -0.04591216892004013, -0.8729451894760132, -0.47629496455192566, -0.10540410876274109, 0.03516131639480591, 0.0944284200668335, -0.05658292770385742, 0.2952315909623111, -0.6001135330959402, 0.7427750933087598,-0.03142207144487569,-0.867706298828125,-0.39947509765625,-0.14495849609375
20220224-0954,2022-02-24 09:54:28Z,u01, 153,40,movements,el-ex, rt, d,219163.629840625, -1.4482303210535248, 0.49800967348131253, 0.35450734454850147, 0.2200777679681778, -0.10211378335952759, -0.11245618015527725, -0.8719444274902344, -0.4776779115200043, -0.10740913450717926, 0.06527328491210938, 0.09297335147857666, -0.07485686242580414, 0.2949211182520288, -0.5994305359216775, 0.7433948099539439,-0.03269124165102488,-0.806671142578125,-0.38470458984375,-0.1822662353515625
20220224-0954,2022-02-24 09:54:28Z,u01, 154,40,movements,el-ex, rt, d,219163.654786625, -1.4535709133879746, 0.5020614370858565, 0.3635132651042736, 0.308241069316864, 0.07405731827020645, -0.08733957260847092, -0.8705764412879944, -0.4812335968017578, -0.10252372920513153, -0.11743026971817017, -0.011991560459136963, 0.029281795024871826, 0.2989204283871545, -0.5994870402787164, 0.7418021635484423,-0.03148855300272613,-0.9839324951171875,-0.474212646484375,-0.0807647705078125
20220224-0954,2022-02-24 09:54:28Z,u01, 155,40,movements,el-ex, rt, d,219163.67973262502, -1.451794986572591, 0.5035595545091522, 0.3677112919371598, -0.021518751978874207, 0.1633405238389969, -0.03992844745516777, -0.8696761131286621, -0.48254629969596863, -0.10398393869400024, -0.007338106632232666, -0.02848583459854126, 0.01212620735168457, 0.3007154189077639, -0.5979784847589383, 0.7423490997881073,-0.030163841672340763,-0.87701416015625,-0.5110321044921875,-0.09185791015625
20220224-0954,2022-02-24 09:54:28Z,u01, 156,40,movements,el-ex, rt, d,219163.70467962502, -1.4483637971921812, 0.5043194490290084, 0.36467718410038297, -0.13506561517715454, -0.011019431054592133, -0.0543445348739624, -0.8689498901367188, -0.4832117259502411, -0.10692251473665237, 0.057304441928863525, 0.012966394424438477, -0.01708541065454483, 0.3001208292697709, -0.5970479311878073, 0.743302382885729,-0.03102822274296335,-0.7971038818359375,-0.4770050048828125,-0.136505126953125
20220224-0954,2022-02-24 09:54:28Z,u01, 157,40,movements,el-ex, rt, d,219163.729625625, -1.447852817024066, 0.504431003541833, 0.3620961040445249, -0.04548586905002594, -0.0016345847398042679, 0.011203180067241192, -0.8688416481018066, -0.48330938816070557, -0.10735990852117538, -0.02759695053100586, 0.009462922811508179, 0.0037224963307380676, 0.2993963676154302, -0.5972284831851594, 0.7434105514535659,-0.031948035322016455,-0.8964385986328125,-0.473846435546875,-0.1036376953125
20220224-0954,2022-02-24 09:54:28Z,u01, 158,40,movements,el-ex, rt, d,219163.754572625, -1.4459056349465833, 0.502822893301321, 0.3605225233923143, -0.10326924175024033, 0.10403092950582504, 0.07549302279949188, -0.8694010972976685, -0.4819009602069855, -0.10914818197488785, -0.013991296291351318, -0.006975412368774414, 0.0018180683255195618, 0.29840721707055357, -0.5969749098289779, 0.7440219987087808,-0.03170809884456949,-0.8947601318359375,-0.4914398193359375,-0.109527587890625
20220224-0954,2022-02-24 09:54:28Z,u01, 159,40,movements,el-ex, rt, d,219163.779518625, -1.4412039276945146, 0.5005775935296154, 0.35672003145225795, -0.11211959272623062, 0.10542456060647964, 0.0756743773818016, -0.8699490427970886, -0.47993233799934387, -0.11337417364120483, 0.025710701942443848, -0.024187594652175903, -0.03732144087553024, 0.29657714751835385, -0.5961165243011199, 0.745441807018032,-0.03168032887989419,-0.84423828125,-0.504119873046875,-0.15069580078125
20220224-0954,2022-02-24 09:54:28Z,u01, 160,40,movements,el-ex, rt, d,219163.80446462502, -1.4408203418143994, 0.49828371580438047, 0.35805997316960686, 0.1986425817012787, -0.03844572976231575, 0.12012900412082672, -0.8709948658943176, -0.4779186546802521, -0.11385025829076767, 0.03583550453186035, 0.0102672278881073, -0.030009381473064423, 0.29619384756491496, -0.5961074366065334, 0.7456562305027389,-0.03036455694664081,-0.826080322265625,-0.4732818603515625,-0.1554412841796875
20220224-0954,2022-02-24 09:54:28Z,u01, 161,40,movements,el-ex, rt, d,219163.82941162502, -1.4457445337346924, 0.4956450325916758, 0.365001142534835, 0.1509893387556076, 0.00183198694139719, 0.14560993015766144, -0.8727932572364807, -0.47559916973114014, -0.10971686989068985, -0.06308954954147339, -0.003206491470336914, 0.03426234424114227, 0.29728747490887975, -0.5972953384420092, 0.7443755628058664,-0.027634652307709284,-0.935882568359375,-0.4788055419921875,-0.0754547119140625
20220224-0954,2022-02-24 09:54:28Z,u01, 162,40,movements,el-ex, rt, d,219163.854357625, -1.441977455620144, 0.49191162018956, 0.3643113146677478, -0.1640530228614807, 0.20836572349071503, 0.16380463540554047, -0.874128520488739, -0.47231170535087585, -0.11323127150535583, -0.0012988448143005371, -0.0002835988998413086, -0.007404506206512451, 0.295850837996004, -0.5965372118424837, 0.7456104161575239,-0.026094583081217038,-0.9136962890625,-0.4835662841796875,-0.090576171875
20220224-0954,2022-02-24 09:54:28Z,u01, 163,40,movements,el-ex, rt, d,219163.879303625, -1.4388430597503903, 0.4881884410497418, 0.36484663863333305, 0.3171071410179138, -0.025476466864347458, 0.12407839298248291, -0.8755062818527222, -0.46902671456336975, -0.11620111763477325, 0.07298552989959717, 0.04928794503211975, -0.07718853652477264, 0.29476882715189995, -0.595827810989819, 0.7466692459691033,-0.02419917506360786,-0.802520751953125,-0.41973876953125,-0.193389892578125
20220224-0954,2022-02-24 09:54:28Z,u01, 164,40,movements,el-ex, rt, d,219163.90425062503, -1.4489049290933267, 0.4876717732335073, 0.3843944547013941, 0.9452096819877625, 0.04873351380228996, 0.1139141097664833, -0.876871645450592, -0.468570351600647, -0.10741560906171799, -0.11923742294311523, 0.017062753438949585, -0.012213043868541718, 0.3003130117741653, -0.5967447434968453, 0.7438919099299416,-0.018240214035220415,-0.9731597900390625,-0.4381866455078125,-0.1454315185546875
20220224-0954,2022-02-24 09:54:28Z,u01, 165,40,movements,el-ex, rt, d,219163.92919662502, -1.4565123794777415, 0.486627319575678, 0.40879883260671696, 0.619265079498291, 0.21546384692192078, 0.13989824056625366, -0.8781490921974182, -0.46764740347862244, -0.10079755634069443, -0.06505775451660156, -0.02739354968070984, 0.004881031811237335, 0.3071816362007776, -0.5960206900556511, 0.7418215088416652,-0.009982456033532261,-0.943206787109375,-0.4950408935546875,-0.095916748046875
20220224-0954,2022-02-24 09:54:28Z,u01, 166,40,movements,el-ex, rt, d,219163.95414362501, -1.4565028764021726, 0.484430035571783, 0.41690154294662474, 0.01826634630560875, 0.04116028547286987, 0.11913789808750153, -0.8791670203208923, -0.4657040536403656, -0.10092286765575409, 0.04351925849914551, -0.01124003529548645, -0.030989184975624084, 0.3088514957520413, -0.5951044613397652, 0.7419047668800545,-0.006240296509190835,-0.8313140869140625,-0.4845733642578125,-0.11920166015625
20220224-0954,2022-02-24 09:54:29Z,u01, 167,40,movements,el-ex, rt, d,219163.979089625, -1.4559399834201274, 0.4817493145053432, 0.41686799142307035, -0.0046712616458535194, 0.04150396212935448, 0.1227511465549469, -0.8803470730781555, -0.46333009004592896, -0.10156042873859406, -0.030160248279571533, 0.03307795524597168, -0.03830140829086304, 0.307936873158846, -0.5953105629178024, 0.7421270711527221,-0.0052691167648885595,-0.9105072021484375,-0.4302520751953125,-0.139862060546875
20220224-0954,2022-02-24 09:54:29Z,u01, 168,40,movements,el-ex, rt, d,219164.00403562502, -1.454742432527427, 0.4779090567880691, 0.417224881723324, -0.04770464822649956, 0.060640573501586914, 0.1653483510017395, -0.8819856643676758, -0.45992350578308105, -0.10281989723443985, -0.02502739429473877, 0.01947849988937378, -0.009499788284301758, 0.30674603443459136, -0.5953964411013669, 0.7425608729942599,-0.0036684004850002783,-0.9120025634765625,-0.4378814697265625,-0.1143951416015625
20220224-0954,2022-02-24 09:54:29Z,u01, 169,40,movements,el-ex, rt, d,219164.02898262502, -1.4525232976443159, 0.47349047478969164, 0.4137970504534428, -0.208085298538208, 0.024085693061351776, 0.14792534708976746, -0.8837647438049316, -0.4559955298900604, -0.10501565784215927, -0.01760256290435791, 0.013734698295593262, -0.010355830192565918, 0.304230368393647, -0.5957650993692266, 0.7433022342388735,-0.0031264769862213715,-0.9013671875,-0.4422607421875,-0.1153717041015625
20220224-0954,2022-02-24 09:54:29Z,u01, 170,40,movements,el-ex, rt, d,219164.053928625, -1.449259478172145, 0.4698077267898494, 0.4100111245259282, -0.048351261764764786, 0.07869520783424377, 0.11767350137233734, -0.8850781321525574, -0.45271486043930054, -0.10810240358114243, 0.015433907508850098, 0.04332152009010315, -0.040273845195770264, 0.30185463297870624, -0.5956782522118604, 0.7443409170922952,-0.0028113697450071196,-0.884918212890625,-0.41461181640625,-0.145233154296875
20220224-0954,2022-02-24 09:54:29Z,u01, 171,40,movements,el-ex, rt, d,219164.078874625, -1.4499515261529832, 0.46708586110449735, 0.412641104640705, 0.1546718180179596, -0.02653307467699051, 0.09769193083047867, -0.8863727450370789, -0.45028620958328247, -0.10763800889253616, 0.007268071174621582, 0.017546892166137695, -0.03397858142852783, 0.30171008402644456, -0.5959463231291982, 0.7441895471029845,-0.0010296486493204804,-0.8791046142578125,-0.4327392578125,-0.1416168212890625
20220224-0954,2022-02-24 09:54:29Z,u01, 172,40,movements,el-ex, rt, d,219164.103821625, -1.4511564040278524, 0.46480492099065035, 0.4155814882890249, 0.012007350102066994, 0.018967296928167343, 0.12567828595638275, -0.887519121170044, -0.44824841618537903, -0.10669226199388504, -0.07437974214553833, -0.014245539903640747, 0.036975085735321045, 0.3018096544841196, -0.5962925465096665, 0.7438721600331619,0.0006432850081569685,-0.9664306640625,-0.466949462890625,-0.07672119140625
20220224-0954,2022-02-24 09:54:29Z,u01, 173,40,movements,el-ex, rt, d,219164.12876762502, -1.4492512698576758, 0.46110382029069363, 0.41443818590918746, -0.10878615081310272, 0.06051374226808548, 0.13395386934280396, -0.8889548778533936, -0.44493693113327026, -0.10858330875635147, -0.060294389724731445, 0.0011960864067077637, 0.04236043989658356, 0.30020651450917146, -0.5963089769633687, 0.7445056099496149,0.0017389903855084543,-0.949249267578125,-0.4437408447265625,-0.06622314453125
20220224-0954,2022-02-24 09:54:29Z,u01, 174,40,movements,el-ex, rt, d,219164.153713625, -1.4428584606101107, 0.45658228368453896, 0.4087783590258104, -0.28053194284439087, 0.1430162787437439, 0.16364777088165283, -0.8902289867401123, -0.440883070230484, -0.11451950669288635, -0.01473933458328247, -0.032871901988983154, 0.032106995582580566, 0.2969677147460692, -0.5954413688070573, 0.7464955165316837,0.002088424231946606,-0.91949462890625,-0.470367431640625,-0.0778350830078125
20220224-0954,2022-02-24 09:54:29Z,u01, 175,40,movements,el-ex, rt, d,219164.178660625, -1.4382886466290752, 0.4512158090304648, 0.4040963033774319, -0.06466002762317657, 0.05024339258670807, 0.1978461593389511, -0.89202880859375, -0.43605998158454895, -0.11889736354351044, 0.02134692668914795, -0.017385482788085938, -0.002852320671081543, 0.2937242141217194, -0.59521206731963, 0.7479579096030186,0.002794562217689034,-0.8706817626953125,-0.4534454345703125,-0.1217498779296875
20220224-0954,2022-02-24 09:54:29Z,u01, 176,40,movements,el-ex, rt, d,219164.203606625, -1.4405340305699177, 0.4471104191500788, 0.4085341054505157, 0.23449698090553284, 0.07836930453777313, 0.17657282948493958, -0.8940609097480774, -0.43236181139945984, -0.11712565273046494, -0.07699322700500488, -0.002788364887237549, 0.011184103786945343, 0.2936373555420817, -0.5959985560854479, 0.7473504933719007,0.005485112243788504,-0.955047607421875,-0.4369659423828125,-0.118011474609375
20220224-0954,2022-02-24 09:54:29Z,u01, 177,40,movements,el-ex, rt, d,219164.22855262502, -1.4398587702052192, 0.44297725433883994, 0.414424939599402, 0.08066414296627045, 0.17165610194206238, 0.21827581524848938, -0.8957458138465881, -0.4286312460899353, -0.11796167492866516, -0.04089987277984619, -0.011661231517791748, 0.03429798781871796, 0.29396773838802553, -0.5954847854864638, 0.7475942387772314,0.009157182808414932,-0.9366455078125,-0.4402923583984375,-0.0836639404296875
20220224-0954,2022-02-24 09:54:29Z,u01, 178,40,movements,el-ex, rt, d,219164.25349962502, -1.4378069019921154, 0.43789427146064563, 0.41459692158790296, -0.08616079390048981, 0.008892758749425411, 0.19074644148349762, -0.8976498246192932, -0.42403337359428406, -0.12008672952651978, 0.020101428031921387, 0.003394216299057007, -0.010818198323249817, 0.29225817404973786, -0.5954341226252393, 0.7482766570647343,0.011207434794154036,-0.8679656982421875,-0.4294891357421875,-0.1262969970703125
20220224-0954,2022-02-24 09:54:29Z,u01, 179,40,movements,el-ex, rt, d,219164.278445625, -1.4372158019310035, 0.43360177048119886, 0.4132749849449587, -0.031363192945718765, 0.02449754998087883, 0.16905951499938965, -0.8993741869926453, -0.42014196515083313, -0.1208585873246193, -0.038278400897979736, 0.03995400667190552, -0.011114463210105896, 0.29038027728988913, -0.596028522768489, 0.748518500056767,0.012220926743416238,-0.937652587890625,-0.38018798828125,-0.1319732666015625
20220224-0954,2022-02-24 09:54:29Z,u01, 180,40,movements,el-ex, rt, d,219164.3033930417, -1.4374084034979984, 0.4296519973909583, 0.41460711018682334, 0.02776351198554039, 0.05147697031497955, 0.15261663496494293, -0.9010352492332458, -0.41655445098876953, -0.12090513110160828, -0.005001187324523926, 0.045124977827072144, -0.011800281703472137, 0.28941487753945794, -0.5964783843556769, 0.7485029386636071,0.01399993558870155,-0.9144439697265625,-0.3665313720703125,-0.1297454833984375
20220224-0954,2022-02-24 09:54:29Z,u01, 181,40,movements,el-ex, rt, d,219164.32833904168, -1.4373635545035142, 0.42672496091031664, 0.4160176985650657, 0.03527975082397461, 0.019474562257528305, 0.11086811870336533, -0.9022343754768372, -0.41389167308807373, -0.12110722810029984, 0.006665468215942383, 0.022625774145126343, -0.006913773715496063, 0.2888242509432516, -0.5966799282285413, 0.7485407917383166,0.01550395139429439,-0.89556884765625,-0.391265869140625,-0.128021240234375
20220224-0954,2022-02-24 09:54:29Z,u01, 182,40,movements,el-ex, rt, d,219164.35328504167, -1.4387211806766511, 0.4244742180997271, 0.41950131870539514, 0.2345363050699234, -0.0284580085426569, 0.08929871022701263, -0.9033191204071045, -0.4118417203426361, -0.12000460177659988, -0.015458405017852783, 0.04650053381919861, -0.036168865859508514, 0.2890977576409254, -0.5970093687963806, 0.7481317563487413,0.017357105555678598,-0.911041259765625,-0.3684539794921875,-0.15911865234375
20220224-0954,2022-02-24 09:54:29Z,u01, 183,40,movements,el-ex, rt, d,219164.3782320417, -1.4419669101991217, 0.4229287462817774, 0.42779091363922683, 0.32192301750183105, 0.021320201456546783, 0.0761759877204895, -0.9043340086936951, -0.410432904958725, -0.11715367436408997, -0.028039097785949707, 0.032915204763412476, -0.010287456214427948, 0.29107079627612464, -0.5972444671379827, 0.7470989041878883,0.02049783710215941,-0.932373046875,-0.3775177001953125,-0.12744140625
20220224-0954,2022-02-24 09:54:29Z,u01, 184,40,movements,el-ex, rt, d,219164.40317804168, -1.444882790928013, 0.4209484883253422, 0.43610064191817866, 0.3109706938266754, -0.06806094944477081, 0.09322541207075119, -0.9054762125015259, -0.4086263179779053, -0.11461807787418365, 0.005039811134338379, 0.03242090344429016, -0.0018977969884872437, 0.2929044029215297, -0.5974093838572164, 0.746150797164086,0.02383238740648952,-0.8975677490234375,-0.38299560546875,-0.1131134033203125
20220224-0954,2022-02-24 09:54:29Z,u01, 185,40,movements,el-ex, rt, d,219164.42812404167, -1.4484590947449594, 0.4190520114347927, 0.44421804769125367, 0.27387920022010803, -0.04887506738305092, 0.05725483223795891, -0.9066478610038757, -0.4068946838378906, -0.1114734634757042, -0.03343081474304199, 0.031223297119140625, -0.01273278146982193, 0.2947255229180887, -0.5978295187344856, 0.7449896871153778,0.026964441455089527,-0.9400787353515625,-0.37567138671875,-0.12420654296875
20220224-0954,2022-02-24 09:54:29Z,u01, 186,40,movements,el-ex, rt, d,219164.45307104167, -1.4479985541498923, 0.41670412139389373, 0.4469042752997728, -0.0148859154433012, 0.01781494915485382, 0.053872812539339066, -0.9075422883033752, -0.4047488272190094, -0.1120077446103096, -0.03639709949493408, -0.02283307909965515, 0.01647268235683441, 0.2947185073583846, -0.5976095137226721, 0.7450998385909401,0.028815313546121435,-0.9521484375,-0.428619384765625,-0.096710205078125
20220224-0954,2022-02-24 09:54:29Z,u01, 187,40,movements,el-ex, rt, d,219164.4780170417, -1.446539340148872, 0.4152433492138339, 0.4460310289558241, 0.01167848240584135, 0.05770064517855644, 0.05461696907877922, -0.9079635739326477, -0.4034126102924347, -0.11340507119894028, 0.012455642223358154, 0.004578351974487305, 0.011171400547027588, 0.2939363060343723, -0.5974101714548925, 0.7455538781942881,0.02919107858906328,-0.8955078125,-0.398834228515625,-0.10223388671875
20220224-0954,2022-02-24 09:54:29Z,u01, 188,40,movements,el-ex, rt, d,219164.50296304168, -1.4456520982488497, 0.4134069166606367, 0.44889016873999105, 0.20266738533973694, 0.05454060435295105, 0.07526398450136185, -0.9085961580276489, -0.40173155069351196, -0.11430288851261139, 0.021068572998046875, 0.014707565307617188, 0.004836559295654297, 0.294147412807082, -0.5969303596821353, 0.7457819607927437,0.03099867946289908,-0.88128662109375,-0.3847198486328125,-0.1140594482421875
20220224-0954,2022-02-24 09:54:29Z,u01, 189,40,movements,el-ex, rt, d,219164.52791004168, -1.44813036410946, 0.41183883148426587, 0.45759603486061884, 0.37653878331184387, 0.08699954301118851, 0.11119382083415985, -0.9095005989074707, -0.40029507875442505, -0.11212772876024246, -0.024245798587799072, -0.011402308940887451, 0.009466834366321564, 0.29624946927851603, -0.5968018004888523, 0.7449030976069938,0.034399369151840775,-0.933746337890625,-0.4116973876953125,-0.1026611328125
20220224-0954,2022-02-24 09:54:29Z,u01, 190,40,movements,el-ex, rt, d,219164.55285604167, -1.4492196877873582, 0.41009437975213336, 0.46776929882158297, 0.30399975180625916, 0.16272252798080444, 0.15154312551021576, -0.9103139638900757, -0.3986958861351013, -0.11122143268585205, -0.006296813488006592, -0.02111917734146118, 0.01905859261751175, 0.2987074944519583, -0.5959556324911645, 0.7443925792357797,0.038606397952006155,-0.9307098388671875,-0.4172210693359375,-0.092498779296875
20220224-0954,2022-02-24 09:54:29Z,u01, 191,40,movements,el-ex, rt, d,219164.5778020417, -1.4491197908905167, 0.4069480468908521, 0.47604628651895337, 0.2907997965812683, 0.09109069406986237, 0.1607123762369156, -0.9115434288978577, -0.39580845832824707, -0.11146407574415207, 0.010649263858795166, -0.03548118472099304, 0.0018451958894729614, 0.30009811857057156, -0.5951546713031041, 0.7442475746237105,0.04275033874947953,-0.9008941650390625,-0.4312896728515625,-0.109619140625
20220224-0954,2022-02-24 09:54:29Z,u01, 192,40,movements,el-ex, rt, d,219164.6027490417, -1.450642009455352, 0.4039227929651813, 0.4852917245244871, 0.3579925000667572, 0.10813193023204803, 0.1926760971546173, -0.9128967523574829, -0.39302846789360046, -0.11021941155195236, -0.00847482681274414, -0.016181766986846924, -0.01098090410232544, 0.3018535092338551, -0.5947896720146365, 0.7435749666828932,0.04696866840721581,-0.9241180419921875,-0.413238525390625,-0.1203765869140625
20220224-0954,2022-02-24 09:54:29Z,u01, 193,40,movements,el-ex, rt, d,219164.62769504168, -1.4522460786856382, 0.3998442819574884, 0.4960297348982993, 0.3388981819152832, 0.09111246466636658, 0.206351175904274, -0.9146565198898315, -0.389274924993515, -0.10894361138343811, 0.0015704631805419922, 0.005531579256057739, 0.0020254850387573242, 0.30370121691763324, -0.5943852006111466, 0.7428054815595112,0.05207645271861627,-0.9130859375,-0.3837432861328125,-0.1069183349609375
20220224-0954,2022-02-24 09:54:29Z,u01, 194,40,movements,el-ex, rt, d,219164.65264204168, -1.4521574346908175, 0.3952548769626846, 0.5014953463371504, -0.0345751978456974, 0.08924172073602676, 0.20184442400932312, -0.916411280632019, -0.3850434124469757, -0.1092350035905838, -0.02922189235687256, -0.029034405946731567, 0.036511823534965515, 0.3037671145509461, -0.5942289455550558, 0.7426443967756319,0.0556506584869908,-0.9420013427734375,-0.416961669921875,-0.078399658203125
20220224-0954,2022-02-24 09:54:29Z,u01, 195,40,movements,el-ex, rt, d,219164.67758804167, -1.4483786602998825, 0.3895989935463413, 0.4972475344720632, -0.2705952823162079, 0.06657003611326218, 0.2167653888463974, -0.9181388020515442, -0.37981748580932617, -0.11296125501394272, -0.010084092617034912, 0.008616834878921509, 0.014481231570243835, 0.30047781097186665, -0.5943336250424102, 0.743831635268722,0.05652743686411388,-0.92822265625,-0.3712005615234375,-0.098480224609375
20220224-0954,2022-02-24 09:54:29Z,u01, 196,40,movements,el-ex, rt, d,219164.7025340417, -1.444584809663565, 0.38345896808227253, 0.4910663501694242, -0.2057124227285385, 0.07438694685697556, 0.23091797530651093, -0.9199997782707214, -0.3741304576396942, -0.1167350709438324, -0.010786473751068115, 0.034179866313934326, -0.006937205791473389, 0.2964381696375143, -0.5947746445287575, 0.7450755492591591,0.05683429794648115,-0.933013916015625,-0.3411865234375,-0.124603271484375
20220224-0954,2022-02-24 09:54:29Z,u01, 197,40,movements,el-ex, rt, d,219164.7274810417, -1.441834258371478, 0.37721061252448373, 0.48880082614577736, -0.05473872274160385, 0.0672135204076767, 0.24754546582698822, -0.9219753742218018, -0.36832863092422485, -0.11956341564655304, 0.008538484573364258, 0.057232409715652466, 0.006541796028614044, 0.29354522204445954, -0.5950205825277045, 0.745897496767492,0.05846912728966697,-0.9134368896484375,-0.31109619140625,-0.1130218505859375
20220224-0954,2022-02-24 09:54:29Z,u01, 198,40,movements,el-ex, rt, d,219164.75242704168, -1.4400507208035507, 0.37140460405607056, 0.488885212526498, -0.04709295183420181, 0.07796090841293335, 0.20406079292297363, -0.9238654375076294, -0.36292463541030884, -0.12148436903953552, -0.01558774709701538, 0.023828566074371338, 0.01839626580476761, 0.2915236467712378, -0.5952073408474816, 0.7463641736536437,0.06068556358456256,-0.9355316162109375,-0.3337249755859375,-0.104827880859375
20220224-0954,2022-02-24 09:54:29Z,u01, 199,40,movements,el-ex, rt, d,219164.77737304167, -1.4376472556873097, 0.366389212965524, 0.48719518235311177, -0.11145297437906265, 0.07032496482133865, 0.17685912549495697, -0.9253633618354797, -0.35824665427207947, -0.12394459545612335, -0.016088783740997314, 0.028336316347122192, 0.02236706018447876, 0.2892207714856558, -0.5952974436469607, 0.7470746908804362,0.06206341992291897,-0.9414520263671875,-0.3299102783203125,-0.1015777587890625
20220224-0954,2022-02-24 09:54:29Z,u01, 200,40,movements,el-ex, rt, d,219164.8023200417, -1.4357592375041095, 0.36190392828141515, 0.48675504386410773, 0.03189597278833389, 0.08298622816801071, 0.1713632196187973, -0.9267106652259827, -0.3540554642677307, -0.1259065419435501, -0.00659334659576416, 0.03352928161621094, 0.011053845286369324, 0.2874832651172857, -0.5953151247716233, 0.747597312307535,0.06365364776880555,-0.9345855712890625,-0.321990966796875,-0.117950439453125
20220224-0954,2022-02-24 09:54:29Z,u01, 201,40,movements,el-ex, rt, d,219164.82726604168, -1.4342051635064075, 0.3573115069561712, 0.4890784584026381, 0.04036618769168854, 0.12220346927642822, 0.1820114105939865, -0.9281147718429565, -0.34975680708885193, -0.1275666058063507, 0.007384121417999268, 0.01682528853416443, 0.04025609791278839, 0.2865376770510338, -0.5950738227855912, 0.7479256606402707,0.06626148614274774,-0.9207305908203125,-0.3329315185546875,-0.087310791015625
20220224-0954,2022-02-24 09:54:29Z,u01, 202,40,movements,el-ex, rt, d,219164.85221204167, -1.4325098340100852, 0.3528369096133968, 0.48916398198847255, -0.11209894716739655, 0.11719386279582977, 0.16204868257045746, -0.9294378757476807, -0.34556132555007935, -0.1293543130159378, -0.0050103068351745605, 0.007319778203964233, 0.0197049081325531, 0.2849580966173225, -0.595081278536765, 0.7483659354493095,0.06801131918125525,-0.929290771484375,-0.34326171875,-0.1021728515625
20220224-0954,2022-02-24 09:54:29Z,u01, 203,40,movements,el-ex, rt, d,219164.87715904167, -1.429108993086786, 0.34844166067460264, 0.48721823055896885, -0.05578930675983429, 0.14499200880527496, 0.1493965983390808, -0.930487334728241, -0.3414335250854492, -0.13272763788700104, -0.010857999324798584, 0.01962563395500183, -0.007439374923706055, 0.28273842133335353, -0.5947227617044121, 0.749382097691274,0.06921266310650243,-0.94134521484375,-0.321807861328125,-0.140167236328125
20220224-0954,2022-02-24 09:54:29Z,u01, 204,40,movements,el-ex, rt, d,219164.9021050417, -1.4276089463292878, 0.3440631026046232, 0.4890398976059989, 0.11309821903705597, 0.12189594656229019, 0.21720914542675018, -0.9317579865455627, -0.3373148441314697, -0.13433530926704407, 0.011134088039398193, -0.02483728528022766, -0.024126991629600525, 0.2817056704459273, -0.5945370107799752, 0.7496991778835488,0.07154658139741271,-0.9251708984375,-0.356597900390625,-0.149658203125
20220224-0954,2022-02-24 09:54:29Z,u01, 205,40,movements,el-ex, rt, d,219164.92705104168, -1.4281566821459486, 0.3395783244021915, 0.4949058989538458, 0.21271738409996033, 0.07531918585300446, 0.23627504706382751, -0.9333194494247437, -0.33308953046798706, -0.13403864204883575, 0.014251947402954102, -0.03881296515464783, -0.020166456699371338, 0.2819105857752586, -0.594564630141501, 0.7492484481041854,0.07514121038829946,-0.9190673828125,-0.3719024658203125,-0.154205322265625
20220224-0954,2022-02-24 09:54:29Z,u01, 206,40,movements,el-ex, rt, d,219164.95199804168, -1.428229546593512, 0.3341451155830892, 0.499679737287396, 0.026631999760866165, 0.07868076115846634, 0.22611495852470398, -0.9351068139076233, -0.32796168327331543, -0.13422580063343048, -0.02024608850479126, -0.06649327278137207, -0.0008600354194641113, 0.2814445307111817, -0.5947067171759157, 0.7489450665655625,0.07870374984320705,-0.9517059326171875,-0.3906097412109375,-0.1386566162109375
20220224-0954,2022-02-24 09:54:30Z,u01, 207,40,movements,el-ex, rt, d,219164.97694404167, -1.4255287608064033, 0.3283194706757593, 0.4973469727603494, -0.2649992108345032, 0.06574785709381104, 0.22055339813232422, -0.9366154670715332, -0.32245272397994995, -0.13702507317066193, -0.006286263465881348, -0.05575162172317505, 0.007188260555267334, 0.2786159111618789, -0.5948618643917822, 0.7497289443631033,0.08011953022779994,-0.942901611328125,-0.378204345703125,-0.1298370361328125
20220224-0954,2022-02-24 09:54:30Z,u01, 208,40,movements,el-ex, rt, d,219165.00189104167, -1.4207916431155312, 0.3215418627884467, 0.48858707765878817, -0.4271838665008545, 0.07565294951200485, 0.2504998445510864, -0.9380951523780823, -0.31602978706359863, -0.1417837142944336, 0.0002442002296447754, 0.002293825149536133, 0.02290274202823639, 0.2734515387717632, -0.5952582628189613, 0.7513580701524207,0.07970512124033452,-0.93865966796875,-0.3221588134765625,-0.1171722412109375
20220224-0954,2022-02-24 09:54:30Z,u01, 209,40,movements,el-ex, rt, d,219165.0268370417, -1.4163164164898303, 0.3131269955710913, 0.47989845518775265, -0.3058519959449768, 0.07543530315160751, 0.3088968098163605, -0.9400457739830017, -0.30803507566452026, -0.14638447761535645, 0.0027898550033569336, 0.028646647930145264, 0.01872970163822174, 0.2677287629854533, -0.5959270652006156, 0.7528782656519699,0.07979101473734063,-0.937255859375,-0.279388427734375,-0.127655029296875
20220224-0954,2022-02-24 09:54:30Z,u01, 210,40,movements,el-ex, rt, d,219165.05178304168, -1.41265708784859, 0.30474155583476337, 0.47623146494120483, -0.08554207533597946, 0.12473854422569275, 0.3097288906574249, -0.9420216083526611, -0.3000466525554657, -0.1502249538898468, -0.005320429801940918, 0.03657311201095581, 0.004793643951416016, 0.26352780183170443, -0.5961884111895888, 0.7539560173617244,0.08162695972926687,-0.950286865234375,-0.263275146484375,-0.1439361572265625
20220224-0954,2022-02-24 09:54:30Z,u01, 211,40,movements,el-ex, rt, d,219165.07673004168, -1.4093643799566975, 0.2970742489413802, 0.4769703140641664, 0.011615467257797718, 0.14942224323749542, 0.3195609450340271, -0.9437647461891174, -0.2927238643169403, -0.15369118750095367, 0.015847206115722656, 0.02809065580368042, 0.000981450080871582, 0.2608949460158865, -0.5958928037510349, 0.7547514591527313,0.08482885904106424,-0.92791748046875,-0.2646331787109375,-0.1527099609375
20220224-0954,2022-02-24 09:54:30Z,u01, 212,40,movements,el-ex, rt, d,219165.10167604167, -1.4061179424615244, 0.2886061514070567, 0.47854902677854233, -0.016962449997663498, 0.14597465097904205, 0.37452951073646545, -0.9456723928451538, -0.28461629152297974, -0.15715500712394714, 0.018426120281219482, 0.0038240551948547363, 0.03416937589645386, 0.25821644929688103, -0.5956062160125147, 0.7554662577309336,0.08859152704321632,-0.9262237548828125,-0.2815704345703125,-0.1252593994140625
20220224-0954,2022-02-24 09:54:30Z,u01, 213,40,movements,el-ex, rt, d,219165.1266220417, -1.402707495094396, 0.27814737356048996, 0.4792537206640666, -0.074425607919693, 0.1465727984905243, 0.46417659521102905, -0.9480139017105103, -0.2745746970176697, -0.16086846590042114, 0.017990589141845703, 0.01090279221534729, 0.025492727756500244, 0.25454544641516835, -0.5956277211383996, 0.7562045898456335,0.09267715997615977,-0.930023193359375,-0.263671875,-0.1353759765625
20220224-0954,2022-02-24 09:54:30Z,u01, 214,40,movements,el-ex, rt, d,219165.15156904169, -1.4002635893324378, 0.2649133434656792, 0.48004793233986287, -0.015856172889471054, 0.04756845161318779, 0.5806449055671692, -0.9511159062385559, -0.2618256211280823, -0.16378720104694366, 0.04642206430435181, -0.0026855170726776123, -0.023147955536842346, 0.24993522679851948, -0.5963545752212047, 0.7565559540314284,0.09755465720645529,-0.9052886962890625,-0.263916015625,-0.175079345703125
20220224-0954,2022-02-24 09:54:30Z,u01, 215,40,movements,el-ex, rt, d,219165.17651504168, -1.4018489019324991, 0.25049328608443655, 0.4858399691698737, 0.25933125615119934, -0.013428991660475731, 0.6066880226135254, -0.9549970030784607, -0.24788187444210052, -0.16289710998535156, 0.014292538166046143, -0.013196036219596863, -0.056325674057006836, 0.24657984867006064, -0.5981219131225343, 0.7553758502712888,0.10419200736006978,-0.940704345703125,-0.261077880859375,-0.2192230224609375
20220224-0954,2022-02-24 09:54:30Z,u01, 216,40,movements,el-ex, rt, d,219165.20146104167, -1.4046141263899001, 0.23718124903150545, 0.497106675908232, 0.37258073687553406, -0.006267686374485493, 0.591964602470398, -0.9586134552955627, -0.23496372997760773, -0.16078735888004303, 0.012293756008148193, 0.03255586326122284, -0.0011844635009765625, 0.2453354812843502, -0.5995138234638968, 0.7535002688178537,0.11238854805553555,-0.9479217529296875,-0.210906982421875,-0.176361083984375
20220224-0954,2022-02-24 09:54:30Z,u01, 217,40,movements,el-ex, rt, d,219165.2264080417, -1.4076430525559438, 0.22452384682362117, 0.5066830303702197, 0.15173369646072388, -0.03635561093688011, 0.5175533890724182, -0.9619535207748413, -0.222642183303833, -0.15835343301296234, -0.012610077857971191, -0.0033251941204071045, 0.01818646490573883, 0.24385712933354997, -0.6011297537693273, 0.7515646220742778,0.11969678430129066,-0.9745635986328125,-0.2259674072265625,-0.140167236328125
20220224-0954,2022-02-24 09:54:30Z,u01, 218,40,movements,el-ex, rt, d,219165.25135404168, -1.4087260354577416, 0.21184575113657764, 0.5080594628195136, -0.15335798263549805, -0.03380337357521057, 0.5169769525527954, -0.9648328423500061, -0.21026474237442017, -0.15775439143180847, -0.05451542139053345, -0.045747220516204834, 0.00026869773864746094, 0.23980045506879066, -0.6030079136220511, 0.7506402045552724,0.12416336212551204,-1.0172576904296875,-0.259613037109375,-0.145721435546875
20220224-0954,2022-02-24 09:54:30Z,u01, 219,40,movements,el-ex, rt, d,219165.27630004167, -1.4091654695722737, 0.19890593098846346, 0.5061817074999571, -0.1071346253156662, -0.021460020914673805, 0.4761340618133545, -0.967506468296051, -0.1975969523191452, -0.1577550619840622, -0.06627649068832397, -0.024281099438667297, -0.01695786416530609, 0.23462176302673354, -0.6050414014873846, 0.7500692506882317,0.1275682853794112,-1.033782958984375,-0.2218780517578125,-0.174713134765625
20220224-0954,2022-02-24 09:54:30Z,u01, 220,40,movements,el-ex, rt, d,219165.30124712503, -1.4091947195174481, 0.18773074143084237, 0.506804555999948, 0.016345074400305748, 0.018684666603803635, 0.40945908427238464, -0.9696301817893982, -0.1866299957036972, -0.15807221829891205, -0.06839489936828613, -0.003845512866973877, 0.00417231023311615, 0.23079773821402483, -0.6063796598631194, 0.749515376526497,0.131388739406088,-1.0412445068359375,-0.1919097900390625,-0.1521148681640625
20220224-0954,2022-02-24 09:54:30Z,u01, 221,40,movements,el-ex, rt, d,219165.32619312502, -1.4087952104892199, 0.17878583525704977, 0.5099399801192475, 0.08113588392734528, 0.05651959776878357, 0.3536897599697113, -0.9711756110191345, -0.1778348982334137, -0.15872249007225037, -0.06741398572921753, -0.020361527800559998, 0.00676041841506958, 0.2285044530194233, -0.6069797928047069, 0.74900378359758,0.13547939180008514,-1.0385894775390625,-0.1981964111328125,-0.1519622802734375
20220224-0954,2022-02-24 09:54:30Z,u01, 222,40,movements,el-ex, rt, d,219165.351139125, -1.4079890522759322, 0.17099113059150126, 0.5135871158716186, 0.09774143248796463, 0.06724614650011063, 0.2982170581817627, -0.9723857045173645, -0.17015911638736725, -0.15972520411014557, -0.07723599672317505, -0.034293413162231445, -0.0067479610443115234, 0.22674929641575142, -0.6072249618198884, 0.7486126447168662,0.1394340504585557,-1.04730224609375,-0.2071685791015625,-0.1647186279296875
20220224-0954,2022-02-24 09:54:30Z,u01, 223,40,movements,el-ex, rt, d,219165.376086125, -1.4066458815546208, 0.16506976516973337, 0.5173147255233775, 0.10606527328491211, 0.08984466642141342, 0.21283157169818878, -0.9731470942497253, -0.1643211543560028, -0.16119293868541718, -0.08758282661437988, -0.023880749940872192, 0.007338792085647583, 0.22565187288275818, -0.6070294586831271, 0.7484537931898683,0.14287515184238522,-1.06072998046875,-0.188201904296875,-0.1538543701171875
20220224-0954,2022-02-24 09:54:30Z,u01, 224,40,movements,el-ex, rt, d,219165.40103212502, -1.4052899773611591, 0.16170532030222845, 0.5211900010687077, 0.1537298560142517, 0.06747331470251083, 0.09941926598548889, -0.9734675884246826, -0.161001518368721, -0.1626024693250656, -0.08280694484710693, -0.022805869579315186, 0.0006611943244934082, 0.22551629133306758, -0.6064991049798726, 0.748408822788668,0.14555277156493462,-1.0561981201171875,-0.1894073486328125,-0.1598968505859375
20220224-0954,2022-02-24 09:54:30Z,u01, 225,40,movements,el-ex, rt, d,219165.42597912502, -1.4047750453496333, 0.16085868653467408, 0.5257485345426388, 0.19054217636585236, 0.03418000414967537, 0.027607053518295288, -0.9735178351402283, -0.16016586124897003, -0.16312618553638458, -0.08319920301437378, -0.009282991290092468, -0.0034995675086975098, 0.2265548806320235, -0.6058958589851943, 0.7481854012554171,0.1475866185112304,-1.0567169189453125,-0.1694488525390625,-0.1666259765625
20220224-0954,2022-02-24 09:54:30Z,u01, 226,40,movements,el-ex, rt, d,219165.450925125, -1.4045726694018046, 0.16164469884059826, 0.529388951376406, 0.0720534473657608, 0.02163325622677803, -0.03337886929512024, -0.9733602404594421, -0.16094167530536652, -0.16330231726169586, -0.08830052614212036, -0.027626410126686096, 0.029925420880317688, 0.2279255699830845, -0.6053088292511809, 0.7480196189163846,0.14872070695943915,-1.0639801025390625,-0.1823272705078125,-0.137908935546875
20220224-0954,2022-02-24 09:54:30Z,u01, 227,40,movements,el-ex, rt, d,219165.475871125, -1.404265267628597, 0.16304583436658976, 0.5283068894798754, -0.11134298145771027, -0.004358331672847271, -0.09040319919586182, -0.9730867147445679, -0.16232439875602722, -0.16356398165225983, -0.0796934962272644, -0.02825787663459778, 0.03891517221927643, 0.22808027511426404, -0.6051424622387619, 0.7482689026075436,0.14790431324488676,-1.0527801513671875,-0.190582275390625,-0.1246490478515625
20220224-0954,2022-02-24 09:54:30Z,u01, 228,40,movements,el-ex, rt, d,219165.500818125, -1.404223973231, 0.16552789754819186, 0.5262642672258729, 0.04353425279259682, -0.009967947378754616, -0.12691986560821533, -0.9726794958114624, -0.16477303206920624, -0.16353684663772583, -0.05777698755264282, 0.029580160975456238, 0.021309927105903625, 0.22835379681372592, -0.605050513461207, 0.7485646975876457,0.14635319023662963,-1.0343017578125,-0.1482696533203125,-0.1410369873046875
20220224-0954,2022-02-24 09:54:30Z,u01, 229,40,movements,el-ex, rt, d,219165.52576412502, -1.4053701710620652, 0.1692500227571813, 0.5306161377031531, 0.3708065450191498, -0.009199826046824455, -0.08768291771411896, -0.9722549319267273, -0.16844312846660614, -0.16231977939605713, -0.05122858285903931, 0.10679760575294495, 0.06213073432445526, 0.23109386227655498, -0.6045128113066567, 0.7480978070409263,0.1466623076073036,-1.0234832763671875,-0.0616455078125,-0.100189208984375
20220224-0954,2022-02-24 09:54:30Z,u01, 230,40,movements,el-ex, rt, d,219165.550710125, -1.4072491572570962, 0.1713770746952917, 0.5412945074298628, 0.4614429175853729, 0.00037364009767770767, 0.0397934764623642, -0.9722023606300354, -0.17053940892219543, -0.16043391823768616, -0.05845266580581665, 0.045325785875320435, 0.03642594814300537, 0.23522256687430554, -0.6036997493566809, 0.7468537032685258,0.14975513775683166,-1.03076171875,-0.074981689453125,-0.103973388671875
20220224-0954,2022-02-24 09:54:30Z,u01, 231,40,movements,el-ex, rt, d,219165.575657125, -1.4084407937393113, 0.1739754283126769, 0.5494104782306367, 0.10391171276569366, -0.0022775372490286827, -0.17729143798351288, -0.9719523787498474, -0.17309913039207458, -0.15920314192771912, -0.06627112627029419, -0.1543697714805603, -0.017783358693122864, 0.23869116700157697, -0.6028473735361644, 0.7460258363729745,0.1518132445919662,-1.0382232666015625,-0.3274688720703125,-0.1769866943359375
20220224-0954,2022-02-24 09:54:30Z,u01, 232,40,movements,el-ex, rt, d,219165.600603125, -1.4093927120880352, 0.17948772377549685, 0.5442202196725373, -0.23193266987800598, -0.14394345879554749, -0.2483348399400711, -0.971146821975708, -0.17852555215358734, -0.15812209248542786, -0.020155727863311768, -0.012239843606948853, -0.032170042395591736, 0.23916939442478646, -0.6031060910241103, 0.7464293977988455,0.1480009790461095,-0.9944915771484375,-0.2303619384765625,-0.18695068359375
20220224-0954,2022-02-24 09:54:30Z,u01, 233,40,movements,el-ex, rt, d,219165.62554912502, -1.4128161021104455, 0.18597697901865923, 0.5442938486679975, 0.3039625287055969, -0.09822237491607666, -0.3158625662326813, -0.9705179333686829, -0.1849067509174347, -0.1546110361814499, -0.08044654130935669, 0.11563184857368469, -0.010229408740997314, 0.24176040711586955, -0.6035282843891692, 0.745737365684413,0.14553815382083643,-1.05096435546875,-0.06927490234375,-0.1648406982421875
20220224-0954,2022-02-24 09:54:30Z,u01, 234,40,movements,el-ex, rt, d,219165.65049612502, -1.4159622106974823, 0.19614886442287657, 0.5537764280057221, 0.4040457010269165, -0.033380329608917236, -0.40004807710647583, -0.9690911173820496, -0.1948934942483902, -0.15125904977321625, -0.10938495397567749, -0.095084547996521, 0.011061489582061768, 0.24846666276962298, -0.6021916596931371, 0.7446360684550879,0.14541963292809448,-1.078399658203125,-0.2523345947265625,-0.1456756591796875
20220224-0954,2022-02-24 09:54:30Z,u01, 235,40,movements,el-ex, rt, d,219165.675442125, -1.4184422550598, 0.20866513247409454, 0.5559023640473265, -0.0928918719291687, -0.140055850148201, -0.5509911775588989, -0.9669762849807739, -0.20715416967868805, -0.1484733372926712, -0.0884590744972229, -0.10264505445957184, 0.016042515635490417, 0.2537182279691006, -0.6011575448908575, 0.7443852471218407,0.14187132832298296,-1.0554351806640625,-0.3097991943359375,-0.1324310302734375
20220224-0954,2022-02-24 09:54:30Z,u01, 236,40,movements,el-ex, rt, d,219165.70038812503, -1.4214481996608617, 0.22228909927806545, 0.5516590454423744, 0.019035065546631813, -0.15612642467021942, -0.5750917196273804, -0.9645376205444336, -0.22046297788619995, -0.14513254165649414, -0.11123764514923096, 0.027790263295173645, -0.007210955023765564, 0.2574614158958315, -0.6009553609685598, 0.7444484556924065,0.13550967508436107,-1.0693817138671875,-0.1957244873046875,-0.1456298828125
20220224-0954,2022-02-24 09:54:30Z,u01, 237,40,movements,el-ex, rt, d,219165.72533512503, -1.4253004039984827, 0.23785447059032544, 0.5527846391300468, 0.1864040642976761, -0.14066043496131897, -0.6557227373123169, -0.9615774154663086, -0.23561803996562958, -0.14090125262737274, -0.13388162851333618, -0.02350670099258423, -0.011930525302886963, 0.26352920699400856, -0.6000847697331549, 0.7439426683319952,0.13038424238963578,-1.095458984375,-0.259124755859375,-0.15283203125
20220224-0954,2022-02-24 09:54:30Z,u01, 238,40,movements,el-ex, rt, d,219165.75028112502, -1.4297539158628483, 0.2550633660644551, 0.5548320995659299, 0.20371536910533905, -0.18213871121406555, -0.6716839075088501, -0.9580387473106384, -0.25230672955513, -0.1360272914171219, -0.11187714338302612, -0.016492128372192383, -0.022358715534210205, 0.2704468895995942, -0.599036591200786, 0.7432362238996456,0.12495490846397042,-1.0770111083984375,-0.2714996337890625,-0.1521453857421875
20220224-0954,2022-02-24 09:54:30Z,u01, 239,40,movements,el-ex, rt, d,219165.775227125, -1.435594410520853, 0.27299613099334624, 0.5585915060229023, 0.2354668378829956, -0.20579250156879425, -0.7131057977676392, -0.9541797041893005, -0.26961782574653625, -0.1297987699508667, -0.10497885942459106, -0.03406265377998352, -0.012779131531715393, 0.27816198426158456, -0.598102435297397, 0.7420061007567396,0.1196935099796898,-1.0591583251953125,-0.303680419921875,-0.142578125
20220224-0954,2022-02-24 09:54:30Z,u01, 240,40,movements,el-ex, rt, d,219165.800174125, -1.4416617024994505, 0.29137658259552424, 0.5610054628939507, 0.14951907098293304, -0.23654262721538544, -0.7078031301498413, -0.9498741030693054, -0.28727105259895325, -0.12334804236888885, -0.09253019094467163, -0.06130072474479675, 0.028942108154296875, 0.28558053118159454, -0.597302051417269, 0.7407737613950998,0.11370300220312562,-1.0464630126953125,-0.3582000732421875,-0.0969696044921875
20220224-0954,2022-02-24 09:54:30Z,u01, 241,40,movements,el-ex, rt, d,219165.82512012502, -1.448438340939472, 0.30910528422062816, 0.5628162994893119, 0.18617136776447296, -0.24773962795734406, -0.6985704302787781, -0.9454841017723083, -0.3042064607143402, -0.1162683442234993, -0.07850277423858643, -0.02097359299659729, 0.0124020054936409, 0.29256982996370245, -0.5968825029971385, 0.7393019486211634,0.10754917724380714,-1.02398681640625,-0.3251800537109375,-0.1038665771484375
20220224-0954,2022-02-24 09:54:30Z,u01, 242,40,movements,el-ex, rt, d,219165.85006712502, -1.4546484986253716, 0.3267562591895078, 0.5648576288127306, 0.1123904138803482, -0.21490590274333954, -0.6719400882720947, -0.9407073855400085, -0.32097262144088745, -0.10975510627031326, -0.052777111530303955, -0.02498990297317505, 0.0006092339754104614, 0.29950615120213536, -0.5961698689674312, 0.7379482452415492,0.10153772514046733,-1.004547119140625,-0.3384857177734375,-0.1091461181640625
20220224-0954,2022-02-24 09:54:30Z,u01, 243,40,movements,el-ex, rt, d,219165.875013125, -1.4599813226192015, 0.34321306140658514, 0.5637848327453735, -0.0019916552118957043, -0.26519832015037537, -0.6568657159805298, -0.9359022974967957, -0.33651450276374817, -0.10413864254951477, -0.031794846057891846, -0.02997109293937683, -0.0021843761205673218, 0.30500767341986723, -0.5957356789420338, 0.736933108665691,0.09486255040161085,-0.9676971435546875,-0.366485595703125,-0.1063232421875
20220224-0954,2022-02-24 09:54:30Z,u01, 244,40,movements,el-ex, rt, d,219165.899959125, -1.465611225254457, 0.3591898972719505, 0.5609825347444175, -0.027749914675951004, -0.2574957311153412, -0.6293483972549438, -0.931007981300354, -0.3515159487724304, -0.09829092770814896, -0.025581002235412598, 0.031691670417785645, 0.021814092993736267, 0.30979508298414604, -0.5957193486832266, 0.7358441740048591,0.08763008028372504,-0.9600677490234375,-0.3273773193359375,-0.07952880859375
20220224-0954,2022-02-24 09:54:30Z,u01, 245,40,movements,el-ex, rt, d,219165.924906125, -1.4717747797001937, 0.37415461425657126, 0.5607334655707775, 0.12931564450263977, -0.2473977506160736, -0.5397643446922302, -0.9262571930885315, -0.3654857575893402, -0.09202037751674652, -0.015957772731781006, 0.0443035364151001, 0.005854204297065735, 0.3149761746177875, -0.5956339659090287, 0.7344102449676725,0.08155822557317605,-0.9422149658203125,-0.3211822509765625,-0.0861663818359375
20220224-0954,2022-02-24 09:54:30Z,u01, 246,40,movements,el-ex, rt, d,219165.94985212502, -1.478287117933975, 0.38744394253417064, 0.5627546075693306, 0.09163136780261993, -0.22673268616199493, -0.5104405283927917, -0.9219189882278442, -0.3778230547904968, -0.085530124604702, 0.0037975311279296875, -0.022338688373565674, -0.0031079649925231934, 0.3202413232025918, -0.5955505304077026, 0.7327129095016942,0.07679184522507848,-0.92608642578125,-0.3896026611328125,-0.0864410400390625
20220224-0954,2022-02-24 09:54:31Z,u01, 247,40,movements,el-ex, rt, d,219165.974798125, -1.4840250413205798, 0.40002398095211483, 0.5610526844353089, -0.13908904790878296, -0.29294684529304504, -0.5154427886009216, -0.9175863265991211, -0.3894404172897339, -0.07982058078050613, 0.02538973093032837, 0.020162522792816162, -0.004468731582164764, 0.32409061025879554, -0.5958649071036818, 0.7313481216955398,0.07099401812303341,-0.8921966552734375,-0.3692779541015625,-0.08428955078125
20220224-0954,2022-02-24 09:54:31Z,u01, 248,40,movements,el-ex, rt, d,219165.999745125, -1.489118619139452, 0.412780487267108, 0.5552459581254255, -0.1737566590309143, -0.27904602885246277, -0.532649576663971, -0.9129554033279419, -0.40115782618522644, -0.07473436743021011, -0.028496861457824707, 0.07436025142669678, -0.002505369484424591, 0.32671254082679113, -0.5965666185495533, 0.7302789608210016,0.06371858617021292,-0.93572998046875,-0.3336334228515625,-0.0797576904296875
