SessionID,LoggingTime,UID,RecNo,Hertz,Activity,MoveType,Wrist,Side,TimeStamp,DMRoll,DMPitch,DMYaw,DMRotX,DMRotY,DMRotZ,DMGrvX,DMGrvY,DMGrvZ,DMUAccelX,DMUAccelY,DMUAccelZ,DMQuatX,DMQuatY,DMQuatW,DMQuatZ,AccelroX,AceelroY,AceelroZ
20220224-0916,2022-02-24 09:16:17Z,u01, 1,40,movements,el-ex, rt, d,218209.13275762502, -1.471034517459632, 0.39829574518561545, 0.36127880910033117, -0.15386170148849487, 0.10732930898666382, 0.30524903535842896, -0.917140781879425, -0.38784804940223694, -0.09180036932229996, 0.020503520965576172, 0.008422881364822388, -0.0489310696721077, 0.2624670998249861, -0.6206535564202957, 0.7388508029466219,5.551115123125783e-17,-0.89892578125,-0.3837890625,-0.1320953369140625
20220224-0916,2022-02-24 09:16:17Z,u01, 2,40,movements,el-ex, rt, d,218209.15770462502, -1.4687480705404523, 0.3904653681942138, 0.3626759501388466, 0.1769229620695114, 0.10784775763750076, 0.29730743169784546, -0.9199212789535522, -0.3806188106536865, -0.09420359879732132, 0.02024775743484497, 0.031116247177124023, -0.04336927831172943, 0.26018957079475263, -0.6206444945283671, 0.7396553122300727,0.0034499615236827097,-0.9024505615234375,-0.3499755859375,-0.131561279296875
20220224-0916,2022-02-24 09:16:17Z,u01, 3,40,movements,el-ex, rt, d,218209.182650625, -1.4671217861535601, 0.38433558995997696, 0.3675175606068918, 0.01855440065264702, 0.17639093101024628, 0.2412833571434021, -0.9220702052116394, -0.3749432861804962, -0.09593918174505234, -0.029056012630462646, -0.0035815536975860596, 0.02097315341234207, 0.2595626900691566, -0.6202077220465309, 0.740211649350276,0.0075131071453765075,-0.9500579833984375,-0.3765106201171875,-0.074371337890625
20220224-0916,2022-02-24 09:16:17Z,u01, 4,40,movements,el-ex, rt, d,218209.207597625, -1.462094720146512, 0.3777692987608617, 0.3661661524870146, -0.05269138514995575, 0.15997767448425293, 0.2664968967437744, -0.9240038990974426, -0.36884796619415283, -0.10083819180727005, 0.005333006381988525, -0.0037564337253570557, -0.036902546882629395, 0.2568407960535406, -0.6193655711795006, 0.7418368906362703,0.0098649171924296,-0.913238525390625,-0.36590576171875,-0.148529052734375
20220224-0916,2022-02-24 09:16:17Z,u01, 5,40,movements,el-ex, rt, d,218209.23254362502, -1.4628830368308503, 0.370635019733535, 0.37417757885424296, 0.6758885979652405, 0.017867866903543472, 0.3669646084308624, -0.9266757369041443, -0.36220741271972656, -0.10039062052965164, 0.03849196434020996, 0.0468539297580719, -0.1738857626914978, 0.25684434060916517, -0.6195447312182715, 0.7415974106740744,0.015126260996693924,-0.886016845703125,-0.3214111328125,-0.2720184326171875
20220224-0916,2022-02-24 09:16:17Z,u01, 6,40,movements,el-ex, rt, d,218209.25749062502, -1.4724675695278917, 0.36395416784434975, 0.4018348889785284, 1.1876789331436157, 0.021974928677082062, 0.3863353133201599, -0.9299827218055725, -0.35597217082977295, -0.09173990041017532, -0.011438906192779541, 0.06802353262901306, -0.10464029759168625, 0.26320263050294823, -0.620366363607386, 0.738359873825317,0.026358907604364212,-0.9472503662109375,-0.288330078125,-0.1828155517578125
20220224-0916,2022-02-24 09:16:17Z,u01, 7,40,movements,el-ex, rt, d,218209.282436625, -1.481357657629656, 0.35653785964693263, 0.4302660868406699, 0.7073913812637329, -0.5305910110473633, 0.8145996332168579, -0.9333653450012207, -0.349031925201416, -0.08370225876569748, -0.19725000858306885, -0.0010809898376464844, 0.045265741646289825, 0.2696211187782586, -0.62084887160826, 0.735116096934405,0.038152382007249214,-1.0714569091796875,-0.34185791015625,-0.0605621337890625
20220224-0916,2022-02-24 09:16:17Z,u01, 8,40,movements,el-ex, rt, d,218209.307383625, -1.4836993642408396, 0.3488376643070996, 0.4400476275018465, 0.04217294603586197, -0.056505098938941956, 0.33115285634994507, -0.9362085461616516, -0.34180569648742676, -0.08174773305654526, -0.09784924983978271, -0.01370885968208313, 0.05641847848892212, 0.2700756204673338, -0.6214380836484746, 0.7341218307878101,0.044035849830213636,-0.87823486328125,-0.3649749755859375,-0.062255859375
20220224-0916,2022-02-24 09:16:17Z,u01, 9,40,movements,el-ex, rt, d,218209.332329625, -1.4848739749849011, 0.3417714576813936, 0.4411289123938287, 0.11521383374929428, -0.01252998597919941, 0.2378380298614502, -0.9386870265007019, -0.3351566195487976, -0.08085326105356216, -0.0389743447303772, 0.04403412342071533, 0.0015994906425476074, 0.26802492955513685, -0.6226845152893359, 0.7336545531428256,0.04666793569696995,-0.9681854248046875,-0.2968902587890625,-0.0852203369140625
20220224-0916,2022-02-24 09:16:17Z,u01, 10,40,movements,el-ex, rt, d,218209.357276625, -1.4852295687267574, 0.3364827723153232, 0.44516498278617506, 0.12051092088222504, 0.05146803706884384, 0.24079588055610657, -0.9404683709144592, -0.330169141292572, -0.08066980540752411, -0.08293867111206055, 0.04817149043083191, 0.049908414483070374, 0.2674834055372845, -0.6229909521681711, 0.7333796277306963,0.049892062744844895,-1.022308349609375,-0.2882080078125,-0.030181884765625
20220224-0916,2022-02-24 09:16:18Z,u01, 11,40,movements,el-ex, rt, d,218209.38222262502, -1.483909097179854, 0.3329036756753514, 0.4462095036805322, -0.0538104772567749, -0.012488972395658493, 0.12352531403303146, -0.9415323138237, -0.32678866386413574, -0.08201362192630768, -0.0611686110496521, -0.008767366409301758, 0.060651667416095734, 0.2665515402034338, -0.6228510788056029, 0.7337150469994046,0.05166330706247754,-0.9990692138671875,-0.3365936279296875,-0.0275726318359375
20220224-0916,2022-02-24 09:16:18Z,u01, 12,40,movements,el-ex, rt, d,218209.40716962502, -1.4824855232638787, 0.3292384448416244, 0.44270228567405534, -0.17755259573459625, 0.00042616017162799835, 0.07750283181667328, -0.9426015019416809, -0.32332247495651245, -0.08345896750688553, -0.10485351085662842, -0.026821017265319824, 0.046655118465423584, 0.26416692442220185, -0.6232867326863878, 0.7341974858832073,0.051805139650154236,-1.05426025390625,-0.354949951171875,-0.0406951904296875
20220224-0916,2022-02-24 09:16:18Z,u01, 13,40,movements,el-ex, rt, d,218209.432115625, -1.4799525092451258, 0.3273943385508023, 0.43814599783558034, -0.15556547045707703, 0.06706604361534119, 0.05380535498261452, -0.9429792165756226, -0.321576863527298, -0.08590026199817657, -0.14292794466018677, -0.08716034889221191, 0.020242035388946533, 0.26204897319042797, -0.6232015755491808, 0.7350784658929683,0.05108800412337186,-1.0870208740234375,-0.4072113037109375,-0.0607452392578125
20220224-0916,2022-02-24 09:16:18Z,u01, 14,40,movements,el-ex, rt, d,218209.457062625, -1.4782730017384882, 0.32666300019466615, 0.43721215311473605, 0.10188747197389603, 0.04023462533950806, 0.004533079452812672, -0.9430676102638245, -0.3208842873573303, -0.08750559389591217, -0.12603962421417236, -0.06462907791137695, -0.005221664905548096, 0.26146363905490655, -0.6228033139217904, 0.735615713566232,0.05121138123884639,-1.066925048828125,-0.38238525390625,-0.0948333740234375
20220224-0916,2022-02-24 09:16:18Z,u01, 15,40,movements,el-ex, rt, d,218209.48200862503, -1.4806077060401097, 0.32736295386722414, 0.44390671083816036, 0.3231890797615051, 0.019058432430028915, -0.02846062183380127, -0.9430453181266785, -0.32154715061187744, -0.0852833166718483, -0.13477468490600586, -0.09416335821151733, 0.01079028844833374, 0.26384957691218053, -0.622689122730912, 0.7347238326583951,0.05312923824198365,-1.0752716064453125,-0.410797119140625,-0.080780029296875
20220224-0916,2022-02-24 09:16:18Z,u01, 16,40,movements,el-ex, rt, d,218209.50695562502, -1.481979201432765, 0.32922572562550956, 0.44949430938803864, 0.04936563968658447, -0.0021182242780923843, -0.05155608803033829, -0.9425631761550903, -0.3233104348182678, -0.08393657952547073, -0.1265745759010315, -0.11641740798950195, 0.030851662158966064, 0.26626398204569, -0.6222018980179298, 0.7341746381828205,0.05436988426288661,-1.064300537109375,-0.4392242431640625,-0.0543212890625
20220224-0916,2022-02-24 09:16:18Z,u01, 17,40,movements,el-ex, rt, d,218209.531901625, -1.4814866661400194, 0.33018884462690967, 0.44619433589137975, -0.242489755153656, -0.05708739906549454, -0.06139560416340828, -0.9422110915184021, -0.324221670627594, -0.08437299728393555, -0.08435457944869995, -0.069577157497406, 0.027717478573322296, 0.2655539746503906, -0.6223299666155151, 0.7344306733609234,0.052898216970995476,-1.0278778076171875,-0.39788818359375,-0.056182861328125
20220224-0916,2022-02-24 09:16:18Z,u01, 18,40,movements,el-ex, rt, d,218209.556848625, -1.4811621973482614, 0.33156298071694074, 0.43954036240410965, -0.21427933871746063, -0.08624382317066193, -0.09464103728532791, -0.9417390823364258, -0.3255212903022766, -0.08463875204324722, -0.08861082792282104, -0.035516977310180664, 0.01917886734008789, 0.2639453400151517, -0.6229072801651467, 0.7347219090195816,0.0500327835625021,-1.0307464599609375,-0.3536376953125,-0.0658416748046875
20220224-0916,2022-02-24 09:16:18Z,u01, 19,40,movements,el-ex, rt, d,218209.581794625, -1.482173864872147, 0.33402076331073466, 0.4358723557701306, -0.00048117712140083313, -0.11045914143323898, -0.13684575259685516, -0.9410244822502136, -0.32784420251846313, -0.08361492305994034, -0.0823826789855957, 0.021585017442703247, 0.01655292510986328, 0.2636702941126219, -0.6234344515489457, 0.7345272888198714,0.04772100839009202,-1.0229339599609375,-0.30743408203125,-0.067718505859375
20220224-0916,2022-02-24 09:16:18Z,u01, 20,40,movements,el-ex, rt, d,218209.606741625, -1.4850980544555834, 0.33888229732861985, 0.43810375707395, 0.17075827717781067, -0.07955089956521988, -0.22319728136062622, -0.9396657943725586, -0.33243316411972046, -0.08072545379400253, -0.07663071155548096, 0.007726132869720459, 0.04077834635972977, 0.26609998411542657, -0.6235608011265709, 0.7336210981152358,0.04650706102711283,-1.0132598876953125,-0.3293609619140625,-0.036865234375
20220224-0916,2022-02-24 09:16:18Z,u01, 21,40,movements,el-ex, rt, d,218209.63168762502, -1.4899847501191468, 0.34574427225090154, 0.4434801912991044, 0.3143117129802704, -0.1864784061908722, -0.29296624660491943, -0.9377533197402954, -0.3388969898223877, -0.07594671845436096, -0.056616365909576416, -0.0025642216205596924, -0.00010269880294799805, 0.2702301884669578, -0.623700477907877, 0.7320545185463484,0.04549416200715273,-0.9930419921875,-0.344024658203125,-0.0690765380859375
20220224-0916,2022-02-24 09:16:18Z,u01, 22,40,movements,el-ex, rt, d,218209.65663462502, -1.5000031447784739, 0.35476496625016485, 0.4557949506237492, 0.6449838280677795, -0.2577776312828064, -0.34879833459854126, -0.9353795647621155, -0.3473699688911438, -0.06632933765649796, -0.10200470685958862, 0.04213312268257141, -0.010040521621704102, 0.2773570588887135, -0.6244264510423658, 0.7287593698522815,0.045548305775448494,-1.043212890625,-0.3046875,-0.075714111328125
20220224-0916,2022-02-24 09:16:18Z,u01, 23,40,movements,el-ex, rt, d,218209.681580625, -1.5126051283465465, 0.3649757297346787, 0.4742578423812863, 0.7283153533935547, -0.2635349929332733, -0.39830824732780457, -0.9325514435768127, -0.3569266200065613, -0.054327622056007385, -0.1105394959449768, -0.03407984972000122, -0.04807376489043236, 0.2868373319373253, -0.624948425316663, 0.7245389093856206,0.04698227084570161,-1.045166015625,-0.3823699951171875,-0.099761962890625
20220224-0916,2022-02-24 09:16:18Z,u01, 24,40,movements,el-ex, rt, d,218209.706527625, -1.5243834102086504, 0.3764918615773044, 0.4883150046189814, 0.3188816010951996, -0.32204416394233704, -0.4390522837638855, -0.9289589524269104, -0.3676603138446808, -0.043146681040525436, -0.08791744709014893, -0.04960659146308899, -0.01611804962158203, 0.2953193483478947, -0.6254703369938381, 0.7207096979975093,0.04638007891614415,-1.0143280029296875,-0.4161529541015625,-0.0539703369140625
20220224-0916,2022-02-24 09:16:18Z,u01, 25,40,movements,el-ex, rt, d,218209.731474625, -1.5333850175313097, 0.38747770082574523, 0.4901084134959565, -0.08183599263429642, -0.3612467050552368, -0.4376687705516815, -0.9252172112464905, -0.3778543174266815, -0.03462974727153778, -0.10049384832382202, -0.050459861755371094, -0.007102664560079575, 0.2996813518123824, -0.6267983842834238, 0.718025603520608,0.0418822522943092,-1.0235748291015625,-0.4245452880859375,-0.0389404296875
20220224-0916,2022-02-24 09:16:18Z,u01, 26,40,movements,el-ex, rt, d,218209.75642062502, -1.5387036134550183, 0.39850029489451944, 0.4835656787110804, -0.33973759412765503, -0.33551841974258423, -0.43884506821632385, -0.9211695790290833, -0.3880365788936615, -0.02957298420369625, -0.09036624431610107, -0.02892512083053589, -0.003004133701324463, 0.30132406216749497, -0.6280265257373634, 0.7166367852478827,0.03490555544581067,-1.0057525634765625,-0.4113922119140625,-0.0318145751953125
20220224-0916,2022-02-24 09:16:18Z,u01, 27,40,movements,el-ex, rt, d,218209.78136762502, -1.5417994256533047, 0.40939079707217557, 0.47256670533992234, -0.39657455682754517, -0.3392515182495117, -0.4692654311656952, -0.9169782400131226, -0.39805054664611816, -0.026596982032060623, -0.054823875427246094, 0.019159406423568726, 0.003526085987687111, 0.30145514874997287, -0.6291472818249669, 0.7159508832235638,0.02670568530568937,-0.9712371826171875,-0.37847900390625,-0.025360107421875
20220224-0916,2022-02-24 09:16:18Z,u01, 28,40,movements,el-ex, rt, d,218209.806313625, -1.5450188830603786, 0.4200308366389301, 0.4609411983790079, -0.38351547718048096, -0.33997082710266113, -0.386447012424469, -0.9127732515335083, -0.40778860449790955, -0.023534173145890236, -0.053352415561676025, 0.01075485348701477, 0.010350942611694336, 0.3012841048672031, -0.6304449234036337, 0.7151437926071555,0.01834760222146789,-0.9649810791015625,-0.400360107421875,-0.01666259765625
20220224-0916,2022-02-24 09:16:18Z,u01, 29,40,movements,el-ex, rt, d,218209.831260625, -1.5488842982042947, 0.4288941275667017, 0.45269941696464155, -0.19871370494365692, -0.28884753584861755, -0.3472146987915039, -0.9092082977294922, -0.41586536169052124, -0.019925786182284355, -0.05166846513748169, 0.0051444172859191895, -0.00021541304886341095, 0.3015839576775502, -0.6317311318708253, 0.7140209228752633,0.011721097205444647,-0.959747314453125,-0.4098052978515625,-0.0245208740234375
20220224-0916,2022-02-24 09:16:18Z,u01, 30,40,movements,el-ex, rt, d,218209.856206625, -1.5529063602511382, 0.43782442213447886, 0.4476803174799777, -0.17820337414741516, -0.21802103519439697, -0.38907214999198914, -0.9055315256118774, -0.423970103263855, -0.016201656311750412, -0.05571138858795166, 0.001469433307647705, 0.022824347019195557, 0.302901062934557, -0.632574199349569, 0.7127851602117833,0.006194264989638126,-0.960205078125,-0.4207611083984375,0.0116119384765625
20220224-0916,2022-02-24 09:16:18Z,u01, 31,40,movements,el-ex, rt, d,218209.881153625, -1.555161662520553, 0.4474138533950954, 0.4409475667059476, -0.2805846333503723, -0.21047289669513702, -0.3831927478313446, -0.9014590382575989, -0.4326353967189789, -0.014095158316195011, -0.032623231410980225, 0.03178688883781433, 0.005123374983668327, 0.30386522673664845, -0.63294418774005, 0.7120729093687584,8.92639398892836e-05,-0.9341278076171875,-0.4029083251953125,-0.003692626953125
20220224-0916,2022-02-24 09:16:18Z,u01, 32,40,movements,el-ex, rt, d,218209.90609962502, -1.557477013697421, 0.45660561443021136, 0.43497723319958276, -0.1086665689945221, -0.18974824249744415, -0.356956422328949, -0.8974748253822327, -0.44090402126312256, -0.011954455636441708, -0.045320093631744385, 0.04107791185379028, -0.017601430416107178, 0.30492884742019394, -0.6332781145361607, 0.7112987139996381,-0.005616026641995703,-0.9449462890625,-0.3999176025390625,-0.03192138671875
20220224-0916,2022-02-24 09:16:18Z,u01, 33,40,movements,el-ex, rt, d,218209.93104662502, -1.5607260634452949, 0.4654864363448638, 0.43440351293133, 0.042102567851543427, -0.1088067889213562, -0.35664933919906616, -0.8935583233833313, -0.44885754585266113, -0.008998671546578407, -0.04949617385864258, 0.023320317268371582, -0.0016363272443413734, 0.30758343711259223, -0.63316119069439, 0.7102186071922136,-0.009440388358880197,-0.948211669921875,-0.422332763671875,-0.0106048583984375
20220224-0916,2022-02-24 09:16:18Z,u01, 34,40,movements,el-ex, rt, d,218209.955992625, -1.5637359886255424, 0.4736589873570624, 0.4350555083280042, -0.0077042356133461, -0.11742257326841354, -0.3070010244846344, -0.8898831605911255, -0.4561454951763153, -0.006282980553805828, -0.016138017177581787, -0.00195389986038208, -0.013171612285077572, 0.31038469156263954, -0.6328663784970645, 0.7092136821442188,-0.012551894132265345,-0.903167724609375,-0.4608612060546875,-0.01983642578125
20220224-0916,2022-02-24 09:16:18Z,u01, 35,40,movements,el-ex, rt, d,218209.980939625, -1.5662793287822847, 0.48083615283478076, 0.4334738603573584, -0.12253075838088989, -0.15927055478096008, -0.27520301938056946, -0.8865997195243835, -0.46252068877220154, -0.004004796501249075, 0.0020475387573242188, 0.008937865495681763, -0.014046013355255127, 0.3121518332234254, -0.6328971755798992, 0.7083398798001204,-0.016038539972179106,-0.883941650390625,-0.45660400390625,-0.02008056640625
20220224-0916,2022-02-24 09:16:18Z,u01, 36,40,movements,el-ex, rt, d,218210.00588562503, -1.5686623407893916, 0.4873001030886849, 0.42889370442818453, -0.18283194303512573, -0.1744897961616516, -0.25212040543556213, -0.8835983872413635, -0.46824195981025696, -0.0018855894450098276, -0.025795042514801025, 0.02875828742980957, -0.015783727169036865, 0.3127341779837047, -0.6334465559289773, 0.7074816272111409,-0.020313156269067656,-0.913116455078125,-0.43804931640625,-0.019256591796875
20220224-0916,2022-02-24 09:16:18Z,u01, 37,40,movements,el-ex, rt, d,218210.03083262502, -1.5700706452089095, 0.49303779091214966, 0.42439654166129986, -0.10639442503452301, -0.10525240004062653, -0.20901235938072205, -0.8808990120887756, -0.47330406308174133, -0.0006392523064278066, -0.02648019790649414, 0.05301591753959656, -0.03964358568191528, 0.31311441469359313, -0.6337505322697241, 0.7069204523210398,-0.024149950489639138,-0.91143798828125,-0.4189605712890625,-0.0390472412109375
20220224-0916,2022-02-24 09:16:18Z,u01, 38,40,movements,el-ex, rt, d,218210.055778625, -1.5720369559788374, 0.4986503244437335, 0.42184451780483606, -0.12957045435905457, -0.17644427716732025, -0.24548541009426117, -0.8782284259796143, -0.47824063897132874, 0.0010895563755184412, 0.008141636848449707, 0.05162009596824646, -0.04324924945831299, 0.31405853666248756, -0.6339653095761415, 0.706192487846446,-0.027343051245115796,-0.8710174560546875,-0.4275665283203125,-0.0383453369140625
20220224-0916,2022-02-24 09:16:18Z,u01, 39,40,movements,el-ex, rt, d,218210.0807259167, -1.5735077762355028, 0.5046658335094031, 0.41553041496389825, -0.3063200116157532, -0.163700133562088, -0.24147987365722656, -0.8753330111503601, -0.4835149645805359, 0.002373427152633667, -0.029818415641784668, 0.019876629114151, 0.003440499072894454, 0.3139378689087206, -0.6345311087773279, 0.7055451366991957,-0.03192931402801191,-0.9026031494140625,-0.46209716796875,0.0025482177734375
20220224-0916,2022-02-24 09:16:18Z,u01, 40,40,movements,el-ex, rt, d,218210.10567191668, -1.5723557119885545, 0.5104761351336179, 0.40608253717138826, -0.31775757670402527, -0.13524684309959412, -0.2100886106491089, -0.872511088848114, -0.4885927438735962, 0.0013605819549411535, -0.023622453212738037, -0.005624234676361084, -0.019273996353149414, 0.31279914868830416, -0.6346944017212155, 0.7056492085416132,-0.037135818684801786,-0.8943023681640625,-0.497222900390625,-0.02197265625
20220224-0916,2022-02-24 09:16:18Z,u01, 41,40,movements,el-ex, rt, d,218210.13061891668, -1.572450420098227, 0.5155816787412054, 0.3989704415581602, -0.1890718638896942, -0.15135304629802704, -0.21997074782848358, -0.8700051307678223, -0.4930410087108612, 0.0014390710275620222, -0.025228142738342285, 0.017012476921081543, -0.011402726173400879, 0.3121574351949412, -0.6350411570586202, 0.7053804001077045,-0.04146307904927041,-0.893218994140625,-0.4828033447265625,-0.017608642578125
20220224-0916,2022-02-24 09:16:18Z,u01, 42,40,movements,el-ex, rt, d,218210.15556491667, -1.5731147793706033, 0.5214079613457304, 0.3912506077576383, -0.40492838621139526, -0.19992271065711975, -0.2400331199169159, -0.8671165108680725, -0.49810150265693665, 0.0020103720016777515, -0.057398319244384766, 0.03543972969055176, 0.05102956295013428, 0.3115372951318009, -0.6355703735955054, 0.7048736980339424,-0.046346252642630675,-0.930511474609375,-0.46539306640625,0.0537567138671875
20220224-0916,2022-02-24 09:16:18Z,u01, 43,40,movements,el-ex, rt, d,218210.18051191667, -1.5685723430091996, 0.5266472326409714, 0.37423014549069167, -0.7359118461608887, -0.11628261208534241, -0.1749989241361618, -0.8644952178001404, -0.5026376843452454, -0.0019226265139877796, -0.06345289945602417, 0.02284032106399536, 0.015762746334075928, 0.3079060189134568, -0.6357928674203526, 0.7057619851063182,-0.053493040814053816,-0.9342041015625,-0.4821319580078125,0.0213470458984375
20220224-0916,2022-02-24 09:16:18Z,u01, 44,40,movements,el-ex, rt, d,218210.2054579167, -1.560238960426386, 0.5303586981213486, 0.352537169720475, -0.6868457794189453, -0.11478324979543686, -0.14321410655975342, -0.8625778555870056, -0.5058428049087524, -0.009106888435781002, -0.009935140609741211, 0.06234598159790039, -0.03442603349685669, 0.3024378847271195, -0.6355925436042085, 0.7076788310715869,-0.061190946356482395,-0.867645263671875,-0.4435577392578125,-0.0472412109375
20220224-0916,2022-02-24 09:16:18Z,u01, 45,40,movements,el-ex, rt, d,218210.23040491669, -1.5557728265147193, 0.5340561032558315, 0.3367636223125663, -0.4156544804573059, -0.15887847542762756, -0.17337806522846222, -0.8606525659561157, -0.5090287923812866, -0.01293098647147417, -0.03317689895629883, 0.014537215232849121, 0.018088817596435547, 0.2987596341929239, -0.6358279544806823, 0.708465360451165,-0.06739803056343405,-0.8861846923828125,-0.48834228515625,-9.1552734375e-05
20220224-0916,2022-02-24 09:16:18Z,u01, 46,40,movements,el-ex, rt, d,218210.25535091668, -1.5532760615081664, 0.5366759477902913, 0.3270675349393255, -0.21881040930747986, -0.016283845528960228, -0.03871512413024902, -0.8592811822891235, -0.5112820863723755, -0.015056375414133072, -0.056353092193603516, -0.04049104452133179, -0.011386692523956299, 0.2966113144417255, -0.6359980664096962, 0.7088255836701689,-0.07137656281650986,-0.910552978515625,-0.5573577880859375,-0.0303192138671875
20220224-0916,2022-02-24 09:16:18Z,u01, 47,40,movements,el-ex, rt, d,218210.28029791667, -1.5525538598090398, 0.5373466430635799, 0.3238834840104209, -0.019450608640909195, -0.11344002187252045, -0.02134791947901249, -0.8589270114898682, -0.5118584036827087, -0.015670685097575188, 0.05134028196334839, 0.004869818687438965, -0.024001775309443474, 0.29584221995774485, -0.6361147993678934, 0.7089146745724476,-0.07263201164978925,-0.8148193359375,-0.5178985595703125,-0.03704833984375
20220224-0916,2022-02-24 09:16:18Z,u01, 48,40,movements,el-ex, rt, d,218210.3052439167, -1.5572870831323098, 0.5373280209128625, 0.32553275634917983, 0.1209903359413147, -0.12354844808578491, 0.016843274235725403, -0.8590013384819031, -0.5118423700332642, -0.011605164036154747, 0.04642486572265625, 0.04171895980834961, -0.020758390426635742, 0.2961892958659761, -0.6375494639716357, 0.7074683456444276,-0.07274202422377529,-0.816009521484375,-0.471099853515625,-0.0248260498046875
20220224-0916,2022-02-24 09:16:18Z,u01, 49,40,movements,el-ex, rt, d,218210.3301909167, -1.55903968230865, 0.5359758007079868, 0.32515314955392155, -0.17730538547039032, -0.06621904671192169, 0.1098792776465416, -0.8597115874290466, -0.5106802582740784, -0.010107789188623428, 0.049286603927612305, -0.015290319919586182, 0.04990309476852417, 0.2955671435795657, -0.6384247560105641, 0.7069471297321819,-0.07266287752321132,-0.811065673828125,-0.518280029296875,0.04144287109375
20220224-0916,2022-02-24 09:16:18Z,u01, 50,40,movements,el-ex, rt, d,218210.35513691668, -1.5551316561843005, 0.5338778706072127, 0.3150650410002142, -0.5143327116966248, -0.020762348547577858, 0.07017820328474045, -0.860734760761261, -0.5088753700256348, -0.01348422933369875, 0.0038773417472839355, -0.019963741302490234, 0.06127512454986572, 0.29181005030126383, -0.6388307911698516, 0.7079043707742817,-0.07492450830663011,-0.8651885986328125,-0.524139404296875,0.04486083984375
20220224-0916,2022-02-24 09:16:19Z,u01, 51,40,movements,el-ex, rt, d,218210.38008391668, -1.5467192539047145, 0.5310156610639238, 0.3022248560145021, -0.2516132593154907, 0.12342365831136703, 0.12855103611946106, -0.8620433807373047, -0.5064094066619873, -0.020759493112564087, -0.015794813632965088, 0.04611271619796753, 0.03176140785217285, 0.28709730388076, -0.6381186344000752, 0.7102184979753593,-0.0772628808108039,-0.882415771484375,-0.4629669189453125,0.0142059326171875
20220224-0916,2022-02-24 09:16:19Z,u01, 52,40,movements,el-ex, rt, d,218210.40502991667, -1.5435199614588282, 0.5267752377075123, 0.3031753264603448, 0.20530539751052856, 0.1585635244846344, 0.18342307209968567, -0.8641115427017212, -0.5027483701705933, -0.023575669154524803, 0.02768552303314209, 0.021897971630096436, 0.010514553636312485, 0.2861316783416353, -0.6374486864517466, 0.7114519684071865,-0.07499464682522938,-0.833251953125,-0.4827423095703125,-0.0124053955078125
20220224-0916,2022-02-24 09:16:19Z,u01, 53,40,movements,el-ex, rt, d,218210.42997691667, -1.5421098988295212, 0.522128856475794, 0.30711153727318796, -0.05002925544977188, 0.14525818824768066, 0.1944563388824463, -0.8664031028747559, -0.498726487159729, -0.02486082911491394, 0.05983859300613403, -0.002341747283935547, 0.03180396556854248, 0.28591145654524036, -0.6370433456811839, 0.712234677147472,-0.0717803315275525,-0.8076019287109375,-0.5060882568359375,0.00537109375
20220224-0916,2022-02-24 09:16:19Z,u01, 54,40,movements,el-ex, rt, d,218210.45492391667, -1.5350530282360755, 0.517222261438828, 0.2992971760182905, -0.4116193950176239, 0.1457415521144867, 0.20864459872245789, -0.8686409592628479, -0.4944676458835602, -0.03106132335960865, 0.040378570556640625, 0.05734908580780029, 0.013834480196237564, 0.28205969442499734, -0.636326698678756, 0.714399016582734,-0.07186663138910307,-0.8311309814453125,-0.4341888427734375,-0.0238800048828125
20220224-0916,2022-02-24 09:16:19Z,u01, 55,40,movements,el-ex, rt, d,218210.4798699167, -1.5261380627186325, 0.5113413121615222, 0.2894594044660322, -0.21886152029037476, 0.15425041317939758, 0.23722544312477112, -0.8712195754051208, -0.4893474280834198, -0.03893303871154785, 0.0234258770942688, 0.05013835430145264, -0.033988356590270996, 0.2773002744539386, -0.6353251435019398, 0.7171236856617142,-0.07211287121563936,-0.8445587158203125,-0.4350738525390625,-0.0662078857421875
20220224-0916,2022-02-24 09:16:19Z,u01, 56,40,movements,el-ex, rt, d,218210.50481691668, -1.520602476847923, 0.5049153498556228, 0.28814497273920625, 0.10894931107759476, 0.22683899104595184, 0.25639182329177856, -0.8741134405136108, -0.4837333559989929, -0.043912000954151154, 0.018827617168426514, 0.03190526366233826, -0.048296451568603516, 0.27493226245746, -0.6343943965847932, 0.719103845499666,-0.06961257937519108,-0.8519287109375,-0.4507598876953125,-0.096282958984375
20220224-0916,2022-02-24 09:16:19Z,u01, 57,40,movements,el-ex, rt, d,218210.52976291667, -1.5177033557252464, 0.49900547598491035, 0.29283300418851804, 0.1545824408531189, 0.1224135160446167, 0.26447585225105286, -0.8768218755722046, -0.47855252027511597, -0.046596869826316833, 0.09055155515670776, 0.0726686418056488, -0.03212285041809082, 0.2745356100740735, -0.6335075092543747, 0.7204223656415516,-0.06549988451857328,-0.7884521484375,-0.4004669189453125,-0.0772857666015625
20220224-0916,2022-02-24 09:16:19Z,u01, 58,40,movements,el-ex, rt, d,218210.55470991667, -1.516223661297476, 0.49294986167775934, 0.29542144430237655, -0.0439387708902359, 0.09723066538572311, 0.22572603821754456, -0.8796296119689941, -0.4732266068458557, -0.04805144667625427, 0.05301499366760254, 0.014623522758483887, -0.026411063969135284, 0.27337002931098453, -0.6334375300635903, 0.7212116538875926,-0.06228814286739634,-0.8321533203125,-0.4636688232421875,-0.0725860595703125
20220224-0916,2022-02-24 09:16:19Z,u01, 59,40,movements,el-ex, rt, d,218210.5796559167, -1.5131116404917322, 0.48646276745996586, 0.2939632365929776, -0.022017961367964745, 0.09947264939546585, 0.2676944136619568, -0.8825217485427856, -0.4675019383430481, -0.05096453055739403, 0.011107563972473145, -0.04439994692802429, -0.0028223320841789246, 0.2708209065614042, -0.6333827993716465, 0.722400188913492,-0.06016881568094726,-0.8704376220703125,-0.5131683349609375,-0.05413818359375
20220224-0916,2022-02-24 09:16:19Z,u01, 60,40,movements,el-ex, rt, d,218210.6046029167, -1.5095845609709868, 0.4791016376060277, 0.29301750940857413, -0.07550133019685745, 0.13274239003658295, 0.35837921500205994, -0.885747492313385, -0.46098214387893677, -0.054285988211631775, 0.028874874114990234, 0.009047269821166992, 0.0006974972784519196, 0.2681403107234736, -0.6332122710014956, 0.7237643517315174,-0.05751732352160743,-0.8488006591796875,-0.4503326416015625,-0.0556640625
20220224-0916,2022-02-24 09:16:19Z,u01, 61,40,movements,el-ex, rt, d,218210.62954891668, -1.5061300139660068, 0.4696186406411682, 0.29214218714154244, -0.08153051882982254, 0.08815161883831024, 0.36115679144859314, -0.8898773789405823, -0.45254623889923096, -0.057625435292720795, 0.09655749797821045, 0.009659796953201294, -0.010886132717132568, 0.26474680099615305, -0.6333217297772211, 0.7251775205389157,-0.054134718489716016,-0.7961883544921875,-0.447479248046875,-0.072784423828125
20220224-0916,2022-02-24 09:16:19Z,u01, 62,40,movements,el-ex, rt, d,218210.65449591668, -1.5046523012437218, 0.4596313366996514, 0.2903756313338822, -0.10375683009624481, 0.004805129021406174, 0.3711716830730438, -0.8942567110061646, -0.44361773133277893, -0.05923615023493767, 0.08760052919387817, -0.00227472186088562, -0.031019218266010284, 0.2608307532229265, -0.6343100527172486, 0.7259475025807443,-0.051172819237160244,-0.8153533935546875,-0.4427490234375,-0.089874267578125
20220224-0916,2022-02-24 09:16:19Z,u01, 63,40,movements,el-ex, rt, d,218210.67944191667, -1.502767164927986, 0.45115293993678457, 0.2869314764320559, -0.17921097576618195, -0.021332997828722, 0.2962487041950226, -0.8978634476661682, -0.4360034167766571, -0.06117529794573784, 0.07552146911621094, 0.05464044213294983, -0.029217354953289032, 0.25689395190860287, -0.6351518309735122, 0.726745087048297,-0.04928787754035055,-0.8256683349609375,-0.39154052734375,-0.0882720947265625
20220224-0916,2022-02-24 09:16:19Z,u01, 64,40,movements,el-ex, rt, d,218210.70438891667, -1.5031112940137037, 0.4438776352531363, 0.2817776857286783, -0.15807592868804932, -0.14631713926792145, 0.25345635414123535, -0.9010254740715027, -0.4294445514678955, -0.061079241335392, 0.06260073184967041, 0.07670706510543823, -0.05836617574095726, 0.25275912723630317, -0.6368462948795584, 0.7267501092109927,-0.048723769652930404,-0.84674072265625,-0.3584747314453125,-0.11767578125
20220224-0916,2022-02-24 09:16:19Z,u01, 65,40,movements,el-ex, rt, d,218210.7293349167, -1.5051018065632207, 0.43754975088971115, 0.2799513224957717, -0.009610293433070183, -0.07232227921485901, 0.26198405027389526, -0.9038388729095459, -0.4237213134765625, -0.05946282669901848, 0.03382837772369385, 0.0545196533203125, -0.02743559330701828, 0.2499625101588587, -0.6385822814774641, 0.7262763628985298,-0.047478295277493976,-0.8755340576171875,-0.371734619140625,-0.08917236328125
20220224-0916,2022-02-24 09:16:19Z,u01, 66,40,movements,el-ex, rt, d,218210.75428191668, -1.507413496327599, 0.43094633837025764, 0.28116133230939516, 0.011080804280936718, -0.07296103239059448, 0.2473738044500351, -0.906746506690979, -0.41773080825805664, -0.05754924938082695, 0.10121965408325195, 0.05475464463233948, -0.03647500276565552, 0.2480347319437518, -0.6400813601043723, 0.7257708722518007,-0.045070861998572215,-0.79730224609375,-0.3618011474609375,-0.0899810791015625
20220224-0916,2022-02-24 09:16:19Z,u01, 67,40,movements,el-ex, rt, d,218210.77922791668, -1.5090131589003517, 0.4250118896283221, 0.2785853093096226, -0.22384822368621826, -0.14027456939220428, 0.21858878433704376, -0.9092956781387329, -0.41233161091804504, -0.05625075846910477, 0.17835384607315063, 0.06333255767822266, -0.0015186592936515808, 0.24514097268087298, -0.6417012736529518, 0.7253786599948127,-0.0441728537932666,-0.73638916015625,-0.3516693115234375,-0.05206298828125
20220224-0916,2022-02-24 09:16:19Z,u01, 68,40,movements,el-ex, rt, d,218210.80417491667, -1.5106886407774611, 0.42031493004226145, 0.2718437574136848, -0.2706545889377594, -0.22545704245567322, 0.10606283694505692, -0.9113117456436157, -0.40804800391197205, -0.05484290421009064, 0.20589792728424072, 0.09367114305496216, -0.02338855341076851, 0.24132686265836129, -0.6436923903676672, 0.7248291082980781,-0.0452129957610925,-0.7053985595703125,-0.3100433349609375,-0.0756988525390625
20220224-0916,2022-02-24 09:16:19Z,u01, 69,40,movements,el-ex, rt, d,218210.8291209167, -1.5142380763934509, 0.4189085082221287, 0.26624735288189294, -0.11557111144065857, -0.20614033937454224, 0.007690722122788429, -0.9120729565620422, -0.40676358342170715, -0.05164032801985741, 0.13781136274337769, 0.07467120885848999, 0.010991275310516357, 0.23895837507265122, -0.645816329832189, 0.7235980210894003,-0.047183668039410515,-0.767303466796875,-0.325897216796875,-0.0445404052734375
20220224-0916,2022-02-24 09:16:19Z,u01, 70,40,movements,el-ex, rt, d,218210.8540679167, -1.5169815271286895, 0.41856715624355, 0.2662761174555581, 0.0806708037853241, -0.025139985606074333, 0.014218330383300781, -0.9123498797416687, -0.4064517319202423, -0.049145378172397614, 0.14182651042938232, 0.02116715908050537, 0.01127343624830246, 0.23878585083142476, -0.6468451351857514, 0.7227224656736438,-0.04738377089769355,-0.76434326171875,-0.3919830322265625,-0.037689208984375
20220224-0916,2022-02-24 09:16:19Z,u01, 71,40,movements,el-ex, rt, d,218210.87901391668, -1.518524569099113, 0.4193008855634502, 0.26614081203724294, -0.15364819765090942, -0.10051856189966202, -0.07365020364522934, -0.912126362323761, -0.4071219861507416, -0.04772191867232323, 0.1897752285003662, -0.023709923028945923, 0.03119707852602005, 0.23895646098319845, -0.6473321017266835, 0.7221977639288975,-0.047869058278338816,-0.7182159423828125,-0.4312591552734375,-0.0155029296875
20220224-0916,2022-02-24 09:16:19Z,u01, 72,40,movements,el-ex, rt, d,218210.90396091668, -1.5170041937723064, 0.4214255549215715, 0.2590262396072966, -0.2563919723033905, -0.02070116251707077, -0.11634833365678787, -0.9111871719360352, -0.4090617001056671, -0.049062032252550125, 0.17632365226745605, 0.028385281562805176, 0.019200973212718964, 0.2374185964873431, -0.6473804084161141, 0.7224483776326243,-0.050987283645173104,-0.730438232421875,-0.3719482421875,-0.034881591796875
20220224-0916,2022-02-24 09:16:19Z,u01, 73,40,movements,el-ex, rt, d,218210.92890691667, -1.5161977137010092, 0.42403746287626237, 0.2561352095232512, 0.06843141466379166, -0.002866172231733799, -0.10874547809362411, -0.9100771546363831, -0.41144368052482605, -0.049738384783267975, 0.1997804045677185, 0.032003313302993774, -0.006489869207143784, 0.2373990900121017, -0.6471263250023008, 0.7225496851752978,-0.052832348286612346,-0.708099365234375,-0.3746337890625,-0.055877685546875
20220224-0916,2022-02-24 09:16:19Z,u01, 74,40,movements,el-ex, rt, d,218210.95385391667, -1.517719561303425, 0.42686147732491686, 0.2588003089945385, 0.07038407027721405, -0.026793809607625008, -0.11459051817655563, -0.9089879989624023, -0.4140159487724304, -0.04829149693250656, 0.17417031526565552, 0.011351674795150757, 0.01022118330001831, 0.2391883042354214, -0.6470264338504825, 0.722035178846547,-0.05302040279889944,-0.74163818359375,-0.403472900390625,-0.03570556640625
20220224-0916,2022-02-24 09:16:19Z,u01, 75,40,movements,el-ex, rt, d,218210.9787999167, -1.5167140020307464, 0.4298869497361009, 0.25748117099593465, -0.15705104172229767, 0.08106161653995514, -0.12497091293334961, -0.9076840281486511, -0.41676804423332214, -0.04913758113980293, 0.1000819206237793, 0.01942908763885498, 0.03743445873260498, 0.23982419122199672, -0.6464638948189327, 0.7222243781137863,-0.0544147065192887,-0.80535888671875,-0.3978729248046875,-0.0117950439453125
20220224-0916,2022-02-24 09:16:19Z,u01, 76,40,movements,el-ex, rt, d,218211.0037469167, -1.5119009295083023, 0.43293613520050483, 0.2517129516455331, -0.22051012516021729, 0.0834846943616867, -0.15012355148792267, -0.9061641097068787, -0.41953784227371216, -0.05343068763613701, 0.10542851686477661, 0.010800600051879883, 0.043543342500925064, 0.23914095513775988, -0.6450552381846739, 0.7235123398776195,-0.05696797704731629,-0.802215576171875,-0.4072418212890625,-0.0133209228515625
20220224-0916,2022-02-24 09:16:19Z,u01, 77,40,movements,el-ex, rt, d,218211.02869291668, -1.5074855982639366, 0.4361588086443539, 0.24696797655078895, -0.06520477682352066, 0.14058586955070496, -0.12930448353290558, -0.9045655131340027, -0.42246100306510925, -0.05734534189105034, 0.047341763973236084, 0.035818397998809814, -0.008953697979450226, 0.23884809523556444, -0.6436450239560016, 0.7246801362699273,-0.05925942389631414,-0.853240966796875,-0.39068603515625,-0.06390380859375
20220224-0916,2022-02-24 09:16:19Z,u01, 78,40,movements,el-ex, rt, d,218211.05363991667, -1.5045605295375721, 0.4390841814550387, 0.24925741808790905, 0.2396007925271988, 0.15155355632305145, -0.08755543828010559, -0.9031568169593811, -0.42511069774627686, -0.059908945113420486, 0.03850209712982178, 0.055252790451049805, -0.019741535186767578, 0.2406773782200085, -0.641965673793908, 0.7255788545996557,-0.05907626254004428,-0.8668975830078125,-0.3754425048828125,-0.075469970703125
20220224-0916,2022-02-24 09:16:19Z,u01, 79,40,movements,el-ex, rt, d,218211.07858466668, -1.5049582967514954, 0.44181065623475285, 0.25936031082787225, 0.422163724899292, 0.19401006400585175, -0.08519521355628967, -0.9020207524299622, -0.4275769591331482, -0.059473227709531784, -0.03021526336669922, -0.047154635190963745, -0.007893986999988556, 0.24484276360187796, -0.6405586685474006, 0.7256426512237508,-0.056388477368202544,-0.92803955078125,-0.4724273681640625,-0.0702667236328125
20220224-0916,2022-02-24 09:16:19Z,u01, 80,40,movements,el-ex, rt, d,218211.10353166668, -1.504000356864779, 0.44345126386651557, 0.2691769986186663, 0.28841179609298706, 0.20855998992919922, -0.017740800976753235, -0.901262104511261, -0.4290594458580017, -0.060290370136499405, -0.046964943408966064, -0.047518402338027954, 0.018191754817962646, 0.24857185250960143, -0.6388011027710443, 0.7261597875631447,-0.053266729928110934,-0.9496002197265625,-0.4744415283203125,-0.043365478515625
20220224-0916,2022-02-24 09:16:19Z,u01, 81,40,movements,el-ex, rt, d,218211.12847866668, -1.5008307315506486, 0.44356196421117705, 0.27500016382015213, 0.17275819182395935, 0.23335428535938263, 0.04418648034334183, -0.9010190367698669, -0.4291594624519348, -0.06314340233802795, 0.008013546466827393, 0.008962839841842651, -0.01990985870361328, 0.2505494590136369, -0.6369091524610488, 0.727318293133627,-0.050792989255528526,-0.903045654296875,-0.4263916015625,-0.0779876708984375
20220224-0916,2022-02-24 09:16:19Z,u01, 82,40,movements,el-ex, rt, d,218211.15342466667, -1.4980617447121953, 0.44297384255585126, 0.2785177884031173, 0.07338415086269379, 0.07425031065940857, -0.007997160777449608, -0.9010924100875854, -0.42862817645072937, -0.0656564012169838, 0.05902069807052612, 0.05635941028594971, -0.03416621685028076, 0.25153563444973964, -0.6355325520581023, 0.7283068011993145,-0.04896518661576202,-0.8441314697265625,-0.3704986572265625,-0.097808837890625
20220224-0916,2022-02-24 09:16:19Z,u01, 83,40,movements,el-ex, rt, d,218211.17837166667, -1.4971308151885896, 0.44394869012347227, 0.28023980837222545, 0.07265368103981018, 0.10415554791688919, -0.03782689571380615, -0.9006137251853943, -0.4295087158679962, -0.06646443903446198, -0.03668808937072754, 0.02275511622428894, -0.01986938714981079, 0.2524399875114305, -0.6348557578483291, 0.7286117474289894,-0.048552161243564235,-0.932586669921875,-0.404327392578125,-0.08502197265625
20220224-0916,2022-02-24 09:16:19Z,u01, 84,40,movements,el-ex, rt, d,218211.2033176667, -1.495997896948276, 0.44472113808202157, 0.285643592545235, 0.34663933515548706, 0.14776940643787384, 0.0014143167063593864, -0.9002066850662231, -0.43020614981651306, -0.06745989620685577, -0.011460304260253906, 0.005813390016555786, -0.04887276142835617, 0.2544458417166427, -0.633661868643576, 0.7290740637722105,-0.04670190451248302,-0.9031982421875,-0.4238433837890625,-0.118408203125
20220224-0916,2022-02-24 09:16:19Z,u01, 85,40,movements,el-ex, rt, d,218211.2282646667, -1.4999967200968862, 0.4450680303563616, 0.29697128773066744, 0.37910208106040955, -0.07903311401605606, 0.006909750401973724, -0.9003203511238098, -0.4305192828178406, -0.06384904682636261, 0.006872355937957764, -0.0172346830368042, -0.005547575652599335, 0.258063629966024, -0.6336234222902652, 0.7280507566881728,-0.04320582238828105,-0.8797760009765625,-0.4427032470703125,-0.07843017578125
20220224-0916,2022-02-24 09:16:19Z,u01, 86,40,movements,el-ex, rt, d,218211.25321066668, -1.5025644804622669, 0.445078058881328, 0.30151790587472976, -0.07046937942504883, 0.07281067967414856, 0.027929481118917465, -0.9004770517349243, -0.43052834272384644, -0.06153674051165581, -0.08913183212280273, -0.05012360215187073, 0.034635841846466064, 0.25945323553633587, -0.6339681766014923, 0.7273335085906252,-0.041887174697998186,-0.9909820556640625,-0.481109619140625,-0.0261688232421875
20220224-0916,2022-02-24 09:16:19Z,u01, 87,40,movements,el-ex, rt, d,218211.27815766667, -1.4966195840491154, 0.443114475999473, 0.2945397051118412, -0.2870994806289673, 0.020029090344905853, 0.06494755297899246, -0.9009365439414978, -0.4287552237510681, -0.06695137172937393, 0.023189902305603027, 0.04652252793312073, -0.014789573848247528, 0.25669796199796946, -0.6329537650158233, 0.7291278742907572,-0.04299203696235143,-0.883209228515625,-0.388946533203125,-0.0762939453125
20220224-0916,2022-02-24 09:16:19Z,u01, 88,40,movements,el-ex, rt, d,218211.3031036667, -1.4937379409310951, 0.44249567894105324, 0.2890984064240051, -0.0628216490149498, -0.011682234704494476, -0.021818766370415688, -0.9010043740272522, -0.42819610238075256, -0.06956769526004791, -0.02521955966949463, 0.0591621994972229, -0.012432694435119629, 0.2548269485521068, -0.632676362397657, 0.7299403316468176,-0.04439803238559878,-0.9378662109375,-0.3731842041015625,-0.075897216796875
20220224-0916,2022-02-24 09:16:19Z,u01, 89,40,movements,el-ex, rt, d,218211.3280506667, -1.493911061836363, 0.4429834469814099, 0.289161307143455, -0.026859087869524956, 0.10229499638080597, -0.02154546044766903, -0.9008080363273621, -0.4286368489265442, -0.06939566135406494, -0.10392230749130249, 0.025392740964889526, 0.054152488708496094, 0.2550105247458368, -0.6326703739576882, 0.7298713814461781,-0.044562760016375436,-1.0041961669921875,-0.4053802490234375,-0.021575927734375
20220224-0916,2022-02-24 09:16:19Z,u01, 90,40,movements,el-ex, rt, d,218211.35299666668, -1.4882161640731275, 0.44333202856646814, 0.2849689263407566, -0.3255031108856201, 0.2231864035129547, -0.01887710578739643, -0.900249183177948, -0.4289517402648926, -0.07451217621564865, -0.04153865575790405, 0.05523344874382019, 0.0675240233540535, 0.25393413649642904, -0.6310795237785584, 0.7315647952105978,-0.04548808993937112,-0.9307708740234375,-0.366973876953125,-0.0078887939453125
20220224-0916,2022-02-24 09:16:20Z,u01, 91,40,movements,el-ex, rt, d,218211.37794366668, -1.4764805698547587, 0.4428456471674565, 0.27097745813063934, -0.6618272662162781, 0.19411519169807434, -0.0878288745880127, -0.8995204567909241, -0.4285123348236084, -0.08509141206741333, 0.04583674669265747, 0.12803611159324646, 0.024132899940013885, 0.24963670805848998, -0.6285982876695455, 0.7349471311989524,-0.04897625191015109,-0.8527069091796875,-0.3062591552734375,-0.0579071044921875
20220224-0916,2022-02-24 09:16:20Z,u01, 92,40,movements,el-ex, rt, d,218211.40288966667, -1.463287614354686, 0.44472959129668665, 0.2500227557755141, -0.7224926948547363, 0.1949205994606018, -0.18369142711162567, -0.8975153565406799, -0.4302137792110443, -0.09686419367790222, -0.024573445320129395, 0.13085150718688965, 0.02398860454559326, 0.24406675494007132, -0.6260984911151496, 0.7384646791860126,-0.05569765460441051,-0.9342193603515625,-0.3060302734375,-0.07440185546875
20220224-0916,2022-02-24 09:16:20Z,u01, 93,40,movements,el-ex, rt, d,218211.42783666667, -1.4504844474427527, 0.4486074181926159, 0.23735703891156484, -0.13389815390110016, 0.3439550995826721, -0.2310570776462555, -0.8945387005805969, -0.4337111711502075, -0.10814593732357025, -0.031044363975524902, 0.11565688252449036, -0.023414969444274902, 0.2418497061753734, -0.6224433722163573, 0.7419292193798913,-0.060118271334534706,-0.93682861328125,-0.323455810546875,-0.122528076171875
20220224-0916,2022-02-24 09:16:20Z,u01, 94,40,movements,el-ex, rt, d,218211.4527826667, -1.445319554611933, 0.4557004636364579, 0.24285889181176923, 0.5878894329071045, 0.2614558935165405, -0.3097841739654541, -0.8908936381340027, -0.44009140133857727, -0.11237684637308121, 0.03052663803100586, 0.08305090665817261, -0.07631295919418335, 0.2462198430578421, -0.6190212954816747, 0.7433800919180047,-0.059789175704692915,-0.85882568359375,-0.3652801513671875,-0.1902923583984375
20220224-0916,2022-02-24 09:16:20Z,u01, 95,40,movements,el-ex, rt, d,218211.4777296667, -1.447545034660244, 0.4655519721529419, 0.2609575450238969, 0.7206851840019226, 0.22316709160804749, -0.26608410477638245, -0.8867955803871155, -0.44891610741615295, -0.1098555326461792, 0.010971426963806152, -0.029386013746261597, -0.03021979331970215, 0.2552182623515372, -0.6163893835724299, 0.7427816404740157,-0.056598329242862205,-0.8760986328125,-0.4695281982421875,-0.143768310546875
20220224-0916,2022-02-24 09:16:20Z,u01, 96,40,movements,el-ex, rt, d,218211.50267566668, -1.45082524864647, 0.47300240545291133, 0.27691802783019465, 0.40545719861984253, 0.06027224659919739, -0.21208445727825165, -0.8838059902191162, -0.455561101436615, -0.10654281079769135, 0.025041162967681885, -0.05443349480628967, -0.021295011043548584, 0.2626512429457439, -0.6146079406594513, 0.7418910183901208,-0.05356576852853365,-0.8596954345703125,-0.510040283203125,-0.125
20220224-0916,2022-02-24 09:16:20Z,u01, 97,40,movements,el-ex, rt, d,218211.52762266668, -1.450900403754056, 0.47849766390397297, 0.2786054006387595, -0.22950276732444763, 0.03012726455926895, -0.19471357762813568, -0.8813151717185974, -0.4604460895061493, -0.10617534071207047, -0.04974573850631714, -0.029223769903182983, 0.026768989861011505, 0.26508659323246386, -0.6137111932401075, 0.7416790811778401,-0.05477147017233522,-0.92462158203125,-0.4945220947265625,-0.0812835693359375
20220224-0916,2022-02-24 09:16:20Z,u01, 98,40,movements,el-ex, rt, d,218211.55256866667, -1.4444078789272703, 0.4807374111294456, 0.26937326210653983, -0.2725278437137604, 0.15064895153045654, -0.08746056258678436, -0.8795819282531738, -0.4624331295490265, -0.11176473647356033, -0.05639225244522095, -0.0312039852142334, 0.0069524794816970825, 0.263223632262673, -0.6122343912110192, 0.7433094090636868,-0.0580822686388105,-0.93096923828125,-0.4919281005859375,-0.1109161376953125
20220224-0916,2022-02-24 09:16:20Z,u01, 99,40,movements,el-ex, rt, d,218211.5775156667, -1.4404084070854435, 0.48198151068794015, 0.2666305727901125, 0.15037448704242706, 0.04085734114050865, -0.03151673451066017, -0.8785567879676819, -0.4635358452796936, -0.11520681530237198, 0.022263944149017334, 0.009525805711746216, -0.06124543398618698, 0.26293853085763036, -0.6109500162453687, 0.7443951245551897,-0.058986443225442525,-0.85968017578125,-0.45361328125,-0.17242431640625
20220224-0916,2022-02-24 09:16:20Z,u01, 100,40,movements,el-ex, rt, d,218211.60246166668, -1.44555136915661, 0.48376103493015754, 0.275960467404086, 0.39145955443382263, -0.09923578798770905, -0.027344826608896255, -0.8783179521560669, -0.4651119112968445, -0.11058371514081955, 0.007452905178070068, -0.01665392518043518, -0.0212213397026062, 0.2662645001297138, -0.611401142428085, 0.7430124814299155,-0.05678450841143276,-0.877044677734375,-0.4874114990234375,-0.12249755859375
20220224-0916,2022-02-24 09:16:20Z,u01, 101,40,movements,el-ex, rt, d,218211.62740866668, -1.4499482259463077, 0.48410007969840874, 0.2810829686657603, -0.06915970891714096, -0.032622404396533966, 0.06240902841091156, -0.8786389827728271, -0.4654120206832886, -0.1067017912864685, -0.030891716480255127, -0.07722106575965881, 0.03797663748264313, 0.26782649523503194, -0.6123055379556951, 0.7417961747313843,-0.05558229535316686,-0.914825439453125,-0.541351318359375,-0.0674591064453125
20220224-0916,2022-02-24 09:16:20Z,u01, 102,40,movements,el-ex, rt, d,218211.65235466667, -1.4477674786761474, 0.4811566411505304, 0.27371464080320107, -0.4105225205421448, -0.09491134434938431, 0.0891205370426178, -0.8797600269317627, -0.46280479431152344, -0.10878527909517288, 0.026381611824035645, -0.026788771152496338, 0.01344878226518631, 0.2646033433769242, -0.6128559642537965, 0.7423865902662425,-0.05705162191919125,-0.8497161865234375,-0.4789581298828125,-0.099639892578125
20220224-0916,2022-02-24 09:16:20Z,u01, 103,40,movements,el-ex, rt, d,218211.67730166667, -1.445642685367165, 0.4781487052991486, 0.2633883405162214, -0.32263755798339844, -0.08260467648506165, 0.06842424720525742, -0.8809040188789368, -0.4601362943649292, -0.11082760244607925, -0.013718843460083008, 0.06421646475791931, 0.02455480396747589, 0.2604450151214521, -0.6138033840711071, 0.7428729018895595,-0.05961290677166936,-0.88812255859375,-0.3999481201171875,-0.0911407470703125
20220224-0916,2022-02-24 09:16:20Z,u01, 104,40,movements,el-ex, rt, d,218211.7022476667, -1.4431848559439509, 0.4753349384265446, 0.2583703507616627, -0.060958802700042725, 0.07827103137969971, 0.10615484416484833, -0.8819097280502319, -0.4576362669467926, -0.11315670609474182, -0.014223814010620117, 0.028971046209335327, 0.035917043685913086, 0.2579899774236514, -0.613891535350683, 0.7436065765964304,-0.0602306659650442,-0.8891754150390625,-0.4349212646484375,-0.0781707763671875
20220224-0916,2022-02-24 09:16:20Z,u01, 105,40,movements,el-ex, rt, d,218211.7271946667, -1.4411132067913577, 0.47273697988036356, 0.2565709246635295, -0.14671355485916138, 0.017722392454743385, 0.11119214445352554, -0.8828494548797607, -0.45532479882240295, -0.11513683944940567, 0.05596029758453369, 0.0015130937099456787, 0.042154379189014435, 0.2565852147049822, -0.6136738607533029, 0.7443085689198011,-0.05977738931653942,-0.8264007568359375,-0.45220947265625,-0.072021484375
20220224-0916,2022-02-24 09:16:20Z,u01, 106,40,movements,el-ex, rt, d,218211.75214066668, -1.4381547693785495, 0.46919978063928447, 0.25110039154700264, -0.25728827714920044, 0.034193508327007294, 0.11160147935152054, -0.8840958476066589, -0.4521726965904236, -0.11796045303344727, 0.011140406131744385, 0.005105346441268921, 0.051615603268146515, 0.253747079749553, -0.613703668666459, 0.7452164333009181,-0.06027314692797012,-0.8802490234375,-0.44659423828125,-0.06597900390625
20220224-0916,2022-02-24 09:16:20Z,u01, 107,40,movements,el-ex, rt, d,218211.77708766668, -1.4354374602284126, 0.4649576016044603, 0.24598052443628216, -0.15855100750923157, 0.09638158977031708, 0.1407700777053833, -0.8856648206710815, -0.4483849108219147, -0.12062015384435654, 0.0004259943962097168, 0.027669459581375122, -0.0011599063873291016, 0.25075634174023603, -0.6138494769433113, 0.7460942344932358,-0.060445748965881646,-0.89080810546875,-0.426910400390625,-0.11737060546875
20220224-0916,2022-02-24 09:16:20Z,u01, 108,40,movements,el-ex, rt, d,218211.80203366667, -1.4370117478667228, 0.4616104097399841, 0.24769287928399944, 0.1248839721083641, -0.06168248504400253, 0.14219605922698975, -0.8873360753059387, -0.4453905522823334, -0.11942523717880249, 0.037940144538879395, 0.09343123435974121, -0.022648990154266357, 0.25004907558196315, -0.6146241463218771, 0.7458170430651901,-0.05890495714291388,-0.8534393310546875,-0.3434295654296875,-0.142120361328125
20220224-0916,2022-02-24 09:16:20Z,u01, 109,40,movements,el-ex, rt, d,218211.8269806667, -1.4439009074175289, 0.460934994567607, 0.2566167998437695, 0.3456425964832306, 0.07790450751781464, 0.024694805964827538, -0.888435959815979, -0.4447857141494751, -0.11334750056266785, -0.07781177759170532, 0.029471904039382935, -0.01684015989303589, 0.2523578771763716, -0.6161507541790221, 0.7439844500197996,-0.05622410069252648,-0.9625701904296875,-0.4093780517578125,-0.1337432861328125
20220224-0916,2022-02-24 09:16:20Z,u01, 110,40,movements,el-ex, rt, d,218211.85192666668, -1.4443147906160916, 0.4598377000275645, 0.2637082724565389, 0.17082995176315308, 0.1422710418701172, 0.11997798830270767, -0.8889663815498352, -0.44380268454551697, -0.11304127424955368, 0.0001264810562133789, 0.030152052640914917, -0.038737595081329346, 0.25414342969296244, -0.6155408042338326, 0.7440984377606648,-0.05327608939079484,-0.87353515625,-0.41278076171875,-0.1572723388671875
20220224-0916,2022-02-24 09:16:20Z,u01, 111,40,movements,el-ex, rt, d,218211.87687366668, -1.4439927688052037, 0.45815751642994135, 0.2681901982221611, 0.1108698844909668, -0.03553850203752518, 0.0002868678420782089, -0.8896682858467102, -0.4422963857650757, -0.11342166364192963, 0.037357985973358154, 0.018269866704940796, 0.012988701462745667, 0.2549389592891333, -0.6150571488328016, 0.7443847633826084,-0.05101236421196775,-0.840972900390625,-0.4161529541015625,-0.1099395751953125
20220224-0916,2022-02-24 09:16:20Z,u01, 112,40,movements,el-ex, rt, d,218211.90181966667, -1.4433251063726267, 0.45936215123344265, 0.2662215900075902, -0.2232084572315216, 0.007523283362388611, -0.10469859838485718, -0.8890633583068848, -0.44337648153305054, -0.11394783854484558, -0.07080620527267456, 0.005861133337020874, 0.040492355823516846, 0.2547750948168621, -0.6149111582779122, 0.7444891948781196,-0.05205781308512636,-0.969268798828125,-0.43109130859375,-0.0747833251953125
20220224-0916,2022-02-24 09:16:20Z,u01, 113,40,movements,el-ex, rt, d,218211.92676666667, -1.438226965293432, 0.4602515081261338, 0.25906446113148635, -0.11223813146352768, 0.08965037763118744, -0.054757408797740936, -0.8880797028541565, -0.4441734552383423, -0.11842674016952515, -0.029050111770629883, 0.10996001958847046, -0.0840570479631424, 0.25302605371700904, -0.6138114091914758, 0.745826729343814,-0.054370339359861186,-0.9273223876953125,-0.3389434814453125,-0.188323974609375
20220224-0916,2022-02-24 09:16:20Z,u01, 114,40,movements,el-ex, rt, d,218211.9517126667, -1.437920345119932, 0.46211504049492264, 0.26405621046393835, 0.5147460699081421, 0.018279924988746643, -0.0319552905857563, -0.8872212171554565, -0.44584229588508606, -0.11858915537595749, 0.03929018974304199, 0.11011835932731628, -0.11007868498563766, 0.2552235041181321, -0.6128347141377882, 0.7459738020254304,-0.05308299523947732,-0.8443450927734375,-0.342864990234375,-0.226531982421875
20220224-0916,2022-02-24 09:16:20Z,u01, 115,40,movements,el-ex, rt, d,218211.9766596667, -1.4472781327031612, 0.4637685039682626, 0.2823568659196835, 0.6694976091384888, -0.07291004061698914, 0.04583923891186714, -0.8875592947006226, -0.44732171297073364, -0.11019067466259003, 0.016114473342895508, -0.010670870542526245, -0.019203536212444305, 0.26118046919418986, -0.613750296495362, 0.7434980053536218,-0.04802230528269544,-0.864837646484375,-0.4492340087890625,-0.142364501953125
20220224-0916,2022-02-24 09:16:20Z,u01, 116,40,movements,el-ex, rt, d,218212.0016066667, -1.4539453582976953, 0.463936877600005, 0.2949401343402328, 0.14603541791439056, -0.007804937660694122, 0.06157092750072479, -0.8881993889808655, -0.44747230410575867, -0.10426192730665207, -0.008010387420654297, -0.06143885850906372, 0.03495688736438751, 0.264949467757377, -0.6145492785964203, 0.741734513886148,-0.04428284194545551,-0.8960723876953125,-0.5106964111328125,-0.066192626953125
20220224-0916,2022-02-24 09:16:20Z,u01, 117,40,movements,el-ex, rt, d,218212.02655266668, -1.4525218265988271, 0.4614721064006414, 0.2912281232227244, -0.35440558195114136, -0.031090352684259415, 0.09791901707649231, -0.889142632484436, -0.4452667236328125, -0.10565603524446487, 0.027280330657958984, -0.02001965045928955, 0.00992274284362793, 0.26298068845887157, -0.6148277327673811, 0.7421821326262609,-0.044652811462923214,-0.8628387451171875,-0.471954345703125,-0.0896148681640625
20220224-0916,2022-02-24 09:16:20Z,u01, 118,40,movements,el-ex, rt, d,218212.05149966668, -1.4503396686876142, 0.4572839225199352, 0.28235638659129775, -0.2603205740451813, -0.10604435950517654, 0.14497826993465424, -0.8907535076141357, -0.44151273369789124, -0.10781917721033096, 0.004492402076721191, 0.005324870347976685, -0.026457786560058594, 0.25883661856818113, -0.6157061118244008, 0.7428113661775978,-0.04627139379048184,-0.8936004638671875,-0.4335174560546875,-0.136444091796875
20220224-0916,2022-02-24 09:16:20Z,u01, 119,40,movements,el-ex, rt, d,218212.07644566667, -1.450899162835061, 0.45257129457956563, 0.27862597608352824, -0.06342039257287979, -0.07474389672279358, 0.2147504985332489, -0.8928695917129517, -0.4372794032096863, -0.10756847262382507, -0.06342941522598267, 0.0016561448574066162, -0.006948351860046387, 0.25602241709153445, -0.6169832138325553, 0.7427336052439188,-0.04616535863395027,-0.954620361328125,-0.43353271484375,-0.117950439453125
20220224-0916,2022-02-24 09:16:20Z,u01, 120,40,movements,el-ex, rt, d,218212.10139387503, -1.4523782275675776, 0.4475106963165934, 0.27830454229705953, -0.07915431261062622, -0.05014633759856224, 0.1591530740261078, -0.8952137231826782, -0.43272268772125244, -0.10650782287120819, -0.06016981601715088, -0.00891256332397461, -0.003995969891548157, 0.2541145393453723, -0.6182005250008751, 0.7424605989375841,-0.04479342387739929,-0.95458984375,-0.436126708984375,-0.1094818115234375
20220224-0916,2022-02-24 09:16:20Z,u01, 121,40,movements,el-ex, rt, d,218212.12633987502, -1.4510310485402, 0.4433254505446614, 0.2735595607418377, -0.2990245819091797, -0.00036746077239513397, 0.13473814725875854, -0.8968597054481506, -0.4289458096027374, -0.10792918503284454, -0.010138213634490967, 0.02786839008331299, 0.024875983595848083, 0.2512075818643818, -0.6188135092398752, 0.7429268358695528,-0.044995869166575164,-0.9130859375,-0.403472900390625,-0.0865936279296875
20220224-0916,2022-02-24 09:16:20Z,u01, 122,40,movements,el-ex, rt, d,218212.151286875, -1.4471879240881336, 0.4389034159934991, 0.2623212597709352, -0.565795361995697, -0.12079067528247833, 0.13025112450122833, -0.8983117938041687, -0.4249470829963684, -0.11160788685083389, 0.02120596170425415, 0.028828799724578857, 0.042135000228881836, 0.2462593711648659, -0.6193160574190748, 0.7440251976894208,-0.047230099750634524,-0.878326416015625,-0.3982086181640625,-0.0736083984375
20220224-0916,2022-02-24 09:16:20Z,u01, 123,40,movements,el-ex, rt, d,218212.176232875, -1.4437721095212577, 0.43345204810522614, 0.2456261640262622, -0.6097210049629211, -0.12747780978679657, 0.1441803276538849, -0.9002097249031067, -0.4200060963630676, -0.11496743559837341, -0.08736974000930786, 0.03582024574279785, 0.026726193726062775, 0.23923746722338718, -0.620710653356268, 0.7448889213337277,-0.051227917303809045,-0.9771575927734375,-0.390869140625,-0.08837890625
20220224-0916,2022-02-24 09:16:20Z,u01, 124,40,movements,el-ex, rt, d,218212.201179875, -1.439960951683324, 0.4277746312623198, 0.23454174434143502, -0.2048664391040802, 0.06523191928863525, 0.1718936413526535, -0.9021148085594177, -0.4148469865322113, -0.11870663613080978, -0.09584075212478638, 0.07155466079711914, 0.010308563709259033, 0.2338749379426948, -0.6212480945812615, 0.746016518141006,-0.053036664993077326,-0.9921417236328125,-0.3426971435546875,-0.109375
20220224-0916,2022-02-24 09:16:20Z,u01, 125,40,movements,el-ex, rt, d,218212.22612587502, -1.4361195142688816, 0.424939397245023, 0.23235477642579716, -0.08048203587532043, 0.12453918904066086, 0.07213695347309113, -0.9028139114379883, -0.4122655689716339, -0.12232859432697296, -0.006579458713531494, 0.0008275210857391357, 0.05386281758546829, 0.23228497853828814, -0.6203864869609386, 0.7472690316657811,-0.05247279633901783,-0.9174041748046875,-0.401702880859375,-0.069854736328125
20220224-0916,2022-02-24 09:16:20Z,u01, 126,40,movements,el-ex, rt, d,218212.25107287502, -1.4328689059749586, 0.4222984802274239, 0.2291927093580683, -0.13676980137825012, 0.027045654132962227, 0.09704044461250305, -0.9034867882728577, -0.4098580777645111, -0.12541189789772034, 0.010618627071380615, -0.03678196668624878, 0.039673104882240295, 0.2304443939187094, -0.6198301664014976, 0.7483041082160475,-0.05241203247133874,-0.8964385986328125,-0.4471588134765625,-0.0922698974609375
20220224-0916,2022-02-24 09:16:20Z,u01, 127,40,movements,el-ex, rt, d,218212.276018875, -1.431584466565655, 0.41901670640888494, 0.2279520216846253, 0.053227026015520096, 0.05910105258226395, 0.139505073428154, -0.9046521186828613, -0.40686240792274475, -0.12675821781158447, -0.05047184228897095, -0.012494921684265137, -0.013057753443717957, 0.22891629832667904, -0.6198533855090738, 0.7488064834281023,-0.05165286370491823,-0.9505157470703125,-0.4228363037109375,-0.139617919921875
20220224-0916,2022-02-24 09:16:20Z,u01, 128,40,movements,el-ex, rt, d,218212.300965875, -1.4302966916988362, 0.41533028676882505, 0.23231112575268797, 0.17556120455265045, 0.1788836568593979, 0.19908450543880463, -0.9059672951698303, -0.40349215269088745, -0.12813229858875275, -0.033745527267456055, -0.004116028547286987, -0.013835087418556213, 0.22897561953661408, -0.6192770087926006, 0.7494653054398429,-0.048664485421319376,-0.9338226318359375,-0.41168212890625,-0.1401214599609375
20220224-0916,2022-02-24 09:16:20Z,u01, 129,40,movements,el-ex, rt, d,218212.325911875, -1.426926474976953, 0.4108546524421539, 0.23527918572599385, -0.04381992667913437, 0.1510322540998459, 0.19793157279491425, -0.9073083400726318, -0.3993929922580719, -0.13144245743751526, 0.024724602699279785, -0.07007426023483276, 0.022403478622436523, 0.22836485863664432, -0.6181652381217481, 0.7507548706650871,-0.045700517076131014,-0.886444091796875,-0.470001220703125,-0.1076812744140625
20220224-0916,2022-02-24 09:16:20Z,u01, 130,40,movements,el-ex, rt, d,218212.35085887503, -1.42350643370762, 0.40509996934381226, 0.2331241402564296, -0.1349448561668396, 0.1185934767127037, 0.25371721386909485, -0.9091120362281799, -0.39411064982414246, -0.13487981259822845, 0.023278117179870605, -0.022393375635147095, 0.0112534761428833, 0.22570298367801783, -0.6177525881262564, 0.7519859987057955,-0.04424074810199477,-0.8886260986328125,-0.40936279296875,-0.1268310546875
20220224-0916,2022-02-24 09:16:21Z,u01, 131,40,movements,el-ex, rt, d,218212.37580487502, -1.4199395517797202, 0.3972904553646937, 0.2319188835151264, -0.10261839628219604, 0.13729646801948547, 0.3302334249019623, -0.9116401672363281, -0.3869212567806244, -0.13857994973659515, 0.011691927909851074, -0.0010945796966552734, 0.0028533935546875, 0.22258627962315236, -0.6173859174404405, 0.7533574145546158,-0.041746345587433564,-0.898193359375,-0.381927490234375,-0.137603759765625
20220224-0916,2022-02-24 09:16:21Z,u01, 132,40,movements,el-ex, rt, d,218212.40075187501, -1.4151683505624606, 0.3881152450985081, 0.22776562445252663, -0.3664548397064209, 0.14943088591098785, 0.36033645272254944, -0.9144374132156372, -0.37844452261924744, -0.14347222447395325, 0.00789731740951538, -0.03798317909240723, 0.012887835502624512, 0.218075379669566, -0.6170146003204098, 0.7550843001017551,-0.03979964422207005,-0.906097412109375,-0.415924072265625,-0.12982177734375
20220224-0916,2022-02-24 09:16:21Z,u01, 133,40,movements,el-ex, rt, d,218212.425697875, -1.4074929586999996, 0.3776110232559096, 0.21740035641877004, -0.4906100630760193, 0.16302259266376495, 0.3548796474933624, -0.9171811938285828, -0.36870086193084717, -0.15112456679344177, 0.012197494506835938, 0.033419400453567505, 0.013658523559570312, 0.21120305156919394, -0.6163042971884305, 0.7576299563097039,-0.039488072371232474,-0.9047393798828125,-0.3438720703125,-0.1384429931640625
20220224-0916,2022-02-24 09:16:21Z,u01, 134,40,movements,el-ex, rt, d,218212.450644875, -1.3983668569939935, 0.36653510678840173, 0.2049118789244231, -0.5108699202537537, 0.20207731425762177, 0.34556150436401367, -0.9197307229042053, -0.35838285088539124, -0.16017931699752808, 0.007926344871520996, 0.05679279565811157, 0.02108055353164673, 0.20347405710961328, -0.6152305683711822, 0.7606005207032989,-0.03970698791088989,-0.9138641357421875,-0.3076629638671875,-0.1424407958984375
20220224-0916,2022-02-24 09:16:21Z,u01, 135,40,movements,el-ex, rt, d,218212.47559087502, -1.3898093853033255, 0.35629399444875104, 0.19491583848349586, -0.3268348276615143, 0.1795385181903839, 0.3631024956703186, -0.9218882918357849, -0.3488033711910248, -0.16869573295116425, 0.009946703910827637, 0.04388695955276489, -0.035695359110832214, 0.19678749785653055, -0.6139436592450862, 0.7634119628325292,-0.039371302655497376,-0.912811279296875,-0.30816650390625,-0.1959075927734375
20220224-0916,2022-02-24 09:16:21Z,u01, 136,40,movements,el-ex, rt, d,218212.50053787502, -1.3846516062574559, 0.3466034275607294, 0.19334425110667497, 0.06553143262863159, 0.21519997715950012, 0.3597174882888794, -0.9242843985557556, -0.3397051990032196, -0.17406576871871948, -0.010728538036346436, 0.06043875217437744, -0.04651491343975067, 0.1928044841617864, -0.6130200201950424, 0.7653170202000097,-0.036370819958147504,-0.9397125244140625,-0.278289794921875,-0.217071533203125
20220224-0916,2022-02-24 09:16:21Z,u01, 137,40,movements,el-ex, rt, d,218212.525483875, -1.3800849832999877, 0.3385758429394538, 0.19859728726802597, 0.1317017525434494, 0.2617040276527405, 0.35524141788482666, -0.9261277318000793, -0.3321441113948822, -0.17879599332809448, -0.0058640241622924805, 0.03201892971992493, -0.009115636348724365, 0.1914998611044928, -0.611498003079203, 0.7670820003578702,-0.03135899908634704,-0.9368743896484375,-0.2985687255859375,-0.187255859375
20220224-0916,2022-02-24 09:16:21Z,u01, 138,40,movements,el-ex, rt, d,218212.550430875, -1.376267437269045, 0.33002008635880964, 0.20284536522869115, 0.099181167781353, 0.14649182558059692, 0.3671720027923584, -0.928192675113678, -0.3240620195865631, -0.18287286162376404, 0.011795401573181152, 0.019328683614730835, -0.0596042275428772, 0.1896588604491823, -0.610404036527293, 0.7685876018007927,-0.026640660532548877,-0.9192352294921875,-0.306488037109375,-0.24884033203125
20220224-0916,2022-02-24 09:16:21Z,u01, 139,40,movements,el-ex, rt, d,218212.575376875, -1.375209233455381, 0.32246789174853974, 0.20911875050130432, 0.28336840867996216, 0.12169532477855682, 0.3200230598449707, -0.9303727746009827, -0.31690821051597595, -0.18432533740997314, -0.054200708866119385, 0.029997140169143677, -0.07261703908443451, 0.18876240954157367, -0.6100869462135053, 0.7692143599791524,-0.021726983866336758,-0.9815826416015625,-0.2893524169921875,-0.25909423828125
20220224-0916,2022-02-24 09:16:21Z,u01, 140,40,movements,el-ex, rt, d,218212.60032387503, -1.3751057879096071, 0.31650011435605735, 0.21972425830430337, 0.4024651348590851, 0.1371513158082962, 0.3086796700954437, -0.932192325592041, -0.3112424314022064, -0.18478605151176453, -0.04089134931564331, 0.03579068183898926, -0.06159728765487671, 0.18976594578495837, -0.6095866323943788, 0.7695098966382556,-0.015739254866435737,-0.96820068359375,-0.278045654296875,-0.2480010986328125
20220224-0916,2022-02-24 09:16:21Z,u01, 141,40,movements,el-ex, rt, d,218212.62526987502, -1.375335098105741, 0.31134251987024036, 0.23018867859911593, 0.2612963318824768, 0.08402078598737717, 0.26272714138031006, -0.9337968826293945, -0.3063368797302246, -0.18488158285617828, -0.015055716037750244, 0.004640072584152222, -0.02866487205028534, 0.19102567744147453, -0.609153840728478, 0.7696356176751523,-0.010093146071063652,-0.948394775390625,-0.3022613525390625,-0.21875
20220224-0916,2022-02-24 09:16:21Z,u01, 142,40,movements,el-ex, rt, d,218212.65021687502, -1.3755059186521161, 0.3048727971996572, 0.23611062400930455, 0.13918986916542053, 0.05677851289510727, 0.32565179467201233, -0.9357531070709229, -0.3001718521118164, -0.18510277569293976, -0.012138187885284424, -0.01484590768814087, 0.01452513039112091, 0.19041227195949867, -0.6092550985934593, 0.7697519921573991,-0.005770480582616921,-0.94964599609375,-0.3188018798828125,-0.16619873046875
20220224-0916,2022-02-24 09:16:21Z,u01, 143,40,movements,el-ex, rt, d,218212.675162875, -1.3743195048741064, 0.2979221187462408, 0.24190473467545645, 0.23886287212371826, 0.16111624240875244, 0.3334062397480011, -0.9375566244125366, -0.2935344874858856, -0.18661566078662872, -0.028004467487335205, -0.030302852392196655, 0.03610330820083618, 0.18958174460542448, -0.6088932018468136, 0.770263939258436,-0.0012141139970148762,-0.9689178466796875,-0.326568603515625,-0.1443328857421875
20220224-0916,2022-02-24 09:16:21Z,u01, 144,40,movements,el-ex, rt, d,218212.700109875, -1.373872578395566, 0.29051239393605277, 0.2549290089233703, 0.6490899920463562, 0.1568334698677063, 0.41543278098106384, -0.9395803809165955, -0.28644317388534546, -0.18745507299900055, -0.010615170001983643, 0.009877562522888184, -0.020170927047729492, 0.19077517049473663, -0.6081753821512026, 0.7705123404735015,0.006203852185839742,-0.95172119140625,-0.2685699462890625,-0.212127685546875
20220224-0916,2022-02-24 09:16:21Z,u01, 145,40,movements,el-ex, rt, d,218212.72505587502, -1.3761468472823775, 0.285238024135347, 0.2781960932466593, 0.9719492793083191, 0.1997113823890686, 0.33004727959632874, -0.9414733648300171, -0.2813858687877655, -0.18560735881328583, -0.044595539569854736, 0.026380956172943115, -0.04274009168148041, 0.1958911630192154, -0.6073079700696553, 0.7697580334411096,0.016623960049733932,-0.986480712890625,-0.252197265625,-0.23406982421875
20220224-0916,2022-02-24 09:16:21Z,u01, 146,40,movements,el-ex, rt, d,218212.75000287502, -1.377688141776939, 0.2819378548300875, 0.30156357197150063, 0.6546267867088318, 0.1656550019979477, 0.3032975494861603, -0.9426647424697876, -0.27821752429008484, -0.18433330953121185, -0.02045506238937378, -0.0021322965621948242, 0.0008772462606430054, 0.2017684326228107, -0.6059066315311898, 0.7690670018873748,0.026513468419327696,-0.9585418701171875,-0.286041259765625,-0.180084228515625
20220224-0916,2022-02-24 09:16:21Z,u01, 147,40,movements,el-ex, rt, d,218212.774948875, -1.3773952329603105, 0.27535991158368367, 0.3110536100253613, -0.07049521803855896, 0.07881557196378708, 0.36749982833862305, -0.9443861246109009, -0.27189329266548157, -0.1849571168422699, -0.006755411624908447, -0.03222966194152832, -0.005090773105621338, 0.2021973862533552, -0.6055061146569279, 0.7690487285041954,0.03229197635278633,-0.9500885009765625,-0.3032989501953125,-0.185272216796875
20220224-0916,2022-02-24 09:16:21Z,u01, 148,40,movements,el-ex, rt, d,218212.799895875, -1.37498831553677, 0.2642066834098687, 0.30508396696550855, -0.4239727258682251, -0.008629320189356804, 0.3888472020626068, -0.9468539953231812, -0.2611435651779175, -0.18780799210071564, -0.015380680561065674, -0.031138598918914795, -0.056530654430389404, 0.19620415190095541, -0.6063002003657934, 0.769910601811502,0.03379163604912225,-0.9667205810546875,-0.28668212890625,-0.2469024658203125
20220224-0916,2022-02-24 09:16:21Z,u01, 149,40,movements,el-ex, rt, d,218212.824842875, -1.3738317769182926, 0.254067444994869, 0.2997756219147592, -0.054322272539138794, 0.012841284275054932, 0.30182570219039917, -0.9491840600967407, -0.25134289264678955, -0.18941137194633484, -0.0801892876625061, 0.011779844760894775, -0.055858075618743896, 0.19079446460701838, -0.6073646225684954, 0.7703730704123171,0.035088424332269025,-1.0240325927734375,-0.2432708740234375,-0.2467193603515625
20220224-0916,2022-02-24 09:16:21Z,u01, 150,40,movements,el-ex, rt, d,218212.849788875, -1.3744322001655591, 0.24958776985765266, 0.30590554181874813, 0.4366835355758667, 0.03153081238269806, 0.1587931513786316, -0.9503923654556274, -0.24700452387332916, -0.18905921280384064, -0.09396511316299438, -0.003850027918815613, -0.041592299938201904, 0.1909958649055345, -0.6074462723436359, 0.7700798480596852,0.03881792683642318,-1.043426513671875,-0.2568511962890625,-0.231964111328125
20220224-0916,2022-02-24 09:16:21Z,u01, 151,40,movements,el-ex, rt, d,218212.87473587503, -1.377079295449863, 0.2484747155847195, 0.3182744313363807, 0.4076702892780304, -0.024472732096910477, 0.12042905390262604, -0.9511586427688599, -0.24592579901218414, -0.18659557402133942, -0.09293937683105469, -0.036453381180763245, -0.029529571533203125, 0.19439235992663986, -0.6073827651085225, 0.7690190284003725,0.043676776447320875,-1.0428619384765625,-0.2793731689453125,-0.21820068359375
20220224-0916,2022-02-24 09:16:21Z,u01, 152,40,movements,el-ex, rt, d,218212.89968187502, -1.379797881254739, 0.2467499648098867, 0.32389591075629665, -0.0095894206315279, -0.07176227867603302, 0.09201332181692123, -0.9520775675773621, -0.24425366520881653, -0.18408934772014618, -0.11390167474746704, -0.05869439244270325, -0.005790650844573975, 0.19552039328351242, -0.6080518896147068, 0.7680609855257096,0.04612230811811979,-1.0688629150390625,-0.3049468994140625,-0.1875457763671875
20220224-0916,2022-02-24 09:16:21Z,u01, 153,40,movements,el-ex, rt, d,218212.92462887501, -1.3803155979774557, 0.24450569653290322, 0.31976792037015683, -0.27448248863220215, -0.07305950671434402, 0.03038298524916172, -0.9527086615562439, -0.24207675457000732, -0.18369975686073303, -0.09749311208724976, -0.04086706042289734, -0.007339969277381897, 0.19344255152202527, -0.6088760974061433, 0.7679888423106744,0.045203523094726056,-1.054351806640625,-0.285003662109375,-0.1887054443359375
20220224-0916,2022-02-24 09:16:21Z,u01, 154,40,movements,el-ex, rt, d,218212.949574875, -1.38099179358544, 0.24321423406228518, 0.3124543472383225, -0.2518237829208374, -0.13120730221271515, -0.04709110036492348, -0.9531387686729431, -0.24082350730895996, -0.18311430513858795, -0.09376692771911621, -0.05223684012889862, 0.000650063157081604, 0.1907487583272886, -0.609965376907475, 0.7679390462659397,0.042742867298880105,-1.0503997802734375,-0.29803466796875,-0.1826629638671875
20220224-0916,2022-02-24 09:16:21Z,u01, 155,40,movements,el-ex, rt, d,218212.974521875, -1.3825497676731482, 0.24467599003836366, 0.30670697905502387, -0.17095640301704407, -0.09170310199260712, -0.13407719135284424, -0.9530760645866394, -0.2422419786453247, -0.18156304955482483, -0.12237882614135742, -0.034888193011283875, -0.006379067897796631, 0.1895703353907575, -0.6109677294424557, 0.7675858330296167,0.039921118057418464,-1.077606201171875,-0.278594970703125,-0.1877899169921875
20220224-0916,2022-02-24 09:16:21Z,u01, 156,40,movements,el-ex, rt, d,218212.99946787502, -1.3836830287725808, 0.24745877255538748, 0.3023615894069288, -0.1435423642396927, -0.09138645231723785, -0.17038114368915558, -0.9526152014732361, -0.24494093656539917, -0.18035675585269928, -0.09595370292663574, -0.046791911125183105, 0.0015088319778442383, 0.1892989200235905, -0.6115452090566762, 0.7673269228350504,0.03725593684669348,-1.047821044921875,-0.2929840087890625,-0.1769256591796875
20220224-0916,2022-02-24 09:16:21Z,u01, 157,40,movements,el-ex, rt, d,218213.02441487502, -1.3853438884949212, 0.2511284429987756, 0.2980682476031498, -0.08486716449260712, -0.13899198174476624, -0.16637861728668213, -0.9520235657691956, -0.2484971582889557, -0.17860738933086395, -0.07910454273223877, -0.027229204773902893, 0.002780735492706299, 0.18937907572150506, -0.61223514076792, 0.7668956989753557,0.03427672683058411,-1.030059814453125,-0.278533935546875,-0.173309326171875
20220224-0916,2022-02-24 09:16:21Z,u01, 158,40,movements,el-ex, rt, d,218213.049360875, -1.3886894421174627, 0.25576565445028954, 0.29836420413823483, 0.18093228340148926, -0.12667140364646912, -0.21034154295921326, -0.951472282409668, -0.25298622250556946, -0.17521077394485474, -0.09015393257141113, -0.017369061708450317, -0.013646900653839111, 0.19124693274025106, -0.6130409623819855, 0.7658615001448746,0.03258436036937984,-1.0434417724609375,-0.2709808349609375,-0.1890869140625
20220224-0916,2022-02-24 09:16:21Z,u01, 159,40,movements,el-ex, rt, d,218213.074307875, -1.3921798851368672, 0.2628265844502004, 0.30276910876862756, 0.1957431584596634, -0.0716545581817627, -0.2905043661594391, -0.9502963423728943, -0.2598111033439636, -0.17156699299812317, -0.09407639503479004, -0.008606284856796265, 0.004910901188850403, 0.19526770929360768, -0.6132593464332878, 0.7647097891887559,0.031662912018147055,-1.0480804443359375,-0.2693023681640625,-0.1692657470703125
20220224-0916,2022-02-24 09:16:21Z,u01, 160,40,movements,el-ex, rt, d,218213.09925425, -1.3953841505528815, 0.27143046472480437, 0.30480926845589085, 0.09011949598789215, -0.16063722968101501, -0.3514367640018463, -0.948604941368103, -0.2681097984313965, -0.16812478005886078, -0.06341910362243652, 0.012876003980636597, 0.009494736790657043, 0.1991184905008908, -0.6134243555369613, 0.7636758219782716,0.029355005137713414,-1.0116729736328125,-0.2547760009765625,-0.158416748046875
20220224-0916,2022-02-24 09:16:21Z,u01, 161,40,movements,el-ex, rt, d,218213.12420125, -1.4007691530117008, 0.280381438339644, 0.3068817726843207, 0.2460508495569229, -0.2232123166322708, -0.324084609746933, -0.9470933079719543, -0.2767222225666046, -0.1626015305519104, -0.0789840817451477, 0.008579462766647339, -0.03449587523937225, 0.20312345793814096, -0.614361537024716, 0.7619627975169481,0.026712955388591475,-1.024078369140625,-0.2662200927734375,-0.19549560546875
20220224-0916,2022-02-24 09:16:21Z,u01, 162,40,movements,el-ex, rt, d,218213.14914725002, -1.4085942027126306, 0.2900468021288884, 0.31474685497907373, 0.4219778776168823, -0.21942138671875, -0.36609017848968506, -0.9456528425216675, -0.28599706292152405, -0.1547463834285736, -0.0914260745048523, 0.00019994378089904785, -0.05733518302440643, 0.20918324372651761, -0.615523496888754, 0.7594139137224393,0.025763646004032664,-1.0384063720703125,-0.2852020263671875,-0.210052490234375
20220224-0916,2022-02-24 09:16:21Z,u01, 163,40,movements,el-ex, rt, d,218213.17409425002, -1.4166246355626975, 0.30147220835281235, 0.3222412884450059, 0.26413020491600037, -0.2845761477947235, -0.436135858297348, -0.9435745477676392, -0.296926349401474, -0.14663612842559814, -0.08303695917129517, -0.031885355710983276, 0.0016779899597167969, 0.21574921107446876, -0.6165502542735822, 0.7567964540730975,0.024028970353644902,-1.0269927978515625,-0.3252105712890625,-0.1522216796875
20220224-0916,2022-02-24 09:16:21Z,u01, 164,40,movements,el-ex, rt, d,218213.19904025, -1.4255890216101967, 0.3133268450722932, 0.3247667268739913, 0.0926816537976265, -0.39074140787124634, -0.47341421246528625, -0.9413018226623535, -0.30822521448135376, -0.13765273988246918, -0.09286272525787354, -0.03529593348503113, 0.021350577473640442, 0.2209145204666349, -0.6183610613810876, 0.7539373874983795,0.020122729041752746,-1.0369415283203125,-0.3394317626953125,-0.1168670654296875
20220224-0916,2022-02-24 09:16:21Z,u01, 165,40,movements,el-ex, rt, d,218213.22398725, -1.4357354907910194, 0.32521066573929064, 0.3268295945347606, 0.27037596702575684, -0.3912472724914551, -0.46445995569229126, -0.9389540553092957, -0.3195084035396576, -0.12759268283843994, -0.0949968695640564, 0.007954448461532593, -0.031144127249717712, 0.22591403640153185, -0.6206178404034982, 0.7506964502910829,0.015853003896410978,-1.035369873046875,-0.3160400390625,-0.1515655517578125
20220224-0916,2022-02-24 09:16:21Z,u01, 166,40,movements,el-ex, rt, d,218213.24893325003, -1.4466943878411258, 0.3379863891898372, 0.33376899458088555, 0.2858218848705292, -0.3191608190536499, -0.47995662689208984, -0.9361687898635864, -0.33158808946609497, -0.11678050458431244, -0.0728035569190979, 0.06532213091850281, -0.02077716588973999, 0.2327048444971301, -0.6224614077678107, 0.7471428091338587,0.012964198163103458,-1.00567626953125,-0.2662506103515625,-0.131561279296875
20220224-0916,2022-02-24 09:16:21Z,u01, 167,40,movements,el-ex, rt, d,218213.27388025002, -1.455087133070436, 0.3512244056219029, 0.3366039939015176, 0.02037370391190052, -0.295012891292572, -0.5749257802963257, -0.9326736330986023, -0.3440477252006531, -0.10840313881635666, -0.06326764822006226, -0.0196150541305542, 0.03844189643859863, 0.2383184600180559, -0.6237008445098196, 0.7443972562012818,0.008625523122145928,-0.9948883056640625,-0.3587646484375,-0.074371337890625
20220224-0916,2022-02-24 09:16:21Z,u01, 168,40,movements,el-ex, rt, d,218213.29882625001, -1.4596551549070378, 0.3661374577616094, 0.3296973839026394, -0.35070013999938965, -0.26034286618232727, -0.636094331741333, -0.9279564619064331, -0.3580116033554077, -0.1035609245300293, -0.07034999132156372, 0.04477909207344055, 0.038482606410980225, 0.24142488280769997, -0.6244466053613507, 0.7428192052687033,0.000527258451731738,-0.997314453125,-0.30523681640625,-0.0709686279296875
20220224-0916,2022-02-24 09:16:21Z,u01, 169,40,movements,el-ex, rt, d,218213.32377325, -1.461823347710205, 0.3803755806087342, 0.3204544823347678, -0.1289793699979782, -0.18243400752544403, -0.5794281959533691, -0.9230177402496338, -0.37126922607421875, -0.10098404437303543, -0.05603212118148804, 0.051032960414886475, -0.009550273418426514, 0.24353433403034444, -0.624659112426174, 0.7419092478279774,-0.00793111179695255,-0.9825439453125,-0.3149566650390625,-0.1099700927734375
20220224-0916,2022-02-24 09:16:21Z,u01, 170,40,movements,el-ex, rt, d,218213.34871925, -1.4658245542739585, 0.3934565395991236, 0.3198967946208419, 0.1644018143415451, -0.15577223896980286, -0.46670296788215637, -0.9185057878494263, -0.3833831250667572, -0.09677289426326752, -0.025708317756652832, 0.01656171679496765, -0.02378644049167633, 0.24791887147387176, -0.6246197135763982, 0.7404170443206042,-0.01301304291148539,-0.9412384033203125,-0.376373291015625,-0.11712646484375
20220224-0916,2022-02-24 09:16:22Z,u01, 171,40,movements,el-ex, rt, d,218213.37366625, -1.4714171349958964, 0.406361953742767, 0.32506756225972633, 0.2516222894191742, -0.15419337153434753, -0.5373730063438416, -0.9140328168869019, -0.3952701687812805, -0.09113606810569763, -0.013213396072387695, -0.04528161883354187, 0.03733391314744949, 0.25398837927034895, -0.6244372430536527, 0.7384495364643859,-0.016138505384292595,-0.9304046630859375,-0.4438934326171875,-0.05780029296875
20220224-0916,2022-02-24 09:16:22Z,u01, 172,40,movements,el-ex, rt, d,218213.39861225002, -1.477112786876936, 0.4194609920158592, 0.32698702452601397, 0.04338238388299942, -0.22844231128692627, -0.49713394045829773, -0.9093037247657776, -0.407268226146698, -0.08543688803911209, -0.004591047763824463, 0.02459302544593811, 0.019717641174793243, 0.25907238711026226, -0.6246303348092832, 0.7364069560012929,-0.020574421571469076,-0.9138336181640625,-0.3764190673828125,-0.07635498046875
20220224-0916,2022-02-24 09:16:22Z,u01, 173,40,movements,el-ex, rt, d,218213.42355925002, -1.4824531963268595, 0.4323542956748563, 0.32838451243058425, 0.09653288871049881, -0.14158983528614044, -0.479172945022583, -0.9044411182403564, -0.41900962591171265, -0.08010967075824738, -0.03492063283920288, 0.11282667517662048, -0.09075784683227539, 0.26388928526534405, -0.6247460354480556, 0.7344551015459282,-0.025114169515252277,-0.938446044921875,-0.3081817626953125,-0.16796875
20220224-0916,2022-02-24 09:16:22Z,u01, 174,40,movements,el-ex, rt, d,218213.44850525, -1.4844645949431379, 0.4403189036849245, 0.32818404027729736, -0.176789328455925, -0.006472758948802948, -0.20235438644886017, -0.9012470245361328, -0.42622798681259155, -0.07800009101629257, -0.032850563526153564, 0.005085259675979614, -0.020220406353473663, 0.26653276211393684, -0.6244679656808356, 0.7336265362434022,-0.02814952875374857,-0.93524169921875,-0.437469482421875,-0.0753936767578125
20220224-0916,2022-02-24 09:16:22Z,u01, 175,40,movements,el-ex, rt, d,218213.47345225, -1.4792348758698317, 0.4439774589022995, 0.3157799718148931, -0.6002408266067505, -0.04783664643764496, -0.1690371185541153, -0.8992677927017212, -0.4295347034931183, -0.08256912976503372, 0.01042795181274414, -0.1414492428302765, 0.13657033443450928, 0.2639988463272362, -0.6237147134709079, 0.734968954908341,-0.03324659949484038,-0.8937835693359375,-0.565704345703125,0.055206298828125
20220224-0916,2022-02-24 09:16:22Z,u01, 176,40,movements,el-ex, rt, d,218213.49839825003, -1.4733338318727838, 0.44709820644891857, 0.29694726122828746, -0.6696237325668335, -0.11503957957029343, -0.2227410227060318, -0.8974263668060303, -0.4323507845401764, -0.08774341642856598, 0.011562049388885498, -0.041617780923843384, 0.08597374707460403, 0.259312062441732, -0.62360688520945, 0.7363663483527074,-0.04045292241010359,-0.8864898681640625,-0.454833984375,-0.0150299072265625
20220224-0916,2022-02-24 09:16:22Z,u01, 177,40,movements,el-ex, rt, d,218213.52334525003, -1.4693359402358732, 0.4516985726669336, 0.28265771991489186, -0.31476178765296936, -0.0457310825586319, -0.20604565739631653, -0.8950802683830261, -0.436494380235672, -0.09112810343503952, -0.0019993185997009277, 0.10568374395370483, 0.01117241382598877, 0.256539779578122, -0.6233965747303041, 0.7371425627993655,-0.04674520357334125,-0.89801025390625,-0.334228515625,-0.078857421875
20220224-0916,2022-02-24 09:16:22Z,u01, 178,40,movements,el-ex, rt, d,218213.54829125002, -1.4691872979579257, 0.45516795395386905, 0.281193015270077, 0.20782412588596344, 0.020428631454706192, -0.10910353809595108, -0.8935547471046448, -0.4396131634712219, -0.09110698848962784, 0.015624940395355225, 0.04396793246269226, -0.02307415008544922, 0.25729205580943354, -0.623094939352492, 0.7370267124618808,-0.048428364776388955,-0.877227783203125,-0.4043121337890625,-0.1145477294921875
20220224-0916,2022-02-24 09:16:22Z,u01, 179,40,movements,el-ex, rt, d,218213.57323825, -1.470824230209862, 0.45774594177056255, 0.2873525420051145, 0.18881508708000183, 0.05511031299829483, -0.03590269386768341, -0.8925720453262329, -0.4419272243976593, -0.08953076601028442, 0.00856924057006836, -0.045087605714797974, 0.025306887924671173, 0.2600654204243363, -0.6225757740060557, 0.7365693278493946,-0.04723505554445506,-0.882293701171875,-0.4791717529296875,-0.067596435546875
20220224-0916,2022-02-24 09:16:22Z,u01, 180,40,movements,el-ex, rt, d,218213.59818425, -1.469898293940167, 0.4583044030007008, 0.29018430073325596, 0.02909589186310768, 0.1027282252907753, 0.005457328632473946, -0.8922430872917175, -0.4424281120300293, -0.09033232182264328, -0.013869762420654297, -0.08200126886367798, 0.05877751111984253, 0.2611614856442493, -0.6217945954273105, 0.7369032887722422,-0.04625853188547435,-0.90655517578125,-0.52313232421875,-0.03826904296875
20220224-0916,2022-02-24 09:16:22Z,u01, 181,40,movements,el-ex, rt, d,218213.62313125, -1.4664290822687371, 0.45728748980625344, 0.28921617221454393, -0.041444920003414154, 0.11854301393032074, 0.07042767107486725, -0.8923713564872742, -0.4415159225463867, -0.09347397089004517, 0.005820274353027344, 0.006869256496429443, -0.015458166599273682, 0.2605879566827461, -0.6207712385392732, 0.7379955648310214,-0.04582236506778262,-0.8902435302734375,-0.4401397705078125,-0.1031341552734375
20220224-0916,2022-02-24 09:16:22Z,u01, 182,40,movements,el-ex, rt, d,218213.64807725002, -1.4647082006846597, 0.45523761141305963, 0.29101156275154877, 0.12971371412277222, 0.08786699175834656, 0.10914750397205353, -0.8931072354316711, -0.4396757483482361, -0.0951051339507103, 0.015909850597381592, 0.03605017066001892, -0.012163810431957245, 0.2604717917565773, -0.6201627837812822, 0.7386438205582762,-0.044249655964590684,-0.876861572265625,-0.4016265869140625,-0.1075286865234375
20220224-0916,2022-02-24 09:16:22Z,u01, 183,40,movements,el-ex, rt, d,218213.67302425002, -1.464675367881131, 0.452712078971448, 0.29483479945177166, 0.05091523379087448, 0.10393904149532318, 0.12588240206241608, -0.8942054510116577, -0.4374060034751892, -0.09525177627801895, 0.012628793716430664, 0.004346221685409546, 0.013037800788879395, 0.2607804370183961, -0.6199739315480124, 0.7388254534136358,-0.04198851210557453,-0.8810882568359375,-0.4307708740234375,-0.0802154541015625
20220224-0916,2022-02-24 09:16:22Z,u01, 184,40,movements,el-ex, rt, d,218213.69797025, -1.4616058385038275, 0.44925666550146637, 0.29365127196158797, -0.19894133508205414, 0.11257141083478928, 0.15829627215862274, -0.8954059481620789, -0.4342960715293884, -0.09816022962331772, 0.03833490610122681, 0.008667320013046265, -0.00717085599899292, 0.2592755855439345, -0.6194320421498013, 0.7398714690404947,-0.040872008902814116,-0.853302001953125,-0.4196319580078125,-0.107025146484375
20220224-0916,2022-02-24 09:16:22Z,u01, 185,40,movements,el-ex, rt, d,218213.72291725, -1.4570373661431584, 0.44465782841706003, 0.2877208765221004, -0.22249922156333923, 0.028231825679540634, 0.13619956374168396, -0.8969229459762573, -0.43014901876449585, -0.10247545689344406, 0.03145956993103027, 0.08116519451141357, -0.0076621100306510925, 0.25592827367126486, -0.619082378699919, 0.7413240084684651,-0.040945649314996835,-0.8570404052734375,-0.3563232421875,-0.114105224609375
20220224-0916,2022-02-24 09:16:22Z,u01, 186,40,movements,el-ex, rt, d,218213.74786325, -1.4539807645814193, 0.4410848825562132, 0.2820145051456865, -0.2006777822971344, 0.10345740616321564, 0.10140836238861084, -0.8981263637542725, -0.4269207715988159, -0.10539497435092926, -0.038473546504974365, 0.07810476422309875, 0.036440908908843994, 0.2529737276826757, -0.6191177631345605, 0.7422781173839188,-0.041484061600613575,-0.943603515625,-0.357818603515625,-0.06182861328125
20220224-0916,2022-02-24 09:16:22Z,u01, 187,40,movements,el-ex, rt, d,218213.77281025003, -1.4475003204209709, 0.4390222147756269, 0.27661215433433195, -0.2825596034526825, 0.20007795095443726, 0.04331975430250168, -0.8982964754104614, -0.4250546097755432, -0.11132103949785233, -0.0085030198097229, 0.05841633677482605, 0.04518979787826538, 0.25071363409902453, -0.6176424155062644, 0.7442428979259775,-0.041991064976434844,-0.916107177734375,-0.3714447021484375,-0.059234619140625
20220224-0916,2022-02-24 09:16:22Z,u01, 188,40,movements,el-ex, rt, d,218213.79775725002, -1.439591579242115, 0.43716557070626394, 0.2690278302940665, -0.1882312297821045, 0.159373939037323, 0.02040325477719307, -0.8981687426567078, -0.4233733117580414, -0.11852490901947021, 0.023275434970855713, 0.07709026336669922, -0.019139587879180908, 0.24788754077879732, -0.6158646875801546, 0.7465887374473499,-0.043218268364922985,-0.8751220703125,-0.3438720703125,-0.139404296875
20220224-0916,2022-02-24 09:16:22Z,u01, 189,40,movements,el-ex, rt, d,218213.82270325, -1.4355351550668152, 0.43632346189610666, 0.26685571218073834, -0.05649900436401367, 0.17671330273151398, -0.0029928148724138737, -0.8980335593223572, -0.42261025309562683, -0.12221531569957733, -0.014762639999389648, 0.06595122814178467, 0.07074779272079468, 0.24700841434881918, -0.6147187869541947, 0.7478216239990011,-0.04325048616539637,-0.9078216552734375,-0.3527984619140625,-0.063323974609375
20220224-0916,2022-02-24 09:16:22Z,u01, 190,40,movements,el-ex, rt, d,218213.84765025, -1.4272134857621475, 0.43577285193013926, 0.2609156706722837, -0.4667319655418396, 0.33147484064102173, -0.014384020119905472, -0.8972156643867493, -0.4221111536026001, -0.12971742451190948, -0.04528939723968506, 0.030112773180007935, 0.17730998992919922, 0.24517226083205437, -0.6123984431492002, 0.7502659766150653,-0.044270475282576716,-0.9427337646484375,-0.39984130859375,0.045440673828125
20220224-0916,2022-02-24 09:16:22Z,u01, 191,40,movements,el-ex, rt, d,218213.87259625, -1.4097779753651012, 0.4329340857077402, 0.24497659427279503, -0.6453167200088501, 0.5214980840682983, 0.05248189717531204, -0.8959968090057373, -0.4195359945297241, -0.14553183317184448, -0.003219008445739746, 0.007991135120391846, 0.015283122658729553, 0.23968931593099355, -0.6080979471620261, 0.7553378062548257,-0.04723185116795525,-0.9101104736328125,-0.4274749755859375,-0.1120758056640625
20220224-0916,2022-02-24 09:16:22Z,u01, 192,40,movements,el-ex, rt, d,218213.89754325, -1.3934911329386515, 0.4296068640277332, 0.23444529426581023, -0.02436567097902298, 0.3752978444099426, 0.058478064835071564, -0.8948768377304077, -0.4165134131908417, -0.16035015881061554, 0.07370972633361816, 0.1263369619846344, -0.0624735951423645, 0.23568208219429365, -0.6035551959338115, 0.7601648919826479,-0.04821343132731626,-0.82183837890625,-0.28070068359375,-0.2140350341796875
20220224-0916,2022-02-24 09:16:22Z,u01, 193,40,movements,el-ex, rt, d,218213.92248925002, -1.3894757885739535, 0.43013914301528183, 0.244676508872822, 0.6857655644416809, 0.3476729393005371, 0.02764698676764965, -0.894007682800293, -0.4169972836971283, -0.16390211880207062, -0.05099982023239136, 0.03790783882141113, 0.049797236919403076, 0.23904885123908634, -0.6007533496673488, 0.7615864840851216,-0.04401517392977167,-0.9330902099609375,-0.3597412109375,-0.115966796875
20220224-0916,2022-02-24 09:16:22Z,u01, 194,40,movements,el-ex, rt, d,218213.94743625002, -1.3845941238134614, 0.43237090885404145, 0.2607797800174487, 0.3581506013870239, 0.4987573027610779, 0.021765395998954773, -0.8922799825668335, -0.4190247058868408, -0.16809165477752686, -0.04006260633468628, -0.03493955731391907, 0.025971606373786926, 0.2447820105794222, -0.5966874725693267, 0.7632836056318099,-0.038000221659383104,-0.9178314208984375,-0.4544830322265625,-0.1538848876953125
20220224-0916,2022-02-24 09:16:22Z,u01, 195,40,movements,el-ex, rt, d,218213.97238225, -1.376529331561811, 0.43165436597262435, 0.26425340935706815, 0.00471265334635973, 0.24785025417804718, 0.03789303079247475, -0.8911899924278259, -0.4183740019798279, -0.17534013092517853, 0.06791692972183228, 0.028237134218215942, -0.08819408714771271, 0.24570233505658845, -0.5932624200068453, 0.7657763009930076,-0.035454750957479686,-0.82012939453125,-0.398956298828125,-0.2602996826171875
20220224-0916,2022-02-24 09:16:22Z,u01, 196,40,movements,el-ex, rt, d,218213.99732925, -1.372711062375652, 0.43038003211025594, 0.2671119491547534, 0.23182550072669983, 0.18511883914470673, 0.13152138888835907, -0.8910358548164368, -0.4172162115573883, -0.17884638905525208, 0.01591360569000244, 0.04786187410354614, -0.06472927331924438, 0.2461494804303112, -0.5915971913174937, 0.7670085807425487,-0.033484507533553365,-0.8815765380859375,-0.3752288818359375,-0.241180419921875
20220224-0916,2022-02-24 09:16:22Z,u01, 197,40,movements,el-ex, rt, d,218214.02227525003, -1.3711025677833004, 0.42854285051681523, 0.27549404215315754, 0.23707708716392517, 0.18817740678787231, 0.11316974461078644, -0.8914968967437744, -0.41554585099220276, -0.18043115735054016, -0.0021800994873046875, 0.028430283069610596, -0.014682650566101074, 0.2479798480431152, -0.5901613506316641, 0.7676890139318601,-0.02948604757183576,-0.8979034423828125,-0.390716552734375,-0.194976806640625
20220224-0916,2022-02-24 09:16:22Z,u01, 198,40,movements,el-ex, rt, d,218214.04722225002, -1.3690913921539525, 0.42626645365110427, 0.2807135019349475, 0.12977004051208496, 0.1414833515882492, 0.12587562203407288, -0.8920565247535706, -0.4134742319583893, -0.1824127584695816, 0.039730966091156006, 0.04059514403343201, -0.050741180777549744, 0.248714806871482, -0.5890115185946967, 0.7684424288913075,-0.026509004943091385,-0.845611572265625,-0.368408203125,-0.2432708740234375
20220224-0916,2022-02-24 09:16:22Z,u01, 199,40,movements,el-ex, rt, d,218214.07216825002, -1.3678588973561625, 0.4243257083643004, 0.2843100972053697, 0.08807212114334106, 0.031339533627033234, 0.08377770334482193, -0.8926153779029846, -0.4117063879966736, -0.18367347121238708, 0.1305454969406128, 0.06165441870689392, -0.06324392557144165, 0.24907960885395972, -0.5883218636268489, 0.7689236905849823,-0.02435737973614116,-0.7671661376953125,-0.3493804931640625,-0.2533721923828125
20220224-0916,2022-02-24 09:16:22Z,u01, 200,40,movements,el-ex, rt, d,218214.097114625, -1.3700678213057627, 0.42204477333589946, 0.28498487444932413, -0.10135059803724289, -0.11049389839172363, 0.11377009004354477, -0.8939366936683655, -0.40962666273117065, -0.18188804388046265, 0.0971989631652832, 0.03906694054603577, -0.04256837069988251, 0.24841813057668463, -0.5893593242980882, 0.768365025927252,-0.023648605699542635,-0.8078765869140625,-0.3731842041015625,-0.2200927734375
20220224-0916,2022-02-24 09:16:22Z,u01, 201,40,movements,el-ex, rt, d,218214.122060625, -1.3695520292968981, 0.4174574797122276, 0.2817168887704724, -0.1552215963602066, 0.029691101983189583, 0.19209784269332886, -0.8956746459007263, -0.4054375886917114, -0.182722806930542, 0.05990481376647949, -0.019062012434005737, -0.019211649894714355, 0.24578324559989573, -0.5901094732473073, 0.7686447901780987,-0.023383430706732544,-0.841552734375,-0.4240264892578125,-0.2024383544921875
20220224-0916,2022-02-24 09:16:22Z,u01, 202,40,movements,el-ex, rt, d,218214.14700762503, -1.3671716173359683, 0.41097584909125107, 0.2780785584555601, -0.17628736793994904, -0.027489162981510162, 0.2428451031446457, -0.897791862487793, -0.3995040953159332, -0.18538187444210052, 0.13558471202850342, -0.0006576776504516602, -0.01179186999797821, 0.24236177825331315, -0.5903980262752802, 0.7695373352422673,-0.022435064471368227,-0.7548675537109375,-0.399322509765625,-0.1922149658203125
20220224-0916,2022-02-24 09:16:22Z,u01, 203,40,movements,el-ex, rt, d,218214.17195362502, -1.3676187261787378, 0.4046938441184813, 0.27434462845446084, -0.20212166011333466, -0.15560539066791534, 0.19316431879997253, -0.9003150463104248, -0.3937373459339142, -0.18548321723937988, 0.16832023859024048, 0.03382822871208191, -0.005098700523376465, 0.23894672909435416, -0.5917455949533481, 0.7695847835925615,-0.021933259770345215,-0.7301177978515625,-0.3629150390625,-0.19061279296875
20220224-0916,2022-02-24 09:16:22Z,u01, 204,40,movements,el-ex, rt, d,218214.19690062501, -1.370098597609083, 0.3988456144871259, 0.26964875337566, -0.18865966796875, -0.15033479034900665, 0.2056635171175003, -0.9030133485794067, -0.3883548378944397, -0.1837059110403061, 0.12795817852020264, 0.06636378169059753, -0.027536451816558838, 0.2353779621656241, -0.5939227745447562, 0.7690002330099405,-0.022177469221431878,-0.778167724609375,-0.317291259765625,-0.2115478515625
20220224-0916,2022-02-24 09:16:22Z,u01, 205,40,movements,el-ex, rt, d,218214.221846625, -1.3728171049376319, 0.39441502991761035, 0.2691809645035018, 0.0959833413362503, -0.09223479777574539, 0.12137867510318756, -0.9051874279975891, -0.384268194437027, -0.18158701062202454, 0.10996025800704956, 0.0963958203792572, -0.034599170088768005, 0.23358075653011545, -0.5955220618281266, 0.7683367095751762,-0.021267774498029024,-0.7939605712890625,-0.2868804931640625,-0.2209625244140625
20220224-0916,2022-02-24 09:16:22Z,u01, 206,40,movements,el-ex, rt, d,218214.246793625, -1.3768204209644381, 0.39303096605874566, 0.2744889409982934, 0.1869017332792282, -0.07133843749761581, 0.0768856331706047, -0.9064282178878784, -0.3829900324344635, -0.17806418240070343, 0.11672466993331909, 0.06870466470718384, -0.015004932880401611, 0.23461405926722348, -0.5965937935879876, 0.7672427458968265,-0.01925779532210825,-0.78961181640625,-0.3165283203125,-0.191131591796875
20220224-0916,2022-02-24 09:16:22Z,u01, 207,40,movements,el-ex, rt, d,218214.27173962502, -1.379535839697696, 0.39173312479810335, 0.2774348868461242, 0.017954424023628235, -0.05858689174056053, 0.05835995450615883, -0.9073955416679382, -0.38179081678390503, -0.17569652199745178, 0.12103372812271118, 0.046509385108947754, -0.023018285632133484, 0.2349926283246991, -0.5974363612143354, 0.7665006152975142,-0.018032747213492073,-0.78662109375,-0.3350677490234375,-0.1986236572265625
20220224-0916,2022-02-24 09:16:22Z,u01, 208,40,movements,el-ex, rt, d,218214.29668662502, -1.380328075223521, 0.3911768144359619, 0.27788767066679954, 0.04301140457391739, 0.009891167283058167, -0.004592175595462322, -0.907742977142334, -0.38127660751342773, -0.17501778900623322, 0.13897448778152466, 0.07440701127052307, -0.020492732524871826, 0.23491716853277467, -0.5977499708090286, 0.7662853134980478,-0.01777452673597213,-0.763916015625,-0.3026885986328125,-0.1964263916015625
20220224-0916,2022-02-24 09:16:22Z,u01, 209,40,movements,el-ex, rt, d,218214.321632625, -1.3814322868812687, 0.39292958977313863, 0.27994460475704275, 0.1370960921049118, -0.05838402360677719, -0.09368450194597244, -0.9072778224945068, -0.38289639353752136, -0.17388926446437836, 0.17180407047271729, 0.07790365815162659, -0.0032191723585128784, 0.23616332816493424, -0.5977309168798319, 0.7659192359590745,-0.01767711151660223,-0.7332305908203125,-0.3014068603515625,-0.177001953125
20220224-0916,2022-02-24 09:16:22Z,u01, 210,40,movements,el-ex, rt, d,218214.346579625, -1.3838513609453884, 0.3963090499671847, 0.2840769578605676, 0.21941201388835907, -0.00910409539937973, -0.10624689608812332, -0.9064192771911621, -0.3860161006450653, -0.17145252227783203, 0.13783389329910278, 0.056212544441223145, 0.005071043968200684, 0.2386113090909945, -0.5977778727225386, 0.7651283616792864,-0.017464302650243624,-0.7715606689453125,-0.3326873779296875,-0.16650390625
20220224-0916,2022-02-24 09:16:23Z,u01, 211,40,movements,el-ex, rt, d,218214.371525625, -1.3850871866138685, 0.39975490958467197, 0.2904555136077518, 0.2671988308429718, 0.1009204089641571, -0.08158522844314575, -0.9053178429603577, -0.3891925811767578, -0.1700855940580368, 0.14694052934646606, 0.023866593837738037, 0.0001793503761291504, 0.24176191408626851, -0.5970832239650387, 0.7647078130889615,-0.016277578564338202,-0.763916015625,-0.3631744384765625,-0.1696014404296875
20220224-0916,2022-02-24 09:16:23Z,u01, 212,40,movements,el-ex, rt, d,218214.39647262503, -1.385361354717043, 0.4030228349075681, 0.29575747658348567, 0.1631181389093399, 0.00791756622493267, -0.10885832458734512, -0.9041094183921814, -0.392200767993927, -0.16960196197032928, 0.17086344957351685, 0.020405083894729614, -0.010069891810417175, 0.24453003640317122, -0.5961577638199129, 0.7645691595433965,-0.015331952807727867,-0.7361907958984375,-0.3741455078125,-0.1810150146484375
20220224-0916,2022-02-24 09:16:23Z,u01, 213,40,movements,el-ex, rt, d,218214.42141862502, -1.3869964523736587, 0.40629232184661007, 0.2991619666021531, 0.16669702529907227, 0.0034935232251882553, -0.10505746304988861, -0.9031200408935547, -0.3952062129974365, -0.16788817942142487, 0.09075725078582764, 0.008456885814666748, -0.006534680724143982, 0.24671938710330135, -0.5959743767343604, 0.7640095997150866,-0.015281065317878595,-0.8080291748046875,-0.3856353759765625,-0.177978515625
20220224-0916,2022-02-24 09:16:23Z,u01, 214,40,movements,el-ex, rt, d,218214.44636562502, -1.3885526472967535, 0.4092452516334138, 0.3044154819064386, 0.25524017214775085, 0.01880529895424843, -0.05580849200487137, -0.9022286534309387, -0.3979170322418213, -0.16627033054828644, 0.0883094072341919, 0.009016185998916626, -0.019321978092193604, 0.24934293422550072, -0.5955610277226245, 0.7634969125893287,-0.01441657308037303,-0.8112335205078125,-0.390625,-0.1862030029296875
20220224-0916,2022-02-24 09:16:23Z,u01, 215,40,movements,el-ex, rt, d,218214.471311625, -1.3913425794989327, 0.4114774242546014, 0.3105941902882302, 0.18483182787895203, -0.03601260855793953, -0.02792220003902912, -0.9018126726150513, -0.3999638557434082, -0.16359354555606842, 0.077120840549469, -0.008178234100341797, -0.023555144667625427, 0.2519707289260996, -0.5955786930976796, 0.762643070066464,-0.013127071730335615,-0.8200836181640625,-0.404541015625,-0.1875762939453125
20220224-0916,2022-02-24 09:16:23Z,u01, 216,40,movements,el-ex, rt, d,218214.496258625, -1.3932354740167519, 0.4122270154909783, 0.3141327294581858, 0.08206496387720108, 0.005789700895547867, 0.02022828534245491, -0.9018256068229675, -0.4006507694721222, -0.161833256483078, 0.03926122188568115, -0.030181288719177246, -0.022629931569099426, 0.2532830244770739, -0.5957609252002097, 0.762080455647171,-0.01225885593098941,-0.8638458251953125,-0.4324188232421875,-0.1843109130859375
20220224-0916,2022-02-24 09:16:23Z,u01, 217,40,movements,el-ex, rt, d,218214.52120462502, -1.3934381321960638, 0.41172939680361453, 0.3157010334769132, 0.03580149635672569, -0.0029912088066339493, 0.03122933767735958, -0.9020544290542603, -0.40019479393959045, -0.16168563067913055, 0.04847759008407593, -0.0033544600009918213, -0.018184661865234375, 0.25356961017101626, -0.5957009634224676, 0.7620433786760585,-0.011526514849792224,-0.8536834716796875,-0.407012939453125,-0.17926025390625
20220224-0916,2022-02-24 09:16:23Z,u01, 218,40,movements,el-ex, rt, d,218214.54615162502, -1.3940723624423046, 0.4109037302073758, 0.3165585640213571, 0.014454162679612637, -0.03827270120382309, 0.050432927906513214, -0.902481734752655, -0.3994379937648773, -0.16117152571678162, 0.03793388605117798, 0.014199286699295044, 0.00574590265750885, 0.2535239738088528, -0.5959360983737809, 0.7618822798173622,-0.011013889419837386,-0.8667755126953125,-0.38446044921875,-0.1544647216796875
20220224-0916,2022-02-24 09:16:23Z,u01, 219,40,movements,el-ex, rt, d,218214.571097625, -1.3948610947594846, 0.40934073545233, 0.31706352508545593, 0.01411647442728281, -0.04273988679051399, 0.08497332781553268, -0.903222382068634, -0.3980046212673187, -0.16056877374649048, 0.02048581838607788, 0.036539047956466675, 0.007965967059135437, 0.2531071376312675, -0.5963659880613108, 0.7616930150174458,-0.010417041581190223,-0.88232421875,-0.3652801513671875,-0.1514892578125
20220224-0916,2022-02-24 09:16:23Z,u01, 220,40,movements,el-ex, rt, d,218214.596044625, -1.3959131640813636, 0.4071209418491638, 0.3174598984184208, -0.023388423025608063, -0.04870137572288513, 0.08968179672956467, -0.9042583107948303, -0.3959672451019287, -0.15977171063423157, 0.02924293279647827, 0.048936545848846436, 0.0265934020280838, 0.252420544185736, -0.596990798516593, 0.761440869378376,-0.00968239227704737,-0.8738250732421875,-0.3466796875,-0.1248931884765625
20220224-0916,2022-02-24 09:16:23Z,u01, 221,40,movements,el-ex, rt, d,218214.620990625, -1.3949982597845647, 0.40494059030931634, 0.31458609582951547, -0.205132395029068, 0.05419198423624039, 0.0513186939060688, -0.9049597382545471, -0.39396414160728455, -0.16074958443641663, 0.009344935417175293, 0.04214218258857727, 0.05637979507446289, 0.2507811714099996, -0.5972721436640379, 0.7617583740930213,-0.009957639444327648,-0.894439697265625,-0.3504791259765625,-0.10418701171875
20220224-0916,2022-02-24 09:16:23Z,u01, 222,40,movements,el-ex, rt, d,218214.64593762503, -1.3907334557125013, 0.40329948445976627, 0.3094573399563699, -0.13028264045715332, 0.08657202869653702, 0.017684035003185272, -0.9049007892608643, -0.39245525002479553, -0.16472314298152924, 0.04386240243911743, 0.07382112741470337, 0.026616215705871582, 0.248679965072491, -0.5964869655116344, 0.7630491510301896,-0.010851176812887053,-0.8570404052734375,-0.31170654296875,-0.1439666748046875
20220224-0916,2022-02-24 09:16:23Z,u01, 223,40,movements,el-ex, rt, d,218214.67088362502, -1.3905453338987268, 0.40360379409863756, 0.31049152848047284, 0.19348253309726715, -0.013531067408621311, -0.04696919396519661, -0.9047521948814392, -0.3927351236343384, -0.164871945977211, 0.028577148914337158, 0.1404004693031311, 0.010728016495704651, 0.2490994344117066, -0.596249526354917, 0.7631023354306068,-0.010531161607234885,-0.86865234375,-0.2519989013671875,-0.1571502685546875
20220224-0916,2022-02-24 09:16:23Z,u01, 224,40,movements,el-ex, rt, d,218214.69583062502, -1.3934089892121764, 0.40596123976436704, 0.3181769203844843, 0.2897026538848877, 0.09521052241325378, -0.04406294971704483, -0.9043068885803223, -0.3949020504951477, -0.16211657226085663, -0.017354726791381836, 0.08855122327804565, 0.05994407832622528, 0.25222795432335315, -0.5960895678858865, 0.7622220774555031,-0.008719012930216152,-0.9233856201171875,-0.3132476806640625,-0.0991973876953125
20220224-0916,2022-02-24 09:16:23Z,u01, 225,40,movements,el-ex, rt, d,218214.720776625, -1.3927975212263806, 0.4086765755575754, 0.3234229745600852, 0.14290045201778412, 0.09218231588602066, -0.11579486727714539, -0.903148889541626, -0.3973952531814575, -0.16247902810573578, 0.03382498025894165, 0.037104636430740356, 0.008090972900390625, 0.2547710383034208, -0.5948547725608356, 0.762353737743697,-0.00751774460443988,-0.8726043701171875,-0.3616943359375,-0.14984130859375
20220224-0916,2022-02-24 09:16:23Z,u01, 226,40,movements,el-ex, rt, d,218214.745723625, -1.393682752436336, 0.4121866394237408, 0.3273218466689057, 0.304122656583786, 0.0042104460299015045, -0.07618720084428787, -0.9019136428833008, -0.40061378479003906, -0.16143269836902618, -0.0008574724197387695, 0.08449742197990417, -0.036778613924980164, 0.2571901464434781, -0.5942532116051371, 0.7620127857903846,-0.0072775593577782405,-0.90924072265625,-0.3177337646484375,-0.2020111083984375
20220224-0916,2022-02-24 09:16:23Z,u01, 227,40,movements,el-ex, rt, d,218214.77066962502, -1.3997294547411165, 0.41561099752608627, 0.3433446880746296, 0.8258688449859619, -0.008813677355647087, -0.04460896551609039, -0.9015163779258728, -0.4037489891052246, -0.15574176609516144, -0.045047640800476074, 0.03474554419517517, -0.011448457837104797, 0.2631620812278992, -0.5940326912878368, 0.7601721780137689,-0.0030739082528474237,-0.9434661865234375,-0.360595703125,-0.1755523681640625
20220224-0916,2022-02-24 09:16:23Z,u01, 228,40,movements,el-ex, rt, d,218214.79561662502, -1.4093151645799085, 0.4193128685107339, 0.36441914965431793, 0.6440976858139038, -0.010859849862754345, 0.011183924041688442, -0.9014862775802612, -0.40713295340538025, -0.14685171842575073, -0.09494328498840332, -0.045427531003952026, 0.011094644665718079, 0.27073904432802265, -0.5943690003587921, 0.7572450299527408,0.0024384235868439297,-1.0005645751953125,-0.459564208984375,-0.129730224609375
20220224-0916,2022-02-24 09:16:23Z,u01, 229,40,movements,el-ex, rt, d,218214.820562625, -1.414067837700135, 0.4203290704191938, 0.3753121931607607, 0.13737939298152924, -0.054226696491241455, 0.01743922382593155, -0.9017651081085205, -0.4080609083175659, -0.14250098168849945, -0.0627737045288086, -0.04170721769332886, 0.025100231170654297, 0.27434541603899104, -0.5945452892853311, 0.7557907430110296,0.005579516180073851,-0.9670562744140625,-0.457916259765625,-0.116119384765625
20220224-0916,2022-02-24 09:16:23Z,u01, 230,40,movements,el-ex, rt, d,218214.845509625, -1.4154220466710477, 0.4195857668825348, 0.3743369323068499, -0.1529989093542099, -0.05775991827249527, 0.0357508510351181, -0.9022565484046936, -0.40738219022750854, -0.14132656157016754, -0.06429636478424072, -0.0073059797286987305, 0.015319883823394775, 0.2737969379054588, -0.5952914875488164, 0.755404356216477,0.005268522184283697,-0.9662933349609375,-0.411102294921875,-0.1251678466796875
20220224-0916,2022-02-24 09:16:23Z,u01, 231,40,movements,el-ex, rt, d,218214.870455625, -1.4139208618757846, 0.4177928126250915, 0.3681835781859319, -0.29806554317474365, -0.044602833688259125, 0.047010697424411774, -0.9027633666992188, -0.40574410557746887, -0.14279472827911377, -0.044883906841278076, 0.0412268340587616, 0.026385784149169922, 0.27132851877754105, -0.5958048903480151, 0.7558991891892266,0.0037343698340862597,-0.948089599609375,-0.36517333984375,-0.1139373779296875
20220224-0916,2022-02-24 09:16:23Z,u01, 232,40,movements,el-ex, rt, d,218214.895402625, -1.4124681774140333, 0.4161162809316096, 0.3612477938511199, -0.19383202493190765, -0.029164621606469154, 0.013131161220371723, -0.903225302696228, -0.4042111933231354, -0.14421305060386658, -0.07062119245529175, 0.043905407190322876, 0.007998242974281311, 0.2686662667495365, -0.5964158903028458, 0.7563749858506391,0.0018558204017115054,-0.9798583984375,-0.3609161376953125,-0.1347503662109375
20220224-0916,2022-02-24 09:16:23Z,u01, 233,40,movements,el-ex, rt, d,218214.92034862502, -1.4110836121695798, 0.41569507853019155, 0.36053484156934423, 0.14223311841487885, 0.11655116826295853, -0.00046227872371673584, -0.9031928777694702, -0.40382590889930725, -0.14549055695533752, -0.061712026596069336, 0.033296674489974976, -0.015825018286705017, 0.2683031900261029, -0.5960437199366267, 0.7567970706782496,0.0019094454069660816,-0.974639892578125,-0.371337890625,-0.1618804931640625
20220224-0916,2022-02-24 09:16:23Z,u01, 234,40,movements,el-ex, rt, d,218214.94529562502, -1.4120919546879043, 0.4167206669567123, 0.36776206597859634, 0.34582290053367615, 0.0039000529795885086, -0.00033890828490257263, -0.9029296636581421, -0.40476393699645996, -0.14451423287391663, 0.04468369483947754, 0.024362295866012573, -0.01899854838848114, 0.2708203953830224, -0.5953143707608658, 0.7564653493036232,0.004173044584602992,-0.850128173828125,-0.3839111328125,-0.162628173828125
20220224-0916,2022-02-24 09:16:23Z,u01, 235,40,movements,el-ex, rt, d,218214.970241625, -1.4183156758293556, 0.4183184024973801, 0.37472056619721245, 0.08977797627449036, -0.20099151134490967, -0.034656867384910583, -0.9031713008880615, -0.40622442960739136, -0.138793483376503, 0.005893290042877197, 0.008732914924621582, 0.0014953017234802246, 0.27347248911296146, -0.5965031892929334, 0.7545643942920789,0.0054323071085209396,-0.8842620849609375,-0.3963470458984375,-0.1414337158203125
20220224-0916,2022-02-24 09:16:23Z,u01, 236,40,movements,el-ex, rt, d,218214.995188625, -1.421512492100574, 0.4172212657283296, 0.37322508242091196, -0.13804160058498383, -0.09452605247497559, 0.0806145966053009, -0.9040507078170776, -0.4052216410636902, -0.13597172498703003, -0.05279773473739624, -0.0032104849815368652, -0.025374367833137512, 0.2726479216823778, -0.5980612386987072, 0.7536333476820822,0.00479171778783688,-0.954742431640625,-0.4053802490234375,-0.166015625
20220224-0916,2022-02-24 09:16:23Z,u01, 237,40,movements,el-ex, rt, d,218215.02013462503, -1.4221640707577319, 0.41425728367503034, 0.3705739662896018, -0.045654747635126114, -0.13011853396892548, 0.11987025290727615, -0.905322790145874, -0.4025101363658905, -0.13555988669395447, 0.0353427529335022, 0.03571930527687073, -0.028059720993041992, 0.2708130737998912, -0.5990662203036633, 0.7534973274732317,0.0046770349452440185,-0.8770294189453125,-0.366302490234375,-0.1680755615234375
20220224-0916,2022-02-24 09:16:23Z,u01, 238,40,movements,el-ex, rt, d,218215.04508162502, -1.4266438659517744, 0.41140616769781335, 0.37053483285475536, -0.05381440743803978, -0.2584863603115082, 0.0927739292383194, -0.9070529341697693, -0.39989855885505676, -0.13166719675064087, 0.048562824726104736, 0.025920867919921875, -0.008469149470329285, 0.26980928729056597, -0.6011400442249576, 0.7522025939966891,0.004993788450379288,-0.8636016845703125,-0.3712005615234375,-0.1369476318359375
20220224-0916,2022-02-24 09:16:23Z,u01, 239,40,movements,el-ex, rt, d,218215.070027625, -1.4303200012503974, 0.40866472653315306, 0.36453547312438755, -0.40564605593681335, -0.22086702287197113, 0.09169221669435501, -0.9086130857467651, -0.397384375333786, -0.12848490476608276, -0.05046314001083374, 0.0019984841346740723, 0.04328016936779022, 0.2670461486343178, -0.6036918950927284, 0.7511543190605418,0.003148435488961432,-0.9516754150390625,-0.3927154541015625,-0.0870819091796875
20220224-0916,2022-02-24 09:16:23Z,u01, 240,40,movements,el-ex, rt, d,218215.09497525002, -1.429882040059308, 0.4046602009331213, 0.35374771445897524, -0.31430783867836, -0.09558971971273422, 0.11220022290945053, -0.9101248979568481, -0.39370644092559814, -0.12910528481006622, -0.0661935806274414, 0.0040731728076934814, -0.014708459377288818, 0.26237516107622694, -0.6054804995479153, 0.7513671477873574,0.00047377691281619283,-0.9707489013671875,-0.3828582763671875,-0.15325927734375
20220224-0916,2022-02-24 09:16:23Z,u01, 241,40,movements,el-ex, rt, d,218215.11992125, -1.4328507738853826, 0.40084450852480796, 0.3541338494274557, 0.2684447467327118, -0.13894417881965637, 0.19220604002475739, -0.9119855761528015, -0.3901960551738739, -0.1266084462404251, 0.04012870788574219, 0.08535587787628174, -0.07598209381103516, 0.2611491238265839, -0.6070394634975502, 0.7505346058058281,0.0014882576110210044,-0.8777008056640625,-0.3101043701171875,-0.2068328857421875
20220224-0916,2022-02-24 09:16:23Z,u01, 242,40,movements,el-ex, rt, d,218215.14486825, -1.439479487829732, 0.39670115400925693, 0.3600055465519079, -0.07288011163473129, -0.24294576048851013, 0.19129276275634766, -0.9143996834754944, -0.3863777816295624, -0.12077107280492783, 0.055695950984954834, 0.06543964147567749, 0.02665526419878006, 0.2614870781648919, -0.6092938309750534, 0.7485773719553989,0.004192418117644536,-0.8617706298828125,-0.3329620361328125,-0.0756072998046875
20220224-0916,2022-02-24 09:16:23Z,u01, 243,40,movements,el-ex, rt, d,218215.16981425002, -1.4405080489686326, 0.390192030498412, 0.342710530092836, -1.2560583353042603, -0.3170478641986847, 0.16059830784797668, -0.9169977307319641, -0.3803660273551941, -0.12015470117330551, -0.056314826011657715, -0.03546658158302307, 0.06092041730880737, 0.2539148919215143, -0.6127396480758096, 0.7483832283763288,-0.00025681850591041666,-0.962890625,-0.4126129150390625,-0.0454864501953125
20220224-0916,2022-02-24 09:16:23Z,u01, 244,40,movements,el-ex, rt, d,218215.19476125002, -1.4302923649973882, 0.38191652493931155, 0.3007377156030305, -1.6923466920852661, -0.13603487610816956, 0.11029072850942612, -0.9188077449798584, -0.3726995885372162, -0.12995240092277527, -0.09898418188095093, 0.03905081748962402, -0.005881011486053467, 0.23812569819429275, -0.6150771899665427, 0.7515531940907687,-0.012007710694587503,-1.0130462646484375,-0.3223114013671875,-0.1528167724609375
20220224-0916,2022-02-24 09:16:23Z,u01, 245,40,movements,el-ex, rt, d,218215.21970725, -1.420173762609874, 0.37481658393139083, 0.2680019660621343, -0.6891355514526367, -0.09252208471298218, 0.048503730446100235, -0.9200387001037598, -0.36610186100006104, -0.13963617384433746, -0.01823955774307251, 0.13255077600479126, -0.06567047536373138, 0.22558473402666998, -0.6158680384710361, 0.7545754592224327,-0.02083274559630305,-0.94342041015625,-0.2387847900390625,-0.2083587646484375
20220224-0916,2022-02-24 09:16:23Z,u01, 246,40,movements,el-ex, rt, d,218215.24465425, -1.4246665242159073, 0.3755421015471571, 0.26585055744461006, 0.48005738854408264, -0.29532474279403687, -0.14668308198451996, -0.9203938841819763, -0.3667769134044647, -0.13546256721019745, -0.030762910842895508, 0.12182748317718506, -0.030171215534210205, 0.2251344015804844, -0.6177242228960931, 0.7531469151227734,-0.022387291741160553,-0.96026611328125,-0.2560577392578125,-0.156219482421875
20220224-0916,2022-02-24 09:16:23Z,u01, 247,40,movements,el-ex, rt, d,218215.26960025, -1.4372250575822216, 0.3840717141089875, 0.2832916875724146, 0.6908056139945984, -0.14480267465114594, -0.3144521713256836, -0.918888509273529, -0.3746986389160156, -0.12347228080034256, -0.12398898601531982, 0.0034674406051635742, 0.07249300181865692, 0.23345488668061198, -0.6194858163230157, 0.7492217314844956,-0.020080921668829688,-1.043304443359375,-0.3644866943359375,-0.060455322265625
20220224-0916,2022-02-24 09:16:23Z,u01, 248,40,movements,el-ex, rt, d,218215.29454725, -1.4430038688983198, 0.39259606894939936, 0.29380224243963116, 0.17320646345615387, -0.038518644869327545, -0.23084868490695953, -0.9163852334022522, -0.382588267326355, -0.11774880439043045, -0.06051313877105713, -0.013560503721237183, 0.0833863615989685, 0.23968622988106433, -0.6194159428683632, 0.7473209002457452,-0.019650124493844734,-0.9651031494140625,-0.393524169921875,-0.038665771484375
