SessionID,LoggingTime,UID,RecNo,Hertz,Activity,MoveType,Wrist,Side,TimeStamp,DMRoll,DMPitch,DMYaw,DMRotX,DMRotY,DMRotZ,DMGrvX,DMGrvY,DMGrvZ,DMUAccelX,DMUAccelY,DMUAccelZ,DMQuatX,DMQuatY,DMQuatW,DMQuatZ,AccelroX,AceelroY,AceelroZ
20220224-1002,2022-02-24 10:03:00Z,u01, 1,40,movements,el-ex, rt, d,219675.52913962502, -1.4877762255030056, -0.5010983544211602, -0.46260075270650886, 0.11466138809919357, -0.13274240493774414, -0.06726246327161789, -0.8740347623825073, 0.48038914799690247, -0.07272962480783463, -0.011341214179992676, -0.010235339403152466, 0.030584819614887238, -0.32796917856366387, -0.5967171911562964, 0.7323693464364482,-6.938893903907228e-18,-0.8790740966796875,0.470245361328125,-0.0452880859375
20220224-1002,2022-02-24 10:03:00Z,u01, 2,40,movements,el-ex, rt, d,219675.55408662502, -1.488860329737137, -0.49820336718401365, -0.4603632438461694, 0.03971407935023308, -0.09765332192182541, -0.10588675737380981, -0.8754953742027283, 0.477848082780838, -0.0718955472111702, -0.006477832794189453, 0.0109061598777771, 0.031108863651752472, -0.32635189941980985, -0.5979520569234765, 0.7320845187946813,1.1477147512060915e-05,-0.8819732666015625,0.4887542724609375,-0.0407867431640625
20220224-1002,2022-02-24 10:03:00Z,u01, 3,40,movements,el-ex, rt, d,219675.57903362502, -1.4916013621258049, -0.49534993411271866, -0.4606990004162887, -0.0540500283241272, -0.19759178161621094, -0.025063414126634598, -0.8770447969436646, 0.4753395617008209, -0.06960310786962509, -0.17890912294387817, 0.03563150763511658, 0.0549546554684639, -0.32551747412470244, -0.5993636792570807, 0.7313009639536276,-0.0006364516228339612,-0.8341217041015625,0.48321533203125,-0.05523681640625
20220224-1002,2022-02-24 10:03:00Z,u01, 4,40,movements,el-ex, rt, d,219675.603979625, -1.4951475589434553, -0.4917089626882117, -0.4642250472916551, -0.17999044060707092, -0.011949073523283005, -0.17031288146972656, -0.8790062069892883, 0.472133070230484, -0.06662286818027496, -0.17400288581848145, 0.03340590000152588, 0.07149040699005127, -0.32538621102002757, -0.6006766001574221, 0.7302772003660444,-0.002589736569361234,-1.053009033203125,0.5055389404296875,0.0048675537109375
20220224-1002,2022-02-24 10:03:00Z,u01, 5,40,movements,el-ex, rt, d,219675.628926625, -1.5005663832360623, -0.48851985389765756, -0.4745598742982007, -0.5174430012702942, -0.00909682922065258, -0.1484890729188919, -0.8808518648147583, 0.4693194031715393, -0.06196408346295357, 0.00814056396484375, -0.02942371368408203, 0.002729468047618866, -0.32746397005145855, -0.6014859156479955, 0.7286556517739299,-0.006565036088090191,-0.87457275390625,0.442535400390625,-0.055633544921875
20220224-1002,2022-02-24 10:03:00Z,u01, 6,40,movements,el-ex, rt, d,219675.653873625, -1.5098980288417991, -0.4868509799269389, -0.49253693415109695, -0.6886334419250488, -0.06316705048084259, -0.05345770716667175, -0.8821722269058228, 0.46784508228302, -0.053789298981428146, 0.01634269952774048, -0.05309593677520752, 0.013567090034484863, -0.33237641741054563, -0.6021887316255534, 0.7257736952294722,-0.012134938045801333,-0.8658294677734375,0.4147491455078125,-0.04022216796875
20220224-1002,2022-02-24 10:03:00Z,u01, 7,40,movements,el-ex, rt, d,219675.678820625, -1.5183288628921494, -0.48690431899916997, -0.5084598423273864, -0.3898017406463623, -0.015030351467430592, -0.03282160311937332, -0.8825694918632507, 0.46789222955703735, -0.04634872078895569, -0.03459066152572632, -0.011578083038330078, 0.019371207803487778, -0.3372496977449454, -0.6025680721971665, 0.7231203939922057,-0.016472870968415064,-0.91571044921875,0.4447784423828125,-0.01983642578125
20220224-1002,2022-02-24 10:03:00Z,u01, 8,40,movements,el-ex, rt, d,219675.70376662503, -1.5207336344620923, -0.4862525588080495, -0.5145960869500535, -0.08362270146608353, 0.04498731344938278, -0.040389373898506165, -0.8829825520515442, 0.4673160910606384, -0.04424145072698593, -0.013471245765686035, -0.0004277229309082031, -0.0075773559510707855, -0.33891125812981693, -0.6025101107226829, 0.7223420738254686,-0.01850891864127671,-0.896453857421875,0.466888427734375,-0.05181884765625
20220224-1002,2022-02-24 10:03:00Z,u01, 9,40,movements,el-ex, rt, d,219675.72871362502, -1.5202427422042153, -0.4853458520214546, -0.5156257065084486, -0.005628901068121195, 0.045211683958768845, -0.04736112803220749, -0.8833838701248169, 0.4665142893791199, -0.044696301221847534, -0.02272897958755493, 0.0008472204208374023, 0.012057777494192123, -0.3389274724251749, -0.6023122256664585, 0.7224795647097231,-0.01927741653135217,-0.89752197265625,0.46356201171875,-0.040618896484375
20220224-1002,2022-02-24 10:03:00Z,u01, 10,40,movements,el-ex, rt, d,219675.75366062502, -1.5183328288210876, -0.48390991686307583, -0.5139820510855911, 0.1485639214515686, 0.047704003751277924, -0.05560667812824249, -0.8839647769927979, 0.46524372696876526, -0.04641847684979439, -0.02680182456970215, 0.02036726474761963, 0.03256350755691528, -0.3379555303828944, -0.6021435212418899, 0.7230691035957498,-0.019502569227389674,-0.9107666015625,0.4856109619140625,-0.01385498046875
20220224-1002,2022-02-24 10:03:00Z,u01, 11,40,movements,el-ex, rt, d,219675.77860762502, -1.5142549020566456, -0.4822738307225922, -0.5082935772658557, 0.2103017419576645, 0.07843156158924103, -0.060854703187942505, -0.8845268487930298, 0.46379485726356506, -0.050065770745277405, -0.017069220542907715, 0.034068912267684937, 0.019639790058135986, -0.33568029878583683, -0.6019018621014077, 0.7243502974536575,-0.018695233913027527,-0.9028778076171875,0.5001983642578125,-0.02001953125
20220224-1002,2022-02-24 10:03:00Z,u01, 12,40,movements,el-ex, rt, d,219675.80355316668, -1.510557617477817, -0.4804043248482123, -0.5044729645685095, 0.06703198701143265, 0.06748583167791367, -0.07567000389099121, -0.8851994872093201, 0.46213775873184204, -0.05338786914944649, -0.008553385734558105, 0.020009398460388184, 0.01537824422121048, -0.333895384788944, -0.6015147029861144, 0.7254990406266684,-0.018572938187091097,-0.8937530517578125,0.482147216796875,-0.0380096435546875
20220224-1002,2022-02-24 10:03:00Z,u01, 13,40,movements,el-ex, rt, d,219675.82850016668, -1.5090212229375617, -0.47820829843086526, -0.5030701948908352, 0.1276661455631256, 0.08767891675233841, -0.1047041192650795, -0.8861274719238281, 0.46018919348716736, -0.054810356348752975, -0.04275137186050415, 0.043045639991760254, 0.022721171379089355, -0.33275113141787444, -0.6015575676750304, 0.7259761617040716,-0.01907512648460613,-0.9255828857421875,0.4984588623046875,-0.029815673828125
20220224-1002,2022-02-24 10:03:00Z,u01, 14,40,movements,el-ex, rt, d,219675.85344716668, -1.5048674674918299, -0.47505305675244924, -0.49796795341495553, 0.25497183203697205, 0.10464178770780563, -0.15143579244613647, -0.8873364925384521, 0.4573856294155121, -0.058585990220308304, -0.03281426429748535, 0.027737051248550415, 0.0123976469039917, -0.3301570049205956, -0.6014177883576688, 0.727277290480774,-0.018993248010814437,-0.9201507568359375,0.4851226806640625,-0.0461883544921875
20220224-1002,2022-02-24 10:03:00Z,u01, 15,40,movements,el-ex, rt, d,219675.87839416668, -1.5002245191360246, -0.4710222578655446, -0.49217339234055957, 0.1841280460357666, 0.09595409035682678, -0.15560996532440186, -0.8888868093490601, 0.45379745960235596, -0.06283469498157501, -0.02650320529937744, 0.007811397314071655, -0.0016183853149414062, -0.3270612279360441, -0.6013431675907328, 0.7287354229841466,-0.019028023029713903,-0.912200927734375,0.46319580078125,-0.060546875
20220224-1002,2022-02-24 10:03:00Z,u01, 16,40,movements,el-ex, rt, d,219675.90334016667, -1.496789832673594, -0.46730559418449064, -0.488724444057383, 0.09612159430980682, 0.07865706086158752, -0.1306746006011963, -0.890341579914093, 0.45048239827156067, -0.06601162254810333, -0.030236423015594482, 0.007021903991699219, 0.004594981670379639, -0.32477874032881376, -0.6012594783049879, 0.7298093302590797,-0.0196011149969407,-0.9205780029296875,0.4575042724609375,-0.0614166259765625
20220224-1002,2022-02-24 10:03:00Z,u01, 17,40,movements,el-ex, rt, d,219675.92828716667, -1.494869744773816, -0.46419891346774833, -0.48809024325541606, -0.004505313467234373, 0.0738542452454567, -0.13109490275382996, -0.8916042447090149, 0.4477066397666931, -0.06782685220241547, -0.021344244480133057, -0.00015112757682800293, -0.015379302203655243, -0.32355254845072345, -0.6011658035144143, 0.7303992868355825,-0.020741758696399916,-0.920166015625,0.4516754150390625,-0.081787109375
20220224-1002,2022-02-24 10:03:00Z,u01, 18,40,movements,el-ex, rt, d,219675.9532341667, -1.4943482263852566, -0.4612633479389045, -0.48899422874624887, -0.0045425305142998695, 0.0203072689473629, -0.10828825831413269, -0.8928753733634949, 0.4450797736644745, -0.06839191168546677, -0.015205621719360352, 0.002918243408203125, -0.01139628142118454, -0.32285717610991777, -0.6013046549360981, 0.7305510958277959,-0.022158109810140644,-0.9080810546875,0.447998046875,-0.0797882080078125
20220224-1002,2022-02-24 10:03:01Z,u01, 19,40,movements,el-ex, rt, d,219675.97818016668, -1.4928684970113721, -0.4584455613345049, -0.48677331105264493, 0.19194963574409485, 0.030260562896728516, -0.1112651452422142, -0.8940200805664062, 0.4425547122955322, -0.0698104202747345, -0.030387818813323975, 0.008388280868530273, 0.004411220550537109, -0.3212485026988723, -0.6015764212714003, 0.7310245882818037,-0.022546093361782614,-0.92694091796875,0.4544677734375,-0.067718505859375
20220224-1002,2022-02-24 10:03:01Z,u01, 20,40,movements,el-ex, rt, d,219676.00312716668, -1.4890476723602297, -0.45525598463994554, -0.4803278977065137, 0.24763363599777222, 0.05066516995429993, -0.10800383239984512, -0.8951491713523865, 0.4396922290325165, -0.07334068417549133, -0.019859492778778076, -0.0001932680606842041, 0.0038521811366081238, -0.31821761161464285, -0.6017202073384588, 0.7322509444026469,-0.021885630986707656,-0.915008544921875,0.4394989013671875,-0.069488525390625
20220224-1002,2022-02-24 10:03:01Z,u01, 21,40,movements,el-ex, rt, d,219676.02807416668, -1.4852514649581912, -0.4523121023875884, -0.4753673807831426, 0.10618574917316437, 0.06234027072787285, -0.08999280631542206, -0.8961500525474548, 0.4370462894439697, -0.0768485814332962, -0.014433443546295166, -0.014866173267364502, 0.004659302532672882, -0.3157114002143834, -0.6015829298904017, 0.7334539623039692,-0.021670544524431637,-0.911895751953125,0.4232177734375,-0.0714111328125
20220224-1002,2022-02-24 10:03:01Z,u01, 22,40,movements,el-ex, rt, d,219676.05302116668, -1.483251566320142, -0.4504053368853384, -0.4735995918024982, 0.06330805271863937, 0.058166299015283585, -0.05980641394853592, -0.8968230485916138, 0.43533048033714294, -0.07871334999799728, -0.01073920726776123, -0.010129064321517944, 0.009499549865722656, -0.31452612142044595, -0.6014288344062481, 0.7340799552944424,-0.021984446036315275,-0.907562255859375,0.425201416015625,-0.0692138671875
20220224-1002,2022-02-24 10:03:01Z,u01, 23,40,movements,el-ex, rt, d,219676.07796716667, -1.4811426756358361, -0.4489140540246112, -0.4711599534454146, 0.13467983901500702, 0.06957448273897171, -0.05766469985246658, -0.897300660610199, 0.43398743867874146, -0.08066251128911972, -0.015647947788238525, -0.0038879811763763428, 0.000172443687915802, -0.3132743487849174, -0.601271924320711, 0.7347452132840643,-0.021925367241102507,-0.913970947265625,0.43212890625,-0.0788421630859375
20220224-1002,2022-02-24 10:03:01Z,u01, 24,40,movements,el-ex, rt, d,219676.10291416667, -1.4784326267842993, -0.4468278917995955, -0.468128604608729, 0.07927866280078888, 0.06874044984579086, -0.07538850605487823, -0.8979784250259399, 0.43210703134536743, -0.08317727595567703, -0.004518032073974609, -0.0024042129516601562, -0.009901352226734161, -0.31163925322605157, -0.6010759842056597, 0.7355999784388596,-0.021941170255718012,-0.902496337890625,0.4297027587890625,-0.09307861328125
20220224-1002,2022-02-24 10:03:01Z,u01, 25,40,movements,el-ex, rt, d,219676.1278611667, -1.4773100970212678, -0.4447553304067534, -0.4680081126483215, -0.027586497366428375, 0.06985105574131012, -0.07224883884191513, -0.8987739682197571, 0.4302370250225067, -0.08426862210035324, -0.016615867614746094, 0.001144111156463623, -0.012670435011386871, -0.31089962700746976, -0.6010050824862379, 0.7359453517360263,-0.022772889504969925,-0.913238525390625,0.4300689697265625,-0.096893310546875
20220224-1002,2022-02-24 10:03:01Z,u01, 26,40,movements,el-ex, rt, d,219676.1528081667, -1.4769236451610184, -0.4431034429832516, -0.46961232197656094, -0.04190661385655403, 0.04452645033597946, -0.07401670515537262, -0.8994477391242981, 0.42874523997306824, -0.08468246459960938, -0.0062070488929748535, 0.0052909255027771, -0.004184715449810028, -0.31082608482650725, -0.6008709632371037, 0.7360475614588966,-0.023982111583537163,-0.9056549072265625,0.4340362548828125,-0.0888671875
20220224-1002,2022-02-24 10:03:01Z,u01, 27,40,movements,el-ex, rt, d,219676.17775416668, -1.4764558124449485, -0.4410286296186537, -0.47032372255002075, 0.019747663289308548, 0.004677507095038891, -0.088632732629776, -0.9002918601036072, 0.4268698990345001, -0.08518686890602112, 0.006172597408294678, 0.005899876356124878, -0.029421865940093994, -0.3103416963386298, -0.6009114705957715, 0.7361844861951418,-0.025018319734118256,-0.8961181640625,0.43408203125,-0.1085968017578125
20220224-1002,2022-02-24 10:03:01Z,u01, 28,40,movements,el-ex, rt, d,219676.20270116668, -1.4755030497635018, -0.43859730286642823, -0.46734323188687676, 0.22617220878601074, -0.057492390275001526, -0.08832860738039017, -0.9012407660484314, 0.42466995120048523, -0.08614309132099152, 0.0076708197593688965, 0.008725404739379883, -0.03485912084579468, -0.30862167082271674, -0.6013992992475625, 0.7365134695168432,-0.024890352584237836,-0.8935699462890625,0.4333953857421875,-0.121002197265625
20220224-1002,2022-02-24 10:03:01Z,u01, 29,40,movements,el-ex, rt, d,219676.22764816668, -1.472741869635752, -0.4355934557427375, -0.4571154560429733, 0.5349256992340088, -0.07830965518951416, -0.09335492551326752, -0.9022649526596069, 0.42194852232933044, -0.08875573426485062, -0.024035155773162842, 0.012209832668304443, -0.0046280622482299805, -0.3045041867106521, -0.6024112664284392, 0.7374747593406232,-0.022559164128079977,-0.92376708984375,0.4326324462890625,-0.0960845947265625
20220224-1002,2022-02-24 10:03:01Z,u01, 30,40,movements,el-ex, rt, d,219676.25259416667, -1.467290157856739, -0.43188410460936, -0.4401390672324518, 0.6393465995788574, -0.06076907739043236, -0.10005097091197968, -0.9033182859420776, 0.41858264803886414, -0.09383435547351837, -0.01965552568435669, 0.017315208911895752, -0.01503707468509674, -0.29807984952579925, -0.6035157215376897, 0.7393105741473266,-0.018362836739698636,-0.9229736328125,0.4358978271484375,-0.1088714599609375
20220224-1002,2022-02-24 10:03:01Z,u01, 31,40,movements,el-ex, rt, d,219676.27754116667, -1.4621579099434578, -0.4282139828298324, -0.42548764248159476, 0.4172169268131256, -0.05606000870466232, -0.07865133881568909, -0.9043458700180054, 0.4152466952800751, -0.09863504767417908, -8.845329284667969e-05, -0.016336143016815186, -0.02564777433872223, -0.2923671596490413, -0.6043210404451419, 0.7410092086705597,-0.014931471883745974,-0.9085540771484375,0.4064483642578125,-0.128753662109375
20220224-1002,2022-02-24 10:03:01Z,u01, 32,40,movements,el-ex, rt, d,219676.3024881667, -1.4602393874358, -0.42597781883657104, -0.41675193554038564, 0.28144779801368713, -0.06976596266031265, -0.026071753352880478, -0.9050756096839905, 0.4132114052772522, -0.10047207772731781, -0.01773017644882202, -0.013080179691314697, 0.015602707862854004, -0.2889495890489005, -0.6052041782233496, 0.7416699306922531,-0.012722175921495861,-0.9228057861328125,0.4001312255859375,-0.084869384765625
20220224-1002,2022-02-24 10:03:01Z,u01, 33,40,movements,el-ex, rt, d,219676.3274351667, -1.4578793724992407, -0.4249305797658016, -0.40797991618519874, 0.3757907450199127, -0.028305478394031525, 0.010730869136750698, -0.9052654504776001, 0.41225752234458923, -0.10265649110078812, -0.0465625524520874, 0.014408707618713379, 0.02581322193145752, -0.28592209116684714, -0.6057394764937539, 0.7424454046775105,-0.010157460108676193,-0.9505157470703125,0.4247589111328125,-0.0724945068359375
20220224-1002,2022-02-24 10:03:01Z,u01, 34,40,movements,el-ex, rt, d,219676.35238116668, -1.4536557056970185, -0.42436798922807406, -0.3983234388574131, 0.2791212201118469, 0.038651783019304276, 0.023072555661201477, -0.9050537943840027, 0.4117449223995209, -0.10650616884231567, -0.039510905742645264, 0.011137127876281738, 0.0005186945199966431, -0.28278600091678713, -0.605622814539264, 0.7437733876699937,-0.0073581199555387555,-0.9445648193359375,0.422882080078125,-0.105987548828125
20220224-1002,2022-02-24 10:03:01Z,u01, 35,40,movements,el-ex, rt, d,219676.37732816668, -1.4507219451866882, -0.42442050572348167, -0.3948870367714177, -0.03681674599647522, 0.0697099044919014, 0.00574796088039875, -0.9047161340713501, 0.4117927849292755, -0.10915834456682205, -0.019264578819274902, -0.017169952392578125, 0.002850353717803955, -0.2817538711318439, -0.6050087463498134, 0.7446726164251167,-0.006475951004437881,-0.92608642578125,0.3949432373046875,-0.1079864501953125
20220224-1002,2022-02-24 10:03:01Z,u01, 36,40,movements,el-ex, rt, d,219676.40227516668, -1.4502121784254205, -0.4246599527696806, -0.3981077899006544, -0.12614449858665466, 0.07236321270465851, -0.005838653072714806, -0.9045624136924744, 0.41201096773147583, -0.10960765928030014, -0.013284265995025635, 0.00121229887008667, 0.004871368408203125, -0.2828083924530186, -0.6043306911473891, 0.7448121092253441,-0.007667382281007891,-0.9178466796875,0.4132232666015625,-0.104736328125
20220224-1002,2022-02-24 10:03:01Z,u01, 37,40,movements,el-ex, rt, d,219676.42722216668, -1.449234394526122, -0.42488145684856565, -0.39902873806069283, 0.06093201786279678, 0.041176196187734604, 0.016922254115343094, -0.9043641090393066, 0.4122127890586853, -0.11048099398612976, -0.008355557918548584, 0.02543976902961731, 0.012077100574970245, -0.283159093560349, -0.6038049622862437, 0.7451008173367101,-0.008074927552121698,-0.9085540771484375,0.4390869140625,-0.0971832275390625
20220224-1002,2022-02-24 10:03:01Z,u01, 38,40,movements,el-ex, rt, d,219676.45216816667, -1.4468792482365564, -0.42474638224130035, -0.3961607374584935, 0.09943260252475739, 0.06159531697630882, 0.006149366497993469, -0.9041567444801331, 0.4120897054672241, -0.11261748522520065, -0.03358739614486694, 0.02064955234527588, 0.00533294677734375, -0.2822378247010293, -0.6033515295892711, 0.7458245445735846,-0.0073838225458008055,-0.937744140625,0.4327392578125,-0.1072845458984375
20220224-1002,2022-02-24 10:03:01Z,u01, 39,40,movements,el-ex, rt, d,219676.4771151667, -1.4450417762337628, -0.42432626781298666, -0.3951234524711028, -0.029442820698022842, 0.0667882189154625, -0.020035099238157272, -0.9041199088096619, 0.4117068946361542, -0.11430035531520844, -0.02335500717163086, 0.013464003801345825, 0.006832718849182129, -0.28177302472937144, -0.6028712837034991, 0.7463882901611687,-0.0073956750230848856,-0.928466796875,0.4273529052734375,-0.10760498046875
20220224-1002,2022-02-24 10:03:01Z,u01, 40,40,movements,el-ex, rt, d,219676.5020621667, -1.444937349475133, -0.42377036114912126, -0.39789568035814066, -0.13579952716827393, 0.05450538545846939, -0.05388527363538742, -0.9043349027633667, 0.41120022535324097, -0.1144234761595726, -0.0209580659866333, 0.017190277576446533, 0.009259939193725586, -0.2824157837383704, -0.6025193650964642, 0.7464162723037929,-0.008629806766196506,-0.92529296875,0.4283905029296875,-0.10516357421875
20220224-1002,2022-02-24 10:03:01Z,u01, 41,40,movements,el-ex, rt, d,219676.52700816668, -1.4455191740161357, -0.4230987394000454, -0.40176708994847776, -0.12254882603883743, 0.04787225276231766, -0.050190139561891556, -0.9046750664710999, 0.4105879068374634, -0.11393176764249802, -0.013720870018005371, 0.031535446643829346, 0.009439602494239807, -0.2833525204583817, -0.6022835421302483, 0.7462314877367946,-0.010215479436350379,-0.91827392578125,0.4440155029296875,-0.1062774658203125
20220224-1002,2022-02-24 10:03:01Z,u01, 42,40,movements,el-ex, rt, d,219676.55195516668, -1.4461086617791596, -0.42236179182167455, -0.405686746932416, -0.16705214977264404, 0.04512939229607582, -0.05018487572669983, -0.9050421714782715, 0.40991583466529846, -0.11343606561422348, -0.013842105865478516, 0.029720395803451538, 0.008867621421813965, -0.28428147349415434, -0.6020515010682789, 0.7460414812862018,-0.011839272354319336,-0.91888427734375,0.43963623046875,-0.1045684814453125
20220224-1002,2022-02-24 10:03:01Z,u01, 43,40,movements,el-ex, rt, d,219676.57690216668, -1.447793885487647, -0.4219097363601033, -0.41169131546198945, -0.24792993068695068, 0.028296418488025665, -0.043191615492105484, -0.9054158926010132, 0.4095034599304199, -0.11193343997001648, -0.022120118141174316, 0.027218341827392578, 0.008173644542694092, -0.28594378735076953, -0.6018882201892262, 0.7455005979563152,-0.013988528733336163,-0.926910400390625,0.43756103515625,-0.1040191650390625
20220224-1002,2022-02-24 10:03:01Z,u01, 44,40,movements,el-ex, rt, d,219676.60184916668, -1.4498787932428383, -0.42171358901652556, -0.4183530524880983, -0.21053485572338104, 0.03356048837304115, -0.044905029237270355, -0.905726969242096, 0.4093245267868042, -0.11005517095327377, -0.03355830907821655, 0.0240403413772583, 0.013009309768676758, -0.2878966395917225, -0.6017374345945885, 0.7448247971481922,-0.01623681562903967,-0.9392852783203125,0.4333648681640625,-0.0970458984375
20220224-1002,2022-02-24 10:03:01Z,u01, 45,40,movements,el-ex, rt, d,219676.62679516667, -1.4514293650168464, -0.4212337958223093, -0.4234530234539926, -0.1643468141555786, 0.02322935312986374, -0.04796094074845314, -0.9060913920402527, 0.40888670086860657, -0.10867401957511902, -0.039556801319122314, 0.012789934873580933, -0.00036525726318359375, -0.28927953732469275, -0.6016480209598913, 0.7443187741595538,-0.01807175684762291,-0.943359375,0.4228363037109375,-0.1058197021484375
20220224-1002,2022-02-24 10:03:01Z,u01, 46,40,movements,el-ex, rt, d,219676.6517421667, -1.453225437274564, -0.4208487090882053, -0.42799985574357996, -0.151804119348526, -0.017056018114089966, -0.03219635784626007, -0.906441330909729, 0.4085352420806885, -0.10706488788127899, -0.039023637771606445, 0.007495582103729248, -0.004415795207023621, -0.29053238109823293, -0.6017129642221156, 0.7437385189598368,-0.019631447274981693,-0.945465087890625,0.4160308837890625,-0.111480712890625
20220224-1002,2022-02-24 10:03:01Z,u01, 47,40,movements,el-ex, rt, d,219676.6766891667, -1.4554307460214186, -0.42078730062870895, -0.43095145792631556, -0.04977316036820412, -0.056541506201028824, -0.007513781543821096, -0.9067003130912781, 0.4084792137145996, -0.10506854951381683, -0.0371626615524292, 0.013960391283035278, -0.0030857324600219727, -0.29142174633627543, -0.6021121929097766, 0.7430457567146154,-0.020428237660891135,-0.9441986083984375,0.4212493896484375,-0.10516357421875
20220224-1002,2022-02-24 10:03:01Z,u01, 48,40,movements,el-ex, rt, d,219676.70163516668, -1.4574152323444285, -0.420992275034761, -0.4315211288254439, -0.016221757978200912, -0.08469384908676147, 0.01997077465057373, -0.9068238139152527, 0.4086662828922272, -0.10325953364372253, -0.034826576709747314, 0.0010932385921478271, -0.008785724639892578, -0.2916835560251754, -0.6027362078877316, 0.7424408882163199,-0.02028193177915949,-0.941650390625,0.409759521484375,-0.1120452880859375
20220224-1002,2022-02-24 10:03:01Z,u01, 49,40,movements,el-ex, rt, d,219676.72658216668, -1.4599508653801898, -0.4218125723283823, -0.4321668745248728, -0.03684740513563156, -0.10163874179124832, 0.042924024164676666, -0.9067492485046387, 0.4094148278236389, -0.10092271119356155, -0.04820680618286133, -0.001577913761138916, 0.0029003024101257324, -0.29218359856308596, -0.6034628307666825, 0.7416645594652383,-0.01987663243801705,-0.9522857666015625,0.4075164794921875,-0.1030426025390625
20220224-1002,2022-02-24 10:03:01Z,u01, 50,40,movements,el-ex, rt, d,219676.75152916668, -1.463101580056628, -0.423274015516418, -0.433265005440666, -0.05513010546565056, -0.11452731490135193, 0.0700896680355072, -0.9064667820930481, 0.4107477366924286, -0.09800087660551071, -0.05212080478668213, 0.005145817995071411, 0.0061734989285469055, -0.2930437441812862, -0.6042556784140585, 0.740693338452909,-0.01933235347595435,-0.958587646484375,0.4158935546875,-0.091827392578125
20220224-1002,2022-02-24 10:03:01Z,u01, 51,40,movements,el-ex, rt, d,219676.77647616668, -1.466318005971827, -0.4254985592001823, -0.4345337102922411, -0.06950554996728897, -0.11005952954292297, 0.09791896492242813, -0.9058663249015808, 0.4127749502658844, -0.09498926997184753, -0.055834054946899414, 0.016729414463043213, 0.006412036716938019, -0.2942136270109419, -0.6049328127143063, 0.7396953858798134,-0.01858221857885701,-0.9634552001953125,0.42926025390625,-0.08905029296875
20220224-1002,2022-02-24 10:03:01Z,u01, 52,40,movements,el-ex, rt, d,219676.80142262502, -1.4701720586775497, -0.4282885910170027, -0.4368774547570441, -0.134264275431633, -0.1286027878522873, 0.10534819215536118, -0.9050764441490173, 0.41531458497047424, -0.09138128161430359, -0.054396212100982666, 0.012908071279525757, 0.010906457901000977, -0.2959035672067807, -0.6055992396010363, 0.7384909002989344,-0.017940579781750385,-0.95947265625,0.42822265625,-0.080474853515625
20220224-1002,2022-02-24 10:03:01Z,u01, 53,40,movements,el-ex, rt, d,219676.82636962502, -1.4753092215902113, -0.4312691414456909, -0.4413454317217603, -0.21947377920150757, -0.13244906067848206, 0.10279861092567444, -0.9042976498603821, 0.41802406311035156, -0.08661216497421265, -0.05552595853805542, 0.021398544311523438, -0.0029111504554748535, -0.2983096683758669, -0.6063870551732432, 0.7368775715331102,-0.017819753338086337,-0.960174560546875,0.4355316162109375,-0.0861663818359375
20220224-1002,2022-02-24 10:03:01Z,u01, 54,40,movements,el-ex, rt, d,219676.85131662502, -1.4817397890958657, -0.4345368099429469, -0.44829418030046675, -0.3093656301498413, -0.15226995944976807, 0.11990109831094742, -0.903470516204834, 0.4209902882575989, -0.08067334443330765, -0.045153141021728516, 0.021651893854141235, -0.01380908489227295, -0.301574003257431, -0.6072202629830585, 0.7348479908469816,-0.018306205455256422,-0.9486236572265625,0.4426422119140625,-0.094482421875
20220224-1002,2022-02-24 10:03:01Z,u01, 55,40,movements,el-ex, rt, d,219676.876262625, -1.48950044997857, -0.4383197541407637, -0.4569910225984893, -0.32686305046081543, -0.17316259443759918, 0.12690535187721252, -0.9024754762649536, 0.4244186580181122, -0.07352959364652634, -0.042608022689819336, 0.02301478385925293, -0.0039240047335624695, -0.30555233464163906, -0.608171828825325, 0.732394996071106,-0.01903355390490765,-0.94500732421875,0.4468536376953125,-0.0802001953125
20220224-1002,2022-02-24 10:03:01Z,u01, 56,40,movements,el-ex, rt, d,219676.901209625, -1.4970791901769762, -0.4419220813772072, -0.46473061157572737, -0.252247154712677, -0.17857979238033295, 0.11793016642332077, -0.9014765024185181, 0.4276776909828186, -0.06657490134239197, -0.03358227014541626, 0.021922588348388672, -0.010481961071491241, -0.3091757822381287, -0.6091985587187034, 0.7300058286965158,-0.01947030437623115,-0.93505859375,0.4496002197265625,-0.077056884765625
20220224-1002,2022-02-24 10:03:01Z,u01, 57,40,movements,el-ex, rt, d,219676.926156625, -1.5040488667697522, -0.4451781884926173, -0.470533404022617, -0.18481998145580292, -0.1846332997083664, 0.11315178871154785, -0.9005241394042969, 0.4306187033653259, -0.060197122395038605, -0.03035348653793335, 0.010604411363601685, -0.011595424264669418, -0.3120862699367674, -0.6103307295975593, 0.7278204217731115,-0.01938851493302232,-0.930938720703125,0.443603515625,-0.0746612548828125
20220224-1002,2022-02-24 10:03:01Z,u01, 58,40,movements,el-ex, rt, d,219676.951103625, -1.5105223501382705, -0.44801956603260895, -0.47450931016806897, -0.12035635113716125, -0.2007119357585907, 0.10366979986429214, -0.8996701836585999, 0.43318140506744385, -0.0542924627661705, -0.0329318642616272, 0.0036472976207733154, -0.005613572895526886, -0.31429448863373616, -0.6116148645099179, 0.7258038765416338,-0.018844301809028338,-0.9326019287109375,0.43682861328125,-0.059906005859375
20220224-1002,2022-02-24 10:03:02Z,u01, 59,40,movements,el-ex, rt, d,219676.97604962502, -1.5164985562768907, -0.4509640493331665, -0.47691440005935376, -0.06474801152944565, -0.19860658049583435, 0.12387267500162125, -0.8987009525299072, 0.4358333945274353, -0.04884546995162964, -0.03977566957473755, 0.012027323246002197, -0.009885549545288086, -0.31604653317194337, -0.612937071508486, 0.7239525726430092,-0.017760382968089343,-0.9382476806640625,0.44903564453125,-0.062652587890625
20220224-1002,2022-02-24 10:03:02Z,u01, 60,40,movements,el-ex, rt, d,219677.00099662502, -1.5220275284480127, -0.4544544855072498, -0.4774564783276025, 0.006177124567329884, -0.2226075828075409, 0.15234020352363586, -0.8974323272705078, 0.43897223472595215, -0.04380142688751221, -0.03832811117172241, -0.00014469027519226074, 0.007043004035949707, -0.3173938244048972, -0.6142967083564932, 0.7222525082219479,-0.01587566500338717,-0.935760498046875,0.4388275146484375,-0.0367584228515625
20220224-1002,2022-02-24 10:03:02Z,u01, 61,40,movements,el-ex, rt, d,219677.02594362502, -1.5266681708813423, -0.45841147213847916, -0.4758113853066755, 0.1045108512043953, -0.21071051061153412, 0.1646849513053894, -0.8958836793899536, 0.44252413511276245, -0.03955937549471855, -0.05173295736312866, 0.0009878277778625488, -0.0023565292358398438, -0.3182033453010381, -0.6156029106910956, 0.7208371127463874,-0.013175228732459576,-0.9502410888671875,0.442596435546875,-0.04351806640625
20220224-1002,2022-02-24 10:03:02Z,u01, 62,40,movements,el-ex, rt, d,219677.050889625, -1.5302405759195203, -0.4623850005803959, -0.472136341050241, 0.13194431364536285, -0.20509156584739685, 0.1702740639448166, -0.8942552208900452, 0.4460839331150055, -0.0362870916724205, -0.040849149227142334, 0.003501027822494507, 3.218650817871094e-05, -0.3183754040552471, -0.6168415981055863, 0.7197537565832242,-0.009905183238850833,-0.9351043701171875,0.4495849609375,-0.0362548828125
20220224-1002,2022-02-24 10:03:02Z,u01, 63,40,movements,el-ex, rt, d,219677.075836625, -1.5333389042213632, -0.4665558158699318, -0.4678810043545276, 0.16106051206588745, -0.19942516088485718, 0.17835967242717743, -0.8924963474273682, 0.4498128890991211, -0.03344625607132912, -0.044362783432006836, 0.007554054260253906, 0.004897117614746094, -0.3184194842890946, -0.6179691765990257, 0.718805797756673,-0.006432896015604102,-0.935760498046875,0.4569549560546875,-0.0306396484375
20220224-1002,2022-02-24 10:03:02Z,u01, 64,40,movements,el-ex, rt, d,219677.100783625, -1.5353382667539717, -0.4710791867603036, -0.46224652937276617, 0.23813995718955994, -0.1585393100976944, 0.18539008498191833, -0.8905189037322998, 0.4538481831550598, -0.031589310616254807, -0.061232805252075195, 0.016900688409805298, 0.004886392503976822, -0.3181387041379379, -0.6188643702057413, 0.7181840312640015,-0.00251758225921829,-0.951751708984375,0.4707489013671875,-0.026702880859375
20220224-1002,2022-02-24 10:03:02Z,u01, 65,40,movements,el-ex, rt, d,219677.125730625, -1.5362176192935935, -0.4751506664058176, -0.4558766837973614, 0.17989462614059448, -0.15353763103485107, 0.17330172657966614, -0.8886921405792236, 0.45747241377830505, -0.03074207901954651, -0.029001832008361816, 0.004029601812362671, 0.0061601437628269196, -0.31747780115784274, -0.6195456447492825, 0.7178921936983408,0.0013257766333473892,-0.9259796142578125,0.4691009521484375,-0.0239105224609375
20220224-1002,2022-02-24 10:03:02Z,u01, 66,40,movements,el-ex, rt, d,219677.15067662502, -1.538282904666738, -0.4796747824287095, -0.4516077872988961, 0.1263648271560669, -0.1614496111869812, 0.18190667033195496, -0.8866763710975647, 0.4614906907081604, -0.028839046135544777, -0.03493940830230713, 0.003078460693359375, 0.01463305577635765, -0.31760737835962566, -0.6202467497624304, 0.7172147582538642,0.004760433339018183,-0.9216156005859375,0.464569091796875,-0.0142059326171875
20220224-1002,2022-02-24 10:03:02Z,u01, 67,40,movements,el-ex, rt, d,219677.17562362502, -1.5406097813029658, -0.48391536097836463, -0.44811345847520595, 0.12022163718938828, -0.16045932471752167, 0.17147015035152435, -0.884776771068573, 0.4652485251426697, -0.02671647071838379, -0.025226831436157227, 0.003058910369873047, 0.0026686210185289383, -0.31787862258445637, -0.620962918516358, 0.7164470778784405,0.007860462838975256,-0.9134979248046875,0.4687347412109375,-0.0219268798828125
20220224-1002,2022-02-24 10:03:02Z,u01, 68,40,movements,el-ex, rt, d,219677.20057062502, -1.5428456639899608, -0.48792035295684416, -0.4443800073280113, 0.13213595747947693, -0.15767791867256165, 0.15302908420562744, -0.882964551448822, 0.4687899351119995, -0.024685874581336975, -0.021774709224700928, 0.0009671449661254883, -0.0013150554150342941, -0.31799362697363814, -0.621721091958595, 0.7156975307715713,0.01094978422407359,-0.9047393798828125,0.469757080078125,-0.0260009765625
20220224-1002,2022-02-24 10:03:02Z,u01, 69,40,movements,el-ex, rt, d,219677.225516625, -1.5447918605965645, -0.49150304491555413, -0.4400796823884481, 0.17225897312164307, -0.15196336805820465, 0.13593845069408417, -0.8813263773918152, 0.47195154428482056, -0.02292359061539173, -0.02339768409729004, -0.0006532967090606689, 0.003010869026184082, -0.3177923840923145, -0.6225320919468248, 0.7150275767335487,0.014048195752077074,-0.9039764404296875,0.4720306396484375,-0.020782470703125
20220224-1002,2022-02-24 10:03:02Z,u01, 70,40,movements,el-ex, rt, d,219677.250463625, -1.546078748595199, -0.49458630381277613, -0.43448919255441754, 0.21026450395584106, -0.16679351031780243, 0.1200193390250206, -0.8798962831497192, 0.47466757893562317, -0.021753335371613503, -0.01745784282684326, -0.00042441487312316895, -0.0007839202880859375, -0.3170289687842449, -0.6233907001696113, 0.7145463035667021,0.017327668979578097,-0.8973541259765625,0.4742431640625,-0.0225372314453125
20220224-1002,2022-02-24 10:03:02Z,u01, 71,40,movements,el-ex, rt, d,219677.275410625, -1.5473807439539382, -0.49753552649886273, -0.42814224813475926, 0.22643521428108215, -0.16806569695472717, 0.11381124705076218, -0.8785204887390137, 0.4772613048553467, -0.02057483047246933, -0.025043904781341553, -0.012112408876419067, 0.0038816947489976883, -0.31598172825373905, -0.6243942124987845, 0.7140402134051235,0.020831378662123146,-0.8987274169921875,0.46209716796875,-0.0179595947265625
20220224-1002,2022-02-24 10:03:02Z,u01, 72,40,movements,el-ex, rt, d,219677.30035662503, -1.5481377094814928, -0.5001451037223954, -0.4213225424551046, 0.24894925951957703, -0.1669803410768509, 0.11659891158342361, -0.8772876858711243, 0.47955286502838135, -0.01988152787089348, -0.008027255535125732, -0.005309730768203735, -0.0024725794792175293, -0.31467905219053177, -0.6253289772297174, 0.7136878653112129,0.02429731639465185,-0.88531494140625,0.4742431640625,-0.0223541259765625
20220224-1002,2022-02-24 10:03:02Z,u01, 73,40,movements,el-ex, rt, d,219677.32530362502, -1.5488313491616938, -0.5030950923119526, -0.414158311679655, 0.2447282075881958, -0.16382594406604767, 0.12722957134246826, -0.8758831024169922, 0.4821394383907318, -0.019241847097873688, -0.003160417079925537, -0.0278090238571167, 0.005493702366948128, -0.31337462995037335, -0.6262391055690838, 0.7133282895686208,0.027993668147664175,-0.87841796875,0.45648193359375,-0.0130767822265625
20220224-1002,2022-02-24 10:03:02Z,u01, 74,40,movements,el-ex, rt, d,219677.35025062502, -1.549835928372218, -0.5060672581342703, -0.40816552268161965, 0.1450038105249405, -0.1514091044664383, 0.12104826420545578, -0.8744654655456543, 0.4847412109375, -0.018331829458475113, -0.010895192623138428, -0.016555815935134888, -0.012185690924525261, -0.3124358160605939, -0.6270709259982203, 0.7128706028818754,0.031327066000433106,-0.8853607177734375,0.4681854248046875,-0.030517578125
20220224-1002,2022-02-24 10:03:02Z,u01, 75,40,movements,el-ex, rt, d,219677.37519762502, -1.5524229805091918, -0.5089864002076894, -0.4058168641431297, 0.043212175369262695, -0.15540577471256256, 0.12361787259578705, -0.8730915188789368, 0.4872923791408539, -0.016043419018387794, 0.0003498196601867676, -0.04530629515647888, -0.003579378128051758, -0.31259307720088503, -0.6279043389658244, 0.7119645307656269,0.03358952385922839,-0.873291015625,0.4436798095703125,-0.0253448486328125
20220224-1002,2022-02-24 10:03:02Z,u01, 76,40,movements,el-ex, rt, d,219677.400143625, -1.5542228830715845, -0.512217659787642, -0.40225930087860334, 0.23645171523094177, -0.12206346541643143, 0.14696215093135834, -0.8715400695800781, 0.49011150002479553, -0.014445743523538113, -0.008205413818359375, -0.030501514673233032, 0.008067607879638672, -0.3124790759808447, -0.6285968147005799, 0.7112717585063074,0.03626840803197759,-0.8797454833984375,0.4596099853515625,-0.006378173828125
20220224-1002,2022-02-24 10:03:02Z,u01, 77,40,movements,el-ex, rt, d,219677.425090625, -1.5523408487953123, -0.5158743344224022, -0.3929585180879226, 0.36968258023262024, -0.08484877645969391, 0.15735799074172974, -0.8697136640548706, 0.4932955801486969, -0.01605280302464962, -0.02040785551071167, -0.03383821249008179, 0.006821274757385254, -0.31076359953252825, -0.6288080656400398, 0.711604512877267,0.040564069243841386,-0.8873291015625,0.463134765625,-0.01116943359375
20220224-1002,2022-02-24 10:03:02Z,u01, 78,40,movements,el-ex, rt, d,219677.450037625, -1.5491992091052285, -0.5195473274096691, -0.383614948038536, 0.24754999577999115, -0.03818247467279434, 0.15495236217975616, -0.8678416013717651, 0.49648725986480713, -0.018745791167020798, -0.016679883003234863, -0.03338304162025452, 0.0017627496272325516, -0.3090739940150555, -0.6285700998779268, 0.7123032577611916,0.0446874766642713,-0.884521484375,0.463104248046875,-0.0169830322265625
20220224-1002,2022-02-24 10:03:02Z,u01, 79,40,movements,el-ex, rt, d,219677.47498362503, -1.5480152811375003, -0.5234110964609037, -0.3793227706091064, 0.05795826017856598, -0.039113715291023254, 0.15540729463100433, -0.865894615650177, 0.4998374581336975, -0.01972939819097519, -0.018321752548217773, -0.024922877550125122, 0.008239507675170898, -0.30899686526801456, -0.6282167130483339, 0.7124743517882272,0.04738235427757472,-0.8794708251953125,0.471466064453125,-0.012908935546875
20220224-1002,2022-02-24 10:03:02Z,u01, 80,40,movements,el-ex, rt, d,219677.49993062502, -1.548005356830241, -0.5271999442485104, -0.3782025841780915, 0.04532582312822342, -0.024204809218645096, 0.15371271967887878, -0.8639948964118958, 0.5031154751777649, -0.01969469152390957, -0.014179050922393799, -0.003893613815307617, 0.007396100088953972, -0.3098655158721622, -0.6278025296634594, 0.7123457355236781,0.04910198202889415,-0.878173828125,0.4992218017578125,-0.012298583984375
20220224-1002,2022-02-24 10:03:02Z,u01, 81,40,movements,el-ex, rt, d,219677.52487762502, -1.5472954809692216, -0.529294133677215, -0.3756856610701274, 0.10977628827095032, 0.003939944319427013, 0.13144969940185547, -0.8629252910614014, 0.5049241781234741, -0.020283209159970284, -0.025807559490203857, 0.0040631890296936035, -0.0028338413685560226, -0.3097676431276708, -0.6276164456121303, 0.7124459841958523,0.050619102275729876,-0.8862152099609375,0.508941650390625,-0.02191162109375
20220224-1002,2022-02-24 10:03:02Z,u01, 82,40,movements,el-ex, rt, d,219677.549823625, -1.5452715291812336, -0.5315419670016999, -0.37243207678308016, 0.1029122844338417, 0.013644835911691189, 0.12890377640724182, -0.8617456555366516, 0.5068631768226624, -0.022000662982463837, -0.009805738925933838, -0.0056272149085998535, 0.003476502373814583, -0.30952364469368754, -0.6270524557311515, 0.7129308294783476,0.052248628968276783,-0.871551513671875,0.5012359619140625,-0.018524169921875
20220224-1002,2022-02-24 10:03:02Z,u01, 83,40,movements,el-ex, rt, d,219677.574770625, -1.5440692968899545, -0.5337064690073241, -0.3698166834698875, 0.09315553307533264, 0.027785692363977432, 0.1182471513748169, -0.8606199026107788, 0.5087278485298157, -0.023007292300462723, -0.021002352237701416, -0.004241764545440674, 0.00780952163040638, -0.3094341026726764, -0.6266952130038869, 0.7131722698741132,0.05374876407973387,-0.879058837890625,0.5041961669921875,-0.0153961181640625
20220224-1002,2022-02-24 10:03:02Z,u01, 84,40,movements,el-ex, rt, d,219677.599717625, -1.5424483981335415, -0.5362090986030341, -0.36800799119907557, 0.03390442952513695, 0.028072182089090347, 0.10552515834569931, -0.8593060970306396, 0.5108808279037476, -0.024366075173020363, 0.002769291400909424, -0.009049832820892334, 0.0005166549235582352, -0.3097197850659676, -0.6260116748470091, 0.7135520121197784,0.055013721958551705,-0.856536865234375,0.5018310546875,-0.0238494873046875
20220224-1002,2022-02-24 10:03:02Z,u01, 85,40,movements,el-ex, rt, d,219677.624663625, -1.5412596290276643, -0.5380280381524076, -0.36701863315067573, 0.057088542729616165, 0.0366421639919281, 0.0763126090168953, -0.8583462834358215, 0.5124436020851135, -0.025360088795423508, -0.007391571998596191, -0.0115433931350708, 0.010147098451852798, -0.31003081551532974, -0.6254605092644409, 0.7138380040137546,0.055814928533272086,-0.8670806884765625,0.4978179931640625,-0.0124969482421875
20220224-1002,2022-02-24 10:03:02Z,u01, 86,40,movements,el-ex, rt, d,219677.64961062503, -1.5393104942860547, -0.5395134020782367, -0.36451431149806207, 0.11818984895944595, 0.04303774610161781, 0.07723433524370193, -0.8575334548950195, 0.5137185454368591, -0.027009081095457077, 0.009404301643371582, -0.013321876525878906, 7.73109495639801e-05, -0.30978319092660433, -0.6249238625958716, 0.7143278482794325,0.056922975247594425,-0.8481292724609375,0.500396728515625,-0.0269317626953125
20220224-1002,2022-02-24 10:03:02Z,u01, 87,40,movements,el-ex, rt, d,219677.67455762503, -1.5365665728579265, -0.5409426366767331, -0.36125820512572354, 0.12252844125032425, 0.070597805082798, 0.077970489859581, -0.8567214012145996, 0.5149442553520203, -0.029336821287870407, 0.00311434268951416, -0.02402329444885254, 0.01319301500916481, -0.3093081691613531, -0.6242275593280604, 0.7150426562774881,0.05815763812182094,-0.8571014404296875,0.4915618896484375,-0.019378662109375
20220224-1002,2022-02-24 10:03:02Z,u01, 88,40,movements,el-ex, rt, d,219677.69950462502, -1.5330029741988664, -0.5428396127661936, -0.3569646393148189, 0.1853625774383545, 0.07295510172843933, 0.11466366052627563, -0.8556339144706726, 0.5165694952011108, -0.03235267847776413, 0.009640872478485107, -0.029936134815216064, 0.012104272842407227, -0.3086898194109135, -0.6233251607641663, 0.715961137921743,0.05979996638383821,-0.8459930419921875,0.48663330078125,-0.0202484130859375
20220224-1002,2022-02-24 10:03:02Z,u01, 89,40,movements,el-ex, rt, d,219677.724450625, -1.5292603087427812, -0.5453944279695864, -0.35286256443085223, 0.0982203334569931, 0.1090291440486908, 0.12008898705244064, -0.8541855216026306, 0.518755316734314, -0.03549988195300102, -0.0032669901847839355, -0.02359229326248169, 0.011696215718984604, -0.30835724490505817, -0.6222265411979283, 0.7169090403791968,0.061574955534308126,-0.8612060546875,0.4915618896484375,-0.0245513916015625
20220224-1002,2022-02-24 10:03:02Z,u01, 90,40,movements,el-ex, rt, d,219677.749397625, -1.5260701037084492, -0.5478870514494689, -0.3522102190286186, -0.02787415310740471, 0.13590775430202484, 0.11142399162054062, -0.8527734279632568, 0.5208847522735596, -0.03816678747534752, 0.03284233808517456, -0.02215123176574707, 0.00717616081237793, -0.3090656582242793, -0.6208019209395946, 0.7177865651890729,0.06217632868305247,-0.8199310302734375,0.4987335205078125,-0.0309906005859375
20220224-1002,2022-02-24 10:03:02Z,u01, 91,40,movements,el-ex, rt, d,219677.774344625, -1.5233036408880638, -0.5503703772523919, -0.3535737291379906, -0.04200395196676254, 0.14776255190372467, 0.13750778138637543, -0.8513699769973755, 0.5230029225349426, -0.04046427458524704, 0.07837486267089844, -0.01767754554748535, -0.019334916025400162, -0.3103844278613037, -0.6192167384489096, 0.7185918207120773,0.06211357163907362,-0.7779541015625,0.502655029296875,-0.054290771484375
20220224-1002,2022-02-24 10:03:02Z,u01, 92,40,movements,el-ex, rt, d,219677.799291, -1.5197947818391075, -0.5549362539692045, -0.3528496698208761, 0.09011013805866241, 0.13986387848854065, 0.2099098116159439, -0.8488289713859558, 0.5268891453742981, -0.04332916438579559, 0.01606529951095581, -0.00978398323059082, 0.0002841949462890625, -0.31176131363874693, -0.6173656136448141, 0.7194757553770558,0.06339817635433012,-0.832763671875,0.5171051025390625,-0.0430450439453125
20220224-1002,2022-02-24 10:03:02Z,u01, 93,40,movements,el-ex, rt, d,219677.824238, -1.5126263643942544, -0.559087525461614, -0.34772060853812614, 0.2547781765460968, 0.2086285650730133, 0.15638293325901031, -0.8463055491447449, 0.5304128527641296, -0.0492851659655571, -0.0009386539459228516, 0.003217458724975586, 0.004576925188302994, -0.3117708648680769, -0.6149441806396376, 0.7213498097478356,0.06555161639027238,-0.86260986328125,0.533477783203125,-0.0386505126953125
20220224-1002,2022-02-24 10:03:02Z,u01, 94,40,movements,el-ex, rt, d,219677.849185, -1.5038665689560085, -0.5625903451469425, -0.34090487858058405, 0.14992627501487732, 0.22477439045906067, 0.13378402590751648, -0.8439823389053345, 0.533379077911377, -0.05657203122973442, 0.007571876049041748, -0.0042501091957092285, 0.006355412304401398, -0.31112356164694405, -0.6123039392708363, 0.7236593836754691,0.06784549426129781,-0.8364105224609375,0.5291290283203125,-0.0502166748046875
20220224-1002,2022-02-24 10:03:02Z,u01, 95,40,movements,el-ex, rt, d,219677.87413100002, -1.4974645313524229, -0.565226640337542, -0.3396558143641151, -0.053280308842659, 0.23211872577667236, 0.09698805958032608, -0.8421977162361145, 0.5356072187423706, -0.06187081336975098, 0.016392052173614502, -0.003228127956390381, 0.014293912798166275, -0.3118300539397352, -0.6097758688498371, 0.7254547443537248,0.06819721821359118,-0.8305816650390625,0.5315399169921875,-0.0481719970703125
20220224-1002,2022-02-24 10:03:02Z,u01, 96,40,movements,el-ex, rt, d,219677.89907800002, -1.4937422235157156, -0.567471237747815, -0.3424546463279695, -0.11612551659345627, 0.23055611550807953, 0.0709637776017189, -0.8407607078552246, 0.537501335144043, -0.0649125799536705, -0.0016464591026306152, -0.014658987522125244, 0.009904690086841583, -0.3135504886460957, -0.6076428234669595, 0.726580202124428,0.06736046261635452,-0.8424072265625,0.5228424072265625,-0.0550079345703125
20220224-1002,2022-02-24 10:03:02Z,u01, 97,40,movements,el-ex, rt, d,219677.92402500001, -1.4899788756902779, -0.5690571146315159, -0.3464233534664082, -0.16724130511283875, 0.21694229543209076, 0.05616326630115509, -0.8396599292755127, 0.5388379693031311, -0.06800729781389236, 0.03483504056930542, -0.011387407779693604, -0.009095370769500732, -0.3154042784001815, -0.605406054410313, 0.7277814565040044,0.06586259093447155,-0.81500244140625,0.5249481201171875,-0.075927734375
20220224-1002,2022-02-24 10:03:02Z,u01, 98,40,movements,el-ex, rt, d,219677.948971, -1.4881738782707408, -0.5707871265864348, -0.3524143948322611, -0.24113881587982178, 0.19515098631381989, 0.046018484979867935, -0.8386053442955017, 0.5402945876121521, -0.06944572180509567, 0.031598567962646484, -0.028011322021484375, -0.011563174426555634, -0.3178461308608141, -0.6035320835493049, 0.7284430236508428,0.06398083300118677,-0.8070068359375,0.5122833251953125,-0.0810089111328125
20220224-1002,2022-02-24 10:03:03Z,u01, 99,40,movements,el-ex, rt, d,219677.973918, -1.4871425533147498, -0.5720713324656882, -0.3593351691676915, -0.2113221436738968, 0.17951303720474243, 0.025398030877113342, -0.837841272354126, 0.5413747429847717, -0.07025253772735596, 0.04681038856506348, 0.0017465949058532715, 0.000748753547668457, -0.32038858940082904, -0.6018512147471898, 0.7289141371068368,0.06172887958182711,-0.7956390380859375,0.5334014892578125,-0.07421875
20220224-1002,2022-02-24 10:03:03Z,u01, 100,40,movements,el-ex, rt, d,219677.998865, -1.4854547236593496, -0.5723760427155747, -0.3639294392026047, -0.09270916879177094, 0.1567326933145523, -0.041395049542188644, -0.8375571966171265, 0.5416309237480164, -0.07165250927209854, 0.058107614517211914, 0.017420649528503418, -0.0007046535611152649, -0.32192145714961484, -0.6004500980931039, 0.7295478412847614,0.05988566596870281,-0.779449462890625,0.559051513671875,-0.072357177734375
20220224-1002,2022-02-24 10:03:03Z,u01, 101,40,movements,el-ex, rt, d,219678.02381100002, -1.482927408428281, -0.5712382693547376, -0.36551939219678103, -0.02353246882557869, 0.10652231425046921, -0.06178440898656845, -0.8379866480827332, 0.5406741499900818, -0.07382307201623917, 0.06758570671081543, 0.010290205478668213, -0.008101336658000946, -0.3220972813145544, -0.5994512530796439, 0.7304023635556925,0.05851426904069919,-0.7613983154296875,0.548736572265625,-0.0840301513671875
20220224-1002,2022-02-24 10:03:03Z,u01, 102,40,movements,el-ex, rt, d,219678.04875800002, -1.480817826565189, -0.5692804422799997, -0.36559420387277225, 0.029997603967785835, 0.07439181208610535, -0.1043824702501297, -0.8388815522193909, 0.539026141166687, -0.07568567246198654, 0.038436174392700195, 0.012090742588043213, 0.0018789321184158325, -0.32153310190074497, -0.5989771525999772, 0.7311210200847453,0.05748707904379927,-0.800445556640625,0.551116943359375,-0.0738067626953125
20220224-1002,2022-02-24 10:03:03Z,u01, 103,40,movements,el-ex, rt, d,219678.07370500002, -1.4785309537399547, -0.565780948389701, -0.364552567541205, 0.05811619013547897, 0.05621786415576935, -0.1702914535999298, -0.840579628944397, 0.536075234413147, -0.07777722179889679, 0.06683695316314697, 0.021709740161895752, -0.001125924289226532, -0.3201261400954167, -0.5988577831027982, 0.7319265507293167,0.05632187778844408,-0.78271484375,0.561279296875,-0.07916259765625
20220224-1002,2022-02-24 10:03:03Z,u01, 104,40,movements,el-ex, rt, d,219678.098651, -1.4767419948384337, -0.561572926290257, -0.3628541265338989, 0.08429542928934097, 0.035873912274837494, -0.18775971233844757, -0.8426775336265564, 0.532518208026886, -0.0794920101761818, 0.050868451595306396, 0.020826518535614014, 0.0001157522201538086, -0.3182692034259657, -0.5991316278277942, 0.7325943145179481,0.05524144378339292,-0.79180908203125,0.5533447265625,-0.079376220703125
20220224-1002,2022-02-24 10:03:03Z,u01, 105,40,movements,el-ex, rt, d,219678.123598, -1.4742410642725337, -0.556258141586807, -0.36017455174386276, 0.14066652953624725, 0.027456924319267273, -0.2225894033908844, -0.845281183719635, 0.5280121564865112, -0.0818709284067154, 0.07610088586807251, 0.004397451877593994, -0.006279103457927704, -0.3157638879214396, -0.5994645135609513, 0.7334951691902516,0.05403956672940697,-0.77960205078125,0.5375518798828125,-0.0887908935546875
20220224-1002,2022-02-24 10:03:03Z,u01, 106,40,movements,el-ex, rt, d,219678.148545, -1.4724276655866813, -0.5507892746107361, -0.3568388426401518, 0.1338927149772644, -0.033039577305316925, -0.18451353907585144, -0.8479924201965332, 0.5233599543571472, -0.0836859792470932, 0.09642070531845093, -0.0014483332633972168, -0.014244914054870605, -0.3129844300901027, -0.6001647757673061, 0.7341791797541536,0.05314093751640412,-0.7515716552734375,0.52191162109375,-0.097930908203125
20220224-1002,2022-02-24 10:03:03Z,u01, 107,40,movements,el-ex, rt, d,219678.17349100002, -1.472236066344879, -0.5466851159165695, -0.35287425797813843, 0.1684284508228302, -0.08704289048910141, -0.1632378101348877, -0.8501067161560059, 0.5198583602905273, -0.08405909687280655, 0.04232168197631836, 0.013772010803222656, -0.00781404972076416, -0.310423721660423, -0.6013381435213077, 0.7343027722392697,0.05318833030804912,-0.796783447265625,0.527587890625,-0.0943145751953125
20220224-1002,2022-02-24 10:03:03Z,u01, 108,40,movements,el-ex, rt, d,219678.19843800002, -1.4716050100983906, -0.5414778184753386, -0.34846715008081836, 0.1669796109199524, -0.07457703351974487, -0.22057604789733887, -0.8527357578277588, 0.5154029726982117, -0.08486248552799225, 0.07032608985900879, 0.03225022554397583, -0.017935991287231445, -0.3073656146113528, -0.602573759776527, 0.7345927199168754,0.0529610531296175,-0.78240966796875,0.5476531982421875,-0.1027984619140625
20220224-1002,2022-02-24 10:03:03Z,u01, 109,40,movements,el-ex, rt, d,219678.22338500002, -1.4722519564469054, -0.5360814627598897, -0.344787734964304, 0.13481943309307098, -0.12987011671066284, -0.1867712140083313, -0.8555457592010498, 0.5107710957527161, -0.08458318561315536, 0.1064002513885498, 0.022950828075408936, -0.01819998025894165, -0.3044228129749552, -0.6041813936916557, 0.7345235298403531,0.05259980856015107,-0.735870361328125,0.53619384765625,-0.10736083984375
20220224-1002,2022-02-24 10:03:03Z,u01, 110,40,movements,el-ex, rt, d,219678.248331, -1.472336091429559, -0.5304997636461622, -0.3404353081616534, 0.22385874390602112, -0.04166249558329582, -0.2398189902305603, -0.8583767414093018, 0.505964457988739, -0.08479014784097672, 0.04987454414367676, 0.023973286151885986, -0.003069937229156494, -0.3012223890150261, -0.6056979417637457, 0.7346127907999609,0.0523370095879113,-0.808502197265625,0.529937744140625,-0.087860107421875
20220224-1002,2022-02-24 10:03:03Z,u01, 111,40,movements,el-ex, rt, d,219678.273278, -1.4697234766429148, -0.5243871341279002, -0.333846117199648, 0.2301962822675705, -0.046847935765981674, -0.2012375146150589, -0.8612132668495178, 0.5006825923919678, -0.08734290301799774, 0.09276539087295532, -0.013911962509155273, -0.0060866475105285645, -0.2972265275134908, -0.6066176217422814, 0.735482456538088,0.052316968369465866,-0.7684173583984375,0.4965362548828125,-0.0948028564453125
20220224-1002,2022-02-24 10:03:03Z,u01, 112,40,movements,el-ex, rt, d,219678.298225, -1.468741819254389, -0.5192243320268584, -0.3303279785828361, 0.04816851764917374, -0.020253144204616547, -0.19989535212516785, -0.8636870980262756, 0.4962068498134613, -0.08845044672489166, 0.06629323959350586, -0.020620912313461304, 0.003153860569000244, -0.29443261549918887, -0.6075230131736055, 0.7358999335505054,0.051735459534408196,-0.797393798828125,0.4755859375,-0.085296630859375
20220224-1002,2022-02-24 10:03:03Z,u01, 113,40,movements,el-ex, rt, d,219678.32317100003, -1.468452989268481, -0.5142638918029826, -0.3302632806724902, 0.02071445621550083, 0.0004384191706776619, -0.1667708158493042, -0.8660993576049805, 0.49189409613609314, -0.0889502763748169, 0.10407543182373047, -0.02601274847984314, -0.024895548820495605, -0.2927343760101785, -0.6081376885347944, 0.7361858950301354,0.050054658653351444,-0.7652435302734375,0.4695892333984375,-0.1121673583984375
20220224-1002,2022-02-24 10:03:03Z,u01, 114,40,movements,el-ex, rt, d,219678.34811800002, -1.467796948464239, -0.5109776012520588, -0.32930695774643753, 0.07281830161809921, 0.013217930682003498, -0.08642291277647018, -0.8676438927650452, 0.48903021216392517, -0.08968415856361389, 0.08311337232589722, -0.03849932551383972, -0.016059257090091705, -0.2913414984257982, -0.6085047685326663, 0.7364918978999208,0.04920988829148528,-0.7845306396484375,0.450531005859375,-0.105743408203125
20220224-1002,2022-02-24 10:03:03Z,u01, 115,40,movements,el-ex, rt, d,219678.37306500002, -1.4664624664959443, -0.5093713716987818, -0.32783673224128956, 0.009389162994921207, 0.03378452733159065, -0.02558079920709133, -0.8683037757873535, 0.4876285195350647, -0.09092364460229874, 0.06437921524047852, -0.0494113564491272, -0.017734169960021973, -0.2903796590538194, -0.6084552841202459, 0.7369253550860367,0.049019421315975586,-0.8053741455078125,0.4365081787109375,-0.1059112548828125
20220224-1002,2022-02-24 10:03:03Z,u01, 116,40,movements,el-ex, rt, d,219678.398011, -1.466482312801901, -0.5093514037309345, -0.32971571151267026, -0.1319696605205536, 0.02472984418272972, 0.01319116447120905, -0.8683151602745056, 0.4876110851764679, -0.09090740978717804, 0.07375949621200562, -0.045914918184280396, -0.02797377109527588, -0.2909438971767213, -0.6081923569260499, 0.736965752944942,0.04832328805521638,-0.7945556640625,0.4416961669921875,-0.1188812255859375
20220224-1002,2022-02-24 10:03:03Z,u01, 117,40,movements,el-ex, rt, d,219678.422958, -1.467722637538286, -0.5105802656783957, -0.33309838623521, -0.08142247051000595, 0.012864130549132824, 0.061029259115457535, -0.8678306341171265, 0.4886835813522339, -0.08976864069700241, 0.042696356773376465, -0.0033777952194213867, -0.011076688766479492, -0.292361079426402, -0.6079808223589614, 0.7366220039656156,0.0476695792060311,-0.8137359619140625,0.480255126953125,-0.1011505126953125
20220224-1002,2022-02-24 10:03:03Z,u01, 118,40,movements,el-ex, rt, d,219678.447905, -1.466730801678254, -0.5117354914069808, -0.3333803953512245, 0.012412749230861664, 0.06941702216863632, 0.04311750456690788, -0.8671790361404419, 0.4896911382675171, -0.09057062864303589, 0.01747816801071167, 0.012673944234848022, -0.015203289687633514, -0.29286357908575755, -0.6074089317739274, 0.7368851472608925,0.047807585052118545,-0.849700927734375,0.5023651123046875,-0.10577392578125
20220224-1002,2022-02-24 10:03:03Z,u01, 119,40,movements,el-ex, rt, d,219678.47285100003, -1.4649861216632596, -0.5130833952663565, -0.3339922552776447, -0.09055754542350769, 0.07969475537538528, 0.057309020310640335, -0.866362452507019, 0.49086594581604004, -0.0920136347413063, 0.02952486276626587, 0.0022370219230651855, -0.016552671790122986, -0.293549804107176, -0.6064830542939648, 0.7373764357900402,0.04777752758709095,-0.834869384765625,0.4947967529296875,-0.107879638671875
20220224-1002,2022-02-24 10:03:03Z,u01, 120,40,movements,el-ex, rt, d,219678.49779800003, -1.4644276540489494, -0.5148114816884833, -0.3376369153461982, -0.15259549021720886, 0.085413359105587, 0.0516362227499485, -0.8654663562774658, 0.4923707842826843, -0.09240727871656418, 0.03064274787902832, -0.00041216611862182617, -0.018173158168792725, -0.29525544302758744, -0.6054920177764402, 0.7375644518150335,0.04692955029780432,-0.8348236083984375,0.4919586181640625,-0.1105804443359375
20220224-1002,2022-02-24 10:03:03Z,u01, 121,40,movements,el-ex, rt, d,219678.52274500002, -1.4641627371967822, -0.5165985225106863, -0.3412511291991169, -0.105674609541893, 0.07581819593906403, 0.058840274810791016, -0.8645655512809753, 0.49392539262771606, -0.09254276007413864, 0.04324597120285034, -0.021818429231643677, -0.02356135845184326, -0.2969626105917274, -0.6046005538162036, 0.7376592212824515,0.04615525503572233,-0.823089599609375,0.4774322509765625,-0.114837646484375
20220224-1002,2022-02-24 10:03:03Z,u01, 122,40,movements,el-ex, rt, d,219678.547691, -1.4627496337820933, -0.5185367147731406, -0.3424996608168508, 0.002248230390250683, 0.07605301588773727, 0.07845039665699005, -0.8634804487228394, 0.49560973048210144, -0.09366096556186676, 0.05653470754623413, -0.023243427276611328, -0.011227898299694061, -0.29803102438585655, -0.6036116529048197, 0.7380394353099704,0.0461326758668598,-0.80694580078125,0.4723663330078125,-0.104888916015625
20220224-1002,2022-02-24 10:03:03Z,u01, 123,40,movements,el-ex, rt, d,219678.572638, -1.4602875712937662, -0.520860991742357, -0.3411455319111907, 0.03749493509531021, 0.03671260178089142, 0.10814071446657181, -0.8621000051498413, 0.4976271390914917, -0.09565932303667068, 0.08033126592636108, 0.007255613803863525, 0.01127827912569046, -0.29847031551473435, -0.6025660209525121, 0.7386587070973737,0.04704193567781392,-0.7801971435546875,0.5062103271484375,-0.0843658447265625
20220224-1002,2022-02-24 10:03:03Z,u01, 124,40,movements,el-ex, rt, d,219678.597585, -1.458545041337908, -0.5232889567011667, -0.34023346475473315, -0.0048652393743395805, 0.06410228461027145, 0.07244463264942169, -0.8607288599014282, 0.4997316598892212, -0.0970257818698883, 0.035625159740448, 0.01586279273033142, 0.02410406619310379, -0.29906324472122003, -0.6017044817227304, 0.7390640635317202,0.047928736556388574,-0.825103759765625,0.515594482421875,-0.0729217529296875
20220224-1002,2022-02-24 10:03:03Z,u01, 125,40,movements,el-ex, rt, d,219678.622531, -1.4559003873480767, -0.5243747847049207, -0.33957484294435414, 0.04613439738750458, 0.09501246362924576, 0.019521165639162064, -0.8599296808242798, 0.5006718635559082, -0.09923950582742691, 0.03854912519454956, 0.014113783836364746, 0.030452914535999298, -0.29929857185328695, -0.6006668069578694, 0.7397988769968854,0.048138500103033555,-0.827911376953125,0.516510009765625,-0.071990966796875
20220224-1002,2022-02-24 10:03:03Z,u01, 126,40,movements,el-ex, rt, d,219678.647478, -1.4533443623143258, -0.5246996753849418, -0.3385227608669103, 0.018435023725032806, 0.06717903167009354, 0.011011099442839622, -0.8595117330551147, 0.5009530782699585, -0.10141812264919281, 0.053588271141052246, 0.025215744972229004, 0.042000412940979004, -0.29915518419110054, -0.5998309037195847, 0.7405273166495134,0.048253542801808345,-0.8059234619140625,0.5261688232421875,-0.059417724609375
20220224-1002,2022-02-24 10:03:03Z,u01, 127,40,movements,el-ex, rt, d,219678.67242500003, -1.452411482563703, -0.5243110229869864, -0.33919635860424713, -0.051833610981702805, 0.06849157810211182, -0.06997522711753845, -0.8596101403236389, 0.5006166696548462, -0.10224290192127228, 0.010977208614349365, 0.050469815731048584, 0.01769392192363739, -0.2992468636867255, -0.5994412923382128, 0.740839356727387,0.04773527465900469,-0.8419036865234375,0.5479583740234375,-0.0799560546875
20220224-1002,2022-02-24 10:03:03Z,u01, 128,40,movements,el-ex, rt, d,219678.69737100002, -1.4521483334667569, -0.522010124231074, -0.3410790053336377, -0.012347323819994926, 0.0538330003619194, -0.1389809250831604, -0.8607245683670044, 0.4986235499382019, -0.10260516405105591, 0.012000203132629395, 0.052462875843048096, 0.021352119743824005, -0.2990317584377661, -0.599397552562233, 0.7410567139293632,0.046233566028123105,-0.848724365234375,0.55108642578125,-0.0812530517578125
20220224-1002,2022-02-24 10:03:03Z,u01, 129,40,movements,el-ex, rt, d,219678.72231800001, -1.4523486197082531, -0.5189550740450262, -0.3416906364148153, 0.07419715821743011, 0.08619573712348938, -0.19039857387542725, -0.8622538447380066, 0.49597305059432983, -0.10261232405900955, 0.014963746070861816, 0.04817068576812744, 0.009777888655662537, -0.2981671582003986, -0.5998251282406034, 0.7411338882259747,0.045021029313250874,-0.851959228515625,0.55035400390625,-0.08807373046875
20220224-1002,2022-02-24 10:03:03Z,u01, 130,40,movements,el-ex, rt, d,219678.747265, -1.4517566399248754, -0.5155313232613432, -0.3420365448941195, -0.001518977340310812, 0.0942268967628479, -0.18374933302402496, -0.8638738989830017, 0.4929971992969513, -0.1033237874507904, 0.046536803245544434, 0.006117820739746094, -0.009423375129699707, -0.2971139413389843, -0.6000511755653991, 0.7414547852048804,0.043666341538608794,-0.8173370361328125,0.499114990234375,-0.1127471923828125
20220224-1002,2022-02-24 10:03:03Z,u01, 131,40,movements,el-ex, rt, d,219678.772211, -1.4514267097640177, -0.5126016242300173, -0.34475822515663906, -0.10589082539081573, 0.10905451327562332, -0.15274114906787872, -0.8652701377868652, 0.49044615030288696, -0.1037803590297699, 0.07066869735717773, -0.03370481729507446, -0.021097540855407715, -0.2969356100185457, -0.5999492163123011, 0.7417256375055388,0.04163405405189643,-0.7999114990234375,0.4600830078125,-0.124481201171875
20220224-1002,2022-02-24 10:03:03Z,u01, 132,40,movements,el-ex, rt, d,219678.797158, -1.450770548009297, -0.5100824657831544, -0.3486309354373782, -0.12137627601623535, 0.09915906935930252, -0.08857914060354233, -0.866425633430481, 0.4882492125034332, -0.10449568927288055, 0.09597885608673096, -0.04963532090187073, -0.034664444625377655, -0.2972485906108827, -0.5994959811830375, 0.7420958926460415,0.03926239865275906,-0.77044677734375,0.4386138916015625,-0.13916015625
20220224-1002,2022-02-24 10:03:03Z,u01, 133,40,movements,el-ex, rt, d,219678.822105, -1.4512314564414281, -0.5098026816598029, -0.3526182480760691, -0.14740613102912903, 0.042024679481983185, -0.016649290919303894, -0.8666092753410339, 0.48800504207611084, -0.10411261767148972, 0.026689231395721436, 0.015260368585586548, -0.0018291473388671875, -0.2983388855031164, -0.5991140120540756, 0.7420448598987611,0.03775855261400263,-0.817291259765625,0.4958343505859375,-0.1137237548828125
20220224-1002,2022-02-24 10:03:03Z,u01, 134,40,movements,el-ex, rt, d,219678.84705100002, -1.451250220287999, -0.509050946893737, -0.3564053853288185, -0.11193543672561646, 0.0945761650800705, -0.08355601876974106, -0.8669751882553101, 0.487348735332489, -0.10414008051156998, -0.028624117374420166, 0.020494282245635986, 0.004790127277374268, -0.2992158109655782, -0.5986650624686428, 0.7421363647987739,0.03610606372397705,-0.895599365234375,0.507843017578125,-0.0993499755859375
20220224-1002,2022-02-24 10:03:03Z,u01, 135,40,movements,el-ex, rt, d,219678.87199800002, -1.448929724945898, -0.5065153007897853, -0.35849142876888807, -0.03821048140525818, 0.12461476027965546, -0.14077536761760712, -0.8679551482200623, 0.48513302206993103, -0.10630150884389877, -0.022639453411102295, 0.055333346128463745, 0.0017787665128707886, -0.2990142159112088, -0.5978626466152732, 0.7429570872204981,0.034141265886232126,-0.8893280029296875,0.5360260009765625,-0.107452392578125
20220224-1002,2022-02-24 10:03:03Z,u01, 136,40,movements,el-ex, rt, d,219678.89694500001, -1.4462665344035737, -0.5023069146077884, -0.36038085243330703, -0.07920105755329132, 0.14723725616931915, -0.21867814660072327, -0.8696868419647217, 0.481448769569397, -0.10886525362730026, -0.02440178394317627, 0.05285295844078064, 0.010659709572792053, -0.29818250720831013, -0.5972056298582182, 0.7439295766157541,0.031643369177222644,-0.8940887451171875,0.5343017578125,-0.09820556640625
20220224-1002,2022-02-24 10:03:03Z,u01, 137,40,movements,el-ex, rt, d,219678.921891, -1.4442733920446555, -0.49656227637984857, -0.3638358051048276, -0.07032564282417297, 0.1572883427143097, -0.2730313539505005, -0.8721975088119507, 0.4764058291912079, -0.11094563454389572, -0.000452578067779541, 0.04024147987365723, 0.01159561425447464, -0.29727464198581105, -0.5967872077620519, 0.7447685127932093,0.028154289244714286,-0.877685546875,0.5195465087890625,-0.102020263671875
20220224-1002,2022-02-24 10:03:03Z,u01, 138,40,movements,el-ex, rt, d,219678.946838, -1.4407563692883378, -0.48952346202664954, -0.36528799755153646, 0.04273314028978348, 0.1994515210390091, -0.3043740689754486, -0.8751054406166077, 0.4702053666114807, -0.11444450169801712, 0.02419900894165039, 0.020151108503341675, 0.016559362411499023, -0.2953364778675961, -0.5962835855136667, 0.7460625543466033,0.024758685477875284,-0.8509063720703125,0.4903564453125,-0.0978851318359375
20220224-1002,2022-02-24 10:03:04Z,u01, 139,40,movements,el-ex, rt, d,219678.971785, -1.435432939883868, -0.48255783755878345, -0.36533320483780096, 0.0203842893242836, 0.2730077803134918, -0.2898590564727783, -0.877707839012146, 0.464046448469162, -0.11954052746295929, 0.0971139669418335, -0.037502288818359375, 0.0023987889289855957, -0.29301071701396286, -0.5952935892360544, 0.7478645639879655,0.021654682338971283,-0.7916107177734375,0.4405364990234375,-0.1121673583984375
20220224-1002,2022-02-24 10:03:04Z,u01, 140,40,movements,el-ex, rt, d,219678.99673100002, -1.4295424895157132, -0.4769487258584637, -0.36774328916266547, -0.1699049472808838, 0.2560945749282837, -0.14142750203609467, -0.8795516490936279, 0.4590705633163452, -0.12507300078868866, 0.13293904066085815, -0.07412177324295044, -0.01980920135974884, -0.29184476137170456, -0.5935403383626041, 0.7498074045539533,0.018040761451413388,-0.746612548828125,0.38494873046875,-0.1448822021484375
20220224-1002,2022-02-24 10:03:04Z,u01, 141,40,movements,el-ex, rt, d,219679.02167800002, -1.4276454555530904, -0.4762163405036079, -0.37722432311916765, -0.4814590513706207, 0.26416006684303284, -0.06557095795869827, -0.8796452879905701, 0.4584197998046875, -0.12678924202919006, -0.012337684631347656, -0.056365966796875, -0.01694852113723755, -0.2944151860070215, -0.591544654251723, 0.7504662796039012,0.013965516072815529,-0.871002197265625,0.4029693603515625,-0.1513214111328125
20220224-1002,2022-02-24 10:03:04Z,u01, 142,40,movements,el-ex, rt, d,219679.04662500002, -1.4284593869722615, -0.47621725583697394, -0.3938341501102521, -0.6199105978012085, 0.2617897093296051, -0.09420832991600037, -0.8797478079795837, 0.45842060446739197, -0.12607316672801971, -0.01945263147354126, -0.055390238761901855, -0.005671203136444092, -0.299314847958626, -0.5893844568362213, 0.7503165577031594,0.007854662571308284,-0.899200439453125,0.4030303955078125,-0.131744384765625
20220224-1002,2022-02-24 10:03:04Z,u01, 143,40,movements,el-ex, rt, d,219679.071571, -1.4290446702811659, -0.47585272448523935, -0.40825241905821036, -0.3628048896789551, 0.22303406894207, -0.07793854922056198, -0.8799867033958435, 0.45809659361839294, -0.12558183073997498, 0.005825996398925781, -0.02380099892616272, -0.028226718306541443, -0.303429955012538, -0.5874856143119105, 0.7501899999859248,0.0024139881290271142,-0.8720703125,0.4322967529296875,-0.1505584716796875
20220224-1002,2022-02-24 10:03:04Z,u01, 144,40,movements,el-ex, rt, d,219679.096518, -1.4273380075431576, -0.47506554589800326, -0.41571233286485004, -0.19218593835830688, 0.20102085173130035, -0.05467350408434868, -0.8801278471946716, 0.4573967456817627, -0.1271350234746933, -0.02233797311782837, -0.052016496658325195, -0.03357052803039551, -0.3053482535569963, -0.5858284180394526, 0.7507108252442525,-0.0009044825329211983,-0.9024658203125,0.4053802490234375,-0.16070556640625
20220224-1002,2022-02-24 10:03:04Z,u01, 145,40,movements,el-ex, rt, d,219679.121465, -1.424336947864324, -0.474248905717558, -0.42021919780399797, -0.1374645233154297, 0.18467403948307037, -0.03181086480617523, -0.8801116347312927, 0.4566703736782074, -0.1298302412033081, -0.024902522563934326, -0.09827187657356262, -0.02689279615879059, -0.3063826235618622, -0.5841357450052913, 0.7516010984836468,-0.0033251323197820287,-0.910552978515625,0.3605804443359375,-0.1566925048828125
20220224-1002,2022-02-24 10:03:04Z,u01, 146,40,movements,el-ex, rt, d,219679.14641100002, -1.4218649365197857, -0.4749870806040759, -0.4239648981514678, -0.14326809346675873, 0.15141728520393372, 0.03470797464251518, -0.8794544339179993, 0.4573269486427307, -0.13195542991161346, -0.028199493885040283, -0.08054164052009583, -0.024645522236824036, -0.3077238374977888, -0.5825189465898211, 0.7522992554529166,-0.004870115973559519,-0.90765380859375,0.3767852783203125,-0.1566009521484375
20220224-1002,2022-02-24 10:03:04Z,u01, 147,40,movements,el-ex, rt, d,219679.17135800002, -1.420521151273686, -0.47689388282026884, -0.42880312280929617, -0.22442400455474854, 0.13665205240249634, 0.05462509021162987, -0.8784123659133911, 0.45902183651924133, -0.133006289601326, -0.03931224346160889, -0.05760887265205383, -0.016422972083091736, -0.30978280653436135, -0.580974584209709, 0.7526378966097929,-0.006271115672499349,-0.9201202392578125,0.396759033203125,-0.151580810546875
20220224-1002,2022-02-24 10:03:04Z,u01, 148,40,movements,el-ex, rt, d,219679.196304, -1.420479451100252, -0.4790648606627755, -0.43538731390933727, -0.25899916887283325, 0.10786347836256027, 0.045408353209495544, -0.8774195313453674, 0.46094951033592224, -0.1328933835029602, -0.013739585876464844, -0.045422136783599854, -0.02054893970489502, -0.3124381264567205, -0.5795996234848521, 0.7525836069285174,-0.008041856839863852,-0.8911590576171875,0.41552734375,-0.1534423828125
20220224-1002,2022-02-24 10:03:04Z,u01, 149,40,movements,el-ex, rt, d,219679.221251, -1.4220762560067097, -0.48160237309992676, -0.44239624410070516, -0.26194533705711365, 0.03325043246150017, 0.0801958292722702, -0.8764709830284119, 0.4631998836994171, -0.13131840527057648, -0.019204676151275635, -0.026630669832229614, -0.03408682346343994, -0.3153435899774892, -0.578704775213199, 0.7520420047735418,-0.009593295898415621,-0.8849334716796875,0.432647705078125,-0.1683349609375
20220224-1002,2022-02-24 10:03:04Z,u01, 150,40,movements,el-ex, rt, d,219679.246198, -1.4243061748300423, -0.48389333762186965, -0.449088490891956, -0.22946016490459442, 0.03244682028889656, 0.035662852227687836, -0.8757094740867615, 0.4652290344238281, -0.12920838594436646, -0.02506256103515625, -0.023380279541015625, -0.020892366766929626, -0.3180725117574416, -0.5781225511372455, 0.7513209470078541,-0.011001165578209147,-0.9007720947265625,0.4418487548828125,-0.1501007080078125
20220224-1002,2022-02-24 10:03:04Z,u01, 151,40,movements,el-ex, rt, d,219679.27114400003, -1.4257472879403987, -0.4851811121793881, -0.4533031805880024, -0.10734996944665909, -0.04556089639663696, 0.10488612949848175, -0.8753014206886292, 0.46636858582496643, -0.12785957753658295, -0.019718289375305176, -0.003935635089874268, -0.03833915293216705, -0.31973713658857317, -0.5777874826649103, 0.7508579264592251,-0.011929775207783842,-0.8831939697265625,0.4577178955078125,-0.1663360595703125
20220224-1002,2022-02-24 10:03:04Z,u01, 152,40,movements,el-ex, rt, d,219679.29609100003, -1.4260660911388754, -0.48697896786768174, -0.4542933040725377, -0.0371704176068306, -0.018023144453763962, 0.04943418875336647, -0.8745108246803284, 0.4679581820964813, -0.1274593621492386, -0.06126493215560913, -0.010072469711303711, -0.018780887126922607, -0.3206362572461825, -0.5774623022823284, 0.7507288098368115,-0.011657525381279947,-0.9357757568359375,0.4578857421875,-0.146240234375
20220224-1002,2022-02-24 10:03:04Z,u01, 153,40,movements,el-ex, rt, d,219679.32103800002, -1.4252482615644342, -0.48691638909342244, -0.45407006634517083, -0.018743105232715607, -0.05011270195245743, 0.0408259853720665, -0.8744354248046875, 0.46790286898612976, -0.12817879021167755, 0.02700793743133545, -0.005485236644744873, -0.033045604825019836, -0.3205457329989223, -0.5772010376472428, 0.7509674089412377,-0.011725475599546294,-0.858062744140625,0.4564208984375,-0.1565399169921875
20220224-1002,2022-02-24 10:03:04Z,u01, 154,40,movements,el-ex, rt, d,219679.345984, -1.4264355352083444, -0.48807954653420577, -0.45418168223416755, -0.06018568575382233, -0.10419684648513794, 0.06805773824453354, -0.8740477561950684, 0.46893054246902466, -0.1270621120929718, 0.02428579330444336, 0.0065028369426727295, -0.02676171064376831, -0.32098007475751733, -0.5774432731483277, 0.7506036509656202,-0.011193385092768515,-0.849761962890625,0.475433349609375,-0.1538238525390625
20220224-1002,2022-02-24 10:03:04Z,u01, 155,40,movements,el-ex, rt, d,219679.370931, -1.4282173463909194, -0.4891724106887446, -0.4550088231834533, -0.033018745481967926, -0.06914451718330383, 0.03278530389070511, -0.8737649321556091, 0.46989551186561584, -0.125431627035141, -0.02964693307876587, 0.017821192741394043, -0.003733992576599121, -0.3215998023432556, -0.5778042524112074, 0.7500653202077235,-0.010856790642626783,-0.9028778076171875,0.4854888916015625,-0.1308135986328125
20220224-1002,2022-02-24 10:03:04Z,u01, 156,40,movements,el-ex, rt, d,219679.395878, -1.428564264836239, -0.488623028962322, -0.45427443997509453, 0.04122162610292435, -0.03981359675526619, -0.031729571521282196, -0.8740637898445129, 0.4694105088710785, -0.12516506016254425, 0.02126532793045044, 0.01842820644378662, -0.01100437343120575, -0.32120305851257797, -0.5781401774657953, 0.7499785850722621,-0.010707035743670927,-0.8527984619140625,0.4878387451171875,-0.13616943359375
20220224-1002,2022-02-24 10:03:04Z,u01, 157,40,movements,el-ex, rt, d,219679.420824, -1.4299275440622459, -0.48813188634933674, -0.4547722369013834, -0.13736484944820404, -0.10055224597454071, -0.02491820603609085, -0.8744617700576782, 0.468976765871048, -0.12400570511817932, 0.05038034915924072, 0.0009939372539520264, -0.030230164527893066, -0.3211877698348594, -0.5786497758944686, 0.7495901567400101,-0.010836962290031837,-0.8173828125,0.4742279052734375,-0.152099609375
20220224-1002,2022-02-24 10:03:04Z,u01, 158,40,movements,el-ex, rt, d,219679.445771, -1.4358148831381454, -0.4876716908391171, -0.46217715593252384, -0.3618161976337433, -0.09469161927700043, -0.0863969475030899, -0.8753905892372131, 0.4685702621936798, -0.11888439208269119, 0.027917325496673584, -0.015384167432785034, -0.04734481871128082, -0.3232112969838704, -0.5797346480395249, 0.7478490496287193,-0.01281297563839362,-0.84747314453125,0.45318603515625,-0.166229248046875
20220224-1002,2022-02-24 10:03:04Z,u01, 159,40,movements,el-ex, rt, d,219679.47071800003, -1.4446932361819034, -0.48677141877935953, -0.4754283648900147, -0.5715914964675903, -0.16228118538856506, -0.10906244814395905, -0.8768295645713806, 0.46777474880218506, -0.1111607700586319, 0.06268167495727539, -0.036912351846694946, -0.0856470987200737, -0.32681932235300953, -0.5810410884072712, 0.7451874360337191,-0.016615476204549715,-0.8159637451171875,0.4384918212890625,-0.1899261474609375
20220224-1002,2022-02-24 10:03:04Z,u01, 160,40,movements,el-ex, rt, d,219679.49566400002, -1.458429105425258, -0.48679056861948644, -0.4937326663339165, -0.6965888142585754, -0.2977200448513031, -0.10520438849925995, -0.8782647252082825, 0.46779167652130127, -0.09910563379526138, 0.03723078966140747, -0.05855098366737366, -0.11019909381866455, -0.33228280148270184, -0.5831254772016923, 0.7410165959445317,-0.021146785224136412,-0.841033935546875,0.40924072265625,-0.2093048095703125
20220224-1002,2022-02-24 10:03:04Z,u01, 161,40,movements,el-ex, rt, d,219679.520611, -1.4716954511124691, -0.48639733269399443, -0.5083718872796825, -0.26122018694877625, -0.23593690991401672, -0.020940175279974937, -0.8796852231025696, 0.4674440920352936, -0.0874640941619873, 0.01251298189163208, -0.08719509840011597, -0.1219475269317627, -0.33658202610621607, -0.5856453645845863, 0.7369757815515735,-0.024470025798396966,-0.8778076171875,0.3888702392578125,-0.225067138671875
20220224-1002,2022-02-24 10:03:04Z,u01, 162,40,movements,el-ex, rt, d,219679.545557, -1.4772687489225265, -0.48695268154151733, -0.5059291612738249, 0.4264351725578308, -0.31373101472854614, 0.06526714563369751, -0.8799004554748535, 0.4679349660873413, -0.0825357586145401, 0.031298160552978516, -0.03341042995452881, -0.018263816833496094, -0.33611250574322227, -0.5880140336856706, 0.7353666697191412,-0.022445816349700665,-0.848602294921875,0.4345245361328125,-0.100799560546875
20220224-1002,2022-02-24 10:03:04Z,u01, 163,40,movements,el-ex, rt, d,219679.570504, -1.4778346450469846, -0.4867262701476199, -0.48934339218278233, 0.5777256488800049, -0.33188697695732117, 0.025793373584747314, -0.8800525069236755, 0.46773484349250793, -0.08204764872789383, -0.05248838663101196, 0.042412251234054565, 0.04770010709762573, -0.3311549403650975, -0.5910267188285947, 0.7353619740490395,-0.016329760329050924,-0.9195098876953125,0.5153045654296875,-0.037353515625
20220224-1002,2022-02-24 10:03:04Z,u01, 164,40,movements,el-ex, rt, d,219679.595451, -1.4811889021849518, -0.4864524294957343, -0.4790519541682185, 0.1379912793636322, -0.30741608142852783, 0.023232946172356606, -0.8804503679275513, 0.4674927890300751, -0.07910673320293427, -0.04935932159423828, -0.014520347118377686, 0.05154936760663986, -0.3280398800400744, -0.5940003961701231, 0.7344435842078894,-0.012088186615830304,-0.9298095703125,0.452972412109375,-0.027557373046875
20220224-1002,2022-02-24 10:03:04Z,u01, 165,40,movements,el-ex, rt, d,219679.62039700002, -1.4887267803770576, -0.4870727212562465, -0.48094677040151634, -0.23574422299861908, -0.20866261422634125, 0.024260126054286957, -0.8807323575019836, 0.4680410325527191, -0.07244402915239334, -0.016514956951141357, -0.050102829933166504, 0.027476370334625244, -0.32885132159345487, -0.5963512343021139, 0.7321841273265868,-0.011334255563374813,-0.8987579345703125,0.4121551513671875,-0.0419464111328125
20220224-1002,2022-02-24 10:03:04Z,u01, 166,40,movements,el-ex, rt, d,219679.64534400002, -1.4962207874012527, -0.489474882033704, -0.4882392848616282, -0.2446366548538208, -0.1333654522895813, 0.10514325648546219, -0.8801268339157104, 0.4701624810695648, -0.0657578855752945, -0.026351988315582275, -0.01607614755630493, 0.0577317476272583, -0.33185491581380955, -0.5974892235524436, 0.7298879383479732,-0.011942731045631462,-0.9064788818359375,0.4540863037109375,-0.008026123046875
20220224-1002,2022-02-24 10:03:04Z,u01, 167,40,movements,el-ex, rt, d,219679.67029100002, -1.5009875779161452, -0.4927921359918142, -0.49256997782334994, -0.0567554347217083, -0.08017493784427643, 0.1329788863658905, -0.8788695931434631, 0.4730876386165619, -0.06145264580845833, -0.051107823848724365, 0.028758704662322998, 0.08795714378356934, -0.3342532924959014, -0.5979535212958665, 0.7284174640885858,-0.011593064573666968,-0.9302520751953125,0.492095947265625,0.0310821533203125
20220224-1002,2022-02-24 10:03:04Z,u01, 168,40,movements,el-ex, rt, d,219679.695237, -1.5018373175301347, -0.49572832338167827, -0.4906209964324903, 0.15117153525352478, -0.0663059875369072, 0.10113679617643356, -0.877531886100769, 0.4756724238395691, -0.060609832406044006, -0.04362595081329346, 0.05852252244949341, 0.05529975891113281, -0.334625036880762, -0.5980979587820009, 0.7281552980368218,-0.009735495449051869,-0.9211578369140625,0.5341949462890625,-0.00531005859375
20220224-1002,2022-02-24 10:03:04Z,u01, 169,40,movements,el-ex, rt, d,219679.720184, -1.500536318139341, -0.4971125685975581, -0.48472498827757454, 0.23810729384422302, -0.04681657627224922, 0.035834088921546936, -0.876794695854187, 0.47688958048820496, -0.06170516833662987, -0.051366984844207764, 0.035149574279785156, 0.02220010757446289, -0.3333039820629521, -0.5983776988441731, 0.7285594632918214,-0.007331453407337242,-0.9271087646484375,0.5128021240234375,-0.0364227294921875
20220224-1002,2022-02-24 10:03:04Z,u01, 170,40,movements,el-ex, rt, d,219679.745131, -1.498015335358396, -0.4965388552832885, -0.47694124263763016, 0.3145175874233246, -0.054324958473443985, -0.04101128876209259, -0.876909077167511, 0.476385235786438, -0.06393524259328842, -0.03903031349182129, 0.04377162456512451, 0.018952369689941406, -0.3307801951817906, -0.5988462591112943, 0.7293432492294539,-0.005109301257821691,-0.9159393310546875,0.5201568603515625,-0.04498291015625
20220224-1002,2022-02-24 10:03:04Z,u01, 171,40,movements,el-ex, rt, d,219679.77007700002, -1.4964315748325354, -0.4947521315339411, -0.4684417659609257, 0.2910344898700714, -0.09373574703931808, -0.059039026498794556, -0.8776540160179138, 0.4748135209083557, -0.06538709998130798, -0.015320777893066406, 0.0265902578830719, 0.006671316921710968, -0.32764778483502327, -0.5999611476774158, 0.729852874778152,-0.0028800491333754383,-0.8945159912109375,0.503204345703125,-0.056304931640625
20220224-1002,2022-02-24 10:03:04Z,u01, 172,40,movements,el-ex, rt, d,219679.79502400002, -1.496739332883078, -0.49288287623838345, -0.46265347235855464, 0.1368422508239746, -0.1509697437286377, -0.061251576989889145, -0.8785576224327087, 0.4731675982475281, -0.06518254429101944, -0.008023679256439209, 0.0041577816009521484, 0.007550135254859924, -0.3252993689006409, -0.601322749903182, 0.7297871758133272,-0.0013562018454298594,-0.8865814208984375,0.477325439453125,-0.0576324462890625
20220224-1002,2022-02-24 10:03:04Z,u01, 173,40,movements,el-ex, rt, d,219679.8199699167, -1.5008695914170536, -0.49122762573630574, -0.46149379368996585, -0.02030458301305771, -0.1814729869365692, -0.06213514506816864, -0.8795995712280273, 0.4717087149620056, -0.061607975512742996, -0.027062416076660156, 0.0021834969520568848, -0.020026564598083496, -0.3244117597958526, -0.6032851913049683, 0.7285625191983548,-0.0008286214967845873,-0.903289794921875,0.4727325439453125,-0.074615478515625
20220224-1002,2022-02-24 10:03:04Z,u01, 174,40,movements,el-ex, rt, d,219679.84491691669, -1.5052573300498737, -0.48984467900127426, -0.4619284959888074, 0.018039509654045105, -0.14529414474964142, -0.05642686411738396, -0.8805115818977356, 0.47048884630203247, -0.057790614664554596, -0.006436049938201904, -0.003249436616897583, -0.024911999702453613, -0.32409392774718443, -0.6050353863376512, 0.7272515676722676,-0.0007493746653616518,-0.8869476318359375,0.4672393798828125,-0.08270263671875
20220224-1002,2022-02-24 10:03:04Z,u01, 175,40,movements,el-ex, rt, d,219679.86986391668, -1.5087451622193777, -0.4891123995173646, -0.4613849155961853, -0.01802305318415165, -0.18177339434623718, -0.01077954936772585, -0.8810513615608215, 0.4698425531387329, -0.0547405369579792, 0.024361908435821533, -0.011941522359848022, 0.009559273719787598, -0.32369184634468373, -0.6065091254867055, 0.7262026223740925,-0.0002384065514572653,-0.85260009765625,0.4558868408203125,-0.0498504638671875
20220224-1002,2022-02-24 10:03:04Z,u01, 176,40,movements,el-ex, rt, d,219679.89480991667, -1.5147021659681472, -0.48966097105912304, -0.4635790460473382, -0.12303252518177032, -0.2255234718322754, 0.03423752635717392, -0.8811043500900269, 0.4703267216682434, -0.04947671666741371, -0.021330952644348145, -0.003972351551055908, 0.0232163667678833, -0.3245363899296183, -0.6082251013812573, 0.7243882903682101,0.00012002417214562744,-0.902435302734375,0.4663543701171875,-0.0262603759765625
20220224-1002,2022-02-24 10:03:04Z,u01, 177,40,movements,el-ex, rt, d,219679.91975691667, -1.5180472968288938, -0.48970703316135417, -0.46439495912360906, 0.02844817563891411, -0.16164176166057587, 0.0023791296407580376, -0.8812432885169983, 0.4703673720359802, -0.04652789235115051, -0.04276794195175171, 0.011367857456207275, 0.0304756760597229, -0.3247992264781477, -0.6092959189955685, 0.7233697744661262,0.00038362910920028415,-0.9323577880859375,0.4795684814453125,-0.017913818359375
20220224-1002,2022-02-24 10:03:04Z,u01, 178,40,movements,el-ex, rt, d,219679.94470391667, -1.518914283678863, -0.4895126234257584, -0.4596150670448224, 0.25829729437828064, -0.12885598838329315, 0.011899796314537525, -0.881374716758728, 0.47019580006599426, -0.04576859623193741, -0.012759923934936523, 0.009891510009765625, 0.0362013541162014, -0.3232782541962316, -0.6104153284094657, 0.7231041797193385,0.002185471235262096,-0.894134521484375,0.4800872802734375,-0.0095672607421875
20220224-1002,2022-02-24 10:03:05Z,u01, 179,40,movements,el-ex, rt, d,219679.9696499167, -1.517731391605412, -0.4897009515860778, -0.4508835314740306, 0.34333935379981995, -0.0831284448504448, 0.03321706876158714, -0.8812313079833984, 0.47036200761795044, -0.04680642485618591, -0.02335536479949951, -0.006174415349960327, 0.0536423958837986, -0.3206744860967025, -0.6113629539127298, 0.7234472587208437,0.005217727891071784,-0.8999176025390625,0.462615966796875,0.002288818359375
20220224-1002,2022-02-24 10:03:05Z,u01, 180,40,movements,el-ex, rt, d,219679.9945969167, -1.5155915705315395, -0.4901207998245238, -0.4428966844141187, 0.19293253123760223, 0.0009107990190386772, 0.031784020364284515, -0.8809318542480469, 0.4707324802875519, -0.04868109151721001, -0.03783029317855835, 0.0029003024101257324, 0.050023917108774185, -0.31837563226247567, -0.6117976884106905, 0.7240703450044723,0.007910917929498537,-0.91876220703125,0.4736328125,0.0013427734375
20220224-1002,2022-02-24 10:03:05Z,u01, 181,40,movements,el-ex, rt, d,219680.01954291668, -1.515800346136241, -0.4902731217700363, -0.442218924268062, -0.10020194947719574, 0.04516227915883064, -0.02080528624355793, -0.8808704018592834, 0.470866858959198, -0.04849323257803917, -0.008243858814239502, -0.012813329696655273, 0.029267139732837677, -0.31821699920033303, -0.6119569637068173, 0.7240018054416114,0.00824199383186263,-0.8980865478515625,0.458709716796875,-0.0179901123046875
20220224-1002,2022-02-24 10:03:05Z,u01, 182,40,movements,el-ex, rt, d,219680.04448991668, -1.5185218459960017, -0.48948233248271106, -0.4482199662328269, -0.21969525516033173, 0.012190616689622402, -0.05044294148683548, -0.8813707828521729, 0.4701690673828125, -0.0461152121424675, 0.01711297035217285, 0.017349272966384888, 0.03277909755706787, -0.3197865752506303, -0.6121102351838922, 0.723200368956774,0.006232154942228674,-0.8642578125,0.487518310546875,-0.013336181640625
20220224-1002,2022-02-24 10:03:05Z,u01, 183,40,movements,el-ex, rt, d,219680.06943691667, -1.5223732084543753, -0.4880816598674256, -0.4534965906451487, -0.05132518336176872, 0.011514107696712017, -0.09141121059656143, -0.8821987509727478, 0.4689324200153351, -0.042752236127853394, -0.005023539066314697, 0.057450056076049805, 0.02732563018798828, -0.3209383583836584, -0.6128804552828679, 0.7220500277660993,0.00445870602237184,-0.885833740234375,0.525665283203125,-0.0163726806640625
20220224-1002,2022-02-24 10:03:05Z,u01, 184,40,movements,el-ex, rt, d,219680.0943829167, -1.5221207914319035, -0.4847778649982887, -0.4527607034722184, 0.13956813514232635, 0.03958502411842346, -0.15569499135017395, -0.8837305903434753, 0.46601182222366333, -0.04305006563663483, 0.003802001476287842, 0.05593028664588928, 0.025380373001098633, -0.319643675032953, -0.6134353169252682, 0.7221582666647998,0.003541682335900874,-0.8799285888671875,0.521942138671875,-0.017669677734375
20220224-1002,2022-02-24 10:03:05Z,u01, 185,40,movements,el-ex, rt, d,219680.1193299167, -1.5189348343448972, -0.4801410427509988, -0.44750946425684035, 0.2700307071208954, 0.09471332281827927, -0.22003769874572754, -0.8857372999191284, 0.46190428733825684, -0.04597688466310501, 0.008402705192565918, 0.049539774656295776, 0.025316480547189713, -0.3165328826428532, -0.6138554321019886, 0.7231717240410164,0.003330600354050431,-0.879150390625,0.5121612548828125,-0.0187835693359375
20220224-1002,2022-02-24 10:03:05Z,u01, 186,40,movements,el-ex, rt, d,219680.1442769167, -1.5138922719490104, -0.4748755511155441, -0.44052461139670207, 0.27229779958724976, 0.12087102979421616, -0.2261737585067749, -0.8879100680351257, 0.45722776651382446, -0.05058028921484947, 0.009629487991333008, 0.04480162262916565, 0.03420758992433548, -0.3126796795259548, -0.6139554330043019, 0.7247616926251441,0.003250451393183501,-0.8782806396484375,0.5020294189453125,-0.0163726806640625
20220224-1002,2022-02-24 10:03:05Z,u01, 187,40,movements,el-ex, rt, d,219680.16922291668, -1.5098119298526944, -0.46984161823367765, -0.43575973357173975, 0.15019865334033966, 0.16295963525772095, -0.2665584683418274, -0.8899825215339661, 0.45274507999420166, -0.05434243008494377, 0.009168922901153564, 0.03146207332611084, 0.017919719219207764, -0.30957263821618863, -0.6139980179780313, 0.7260608930020539,0.0026123042262975113,-0.8842315673828125,0.4885711669921875,-0.0289459228515625
20220224-1002,2022-02-24 10:03:05Z,u01, 188,40,movements,el-ex, rt, d,219680.19416991668, -1.5058155146657697, -0.46382539905680964, -0.4348928353758073, -0.020496029406785965, 0.18280144035816193, -0.24670971930027008, -0.8924601674079895, 0.4473726153373718, -0.058074548840522766, 0.012516319751739502, 0.029632389545440674, 0.006026804447174072, -0.3073291263769675, -0.6136053564187237, 0.7273494621965585,0.00024548279528655015,-0.87994384765625,0.4770050048828125,-0.0520477294921875
20220224-1002,2022-02-24 10:03:05Z,u01, 189,40,movements,el-ex, rt, d,219680.21911591667, -1.5014415203415021, -0.4575303883821363, -0.43614464378114054, 0.020859330892562866, 0.21094132959842682, -0.27196940779685974, -0.8949894905090332, 0.44173386693000793, -0.062171537429094315, 0.009338736534118652, 0.01847130060195923, -0.007728941738605499, -0.3056303711937759, -0.6127840628330276, 0.7287500786187899,-0.003037334483246612,-0.8908233642578125,0.465301513671875,-0.06719970703125
20220224-1002,2022-02-24 10:03:05Z,u01, 190,40,movements,el-ex, rt, d,219680.24406291667, -1.4948758174647343, -0.44990981610578035, -0.43190082145801245, 0.34038612246513367, 0.14961738884449005, -0.30876272916793823, -0.8978924751281738, 0.43488433957099915, -0.06829973310232162, 0.04303407669067383, 0.009543150663375854, -0.044386446475982666, -0.3017879739155343, -0.6121880046373415, 0.7308379140270391,-0.005089825434547883,-0.8548583984375,0.444427490234375,-0.1126861572265625
20220224-1002,2022-02-24 10:03:05Z,u01, 191,40,movements,el-ex, rt, d,219680.2690099167, -1.487003770197177, -0.4410881976054751, -0.4199640022589576, 0.5024703145027161, 0.07570954412221909, -0.3291250467300415, -0.9011149406433105, 0.4269237518310547, -0.07568393647670746, -0.016136646270751953, 0.003068894147872925, -0.06181299686431885, -0.29516410663132864, -0.6124019766182566, 0.7333607749215331,-0.0048985755218547075,-0.90374755859375,0.43048095703125,-0.13641357421875
20220224-1002,2022-02-24 10:03:05Z,u01, 192,40,movements,el-ex, rt, d,219680.29395591668, -1.480890261368421, -0.43236509977012116, -0.40803240273471975, 0.41393765807151794, 0.009487043134868145, -0.2748653292655945, -0.9043101668357849, 0.4190194308757782, -0.08152274042367935, -0.03572285175323486, -0.005780905485153198, -0.05598944425582886, -0.2885536723268152, -0.6131683362666556, 0.7353518493065744,-0.004368721960916734,-0.940032958984375,0.413238525390625,-0.13751220703125
20220224-1002,2022-02-24 10:03:05Z,u01, 193,40,movements,el-ex, rt, d,219680.31890291668, -1.477770039148683, -0.42493887621181003, -0.3996363358390204, 0.23645523190498352, -0.03991998732089996, -0.2593245208263397, -0.9071246981620789, 0.4122650921344757, -0.08463071286678314, -0.03385436534881592, -0.021289080381393433, -0.03261781483888626, -0.28345161696629184, -0.6142799225988231, 0.7364084921918984,-0.0042385081237073935,-0.94354248046875,0.3975067138671875,-0.116180419921875
20220224-1002,2022-02-24 10:03:05Z,u01, 194,40,movements,el-ex, rt, d,219680.34384991668, -1.4781306524084616, -0.41882219561236383, -0.3971605798456682, 0.0068718446418643, -0.0737525150179863, -0.2116033285856247, -0.9096490740776062, 0.4066847264766693, -0.08453534543514252, -0.015231966972351074, -0.03437027335166931, -0.04528641700744629, -0.280609817388809, -0.6156220080733356, 0.7363689001598551,-0.0053441517703625985,-0.9248809814453125,0.372314453125,-0.12982177734375
20220224-1002,2022-02-24 10:03:05Z,u01, 195,40,movements,el-ex, rt, d,219680.36879591667, -1.4811707438134203, -0.41379642093026214, -0.39932369514202976, -0.08732122927904129, -0.11069295555353165, -0.20373396575450897, -0.9119260907173157, 0.4020882248878479, -0.08195145428180695, -0.003372371196746826, -0.0086250901222229, -0.017215430736541748, -0.2795753680934481, -0.6171400850671467, 0.7354732182800601,-0.007414983970109423,-0.9167633056640625,0.3880767822265625,-0.1070709228515625
20220224-1002,2022-02-24 10:03:05Z,u01, 196,40,movements,el-ex, rt, d,219680.39374291667, -1.4842965292691466, -0.4092357350292744, -0.3996326877517272, 0.14151699841022491, -0.12959660589694977, -0.15836648643016815, -0.913995087146759, 0.3979083001613617, -0.07925815880298615, -0.004660248756408691, 0.010752558708190918, 0.0003855302929878235, -0.2781321973762954, -0.6188807639063293, 0.7345436455625476,-0.008638326412752521,-0.9186553955078125,0.408660888671875,-0.0788726806640625
20220224-1002,2022-02-24 10:03:05Z,u01, 197,40,movements,el-ex, rt, d,219680.4186889167, -1.4835825426569453, -0.4047164902972097, -0.3913629549591551, 0.47567909955978394, -0.06304588168859482, -0.1644904762506485, -0.915720522403717, 0.3937581777572632, -0.08006655424833298, -0.04518657922744751, 0.021921813488006592, 0.03642641752958298, -0.27402835588511154, -0.6203830924608867, 0.7348340723139818,-0.007231479537817123,-0.9566192626953125,0.4179229736328125,-0.044036865234375
20220224-1002,2022-02-24 10:03:05Z,u01, 198,40,movements,el-ex, rt, d,219680.4436359167, -1.4779294690711728, -0.3996134840879387, -0.3767340724069215, 0.5915805697441101, 0.04814162850379944, -0.1440613716840744, -0.9172420501708984, 0.3890623152256012, -0.08542711287736893, -0.03420460224151611, 0.015524536371231079, 0.02452933043241501, -0.26772596132633236, -0.6209744390277214, 0.736678252977097,-0.004342753980802021,-0.951446533203125,0.4045867919921875,-0.0608978271484375
20220224-1002,2022-02-24 10:03:05Z,u01, 199,40,movements,el-ex, rt, d,219680.46858291668, -1.4705578913119868, -0.394985229191946, -0.3625561754113264, 0.4465651214122772, 0.0829852968454361, -0.1115913838148117, -0.9183690547943115, 0.38479456305503845, -0.09236543625593185, -0.0236322283744812, 0.00518953800201416, 0.013736911118030548, -0.26171898767768126, -0.6207418562557077, 0.7390398931698561,-0.0016488255189036766,-0.9363250732421875,0.3898162841796875,-0.081695556640625
20220224-1002,2022-02-24 10:03:05Z,u01, 200,40,movements,el-ex, rt, d,219680.49352891668, -1.4646158778319112, -0.39183725678574494, -0.353958369074118, 0.23007510602474213, 0.11947046965360641, -0.08341687172651291, -0.9190040230751038, 0.3818870782852173, -0.09794863313436508, -0.05563586950302124, 0.021280676126480103, 0.04347473382949829, -0.25795770157214803, -0.6200673404455596, 0.7409279610578947,-0.00029761266043294016,-0.974639892578125,0.403167724609375,-0.054473876953125
20220224-1002,2022-02-24 10:03:05Z,u01, 201,40,movements,el-ex, rt, d,219680.51847591667, -1.4597562598991052, -0.38936174266661316, -0.34964392853991916, 0.10255409777164459, 0.13251236081123352, -0.08385828137397766, -0.9194538593292236, 0.3795980215072632, -0.10251791030168533, -0.06411236524581909, 0.03846225142478943, 0.008340664207935333, -0.255758626378149, -0.6191353399550825, 0.7424681357793209,-0.0001512216529305152,-0.98199462890625,0.41510009765625,-0.0820159912109375
20220224-1002,2022-02-24 10:03:05Z,u01, 202,40,movements,el-ex, rt, d,219680.5434219167, -1.455652187072944, -0.38720076873364284, -0.3488545076587067, -0.019320843741297722, 0.14577323198318481, -0.0787631943821907, -0.9198381900787354, 0.3775978982448578, -0.10638454556465149, -0.05719733238220215, 0.03286352753639221, -0.0240933895111084, -0.2547584880249196, -0.6179853067950862, 0.7437681893075341,-0.0011040910333992918,-0.9770355224609375,0.41046142578125,-0.1304779052734375
20220224-1002,2022-02-24 10:03:05Z,u01, 203,40,movements,el-ex, rt, d,219680.5683689167, -1.453384952313489, -0.3859945447946408, -0.3494146098573491, 0.017793433740735054, 0.0524040125310421, -0.03273351863026619, -0.9200462102890015, 0.37648069858551025, -0.10852302610874176, -0.03530651330947876, 0.03613218665122986, -0.012769095599651337, -0.2545076582912511, -0.6172230853314069, 0.7444847270614473,-0.002003680418592821,-0.955078125,0.4105987548828125,-0.1232452392578125
20220224-1002,2022-02-24 10:03:05Z,u01, 204,40,movements,el-ex, rt, d,219680.5933159167, -1.4526876949481062, -0.38512560887131503, -0.3478900041836175, 0.07546834647655487, -0.04736458510160446, -0.016581112518906593, -0.9202948212623596, 0.3756755590438843, -0.10920301824808121, -0.028740763664245605, 0.03713572025299072, -0.029239945113658905, -0.25373214492032786, -0.617266952599658, 0.744713499165133,-0.0018144168334294358,-0.94903564453125,0.412811279296875,-0.1384429931640625
20220224-1002,2022-02-24 10:03:05Z,u01, 205,40,movements,el-ex, rt, d,219680.61826191668, -1.4537837466484649, -0.3842600527750187, -0.3458797038239993, 0.11875014752149582, -0.10363218933343887, -0.03584648668766022, -0.9207364916801453, 0.37487325072288513, -0.10823217779397964, -0.02620863914489746, 0.02571570873260498, -0.03347616642713547, -0.25280889100053605, -0.6180384909364597, 0.7443887095194331,-0.0012158758779664755,-0.952178955078125,0.4011077880859375,-0.1465606689453125
20220224-1002,2022-02-24 10:03:05Z,u01, 206,40,movements,el-ex, rt, d,219680.64320891668, -1.4552531938683115, -0.3822313614260626, -0.34058965270528724, 0.26569342613220215, -0.18876032531261444, -0.05597512423992157, -0.9216480851173401, 0.37299174070358276, -0.1069665402173996, -0.004194140434265137, 0.033975422382354736, 0.009584970772266388, -0.25046158911655286, -0.6195044164068431, 0.7439644701551795,0.0002604370901488212,-0.92584228515625,0.4069671630859375,-0.097381591796875
20220224-1002,2022-02-24 10:03:05Z,u01, 207,40,movements,el-ex, rt, d,219680.66815591668, -1.4581192656582105, -0.38098949802179427, -0.33451296803222585, 0.1421428918838501, -0.1902202069759369, -0.022510308772325516, -0.9224104285240173, 0.3718391954898834, -0.10437659919261932, -0.040296971797943115, 0.0016959309577941895, 0.03662760555744171, -0.24813901980529682, -0.6214810765567419, 0.7430896054826674,0.002461979092408445,-0.950347900390625,0.3789520263671875,-0.066436767578125
20220224-1002,2022-02-24 10:03:05Z,u01, 208,40,movements,el-ex, rt, d,219680.69310191667, -1.461040962403653, -0.3801066163595621, -0.33369384137018165, -0.07457977533340454, -0.10171284526586533, -0.027064714580774307, -0.9230373501777649, 0.37101948261260986, -0.10171706229448318, -0.030758917331695557, -0.005098491907119751, 0.023927763104438782, -0.24757103552574924, -0.6227760828593207, 0.7421929561699914,0.0028328967719144157,-0.95379638671875,0.3659210205078125,-0.077789306640625
20220224-1002,2022-02-24 10:03:05Z,u01, 209,40,movements,el-ex, rt, d,219680.7180489167, -1.463160971435103, -0.3797050066066601, -0.33616878296390407, -0.028357982635498047, 0.0174102820456028, -0.04654686897993088, -0.9233992099761963, 0.37064650654792786, -0.0997760146856308, -0.02906966209411621, 0.01562976837158203, 0.04276919364929199, -0.24819888973956503, -0.6233051464880284, 0.7415415729938238,0.0020430708254484675,-0.956207275390625,0.3788604736328125,-0.058074951171875
20220224-1002,2022-02-24 10:03:05Z,u01, 210,40,movements,el-ex, rt, d,219680.74299491668, -1.4609263791151064, -0.3787324211411001, -0.3317023579623115, 0.38791021704673767, 0.03770516440272331, 0.006169606000185013, -0.923531711101532, 0.3697430193424225, -0.10187865048646927, 0.015572786331176758, 0.03905516862869263, 0.04267454892396927, -0.24646953648894265, -0.6231480104792485, 0.7422463903620112,0.003097794126483429,-0.907958984375,0.4087982177734375,-0.0592041015625
20220224-1002,2022-02-24 10:03:05Z,u01, 211,40,movements,el-ex, rt, d,219680.76794191668, -1.4559272702041108, -0.37802491511778924, -0.3195043771987318, 0.43367525935173035, 0.08045389503240585, 0.009979991242289543, -0.9232707023620605, 0.36908555030822754, -0.10652416944503784, -0.042427659034729004, 0.02758195996284485, 0.025820419192314148, -0.24243364820509383, -0.6228674347460966, 0.7437850866622173,0.006781933922802394,-0.9560089111328125,0.405364990234375,-0.07733154296875
20220224-1002,2022-02-24 10:03:05Z,u01, 212,40,movements,el-ex, rt, d,219680.79288891668, -1.452104626045328, -0.3772008668041425, -0.3141358258714206, -0.013850112445652485, 0.11197227239608765, -0.004818528890609741, -0.9231582283973694, 0.368319571018219, -0.11008866876363754, -0.03457486629486084, -0.0005827546119689941, -0.003604516386985779, -0.24048631443899143, -0.6221912869787704, 0.7449695098560151,0.008043844643234377,-0.957733154296875,0.36773681640625,-0.1136932373046875
20220224-1002,2022-02-24 10:03:05Z,u01, 213,40,movements,el-ex, rt, d,219680.81783441667, -1.452369133785977, -0.3783528457667713, -0.3184407499226493, -0.1813681423664093, 0.09070053696632385, 0.016942959278821945, -0.9227653741836548, 0.3693903088569641, -0.10979428142309189, -0.02492743730545044, 0.011987835168838501, -0.01525145024061203, -0.24223041858197286, -0.6216327549136963, 0.7448826207529404,0.006856021451167586,-0.945343017578125,0.378753662109375,-0.1254119873046875
20220224-1002,2022-02-24 10:03:05Z,u01, 214,40,movements,el-ex, rt, d,219680.8427814167, -1.451793776025388, -0.379472994934786, -0.32074436704466974, 0.03443096578121185, 0.06838717311620712, 0.029608353972434998, -0.9222906827926636, 0.37043100595474243, -0.110275998711586, -0.024746060371398926, 0.03067678213119507, -0.012709856033325195, -0.24334289510927926, -0.6210042149399395, 0.7450492197712995,0.006301196107638511,-0.9470367431640625,0.4011077880859375,-0.12298583984375
20220224-1002,2022-02-24 10:03:05Z,u01, 215,40,movements,el-ex, rt, d,219680.86772741668, -1.449581802314188, -0.38019421004062265, -0.31755888140242333, 0.15131278336048126, 0.03352520242333412, 0.05504380166530609, -0.9217790961265564, 0.3711008131504059, -0.11228348314762115, -0.034443438053131104, 0.027138322591781616, -0.013540506362915039, -0.24261625547455182, -0.6204801456736369, 0.7457118586330057,0.007459691392928132,-0.9498138427734375,0.4051513671875,-0.12738037109375
20220224-1002,2022-02-24 10:03:05Z,u01, 216,40,movements,el-ex, rt, d,219680.89267441668, -1.447226211666919, -0.38060077169075196, -0.3153171381209921, 0.004593975841999054, 0.080152228474617, 0.0018883086740970612, -0.9213621616363525, 0.3714783191680908, -0.11443588882684708, -0.057016074657440186, 0.007122725248336792, -0.013966791331768036, -0.2420739835602181, -0.6198243648167445, 0.7464258686280951,0.00814565507257161,-0.9783782958984375,0.37860107421875,-0.1284027099609375
20220224-1002,2022-02-24 10:03:05Z,u01, 217,40,movements,el-ex, rt, d,219680.91762141668, -1.4453621806470438, -0.380759857747072, -0.3152849302370101, 0.02667221426963806, 0.06003144383430481, 0.010011948645114899, -0.921088695526123, 0.37162601947784424, -0.11614575237035751, -0.017265796661376953, 0.02108943462371826, -0.019718527793884277, -0.24212778050727454, -0.6191132866248649, 0.7470001422749999,0.007984840997109353,-0.93927001953125,0.3919677734375,-0.139678955078125
20220224-1002,2022-02-24 10:03:05Z,u01, 218,40,movements,el-ex, rt, d,219680.94256741667, -1.4436183650227088, -0.3809958792487999, -0.31426799024111507, 0.0330333411693573, 0.052939508110284805, 0.010034918785095215, -0.9207978248596191, 0.3718451261520386, -0.11774066090583801, -0.02689516544342041, 0.019832760095596313, -0.020168259739875793, -0.24190373905508894, -0.6185565850586968, 0.7475310895985617,0.008232061660355658,-0.94769287109375,0.3916778564453125,-0.137908935546875
20220224-1002,2022-02-24 10:03:05Z,u01, 219,40,movements,el-ex, rt, d,219680.96751441667, -1.4427626514497338, -0.38156712703877266, -0.31403769386568536, -0.012951062992215157, 0.015698667615652084, 0.04231216385960579, -0.92048579454422, 0.37237533926963806, -0.11850140243768692, -0.036057233810424805, 0.01811230182647705, -0.01763749122619629, -0.24203847390717775, -0.6181963092122608, 0.7477834517156665,0.008403979222213906,-0.949249267578125,0.38995361328125,-0.1378326416015625
20220224-1002,2022-02-24 10:03:06Z,u01, 220,40,movements,el-ex, rt, d,219680.9924604167, -1.441999136889607, -0.38250591375886184, -0.31436229816904065, -0.027426406741142273, 0.049575675278902054, 0.023494798690080643, -0.9200479984283447, 0.3732464611530304, -0.11915922909975052, -0.06072592735290527, 0.024824827909469604, -0.014370441436767578, -0.24247463226685437, -0.6177592074862208, 0.7480023090566599,0.008501116677046783,-0.98077392578125,0.3980712890625,-0.1335296630859375
20220224-1002,2022-02-24 10:03:06Z,u01, 221,40,movements,el-ex, rt, d,219681.0174074167, -1.4415183691715332, -0.38363930370191973, -0.3163374194449115, -0.14209777116775513, 0.031774237751960754, 0.05405477434396744, -0.9195703864097595, 0.37429770827293396, -0.11954691261053085, -0.030197620391845703, 0.00880470871925354, -0.03645896166563034, -0.24348801002223747, -0.6172034781739757, 0.7481364372821696,0.008079340073601345,-0.9518890380859375,0.38623046875,-0.157257080078125
20220224-1002,2022-02-24 10:03:06Z,u01, 222,40,movements,el-ex, rt, d,219681.04235441668, -1.442701225991702, -0.3860366061472086, -0.3205496579363884, -0.15973907709121704, 0.0038901446387171745, 0.09341096878051758, -0.9188187122344971, 0.37651965022087097, -0.11834415793418884, -0.04491126537322998, 0.006109774112701416, -0.020419254899024963, -0.2456314551805966, -0.6168412337148366, 0.7477411313850372,0.007442900090143492,-0.9637298583984375,0.38262939453125,-0.138763427734375
20220224-1002,2022-02-24 10:03:06Z,u01, 223,40,movements,el-ex, rt, d,219681.06730041667, -1.44336925944278, -0.3888998212689822, -0.3225350672518319, -0.039969295263290405, 0.001819469965994358, 0.11777909100055695, -0.917824387550354, 0.37917062640190125, -0.11759284138679504, -0.047782301902770996, 0.025995999574661255, -0.017722129821777344, -0.24725310542766576, -0.6164977554766528, 0.7474869002935173,0.007732149185539557,-0.9677886962890625,0.402435302734375,-0.1295623779296875
20220224-1002,2022-02-24 10:03:06Z,u01, 224,40,movements,el-ex, rt, d,219681.09224741667, -1.4440383623826278, -0.392238982211402, -0.3238493723265663, -0.1384975016117096, -0.01352892629802227, 0.13014008104801178, -0.9166418313980103, 0.3822583258152008, -0.11681798845529556, -0.055205702781677246, 0.007176518440246582, -0.025042951107025146, -0.24883430453890637, -0.616175702193515, 0.7472201664547203,0.008431275709192408,-0.9718475341796875,0.389434814453125,-0.1418609619140625
20220224-1002,2022-02-24 10:03:06Z,u01, 225,40,movements,el-ex, rt, d,219681.11719441667, -1.4457229939004412, -0.39588279337075083, -0.3280281003160878, -0.17550691962242126, -0.02069549262523651, 0.12822368741035461, -0.9154492616653442, 0.38562285900115967, -0.11509909480810165, -0.05407893657684326, 0.025296330451965332, -0.01843053102493286, -0.2513986368911814, -0.6158321023779614, 0.7466464253341859,0.008290463284316943,-0.9754791259765625,0.4054718017578125,-0.1329498291015625
20220224-1002,2022-02-24 10:03:06Z,u01, 226,40,movements,el-ex, rt, d,219681.1421404167, -1.4478618398316805, -0.3997208421009008, -0.3313829619718106, -0.10420211404561996, -0.051155395805835724, 0.1509723961353302, -0.9142178297042847, 0.38916119933128357, -0.11295851320028305, -0.04357653856277466, 0.034514397382736206, -0.014986410737037659, -0.25377229123619544, -0.6157275093519056, 0.7459261028533472,0.008583710405932338,-0.957794189453125,0.423675537109375,-0.1279449462890625
20220224-1002,2022-02-24 10:03:06Z,u01, 227,40,movements,el-ex, rt, d,219681.1670874167, -1.4494461921498039, -0.4036954824245993, -0.3318799675874126, 0.05887366086244583, -0.0746537372469902, 0.16287146508693695, -0.912852942943573, 0.39281943440437317, -0.11132179945707321, -0.03822743892669678, 0.02360817790031433, -0.0037294626235961914, -0.25531309174038874, -0.6157550856624882, 0.745360670539898,0.00992177408385092,-0.954376220703125,0.420623779296875,-0.1172943115234375
20220224-1002,2022-02-24 10:03:06Z,u01, 228,40,movements,el-ex, rt, d,219681.19203341668, -1.4493514071591103, -0.40699230292472877, -0.3263057340469618, 0.30428048968315125, -0.08856715261936188, 0.15525935590267181, -0.9115518927574158, 0.3958491086959839, -0.11125082522630692, -0.03891807794570923, 0.021982282400131226, 0.0026235058903694153, -0.25475363908074505, -0.616015561061138, 0.7452880488417865,0.013083616208185295,-0.950469970703125,0.4178314208984375,-0.1086273193359375
20220224-1002,2022-02-24 10:03:06Z,u01, 229,40,movements,el-ex, rt, d,219681.21698041668, -1.4474071474516066, -0.4098591506068352, -0.31632470366009874, 0.34846583008766174, -0.07595701515674591, 0.16080306470394135, -0.9102038145065308, 0.3984801471233368, -0.11288276314735413, -0.03303343057632446, -0.0031707286834716797, 0.004331715404987335, -0.25270085086563465, -0.6161987495937744, 0.7457444256297562,0.017510297094826266,-0.945526123046875,0.4015045166015625,-0.1096954345703125
20220224-1002,2022-02-24 10:03:06Z,u01, 230,40,movements,el-ex, rt, d,219681.24192741668, -1.4459035071972124, -0.41318757428464853, -0.30852014305797076, 0.17757707834243774, -0.050901398062705994, 0.1707415133714676, -0.9087119698524475, 0.4015306830406189, -0.11408539116382599, -0.030725836753845215, -0.024699687957763672, 0.006587274372577667, -0.25148216853565875, -0.616209397564999, 0.7460478265951622,0.02133628463177179,-0.9394378662109375,0.3768310546875,-0.1074981689453125
20220224-1002,2022-02-24 10:03:06Z,u01, 231,40,movements,el-ex, rt, d,219681.26687341667, -1.4453975870699285, -0.4171965421287132, -0.3040397326137545, 0.21102787554264069, -0.0682731345295906, 0.2073722928762436, -0.907049834728241, 0.4051990509033203, -0.11434288322925568, 0.003164947032928467, -0.04600715637207031, 0.009270846843719482, -0.2515196857004899, -0.6160896100520894, 0.7460443984432704,0.024273532573268676,-0.910919189453125,0.357421875,-0.1067352294921875
20220224-1002,2022-02-24 10:03:06Z,u01, 232,40,movements,el-ex, rt, d,219681.2918204167, -1.4405977606764961, -0.4204884065283004, -0.28644628038939923, 1.0685789585113525, -0.12600155174732208, 0.16841118037700653, -0.905163049697876, 0.40820637345314026, -0.11852139979600906, 0.030376732349395752, -0.028232038021087646, -0.005471460521221161, -0.24732921422689758, -0.6160905442556104, 0.7471806596956404,0.031332368652046076,-0.874786376953125,0.379974365234375,-0.123992919921875
20220224-1002,2022-02-24 10:03:06Z,u01, 233,40,movements,el-ex, rt, d,219681.31676641668, -1.4312935640022366, -0.41947005169111984, -0.2550960224125254, 0.9562969207763672, -0.15091195702552795, 0.1026579961180687, -0.9044323563575745, 0.4072765111923218, -0.12699569761753082, -0.012453019618988037, -0.051792532205581665, 0.014858916401863098, -0.23747567194320068, -0.6165285505143677, 0.7495113427572496,0.041599927805620864,-0.913330078125,0.3841094970703125,-0.1131134033203125
20220224-1002,2022-02-24 10:03:06Z,u01, 234,40,movements,el-ex, rt, d,219681.34171341668, -1.4305618493441807, -0.42171310604745416, -0.24366581380433844, -0.1891508847475052, -0.16244158148765564, 0.21895770728588104, -0.9034325480461121, 0.4093240797519684, -0.12752947211265564, -0.019281864166259766, -0.1528390347957611, 0.018490180373191833, -0.2347682361583143, -0.6173484734829379, 0.7493995224902216,0.046532603924877625,-0.9227142333984375,0.2564849853515625,-0.109039306640625
20220224-1002,2022-02-24 10:03:06Z,u01, 235,40,movements,el-ex, rt, d,219681.36666041668, -1.4403442581855845, -0.4299160404415779, -0.2571868468571428, -0.658181369304657, -0.18708346784114838, 0.2885302007198334, -0.9012771248817444, 0.41679447889328003, -0.11824498325586319, -0.01975858211517334, -0.05351325869560242, -0.005580119788646698, -0.24164602831576473, -0.6184534787847616, 0.7463691151183356,0.04533907712463101,-0.91973876953125,0.33758544921875,-0.1205596923828125
20220224-1002,2022-02-24 10:03:06Z,u01, 236,40,movements,el-ex, rt, d,219681.39160641667, -1.4511420717459176, -0.4393675252188322, -0.2710480001875393, -0.3958660364151001, -0.20999936759471893, 0.3129623532295227, -0.8985500335693359, 0.425367146730423, -0.10803139209747314, -0.03608143329620361, 0.0037558376789093018, -0.0014962106943130493, -0.2490352493049858, -0.6196496986783632, 0.742983157136703,0.04462937356779795,-0.93463134765625,0.4291229248046875,-0.109527587890625
20220224-1002,2022-02-24 10:03:06Z,u01, 237,40,movements,el-ex, rt, d,219681.41655341667, -1.4580079064227156, -0.4471758450340067, -0.27641264737567406, -0.10211282968521118, -0.18617813289165497, 0.2736611068248749, -0.895942747592926, 0.4324207901954651, -0.10148265957832336, -0.0119398832321167, 0.029676347970962524, 0.004574127495288849, -0.2532834165133515, -0.6205692384529216, 0.740686359771718,0.04609772257958324,-0.91851806640625,0.4569091796875,-0.095733642578125
20220224-1002,2022-02-24 10:03:06Z,u01, 238,40,movements,el-ex, rt, d,219681.4414994167, -1.4631154745767911, -0.4544523465107702, -0.2770496783798964, -0.03564648702740669, -0.19021262228488922, 0.29357242584228516, -0.8932974338531494, 0.43897029757499695, -0.09656454622745514, -0.01258629560470581, 0.016992807388305664, 0.0019142702221870422, -0.25590168760120224, -0.621475706291694, 0.7388418249399284,0.04893881754397285,-0.9058837890625,0.455963134765625,-0.0946502685546875
20220224-1002,2022-02-24 10:03:06Z,u01, 239,40,movements,el-ex, rt, d,219681.46644641669, -1.4666805843542015, -0.4611252534115309, -0.27665613819249946, 0.02100767008960247, -0.1354195475578308, 0.2510640025138855, -0.8907029628753662, 0.44495612382888794, -0.09307274967432022, -0.041776955127716064, 0.022817373275756836, -0.004797108471393585, -0.258012681472106, -0.6220072991951485, 0.7374660774348479,0.05177182939493248,-0.93511962890625,0.4637298583984375,-0.09722900390625
20220224-1002,2022-02-24 10:03:06Z,u01, 240,40,movements,el-ex, rt, d,219681.49139341668, -1.4682738604072232, -0.4668933696670392, -0.2735421299054768, 0.1730499416589737, -0.10582517087459564, 0.215992271900177, -0.8882821798324585, 0.45011433959007263, -0.09138929843902588, -0.046379685401916504, 0.024876505136489868, -0.006694138050079346, -0.25900542053492004, -0.6222712773316003, 0.7366571245699427,0.055054730250539,-0.934661865234375,0.4749908447265625,-0.09808349609375
20220224-1002,2022-02-24 10:03:06Z,u01, 241,40,movements,el-ex, rt, d,219681.51633941667, -1.467288689128656, -0.47125248093277144, -0.26668575873868405, 0.24820257723331451, -0.08069777488708496, 0.1964302361011505, -0.886231541633606, 0.45400258898735046, -0.09206074476242065, -0.015700161457061768, 0.013938665390014648, -0.02790384739637375, -0.2584144417328486, -0.6222472207777404, 0.7365866745317564,0.058910133402858444,-0.90948486328125,0.46905517578125,-0.1179351806640625
20220224-1002,2022-02-24 10:03:06Z,u01, 242,40,movements,el-ex, rt, d,219681.54128641667, -1.466547427449363, -0.4759560624047579, -0.260676457268268, 0.11212043464183807, -0.06829210370779037, 0.2182011753320694, -0.8840295672416687, 0.4581884443759918, -0.0924944207072258, -0.016345858573913574, 0.004366487264633179, -0.039890825748443604, -0.2582024512415061, -0.6221609776253464, 0.7364297292236586,0.06259837700128612,-0.9003753662109375,0.462554931640625,-0.13238525390625
20220224-1002,2022-02-24 10:03:06Z,u01, 243,40,movements,el-ex, rt, d,219681.5662324167, -1.4679097078956835, -0.48173323110031496, -0.25963141043290455, -0.08000529557466507, -0.09268606454133987, 0.25545966625213623, -0.8815069198608398, 0.46331584453582764, -0.09101665019989014, -0.015114784240722656, -0.008970141410827637, -0.03615009784698486, -0.25984112313851093, -0.6220725569569526, 0.7357117887447164,0.06508846311561271,-0.8948974609375,0.453369140625,-0.1271209716796875
20220224-1002,2022-02-24 10:03:06Z,u01, 244,40,movements,el-ex, rt, d,219681.5911794167, -1.4711794734781627, -0.4884438474421018, -0.2622050385354586, -0.13398051261901855, -0.06908060610294342, 0.2505596876144409, -0.8786861896514893, 0.4692522883415222, -0.08782264590263367, -0.04024380445480347, 0.0017102360725402832, -0.03755878657102585, -0.26285970490315275, -0.6220879771346779, 0.7344707970986734,0.06681267235418044,-0.9189300537109375,0.4709625244140625,-0.1253814697265625
20220224-1002,2022-02-24 10:03:06Z,u01, 245,40,movements,el-ex, rt, d,219681.61612541668, -1.473818338337193, -0.4946414071761403, -0.2647344887039223, -0.07637158036231995, -0.05388227477669716, 0.24179011583328247, -0.876003623008728, 0.47471606731414795, -0.08522039651870728, -0.015903115272521973, 0.007309079170227051, -0.024642884731292725, -0.26569858923613876, -0.6219276985719911, 0.7334469434570849,0.0683073242710875,-0.8935699462890625,0.4839324951171875,-0.1108245849609375
20220224-1002,2022-02-24 10:03:06Z,u01, 246,40,movements,el-ex, rt, d,219681.64107241668, -1.4744269336311233, -0.500662161577659, -0.26516151995880083, -0.0013427427038550377, 0.023166969418525696, 0.23806968331336975, -0.8731944561004639, 0.48000654578208923, -0.08441068977117538, -0.025929689407348633, 0.005375534296035767, -0.02705472707748413, -0.26788587528850827, -0.6213145836799854, 0.7329874009609455,0.07024830435389917,-0.8991241455078125,0.485382080078125,-0.1114654541015625
20220224-1002,2022-02-24 10:03:06Z,u01, 247,40,movements,el-ex, rt, d,219681.66601941668, -1.4726430385568394, -0.5063583410244914, -0.26342153838744414, 0.07042991369962692, 0.0562685951590538, 0.20505701005458832, -0.8703073859214783, 0.4849957823753357, -0.0856989175081253, -0.011101365089416504, -0.016901910305023193, 0.02864629030227661, -0.26937182709655677, -0.6201526916042014, 0.7332022918358944,0.0725528553437614,-0.885162353515625,0.4701080322265625,-0.0578155517578125
