SessionID,LoggingTime,UID,RecNo,Hertz,Activity,MoveType,Wrist,Side,TimeStamp,DMRoll,DMPitch,DMYaw,DMRotX,DMRotY,DMRotZ,DMGrvX,DMGrvY,DMGrvZ,DMUAccelX,DMUAccelY,DMUAccelZ,DMQuatX,DMQuatY,DMQuatW,DMQuatZ,AccelroX,AceelroY,AceelroZ
20220224-0957,2022-02-24 09:57:20Z,u01, 1,40,movements,el-ex, rt, d,219335.278419375, -1.4850791786329733, -0.429932491431975, -0.39552757380130393, 0.09875526279211044, 0.037837058305740356, -0.12401735782623291, -0.9056565761566162, 0.41680943965911865, -0.07782098650932312, 0.014817953109741211, 0.0027920305728912354, 0.009583711624145508, -0.2838894279337134, -0.616843820811203, 0.7341052492460388,1.3877787807814457e-17,-0.900848388671875,0.4201202392578125,-0.071746826171875
20220224-0957,2022-02-24 09:57:20Z,u01, 2,40,movements,el-ex, rt, d,219335.303366375, -1.4818977473671708, -0.42634348747619866, -0.3917867910535876, 0.14789947867393494, 0.08859977126121521, -0.1296662539243698, -0.9068886041641235, 0.4135443866252899, -0.08083416521549225, -0.016023993492126465, 0.01156550645828247, 0.01154404878616333, -0.2815180349122041, -0.6167094240693278, 0.7351306241886355,-0.00029242220427698473,-0.9008331298828125,0.4248504638671875,-0.0661773681640625
20220224-0957,2022-02-24 09:57:20Z,u01, 3,40,movements,el-ex, rt, d,219335.328312375, -1.478739322145004, -0.42331775811070227, -0.38960474667411377, 0.031431250274181366, -0.38029274344444275, 0.22374840080738068, -0.9078705906867981, 0.4107876121997833, -0.08381274342536926, 0.017260849475860596, 0.0017795264720916748, 0.0032159090042114258, -0.27981502348442067, -0.6162768715493405, 0.7361423146820169,-0.0009571563283655299,-0.9164581298828125,0.4218597412109375,-0.0755157470703125
20220224-0957,2022-02-24 09:57:20Z,u01, 4,40,movements,el-ex, rt, d,219335.35325937503, -1.4758358054487308, -0.4196417352733962, -0.38909910805943765, 0.04069668799638748, 0.14095106720924377, -0.13187727332115173, -0.9091204404830933, 0.40743330121040344, -0.08659098297357559, 0.005250871181488037, -0.013253062963485718, -0.008135490119457245, -0.27840310015180386, -0.6157891047102194, 0.737081787056798,-0.002418368401671908,-1.3126220703125,0.462249755859375,0.0091094970703125
20220224-0957,2022-02-24 09:57:20Z,u01, 5,40,movements,el-ex, rt, d,219335.37820537502, -1.4724704378011568, -0.41604608455462494, -0.3895444130332605, -0.03213490918278694, 0.13288061320781708, -0.1625979095697403, -0.9102761149406433, 0.4041469991207123, -0.08979326486587524, 0.01217418909072876, 0.008938997983932495, 0.010661236941814423, -0.2773053106769661, -0.6149838461025104, 0.7381589113984564,-0.004263342757864261,-0.9200592041015625,0.4113006591796875,-0.07574462890625
20220224-0957,2022-02-24 09:57:20Z,u01, 6,40,movements,el-ex, rt, d,219335.40315237502, -1.4704739436046947, -0.41220876059763184, -0.391667212193101, -0.044654130935668945, 0.14030690491199493, -0.17687425017356873, -0.9116312265396118, 0.4006340503692627, -0.09176508337259293, -0.020757079124450684, 0.012329816818237305, 0.015379667282104492, -0.2766382261111695, -0.6144825067537951, 0.7388089936084528,-0.006616595608696305,-0.898956298828125,0.416839599609375,-0.0858612060546875
20220224-0957,2022-02-24 09:57:20Z,u01, 7,40,movements,el-ex, rt, d,219335.428099375, -1.4666393430174425, -0.40747370539122535, -0.39170598930746137, 0.0688491016626358, 0.14757248759269714, -0.19928880035877228, -0.9131491184234619, 0.3962911367416382, -0.09545630216598511, -0.02732628583908081, 0.02712497115135193, 0.02583051472902298, -0.27501042936282166, -0.6137109359337296, 0.7400347955191772,-0.00875284439717218,-0.945709228515625,0.4242706298828125,-0.0670318603515625
20220224-0957,2022-02-24 09:57:20Z,u01, 8,40,movements,el-ex, rt, d,219335.453045375, -1.4626717527652688, -0.4022157308242572, -0.39100734597803655, 0.019588671624660492, 0.15102353692054749, -0.2078544646501541, -0.9148220419883728, 0.3914582133293152, -0.0993020236492157, -0.018100202083587646, 0.00032639503479003906, -0.00802825391292572, -0.27296697664065095, -0.613056292482779, 0.7413057375016194,-0.010803056807092731,-0.933563232421875,0.4036407470703125,-0.0880126953125
20220224-0957,2022-02-24 09:57:20Z,u01, 9,40,movements,el-ex, rt, d,219335.47799162503, -1.4595285853654134, -0.39704890412218424, -0.3925985717419717, -0.09685378521680832, 0.15047599375247955, -0.20867286622524261, -0.9165033102035522, 0.38669851422309875, -0.10240019112825394, -0.015472948551177979, -0.009379178285598755, -0.008882038295269012, -0.2716521290320816, -0.6123765374507104, 0.7423047658738579,-0.013552796219778993,-0.9312744140625,0.38055419921875,-0.112640380859375
20220224-0957,2022-02-24 09:57:20Z,u01, 10,40,movements,el-ex, rt, d,219335.50293762502, -1.4581538052380085, -0.3930376576268921, -0.3967113738834791, -0.11764055490493774, 0.14802028238773346, -0.16975022852420807, -0.9178957343101501, 0.38299620151519775, -0.1038336232304573, -0.012814104557037354, -0.020493149757385254, -0.011721134185791016, -0.27151413798971075, -0.6118523208447885, 0.7427253887353167,-0.016609133350899363,-0.934295654296875,0.3682403564453125,-0.1094970703125
20220224-0957,2022-02-24 09:57:20Z,u01, 11,40,movements,el-ex, rt, d,219335.52788462501, -1.457490931884309, -0.3904077291155624, -0.4012691238450863, -0.17833103239536285, 0.10472587496042252, -0.1194869875907898, -0.9188242554664612, 0.38056549429893494, -0.10455556213855743, -0.011534571647644043, -0.017009586095809937, -0.015958301723003387, -0.2719927371051839, -0.6113445589759309, 0.7429040170124742,-0.019271863777574408,-0.9305267333984375,0.3683929443359375,-0.118682861328125
20220224-0957,2022-02-24 09:57:20Z,u01, 12,40,movements,el-ex, rt, d,219335.552831625, -1.4568385719781385, -0.3881323704224955, -0.40687343260226544, -0.20078004896640778, 0.10944919288158417, -0.11027651280164719, -0.9196138381958008, 0.3784603774547577, -0.10525314509868622, -0.01677227020263672, -0.0366634726524353, -0.019990921020507812, -0.2729115926199197, -0.6106494007473448, 0.7430569510941817,-0.022203695175189858,-0.9378509521484375,0.345123291015625,-0.1279296875
20220224-0957,2022-02-24 09:57:20Z,u01, 13,40,movements,el-ex, rt, d,219335.577777625, -1.4554036418370428, -0.38551858823707796, -0.41105949064892533, -0.09146151691675186, 0.10940451920032501, -0.12182630598545074, -0.9204412698745728, 0.3760397136211395, -0.10668613761663437, -0.01217585802078247, -0.017122507095336914, -0.00935690850019455, -0.273268584957201, -0.6099026242630345, 0.7434558344496295,-0.024828991973945072,-0.9361419677734375,0.3484344482421875,-0.12030029296875
20220224-0957,2022-02-24 09:57:20Z,u01, 14,40,movements,el-ex, rt, d,219335.602724625, -1.4527867041533031, -0.38232746935500705, -0.41349147885483567, -0.11140589416027069, 0.12146764248609543, -0.11949757486581802, -0.9213460683822632, 0.37308090925216675, -0.1092352569103241, -0.020090818405151367, -0.01451459527015686, -0.01065303385257721, -0.2728716371042316, -0.6090348452455059, 0.7442313618787574,-0.02715637633492203,-0.9355316162109375,0.364898681640625,-0.1238861083984375
20220224-0957,2022-02-24 09:57:20Z,u01, 15,40,movements,el-ex, rt, d,219335.62767062502, -1.4507212490887602, -0.37874163242991915, -0.41809774224528407, -0.2344001978635788, 0.11830153316259384, -0.1412823647260666, -0.9224407076835632, 0.36975157260894775, -0.11129754781723022, -0.014555871486663818, -0.015091508626937866, -0.003723159432411194, -0.27300164747756106, -0.6081293651861132, 0.744800547742487,-0.030348788167933308,-0.93975830078125,0.3568572998046875,-0.117095947265625
20220224-0957,2022-02-24 09:57:20Z,u01, 16,40,movements,el-ex, rt, d,219335.65261762502, -1.4503574513633644, -0.3752431829930061, -0.4259096421927011, -0.34018197655677795, 0.09497018158435822, -0.13517886400222778, -0.9236786365509033, 0.36649879813194275, -0.11178784817457199, -0.003445446491241455, -0.006482928991317749, -0.016569018363952637, -0.27415793824512824, -0.6074071945189654, 0.7447855643213516,-0.03447353603483064,-0.9286346435546875,0.3556060791015625,-0.1192779541015625
20220224-0957,2022-02-24 09:57:20Z,u01, 17,40,movements,el-ex, rt, d,219335.67756462502, -1.4511884854456465, -0.37330798618991246, -0.43522156875252277, -0.3158910274505615, 0.09393421560525894, -0.11233880370855331, -0.9244735240936279, 0.36469757556915283, -0.11110461503267288, -0.00878441333770752, -0.01388278603553772, -0.022104546427726746, -0.27633011406189173, -0.6067036847220253, 0.7443602952952334,-0.038470803780899815,-0.927947998046875,0.348297119140625,-0.12506103515625
20220224-0957,2022-02-24 09:57:20Z,u01, 18,40,movements,el-ex, rt, d,219335.702510625, -1.4518245514054564, -0.37167464625425184, -0.4427390649773357, -0.24066200852394104, 0.07904081791639328, -0.09376078099012375, -0.9251342415809631, 0.36317625641822815, -0.11058711260557175, 0.0018402934074401855, -0.013658463954925537, -0.01545039564371109, -0.27805818772349183, -0.6061271209376466, 0.7440111167286034,-0.041724352130265624,-0.9258880615234375,0.3550262451171875,-0.138427734375
20220224-0957,2022-02-24 09:57:20Z,u01, 19,40,movements,el-ex, rt, d,219335.727457625, -1.452273131789774, -0.3705624211290742, -0.44887547015502116, -0.19684995710849762, 0.07282660156488419, -0.052781395614147186, -0.9255844354629517, 0.3621397316455841, -0.11021982133388519, -0.021727025508880615, -0.021533042192459106, 0.004720628261566162, -0.2795431551745693, -0.6055953387909219, 0.743737958311934,-0.04431505016479231,-0.9410552978515625,0.3433074951171875,-0.11126708984375
20220224-0957,2022-02-24 09:57:20Z,u01, 20,40,movements,el-ex, rt, d,219335.75240362503, -1.452518200971917, -0.3701147164847579, -0.45415515715978133, -0.21627268195152283, 0.05800870805978775, -0.03532790392637253, -0.9257722496986389, 0.3617223799228668, -0.11001209914684296, -0.013665616512298584, -0.02567809820175171, -0.004764437675476074, -0.28099241552355003, -0.6050100938351209, 0.7435413400627828,-0.046393086696139715,-0.945648193359375,0.34368896484375,-0.1103057861328125
20220224-0957,2022-02-24 09:57:20Z,u01, 21,40,movements,el-ex, rt, d,219335.77735062502, -1.4537824752695168, -0.3702991478531306, -0.46123477512413935, -0.2866663634777069, 0.053891055285930634, -0.02285325527191162, -0.9258444905281067, 0.36189430952072144, -0.10883381217718124, -0.013456165790557861, -0.028047233819961548, -0.016501858830451965, -0.2832265355919712, -0.6044549818288906, 0.7429920369530699,-0.04878427961215827,-0.93841552734375,0.33447265625,-0.124969482421875
20220224-0957,2022-02-24 09:57:20Z,u01, 22,40,movements,el-ex, rt, d,219335.80229762502, -1.45579163702844, -0.3705738902627902, -0.4688684389684639, -0.23138459026813507, 0.005812746472656727, -0.0016995016485452652, -0.9259622693061829, 0.3621504306793213, -0.10696198046207428, -0.010942578315734863, -0.010023385286331177, -0.007143184542655945, -0.28567745215359736, -0.6040756589267179, 0.7421962683821929,-0.05124114091661518,-0.9369659423828125,0.3462677001953125,-0.119903564453125
20220224-0957,2022-02-24 09:57:20Z,u01, 23,40,movements,el-ex, rt, d,219335.827243625, -1.4568790269430283, -0.3706929844303289, -0.47206462173462205, -0.014948233962059021, -0.006020343862473965, -0.02124910056591034, -0.9260351657867432, 0.36226144433021545, -0.10595013201236725, -0.02258843183517456, 0.005811065435409546, 0.0013054758310317993, -0.286711672928026, -0.6040044283473477, 0.7417862862678035,-0.052231521659166114,-0.9458160400390625,0.36712646484375,-0.1052398681640625
20220224-0957,2022-02-24 09:57:20Z,u01, 24,40,movements,el-ex, rt, d,219335.852190625, -1.4561055683043107, -0.3691564130495873, -0.4705566227507216, 0.061513885855674744, -0.057049237191677094, -0.021026793867349625, -0.926504909992218, 0.36082881689071655, -0.10672993957996368, -0.0036556124687194824, -0.00017207860946655273, 5.5789947509765625e-05, -0.2857098818329632, -0.6041563498145799, 0.7420445524662883,-0.05229616357842855,-0.9333953857421875,0.36541748046875,-0.10479736328125
20220224-0957,2022-02-24 09:57:20Z,u01, 25,40,movements,el-ex, rt, d,219335.877136625, -1.456596054023736, -0.36806585972364303, -0.46905345428764367, 0.0436946377158165, -0.052603159099817276, -0.020345889031887054, -0.9269475340843201, 0.3598115146160126, -0.10632026195526123, -0.02712351083755493, 0.003607034683227539, -0.002352774143218994, -0.28489476161604027, -0.6047105444497579, 0.741925036522199,-0.05203283502765613,-0.94317626953125,0.359161376953125,-0.107452392578125
20220224-0957,2022-02-24 09:57:20Z,u01, 26,40,movements,el-ex, rt, d,219335.90208362503, -1.4573644217735557, -0.36709850876417366, -0.4675257982838253, 0.08410071581602097, -0.061480406671762466, -0.040534645318984985, -0.9273743033409119, 0.3589087724685669, -0.10564734041690826, -0.01024770736694336, 0.014412730932235718, 0.006495781242847443, -0.28412105582014163, -0.6053524228285116, 0.7417228827217608,-0.05168014596775693,-0.95086669921875,0.3712615966796875,-0.101837158203125
20220224-0957,2022-02-24 09:57:20Z,u01, 27,40,movements,el-ex, rt, d,219335.92702962502, -1.4584155061622286, -0.36584303613760594, -0.4650519338162544, 0.10246807336807251, -0.0907880961894989, -0.044548165053129196, -0.9279318451881409, 0.3577366769313812, -0.10472297668457031, -0.0053261518478393555, 0.016073107719421387, 0.0007343441247940063, -0.28296838889704257, -0.6062733733732343, 0.7414559999704977,-0.05103353915042158,-0.930023193359375,0.373992919921875,-0.10028076171875
20220224-0957,2022-02-24 09:57:20Z,u01, 28,40,movements,el-ex, rt, d,219335.95197662502, -1.4596709513653645, -0.36446175108405116, -0.46242006784264184, 0.10338160395622253, -0.08552662283182144, -0.054914653301239014, -0.9285529255867004, 0.35644644498825073, -0.10361264646053314, -0.024114370346069336, 0.014677852392196655, 0.019002720713615417, -0.2817281220071712, -0.6073079468052223, 0.7411289036889271,-0.05034287549796279,-0.947418212890625,0.374298095703125,-0.0945587158203125
20220224-0957,2022-02-24 09:57:21Z,u01, 29,40,movements,el-ex, rt, d,219335.976923625, -1.4611076334702116, -0.36289127319052145, -0.45957930024050153, 0.14150947332382202, -0.09893470257520676, -0.03887350112199783, -0.9292559623718262, 0.35497868061065674, -0.10233964025974274, -0.010120809078216553, 0.011888325214385986, 0.02464199811220169, -0.28036208320258604, -0.60846304890629, 0.740748420180148,-0.049614228867142326,-0.9413909912109375,0.3670654296875,-0.082427978515625
20220224-0957,2022-02-24 09:57:21Z,u01, 30,40,movements,el-ex, rt, d,219336.001869625, -1.4617587236904508, -0.3614013011589131, -0.45431004600067343, 0.26289889216423035, -0.10919400304555893, -0.06201264262199402, -0.9298471808433533, 0.3535853624343872, -0.10179203748703003, 0.0060343146324157715, 0.006399989128112793, 0.025467634201049805, -0.2782620781799616, -0.6096508805639246, 0.740665407658075,-0.04807081620947663,-0.935455322265625,0.3578948974609375,-0.07879638671875
20220224-0957,2022-02-24 09:57:21Z,u01, 31,40,movements,el-ex, rt, d,219336.026816625, -1.4620312473473192, -0.3589306518801768, -0.44770946316579857, 0.2507294714450836, -0.08696479350328445, -0.09841106086969376, -0.9307405352592468, 0.35127323865890503, -0.10163315385580063, -0.0015867352485656738, 0.01177912950515747, 0.011057019233703613, -0.27540529156667853, -0.6110117411789158, 0.7407173568206828,-0.04641623301264601,-0.927032470703125,0.363372802734375,-0.0805816650390625
20220224-0957,2022-02-24 09:57:21Z,u01, 32,40,movements,el-ex, rt, d,219336.05176262502, -1.4630519272849118, -0.35616796333982714, -0.4413871318043109, 0.3006637990474701, -0.09167312830686569, -0.1018219143152237, -0.9318049550056458, 0.34868526458740234, -0.10078708082437515, 0.008327782154083252, 0.016060829162597656, 0.009707450866699219, -0.27254378610445734, -0.6126388382212917, 0.7405275236538295,-0.04486092128204516,-0.92364501953125,0.3690643310546875,-0.093048095703125
20220224-0957,2022-02-24 09:57:21Z,u01, 33,40,movements,el-ex, rt, d,219336.07670962502, -1.4629939972266974, -0.35267115573096974, -0.4332137143066076, 0.3508864939212799, -0.06561623513698578, -0.13273482024669647, -0.9330058097839355, 0.34540578722953796, -0.10097164660692215, 0.008521437644958496, 0.025871098041534424, 0.027775272727012634, -0.2688300336685432, -0.6142024014046418, 0.7406995147605551,-0.043014126031242675,-0.9234161376953125,0.367431640625,-0.0767974853515625
20220224-0957,2022-02-24 09:57:21Z,u01, 34,40,movements,el-ex, rt, d,219336.10165662502, -1.4626313766415877, -0.34872964203761864, -0.42530752026471563, 0.28071051836013794, -0.07633192092180252, -0.14679890871047974, -0.9343150854110718, 0.34170418977737427, -0.10145612061023712, 0.023014545440673828, 0.019028782844543457, 0.011642947793006897, -0.26502936937869553, -0.6156552385377229, 0.7409517122252917,-0.04145480731902737,-0.914764404296875,0.373321533203125,-0.0829620361328125
20220224-0957,2022-02-24 09:57:21Z,u01, 35,40,movements,el-ex, rt, d,219336.126602625, -1.4624720281327361, -0.34424551858075103, -0.42021245785329736, 0.14501753449440002, -0.03770703449845314, -0.17387446761131287, -0.9358130693435669, 0.3374865651130676, -0.10176967084407806, 0.0032873153686523438, 0.02088138461112976, 0.01287202537059784, -0.2619029930787504, -0.6168646436095668, 0.7410780017866622,-0.04109048634617139,-0.924285888671875,0.3575286865234375,-0.0889129638671875
20220224-0957,2022-02-24 09:57:21Z,u01, 36,40,movements,el-ex, rt, d,219336.151549625, -1.4628086525206918, -0.3388244681437897, -0.4183372857151507, 0.024769017472863197, -0.06412212550640106, -0.24865975975990295, -0.9376522898674011, 0.332378625869751, -0.10165032744407654, 0.03665131330490112, 0.019092321395874023, 0.005504727363586426, -0.25945060828666733, -0.6179483957080001, 0.7409771321948891,-0.04216801263302741,-0.9207916259765625,0.3602447509765625,-0.094085693359375
20220224-0957,2022-02-24 09:57:21Z,u01, 37,40,movements,el-ex, rt, d,219336.17649562503, -1.46583293460208, -0.33237697419238227, -0.4209581488324998, -0.15561692416667938, -0.08856581896543503, -0.27570295333862305, -0.9400670528411865, 0.3262908160686493, -0.09903659671545029, 0.013171911239624023, 0.02009892463684082, -0.002205371856689453, -0.2580901842087092, -0.6195733666244341, 0.7399334665429997,-0.044908563918008765,-0.90838623046875,0.3462677001953125,-0.0975799560546875
20220224-0957,2022-02-24 09:57:21Z,u01, 38,40,movements,el-ex, rt, d,219336.20144262502, -1.469463076554867, -0.32578828177662295, -0.4262850224313403, -0.1556779146194458, -0.08444511145353317, -0.2829637825489044, -0.942538857460022, 0.32005569338798523, -0.09583879262208939, -0.015514850616455078, 0.02341964840888977, -0.0002610236406326294, -0.2575437710594285, -0.6210892136207742, 0.7386172595265785,-0.04862171575439718,-0.964599609375,0.35235595703125,-0.1025390625
20220224-0957,2022-02-24 09:57:21Z,u01, 39,40,movements,el-ex, rt, d,219336.22638962502, -1.4715509750669669, -0.3192142292322727, -0.4270483172516037, 0.20763453841209412, -0.06223667785525322, -0.26109251379966736, -0.9448100924491882, 0.31382057070732117, -0.09407708793878555, -0.016661465167999268, 0.015708208084106445, -0.00032901763916015625, -0.25555630168104926, -0.6226174038236868, 0.7378707840631099,-0.05084541072988759,-0.95611572265625,0.330047607421875,-0.089202880859375
20220224-0957,2022-02-24 09:57:21Z,u01, 40,40,movements,el-ex, rt, d,219336.251335625, -1.4702208881982168, -0.3119242088243058, -0.41735152301571166, 0.5296799540519714, -0.07215642184019089, -0.24058830738067627, -0.9469351768493652, 0.3068905472755432, -0.09556084871292114, -0.025705814361572266, 0.03144258260726929, 0.007868647575378418, -0.2499705097578007, -0.6242870487988883, 0.7384387885224478,-0.04988513031297313,-0.9646453857421875,0.3439483642578125,-0.0919647216796875
20220224-0957,2022-02-24 09:57:21Z,u01, 41,40,movements,el-ex, rt, d,219336.276282625, -1.4676254806381424, -0.30491743428629975, -0.4038736188618639, 0.5034886002540588, -0.045847050845623016, -0.2173604965209961, -0.9487996101379395, 0.30021440982818604, -0.09823726117610931, -0.04253339767456055, 0.017626166343688965, 0.012421846389770508, -0.24325302420561246, -0.6258668679826149, 0.7394964076804547,-0.04757805455934512,-0.9864044189453125,0.325714111328125,-0.08697509765625
20220224-0957,2022-02-24 09:57:21Z,u01, 42,40,movements,el-ex, rt, d,219336.301228625, -1.4655745317435325, -0.2987328294340438, -0.3949601892058798, 0.20571479201316833, -0.00952872633934021, -0.19664429128170013, -0.9504244327545166, 0.2943094074726105, -0.10037607699632645, -0.0416104793548584, 0.0021688640117645264, 0.009922027587890625, -0.23824853063664891, -0.6269366774527778, 0.7402812435269098,-0.04660154981641797,-1.00146484375,0.308319091796875,-0.090423583984375
20220224-0957,2022-02-24 09:57:21Z,u01, 43,40,movements,el-ex, rt, d,219336.326175625, -1.4653743334692007, -0.2943345160950893, -0.39371694121193096, -0.028094861656427383, -0.012691962532699108, -0.1383465677499771, -0.951682448387146, 0.2901030480861664, -0.10070159286260605, -0.022392868995666504, -0.013506978750228882, 0.0012143924832344055, -0.23631099700689998, -0.6275398913184448, 0.7403251565459739,-0.04763912475331335,-0.981170654296875,0.283935546875,-0.09552001953125
20220224-0957,2022-02-24 09:57:21Z,u01, 44,40,movements,el-ex, rt, d,219336.35112162502, -1.4659579113486791, -0.29167571552740235, -0.3949613230695085, -0.01397697813808918, -0.0013688663020730019, -0.09460161626338959, -0.9525047540664673, 0.28755757212638855, -0.10022655874490738, -0.052820563316345215, 0.01845744252204895, 0.01015394926071167, -0.23578249780228128, -0.6279278110350149, 0.7400810232263656,-0.04892181582861145,-0.98553466796875,0.291595458984375,-0.09344482421875
20220224-0957,2022-02-24 09:57:21Z,u01, 45,40,movements,el-ex, rt, d,219336.37606862502, -1.4654667200590334, -0.2900397174631602, -0.3944211774921712, 0.06038413941860199, 0.02638300135731697, -0.03072449564933777, -0.9529221653938293, 0.28599029779434204, -0.10074375569820404, -0.060307443141937256, 0.025243282318115234, 0.012853182852268219, -0.23502645779358097, -0.628005324759146, 0.7402289047102629,-0.04932798220270193,-1.012481689453125,0.30841064453125,-0.0913848876953125
20220224-0957,2022-02-24 09:57:21Z,u01, 46,40,movements,el-ex, rt, d,219336.40101562502, -1.4642055732409618, -0.2896885457856233, -0.39317027571925983, 0.005798622965812683, 0.040266528725624084, 0.0053817760199308395, -0.9528939723968506, 0.2856537699699402, -0.10195610672235489, -0.050798654556274414, 0.018545448780059814, 0.001080334186553955, -0.2344793650428959, -0.62772714933059, 0.7406512445376151,-0.04913050597985312,-1.0067901611328125,0.31036376953125,-0.0965118408203125
20220224-0957,2022-02-24 09:57:21Z,u01, 47,40,movements,el-ex, rt, d,219336.425961625, -1.4639982700691403, -0.2903735573375531, -0.39521240684546466, -0.16179586946964264, 0.02519829198718071, 0.029329387471079826, -0.9526780843734741, 0.2863101661205292, -0.10213276743888855, -0.05292189121246338, 0.021627485752105713, -0.006433427333831787, -0.23535570588907842, -0.6273287079773203, 0.7406741506329231,-0.049681777785390346,-1.0042877197265625,0.3075103759765625,-0.10333251953125
20220224-0957,2022-02-24 09:57:21Z,u01, 48,40,movements,el-ex, rt, d,219336.450908625, -1.4654518840259707, -0.29213609253250333, -0.4008000554820334, -0.22880879044532776, -0.0036614499986171722, 0.06807292252779007, -0.9523221254348755, 0.2879984676837921, -0.10069460421800613, -0.053949177265167236, 0.021495550870895386, -0.0028819888830184937, -0.23776316153155705, -0.626993921987624, 0.7400996345690282,-0.05098804544506608,-1.005645751953125,0.3077545166015625,-0.1049346923828125
20220224-0957,2022-02-24 09:57:21Z,u01, 49,40,movements,el-ex, rt, d,219336.47585554168, -1.4670410190243628, -0.2942996435107791, -0.40544014897780156, -0.1345137357711792, -0.015059313736855984, 0.06705739349126816, -0.951859176158905, 0.29006966948509216, -0.09911636263132095, -0.05615180730819702, 0.047149598598480225, -0.020359888672828674, -0.24001631135250445, -0.6267646995732269, 0.7395107929550763,-0.05178947475804957,-1.010772705078125,0.3299560546875,-0.108734130859375
20220224-0957,2022-02-24 09:57:21Z,u01, 50,40,movements,el-ex, rt, d,219336.50080254168, -1.4685304855023544, -0.29631231632938815, -0.40783815617176067, -0.06511502712965012, -0.05284171178936958, 0.07033640891313553, -0.9514228105545044, 0.29199522733688354, -0.09763867408037186, -0.02945786714553833, 0.03445127606391907, -0.011492125689983368, -0.24151032792699229, -0.6267802054820208, 0.7390086796762815,-0.05182138019399872,-0.9879150390625,0.332427978515625,-0.1195068359375
20220224-0957,2022-02-24 09:57:21Z,u01, 51,40,movements,el-ex, rt, d,219336.52574954167, -1.4704757130781776, -0.2982559621183919, -0.40834697685759846, 0.011082202196121216, -0.08464477956295013, 0.0866348147392273, -0.9510445594787598, 0.29385361075401306, -0.0957307368516922, -0.023183345794677734, 0.03379836678504944, -0.004595696926116943, -0.24239868411723842, -0.6271981408519679, 0.7384118095736623,-0.05112139428959479,-0.97552490234375,0.328887939453125,-0.1010284423828125
20220224-0957,2022-02-24 09:57:21Z,u01, 52,40,movements,el-ex, rt, d,219336.5506955417, -1.4722703695502726, -0.3003565125187421, -0.4070212023473778, 0.06195124238729477, -0.08972662687301636, 0.09073395282030106, -0.950598418712616, 0.29586076736450195, -0.09396286308765411, -0.03418850898742676, 0.026603221893310547, 0.0039055943489074707, -0.2427607022218752, -0.6277625428830933, 0.7379095604696533,-0.04970837267021576,-0.9812164306640625,0.3291778564453125,-0.100341796875
20220224-0957,2022-02-24 09:57:21Z,u01, 53,40,movements,el-ex, rt, d,219336.5756425417, -1.4736983642034451, -0.30224836128116667, -0.4050569239761143, 0.0780281126499176, -0.07870347052812576, 0.08451846987009048, -0.9501729011535645, 0.29766741394996643, -0.09255089610815048, -0.03281354904174805, 0.027497410774230957, 0.012640655040740967, -0.2428382049105746, -0.6282946442721129, 0.7375328860431329,-0.04817399391513877,-0.9848785400390625,0.3218231201171875,-0.083282470703125
20220224-0957,2022-02-24 09:57:21Z,u01, 54,40,movements,el-ex, rt, d,219336.60058854168, -1.4744583640154552, -0.30395914831493726, -0.40117878780789223, 0.2179500311613083, -0.08151503652334213, 0.07663518190383911, -0.9497345685958862, 0.2993001937866211, -0.09177960455417633, -0.026537954807281494, 0.03927704691886902, 0.011182732880115509, -0.2422333715055663, -0.6288347876881164, 0.7374054260633918,-0.04607585860563393,-0.97430419921875,0.3267974853515625,-0.0872955322265625
20220224-0957,2022-02-24 09:57:21Z,u01, 55,40,movements,el-ex, rt, d,219336.62553554168, -1.4741434929064587, -0.3050759326322582, -0.39380510181418427, 0.30705559253692627, -0.07137012481689453, 0.06409022957086563, -0.949372410774231, 0.3003655970096588, -0.0920463353395462, -0.04028213024139404, 0.045322269201278687, 0.023000359535217285, -0.2402961176610491, -0.6294716885328947, 0.7376805383763725,-0.0430185641587577,-0.9848175048828125,0.3421173095703125,-0.0702972412109375
20220224-0957,2022-02-24 09:57:21Z,u01, 56,40,movements,el-ex, rt, d,219336.65048154167, -1.4739973720628412, -0.30613930865727307, -0.38678036470062055, 0.19916725158691406, -0.07133463770151138, 0.069038987159729, -0.9490405321121216, 0.3013797104358673, -0.0921541377902031, -0.04090392589569092, 0.028988361358642578, 0.019034147262573242, -0.23845216118615695, -0.6301297457107147, 0.7378822132760601,-0.04008659413861823,-0.9863433837890625,0.33856201171875,-0.0720062255859375
20220224-0957,2022-02-24 09:57:21Z,u01, 57,40,movements,el-ex, rt, d,219336.67542854167, -1.474735675317232, -0.3075829108326072, -0.3836637830763415, 0.02550468221306801, -0.061921894550323486, 0.06943106651306152, -0.9486742615699768, 0.30275586247444153, -0.09141161292791367, -0.04696172475814819, 0.02968737483024597, 0.021450161933898926, -0.23798850585173598, -0.6305994486924255, 0.737722270773563,-0.03836267983231981,-0.996612548828125,0.3330535888671875,-0.0698089599609375
20220224-0957,2022-02-24 09:57:21Z,u01, 58,40,movements,el-ex, rt, d,219336.70037554167, -1.4768792983649737, -0.3096693504240928, -0.3849397098531731, -0.11863401532173157, -0.06486022472381592, 0.0766574889421463, -0.9482371807098389, 0.3047437369823456, -0.08931837975978851, -0.04514068365097046, 0.03563410043716431, 0.022393397986888885, -0.23915982180236067, -0.6309860457821169, 0.7370379055356191,-0.0378740366258391,-0.99261474609375,0.336822509765625,-0.06689453125
20220224-0957,2022-02-24 09:57:21Z,u01, 59,40,movements,el-ex, rt, d,219336.7253215417, -1.4798609249531314, -0.311994734438164, -0.3894976107052961, -0.23730610311031342, -0.06370501220226288, 0.07093694806098938, -0.9477908611297607, 0.3069576919078827, -0.08642610162496567, -0.04677700996398926, 0.03340485692024231, 0.0016177892684936523, -0.24146470180790242, -0.6312541074977684, 0.7360283700037542,-0.03840930328278995,-0.99639892578125,0.3426971435546875,-0.077239990234375
20220224-0957,2022-02-24 09:57:21Z,u01, 60,40,movements,el-ex, rt, d,219336.75026854168, -1.484474860267642, -0.3141678795540074, -0.397127996809034, -0.3364737331867218, -0.09933231770992279, 0.05987171083688736, -0.9475128650665283, 0.30902519822120667, -0.08199445903301239, -0.04749763011932373, 0.03350412845611572, -0.0056824758648872375, -0.2447185454606464, -0.6317559683710517, 0.7344412191273377,-0.03991856770473118,-0.987091064453125,0.3370513916015625,-0.0838470458984375
20220224-0957,2022-02-24 09:57:21Z,u01, 61,40,movements,el-ex, rt, d,219336.77521454167, -1.4898142800757823, -0.3165294133323235, -0.4050201855328596, -0.2395971119403839, -0.1235303282737732, 0.07570686936378479, -0.947206974029541, 0.31127026677131653, -0.07687488198280334, -0.05755370855331421, 0.03820177912712097, -0.003920309245586395, -0.2481375327455249, -0.6324478823727815, 0.7326166876169836,-0.041354495060012444,-1.0002899169921875,0.345611572265625,-0.08428955078125
20220224-0957,2022-02-24 09:57:21Z,u01, 62,40,movements,el-ex, rt, d,219336.80016154167, -1.4941122814076757, -0.3188568834518935, -0.40881966965312, -0.07366524636745453, -0.1291324943304062, 0.0813368558883667, -0.9468038082122803, 0.31348127126693726, -0.07274740189313889, -0.06703591346740723, 0.047267019748687744, -0.005224943161010742, -0.25022997045909445, -0.6332545001099221, 0.7312033406645908,-0.04141834921470848,-1.017059326171875,0.3573760986328125,-0.07794189453125
20220224-0957,2022-02-24 09:57:21Z,u01, 63,40,movements,el-ex, rt, d,219336.82510854167, -1.497697135123443, -0.32098257374210426, -0.4095447689502847, -0.01088834460824728, -0.14194989204406738, 0.08767478168010712, -0.9463917016983032, 0.31549909710884094, -0.0693039521574974, -0.06013906002044678, 0.03339308500289917, -0.007523953914642334, -0.2512629427143205, -0.6342041914562324, 0.7300759704523943,-0.04050980091299204,-1.008697509765625,0.355316162109375,-0.078094482421875
20220224-0957,2022-02-24 09:57:21Z,u01, 64,40,movements,el-ex, rt, d,219336.8500545417, -1.5011971424835344, -0.3230212919746797, -0.4092704670499872, 0.02146393433213234, -0.14091138541698456, 0.07530080527067184, -0.9459848403930664, 0.31743302941322327, -0.06594628840684891, -0.061980247497558594, 0.029704391956329346, -0.002245187759399414, -0.25194408818013836, -0.6352566658916384, 0.7289929299568846,-0.039273795021686445,-1.007904052734375,0.3459625244140625,-0.0706787109375
20220224-0957,2022-02-24 09:57:21Z,u01, 65,40,movements,el-ex, rt, d,219336.8750015417, -1.504203095918714, -0.32494056730755694, -0.4074990832202333, 0.11855679005384445, -0.15243647992610931, 0.09333387017250061, -0.9455692768096924, 0.31925246119499207, -0.06306175887584686, -0.04382598400115967, 0.017280131578445435, 0.004971615970134735, -0.2520950057835513, -0.636331067505992, 0.7280918243602162,-0.03759376520360644,-0.9947662353515625,0.340423583984375,-0.0646209716796875
20220224-0957,2022-02-24 09:57:21Z,u01, 66,40,movements,el-ex, rt, d,219336.89994754168, -1.5060355409395547, -0.32721888642853825, -0.4023697207505501, 0.2567487359046936, -0.11939790099859238, 0.11582446098327637, -0.9449547529220581, 0.3214107155799866, -0.061281707137823105, -0.051642417907714844, 0.00814858078956604, 0.010424204170703888, -0.25127318119709413, -0.6373546377414399, 0.7276231918650256,-0.0347166696755056,-0.994659423828125,0.329986572265625,-0.0470733642578125
20220224-0957,2022-02-24 09:57:21Z,u01, 67,40,movements,el-ex, rt, d,219336.92489454168, -1.5061955599232502, -0.32996557485846195, -0.39454801385967414, 0.30087608098983765, -0.10576597601175308, 0.1449621021747589, -0.9440801739692688, 0.3240104615688324, -0.06107328459620476, -0.0346185564994812, -0.007909387350082397, 0.005058348178863525, -0.24972037894656843, -0.6380463074394125, 0.727723324384157,-0.030910160944230755,-0.9865570068359375,0.3227691650390625,-0.0533447265625
20220224-0957,2022-02-24 09:57:21Z,u01, 68,40,movements,el-ex, rt, d,219336.94984054167, -1.5060250894377896, -0.33360248032255324, -0.386891647231897, 0.2579645812511444, -0.0738954022526741, 0.17935150861740112, -0.9428874850273132, 0.3274490237236023, -0.06115753576159477, -0.03639101982116699, -0.022441118955612183, 0.006653193384408951, -0.2485183151427882, -0.638482481274055, 0.7279114743174036,-0.0268994452387082,-0.97607421875,0.304046630859375,-0.05523681640625
20220224-0957,2022-02-24 09:57:22Z,u01, 69,40,movements,el-ex, rt, d,219336.9747875417, -1.5058397483797392, -0.338047225926959, -0.38096290090544294, 0.14818252623081207, -0.07875200361013412, 0.20534229278564453, -0.9414145946502686, 0.3316454589366913, -0.06123722344636917, -0.02892237901687622, -0.021983593702316284, 0.00429147481918335, -0.24814405866483288, -0.6385968331085188, 0.7280648973573131,-0.023241961961662116,-0.9756011962890625,0.3095855712890625,-0.055572509765625
20220224-0957,2022-02-24 09:57:22Z,u01, 70,40,movements,el-ex, rt, d,219336.9997345417, -1.5072722496058966, -0.34287864597534934, -0.3796588366137003, -0.06967826187610626, -0.07170841097831726, 0.1974969506263733, -0.9398912191390991, 0.336199551820755, -0.05978616327047348, -0.02882826328277588, -0.026308804750442505, -0.00671154260635376, -0.24939592668942537, -0.638677218886314, 0.7276365188698033,-0.02093358230313587,-0.9713897705078125,0.30908203125,-0.0632781982421875
20220224-0957,2022-02-24 09:57:22Z,u01, 71,40,movements,el-ex, rt, d,219337.02468054168, -1.5104187307410537, -0.34795838753346137, -0.3824031629514788, -0.12009945511817932, -0.11758022755384445, 0.2094716727733612, -0.9383578896522522, 0.3409792482852936, -0.05672473832964897, -0.014294087886810303, -0.02124658226966858, -0.0063703060150146484, -0.2520380368840824, -0.6388383664341969, 0.7266158544642176,-0.0197940584569075,-0.956573486328125,0.31646728515625,-0.0668182373046875
20220224-0957,2022-02-24 09:57:22Z,u01, 72,40,movements,el-ex, rt, d,219337.04962754168, -1.5138319044688953, -0.35349550154177334, -0.3839386632401235, 0.0041900742799043655, -0.1154538244009018, 0.22219504415988922, -0.9366466999053955, 0.3461792767047882, -0.053413327783346176, -0.030165553092956543, -0.003573685884475708, -0.009864814579486847, -0.2544448571917722, -0.6391800618823018, 0.7255219899745142,-0.01801635794625861,-0.963104248046875,0.3397674560546875,-0.0627899169921875
20220224-0957,2022-02-24 09:57:22Z,u01, 73,40,movements,el-ex, rt, d,219337.07457354167, -1.516211154197369, -0.35887909910819576, -0.38197468897213976, 0.08307097852230072, -0.14273297786712646, 0.2189360111951828, -0.9348965287208557, 0.35122495889663696, -0.05108223482966423, -0.013284564018249512, -0.02519044280052185, -0.014469500631093979, -0.25566397900971527, -0.6396052008853238, 0.7247838476349133,-0.015147844468198127,-0.954986572265625,0.33203125,-0.06390380859375
20220224-0957,2022-02-24 09:57:22Z,u01, 74,40,movements,el-ex, rt, d,219337.09952054167, -1.5191936607390948, -0.36409726582707164, -0.3806344280722858, -0.01138242706656456, -0.1378202587366104, 0.1945377141237259, -0.9332018494606018, 0.35610589385032654, -0.04819849133491516, -0.015772879123687744, -0.03652578592300415, -0.022770054638385773, -0.25702322802852406, -0.6401873271097621, 0.7238394570714057,-0.012481677845467776,-0.947357177734375,0.31903076171875,-0.0696258544921875
20220224-0957,2022-02-24 09:57:22Z,u01, 75,40,movements,el-ex, rt, d,219337.1244665417, -1.522459233330794, -0.36837639623507623, -0.38110634410392674, -0.023227568715810776, -0.148201122879982, 0.19885537028312683, -0.9318236708641052, 0.36010122299194336, -0.04507675766944885, -0.00907909870147705, -0.03106069564819336, -0.023007869720458984, -0.2586392499555011, -0.6407553034809351, 0.7227882015049407,-0.010754160548175476,-0.9438323974609375,0.3253936767578125,-0.07080078125
20220224-0957,2022-02-24 09:57:22Z,u01, 76,40,movements,el-ex, rt, d,219337.1494135417, -1.5244553078529464, -0.37238148087254264, -0.3790896470538219, 0.15535998344421387, -0.15234079957008362, 0.19494526088237762, -0.9304636716842651, 0.3638347387313843, -0.04314952716231346, 0.001279592514038086, -0.029606163501739502, -0.021166209131479263, -0.2593530856254549, -0.6412185385909374, 0.7221527444750555,-0.008382759022787331,-0.9373016357421875,0.3426666259765625,-0.066162109375
20220224-0957,2022-02-24 09:57:22Z,u01, 77,40,movements,el-ex, rt, d,219337.17436054169, -1.5253357650012018, -0.37673497009419055, -0.3710013972069056, 0.42753908038139343, -0.18210582435131073, 0.23273371160030365, -0.9289100170135498, 0.36788639426231384, -0.0422578863799572, 0.008499860763549805, -0.03637397289276123, -0.00945412740111351, -0.25822829057264496, -0.6420196312625496, 0.7218823582019895,-0.003842962547778439,-0.9197235107421875,0.3286590576171875,-0.0547027587890625
20220224-0957,2022-02-24 09:57:22Z,u01, 78,40,movements,el-ex, rt, d,219337.19930654168, -1.5239033213280235, -0.3831271213712357, -0.3560376569560425, 0.6443409323692322, -0.15231157839298248, 0.3197406232357025, -0.9264806509017944, 0.3738226890563965, -0.043477337807416916, -0.014254152774810791, -0.017179012298583984, -0.006662964820861816, -0.25557970834007027, -0.642604345178811, 0.7223059454671628,0.003586353251529076,-0.933013916015625,0.354827880859375,-0.0531768798828125
20220224-0957,2022-02-24 09:57:22Z,u01, 79,40,movements,el-ex, rt, d,219337.22425354167, -1.5209488904518957, -0.39101327832862426, -0.3388225789082898, 0.5389183759689331, -0.14193616807460785, 0.36573314666748047, -0.9233750104904175, 0.38112542033195496, -0.0460660383105278, -0.01385033130645752, -0.02472585439682007, 0.0059812068939208984, -0.2527284725837588, -0.6427249020650686, 0.7231080942167682,0.012155590762235782,-0.9411468505859375,0.3511962890625,-0.0406341552734375
20220224-0957,2022-02-24 09:57:22Z,u01, 80,40,movements,el-ex, rt, d,219337.2491995417, -1.5202695696904225, -0.3998135284330261, -0.3277896005159657, 0.23886656761169434, -0.15376593172550201, 0.3574962913990021, -0.9199579358100891, 0.3892465829849243, -0.04652208834886551, 0.004110276699066162, -0.019861847162246704, -0.001604076474905014, -0.2521723162133856, -0.6427659595470672, 0.723115722813517,0.01909485876115198,-0.9234619140625,0.3654632568359375,-0.046661376953125
20220224-0957,2022-02-24 09:57:22Z,u01, 81,40,movements,el-ex, rt, d,219337.2741465417, -1.5226958460978333, -0.4076072041563338, -0.32412208226820954, 0.028009485453367233, -0.14565840363502502, 0.28641656041145325, -0.9170101284980774, 0.3964137136936188, -0.04414267838001251, -0.0005466341972351074, -0.027349352836608887, -0.007416665554046631, -0.2536087361635946, -0.6431261697356973, 0.7221655179529463,0.02341588546088276,-0.914703369140625,0.366912841796875,-0.0534515380859375
20220224-0957,2022-02-24 09:57:22Z,u01, 82,40,movements,el-ex, rt, d,219337.2990935417, -1.5260615989338793, -0.4143841423076232, -0.3234576272143076, 0.03394264727830887, -0.1490916758775711, 0.25658711791038513, -0.914448618888855, 0.40262627601623535, -0.04093492031097412, 0.012593269348144531, 0.014884650707244873, 0.00898313894867897, -0.25564413425475424, -0.6435671035197548, 0.7209501259606649,0.026425318171654638,-0.9050140380859375,0.390533447265625,-0.0401611328125
20220224-0957,2022-02-24 09:57:22Z,u01, 83,40,movements,el-ex, rt, d,219337.32403954168, -1.5281230584786172, -0.4205560781082568, -0.32053647825010306, 0.1508350968360901, -0.11446566134691238, 0.2406756579875946, -0.9120310544967651, 0.40826812386512756, -0.03894298896193504, 0.004697680473327637, 0.03646451234817505, 0.004763364791870117, -0.25675667417258546, -0.6438979085319207, 0.7201242481318919,0.029876417027460966,-0.904876708984375,0.4386138916015625,-0.0322418212890625
20220224-0957,2022-02-24 09:57:22Z,u01, 84,40,movements,el-ex, rt, d,219337.34898654168, -1.5289191508727482, -0.4260774861423145, -0.31642691978289883, 0.11443981528282166, -0.09501979500055313, 0.21722997725009918, -0.9097956418991089, 0.4133021831512451, -0.03812195733189583, 0.006872057914733887, 0.01490524411201477, 0.013418018817901611, -0.2572810762532087, -0.6440073510508102, 0.7196857339971948,0.033368511502349034,-0.9077301025390625,0.4398040771484375,-0.0326080322265625
20220224-0957,2022-02-24 09:57:22Z,u01, 85,40,movements,el-ex, rt, d,219337.37393254167, -1.5298330614605853, -0.4308380360445004, -0.3134469791791305, 0.08682253956794739, -0.07445705682039261, 0.1842471957206726, -0.9078538417816162, 0.41763240098953247, -0.03720947355031967, -0.005094707012176514, 0.02040165662765503, 0.015969280153512955, -0.25790819157897965, -0.6441107267660768, 0.7192314423073781,0.036205763119407666,-0.9053192138671875,0.4305877685546875,-0.0210723876953125
20220224-0957,2022-02-24 09:57:22Z,u01, 86,40,movements,el-ex, rt, d,219337.39887954167, -1.5307199499592408, -0.43491218386106095, -0.3108930854187532, 0.08846783638000488, -0.07339125871658325, 0.1452566534280777, -0.9061787128448486, 0.4213307499885559, -0.036335814744234085, -0.021433472633361816, 0.02306613326072693, 0.010228104889392853, -0.2584395181351618, -0.6442368417311943, 0.7188004235969234,0.03864874567164708,-0.9243621826171875,0.44830322265625,-0.025238037109375
20220224-0957,2022-02-24 09:57:22Z,u01, 87,40,movements,el-ex, rt, d,219337.4238255417, -1.531367952953602, -0.43865036078093744, -0.30803980020760596, 0.12404357641935349, -0.07139648497104645, 0.1695956289768219, -0.9046221971511841, 0.4247179925441742, -0.035686276853084564, -0.02103710174560547, 0.011652916669845581, 0.01842861995100975, -0.2587640749385857, -0.6443586075699912, 0.7184413549609318,0.04105195719352339,-0.922760009765625,0.4369659423828125,-0.025390625
20220224-0957,2022-02-24 09:57:22Z,u01, 88,40,movements,el-ex, rt, d,219337.44877254168, -1.5303749127741912, -0.44311689221754563, -0.30368053494498226, 0.17314326763153076, 0.012785366736352444, 0.19143714010715485, -0.902681827545166, 0.4287573993206024, -0.036507561802864075, -0.056104183197021484, 0.01612788438796997, 0.02216440439224243, -0.25888264789617155, -0.6439922312986303, 0.7185504636050244,0.044035400450681154,-0.9574432373046875,0.4481353759765625,-0.0161590576171875
20220224-0957,2022-02-24 09:57:22Z,u01, 89,40,movements,el-ex, rt, d,219337.47372, -1.5281240697695502, -0.4480574895582442, -0.2998319596305815, 0.07092732936143875, 0.044218458235263824, 0.20793282985687256, -0.900469958782196, 0.43321558833122253, -0.03844842314720154, -0.03016364574432373, -0.002032727003097534, 0.019329190254211426, -0.2593575350147532, -0.6430470098412716, 0.7190485048489659,0.046835060427812644,-0.939666748046875,0.43701171875,-0.019073486328125
20220224-0957,2022-02-24 09:57:22Z,u01, 90,40,movements,el-ex, rt, d,219337.498666, -1.5265557718678764, -0.4531943956831215, -0.2993115872076792, -0.040807660669088364, 0.07608091831207275, 0.1948736160993576, -0.8981735110282898, 0.43783968687057495, -0.03976164013147354, -0.019383370876312256, -0.005497097969055176, 0.02065771445631981, -0.2609566227428282, -0.6418884805991755, 0.7193884665561332,0.048592027173193025,-0.92034912109375,0.4351806640625,-0.021759033203125
20220224-0957,2022-02-24 09:57:22Z,u01, 91,40,movements,el-ex, rt, d,219337.52361300003, -1.52559863681256, -0.4575700054791768, -0.3010214876846102, -0.07978595048189163, 0.07773260772228241, 0.1595529019832611, -0.8962125182151794, 0.44176939129829407, -0.04053433984518051, -0.0017214417457580566, -0.012982159852981567, 0.014304578304290771, -0.2630004211195746, -0.6407523768342502, 0.7196045217518755,0.049361355093956547,-0.9050750732421875,0.431793212890625,-0.0194244384765625
20220224-0957,2022-02-24 09:57:22Z,u01, 92,40,movements,el-ex, rt, d,219337.54855900002, -1.5243491487400473, -0.4616819584774032, -0.30285263701451826, -0.04534755274653435, 0.10981251299381256, 0.1612330973148346, -0.8943390846252441, 0.44545459747314453, -0.04156942293047905, -0.0013519525527954102, 0.0006514191627502441, 0.013096567243337631, -0.26500004488167955, -0.6395234665207448, 0.7199231074993445,0.04995539111223243,-0.8928985595703125,0.4367828369140625,-0.030517578125
20220224-0957,2022-02-24 09:57:22Z,u01, 93,40,movements,el-ex, rt, d,219337.57350600002, -1.5219317081735289, -0.46544990572098666, -0.3043568758574054, -0.08198102563619614, 0.14190074801445007, 0.14693358540534973, -0.8925532698631287, 0.4488248825073242, -0.04364902153611183, 0.004659473896026611, 0.010846197605133057, 0.01677834615111351, -0.26680774054864276, -0.6379569886427123, 0.7206146596797908,0.05039035100954897,-0.892364501953125,0.45458984375,-0.0343475341796875
20220224-0957,2022-02-24 09:57:22Z,u01, 94,40,movements,el-ex, rt, d,219337.598452, -1.5207797654331092, -0.4683728077636641, -0.30815722263335604, -0.16860517859458923, 0.10548940300941467, 0.10990625619888306, -0.8911881446838379, 0.4514349400997162, -0.0446113757789135, 0.03744363784790039, -0.002460300922393799, -0.006230831146240234, -0.26902992392927194, -0.6366452801852565, 0.7209843472069326,0.04987251713528227,-0.8715362548828125,0.4545440673828125,-0.0362701416015625
20220224-0957,2022-02-24 09:57:22Z,u01, 95,40,movements,el-ex, rt, d,219337.623399, -1.5212070581159554, -0.4709025649611631, -0.3132121681104929, -0.17662112414836884, 0.09386318176984787, 0.08680659532546997, -0.8900637030601501, 0.4536907970905304, -0.044173821806907654, 0.015185773372650146, 0.030195951461791992, 0.004806160926818848, -0.27147650126729306, -0.6357779467994623, 0.7208939040737581,0.04897880595663817,-0.860137939453125,0.4637298583984375,-0.0453643798828125
20220224-0957,2022-02-24 09:57:22Z,u01, 96,40,movements,el-ex, rt, d,219337.648346, -1.521059699419592, -0.4720716459053264, -0.31703014110283256, -0.10252798348665237, 0.09574656933546066, -0.008944964036345482, -0.8895268440246582, 0.45473232865333557, -0.0442785806953907, 0.025482654571533203, 0.04632052779197693, -0.0007500611245632172, -0.2730849558657334, -0.6350474912664043, 0.7209970637526834,0.047984933561437335,-0.88037109375,0.506805419921875,-0.0372772216796875
20220224-0957,2022-02-24 09:57:22Z,u01, 97,40,movements,el-ex, rt, d,219337.67329200002, -1.5207969991871009, -0.4708932163997715, -0.32052404147278635, -0.13543683290481567, 0.06862086802721024, -0.0858888179063797, -0.8900497555732727, 0.45368248224258423, -0.044539012014865875, 0.057041943073272705, 0.03292033076286316, -0.01745736598968506, -0.2738054095820272, -0.6346346133641747, 0.7211985677634405,0.04628358453460265,-0.8397979736328125,0.487030029296875,-0.0574188232421875
20220224-0957,2022-02-24 09:57:22Z,u01, 98,40,movements,el-ex, rt, d,219337.69823900002, -1.5205253676131862, -0.46826157437264054, -0.32367618356739986, -0.051364198327064514, 0.08542055636644363, -0.15990771353244781, -0.8912270069122314, 0.4513356685638428, -0.04484061896800995, 0.032141923904418945, 0.04402565956115723, -0.004902958869934082, -0.2739301721682655, -0.6344619389826773, 0.7214336210619295,0.04420344323490699,-0.8427886962890625,0.4959869384765625,-0.05706787109375
20220224-0957,2022-02-24 09:57:22Z,u01, 99,40,movements,el-ex, rt, d,219337.723185, -1.5191507718479642, -0.46433516261991586, -0.3238197778022102, 0.05836912617087364, 0.06614519655704498, -0.1928994208574295, -0.8929274678230286, 0.4478284418582916, -0.04615677893161774, 0.031461894512176514, 0.03024473786354065, 0.01832478865981102, -0.27268940776120304, -0.6344778144303818, 0.7219852652013437,0.04261219731258973,-0.858489990234375,0.484375,-0.0321502685546875
20220224-0957,2022-02-24 09:57:22Z,u01, 100,40,movements,el-ex, rt, d,219337.748132, -1.515482518356184, -0.4602832954004543, -0.3213071692046108, 0.12077610939741135, 0.12412287294864655, -0.21151025593280792, -0.8945565819740295, 0.4442019462585449, -0.049531858414411545, 0.01934283971786499, 0.0058560967445373535, 0.01020997017621994, -0.2706084575549211, -0.6340387481509605, 0.7232102750011822,0.0416286093243448,-0.88092041015625,0.4619140625,-0.0231170654296875
20220224-0957,2022-02-24 09:57:22Z,u01, 101,40,movements,el-ex, rt, d,219337.77307800003, -1.5113641879741997, -0.45594210912486216, -0.31900498658048815, 0.05387693643569946, 0.10374350100755692, -0.1810421645641327, -0.89626145362854, 0.4403083920478821, -0.05332954227924347, 0.04236435890197754, -0.011002331972122192, 0.00022906064987182617, -0.26850001706397925, -0.6334374243787025, 0.7245904365314588,0.04041700683313546,-0.8585205078125,0.433868408203125,-0.057098388671875
20220224-0957,2022-02-24 09:57:22Z,u01, 102,40,movements,el-ex, rt, d,219337.79802500003, -1.5087351793100394, -0.45207768553990957, -0.3183010575019867, 0.07288461923599243, 0.10579793900251389, -0.17043551802635193, -0.8978097438812256, 0.4368354380130768, -0.055790748447179794, 0.006238698959350586, -0.026557117700576782, 0.04721534252166748, -0.2670229265043552, -0.6330903425103576, 0.7255168970525677,0.03899613245596597,-0.876739501953125,0.4249725341796875,-0.03546142578125
20220224-0957,2022-02-24 09:57:22Z,u01, 103,40,movements,el-ex, rt, d,219337.82297200002, -1.503248173261423, -0.447993671525887, -0.3141716831296841, 0.24904949963092804, 0.23685362935066223, -0.15037399530410767, -0.8992626070976257, 0.4331580698490143, -0.06083608418703079, -0.03222554922103882, -0.029639333486557007, 0.049010567367076874, -0.26443765233692995, -0.6321824782461734, 0.7272866468335673,0.038370345554983226,-0.919281005859375,0.40264892578125,-0.0066986083984375
20220224-0957,2022-02-24 09:57:22Z,u01, 104,40,movements,el-ex, rt, d,219337.847918, -1.4943489238087657, -0.44438601401264205, -0.30893068502141724, 0.06420227885246277, 0.2897908687591553, -0.12812115252017975, -0.9002379179000854, 0.4299035966396332, -0.06895523518323898, 0.036102116107940674, -0.06894168257713318, 0.0029457807540893555, -0.2617232992129192, -0.6300978485123331, 0.7300978236163732,0.0378801377603492,-0.90887451171875,0.3897552490234375,-0.0417633056640625
20220224-0957,2022-02-24 09:57:22Z,u01, 105,40,movements,el-ex, rt, d,219337.872865, -1.4905731268839069, -0.4424276837958455, -0.31391942849715776, -0.38647204637527466, 0.19623355567455292, -0.037078797817230225, -0.900808572769165, 0.42813464999198914, -0.07242117077112198, 0.06557291746139526, -0.10924121737480164, -0.010357677936553955, -0.2626912744584831, -0.628317361768906, 0.7314320725884096,0.03489718309933003,-0.829681396484375,0.332427978515625,-0.081756591796875
20220224-0957,2022-02-24 09:57:22Z,u01, 106,40,movements,el-ex, rt, d,219337.897811, -1.489882167047436, -0.44321694445103255, -0.3250278255621586, -0.37600213289260864, 0.21722744405269623, 0.023583684116601944, -0.9004212617874146, 0.4288477897644043, -0.07301624864339828, -0.005035340785980225, -0.0372004508972168, -0.0037506818771362305, -0.26645742546851436, -0.6264920728725321, 0.7318105049789027,0.031010053783012977,-0.8972930908203125,0.352630615234375,-0.0781402587890625
20220224-0957,2022-02-24 09:57:22Z,u01, 107,40,movements,el-ex, rt, d,219337.922758, -1.488511245713137, -0.44474083788968966, -0.3341132521984564, -0.33847546577453613, 0.20307262241840363, 0.033973075449466705, -0.8996678590774536, 0.4302239418029785, -0.07419677823781967, 0.017923474311828613, -0.036623477935791016, -0.037848472595214844, -0.26983978130731184, -0.6245703347075469, 0.7323342517664674,0.028017752955074367,-0.89129638671875,0.4004058837890625,-0.0986175537109375
20220224-0957,2022-02-24 09:57:22Z,u01, 108,40,movements,el-ex, rt, d,219337.94770400002, -1.4884653359342768, -0.44661595758419226, -0.3440344330197373, -0.36612141132354736, 0.16912704706192017, 0.05836057290434837, -0.8988588452339172, 0.43191590905189514, -0.07417160272598267, -0.0020200610160827637, -0.02037110924720764, -0.04316842555999756, -0.2735739218542317, -0.6229538558825143, 0.7324343587683761,0.02501470841920206,-0.87640380859375,0.391845703125,-0.1220855712890625
20220224-0957,2022-02-24 09:57:23Z,u01, 109,40,movements,el-ex, rt, d,219337.97265100002, -1.4873589062652335, -0.4487136613412662, -0.3523461504341765, -0.2419859766960144, 0.17058758437633514, 0.07245063036680222, -0.8978714346885681, 0.4338068962097168, -0.07509041577577591, 0.011457860469818115, -0.014525890350341797, -0.04179185628890991, -0.27688597080971805, -0.6211191126735787, 0.7328285656795255,0.02252949264450376,-0.901702880859375,0.420989990234375,-0.114593505859375
20220224-0957,2022-02-24 09:57:23Z,u01, 110,40,movements,el-ex, rt, d,219337.99759800002, -1.4873320617044405, -0.4514659142724404, -0.3583602119653639, -0.20283667743206024, 0.08189160376787186, 0.11732228845357895, -0.8966763019561768, 0.4362850487232208, -0.07501470297574997, 0.015954136848449707, -0.02182576060295105, -0.039944954216480255, -0.2796871239984298, -0.6198933466215985, 0.7328408372154704,0.021255876089473935,-0.8455963134765625,0.4070587158203125,-0.122802734375
20220224-0957,2022-02-24 09:57:23Z,u01, 111,40,movements,el-ex, rt, d,219338.022544, -1.4867540970459203, -0.454745023964631, -0.3622759389193747, -0.10570027679204941, 0.08474944531917572, 0.10741213709115982, -0.8952023386955261, 0.43923327326774597, -0.07541243731975555, 0.002868354320526123, 0.008154451847076416, -0.013149499893188477, -0.282018012117615, -0.6186757018280528, 0.73298804635777,0.02085228248942643,-0.8997650146484375,0.4368743896484375,-0.0976409912109375
20220224-0957,2022-02-24 09:57:23Z,u01, 112,40,movements,el-ex, rt, d,219338.047491, -1.4851631497544977, -0.4570699116776218, -0.3636011158132264, -0.02283921279013157, 0.06882666796445847, 0.07954002171754837, -0.8940613269805908, 0.4413206875324249, -0.07674900442361832, 0.04976201057434082, 0.008859395980834961, -0.007769346237182617, -0.28323238092871367, -0.6175798862367021, 0.7334415101364345,0.02093002235411405,-0.86004638671875,0.4555816650390625,-0.0854034423828125
20220224-0957,2022-02-24 09:57:23Z,u01, 113,40,movements,el-ex, rt, d,219338.07243700002, -1.4830558804077771, -0.45905893894731736, -0.3644175830969392, -0.060112114995718, 0.12145718932151794, 0.07239190489053726, -0.893021285533905, 0.44310468435287476, -0.07855577766895294, 0.03477555513381958, 0.012690544128417969, -0.0008355900645256042, -0.28418085199971094, -0.6164116768213636, 0.7340548759003422,0.02100543458378132,-0.85748291015625,0.4541473388671875,-0.0784759521484375
20220224-0957,2022-02-24 09:57:23Z,u01, 114,40,movements,el-ex, rt, d,219338.09738400002, -1.4805515246939664, -0.46056158410003395, -0.3660294382341182, -0.060254793614149094, 0.09657913446426392, 0.05170832946896553, -0.892157793045044, 0.444451242685318, -0.08073188364505768, 0.07234883308410645, -0.011116862297058105, 0.02071911096572876, -0.2852129170162623, -0.615050931574489, 0.7348081754830023,0.020565515891881693,-0.8312225341796875,0.4447021484375,-0.0789642333984375
20220224-0957,2022-02-24 09:57:23Z,u01, 115,40,movements,el-ex, rt, d,219338.12233, -1.4776391576377215, -0.46202317629177664, -0.36731539831307375, -0.04352671653032303, 0.18896572291851044, 0.05296500772237778, -0.8912712931632996, 0.4457600712776184, -0.08326932787895203, 0.054112911224365234, 0.006907224655151367, 0.022768251597881317, -0.2861338180842632, -0.6135900711834374, 0.735681973419479,0.02017070236841209,-0.834716796875,0.44183349609375,-0.056488037109375
20220224-0957,2022-02-24 09:57:23Z,u01, 116,40,movements,el-ex, rt, d,219338.147277, -1.474901436675733, -0.46333386058954734, -0.36902697597105594, -0.12454693019390106, 0.0563175342977047, 0.045948244631290436, -0.8904573321342468, 0.44693294167518616, -0.08565302193164825, 0.14447051286697388, -0.003939837217330933, 0.018621213734149933, -0.28713093718908766, -0.6121513821517718, 0.7365070212838286,0.019590779786799455,-0.7743682861328125,0.4460296630859375,-0.0717315673828125
20220224-0957,2022-02-24 09:57:23Z,u01, 117,40,movements,el-ex, rt, d,219338.172224, -1.4746434766769179, -0.46503896066284156, -0.3724391555925368, -0.08192193508148193, 0.10360708832740784, 0.04463350772857666, -0.8896754384040833, 0.44845762848854065, -0.08580943942070007, 0.07496297359466553, 0.01598939299583435, 0.016000516712665558, -0.28875642653270434, -0.6113223425648594, 0.7365789205657532,0.01887206589355974,-0.78936767578125,0.45208740234375,-0.0672454833984375
20220224-0957,2022-02-24 09:57:23Z,u01, 118,40,movements,el-ex, rt, d,219338.19717, -1.4729573870750032, -0.46588663397915897, -0.37314314092446527, 0.01762072741985321, 0.06926049292087555, 0.02106073871254921, -0.8891509771347046, 0.4492151141166687, -0.08727224171161652, 0.11655265092849731, 0.025867342948913574, 0.0217510387301445, -0.2892752051112469, -0.610478284772638, 0.7370808716138312,0.018654780673573595,-0.7916412353515625,0.4773712158203125,-0.0678253173828125
20220224-0957,2022-02-24 09:57:23Z,u01, 119,40,movements,el-ex, rt, d,219338.22211700003, -1.4706035142515042, -0.4661286512551034, -0.3722086736342575, 0.0338248685002327, 0.0841052234172821, -0.007934427820146084, -0.8888348937034607, 0.44943132996559143, -0.08935406059026718, 0.1193951964378357, 0.01368817687034607, 0.02912771701812744, -0.28909444593333683, -0.6097108904639603, 0.7377844405951739,0.018740488864522203,-0.771728515625,0.464569091796875,-0.0631103515625
20220224-0957,2022-02-24 09:57:23Z,u01, 120,40,movements,el-ex, rt, d,219338.24706300002, -1.4693806376196943, -0.46639697233358307, -0.3718295758316818, -0.001325665507465601, 0.016148272901773453, 0.031085141003131866, -0.8886050581932068, 0.4496710002422333, -0.09042873233556747, 0.13366109132766724, 0.017171710729599, 0.024693958461284637, -0.2890816935463632, -0.6092761351616768, 0.73814722846687,0.018793864043799062,-0.745147705078125,0.4680328369140625,-0.07183837890625
20220224-0957,2022-02-24 09:57:23Z,u01, 121,40,movements,el-ex, rt, d,219338.27201000002, -1.468762932139553, -0.46711856691573683, -0.3721420988090067, -0.021911701187491417, 0.030648786574602127, 0.022332530468702316, -0.8882259726524353, 0.4503154158592224, -0.09094452857971191, 0.08834493160247803, 0.006609052419662476, 0.027681708335876465, -0.2894283583871127, -0.6088997950568442, 0.7383208939275289,0.01883183907649018,-0.79180908203125,0.4605712890625,-0.0638275146484375
20220224-0957,2022-02-24 09:57:23Z,u01, 122,40,movements,el-ex, rt, d,219338.296956, -1.4686499150470138, -0.467662137319485, -0.37280828457573284, -0.03292933106422424, 0.004531431011855602, 0.012769118882715702, -0.887971818447113, 0.45080068707466125, -0.09101992100477219, 0.09378248453140259, 0.017125308513641357, 0.0022901371121406555, -0.28981728429026016, -0.6086838115109561, 0.738348299565565,0.018752336508389866,-0.795654296875,0.4612579345703125,-0.0800933837890625
20220224-0957,2022-02-24 09:57:23Z,u01, 123,40,movements,el-ex, rt, d,219338.321903, -1.4694434174937865, -0.46792896468440043, -0.37397658091309266, -0.050394706428050995, -0.033288050442934036, -0.004934176802635193, -0.887924075126648, 0.45103883743286133, -0.09030311554670334, 0.09870904684066772, 0.022166699171066284, -0.005201570689678192, -0.2902562661280695, -0.6087690395269735, 0.7381113008651381,0.01852589751989927,-0.7945404052734375,0.4704742431640625,-0.0939178466796875
20220224-0957,2022-02-24 09:57:23Z,u01, 124,40,movements,el-ex, rt, d,219338.34685, -1.4708898931182919, -0.467952080453626, -0.37432557152716966, 0.04350462555885315, -0.056933991611003876, 0.007061232812702656, -0.8880435228347778, 0.451059490442276, -0.08901762962341309, 0.07940399646759033, 0.0266169011592865, -0.0008412599563598633, -0.29035695119623445, -0.6092487397171857, 0.7376736002682649,0.018614861428707927,-0.7863922119140625,0.4710693359375,-0.090362548828125
20220224-0957,2022-02-24 09:57:23Z,u01, 125,40,movements,el-ex, rt, d,219338.37179600002, -1.4711751373929498, -0.4680103704394581, -0.3725512583792329, 0.04262911155819893, -0.036886781454086304, 0.008819984272122383, -0.8880428075790405, 0.45111149549484253, -0.08876170963048935, 0.04821419715881348, 0.020141005516052246, -0.012770242989063263, -0.2898333855792391, -0.6096029462082274, 0.7375685511634398,0.019330220687309344,-0.834381103515625,0.474090576171875,-0.098297119140625
20220224-0957,2022-02-24 09:57:23Z,u01, 126,40,movements,el-ex, rt, d,219338.39674300002, -1.4729942128634566, -0.46841257358795607, -0.37257453165241655, -0.02230817824602127, -0.0937100499868393, 0.015913911163806915, -0.8880220055580139, 0.45147040486335754, -0.0871284082531929, 0.048010408878326416, 0.010138481855392456, 0.0014504194259643555, -0.2899594151441988, -0.6102125306132367, 0.7370042740854065,0.019720800993902762,-0.822296142578125,0.4579925537109375,-0.099853515625
20220224-0957,2022-02-24 09:57:23Z,u01, 127,40,movements,el-ex, rt, d,219338.421689, -1.4739563476065038, -0.4688766585058245, -0.37170825553660136, 0.08445844799280167, -0.021430060267448425, 0.03172263503074646, -0.8878968358039856, 0.4518844783306122, -0.08625370264053345, 0.02089238166809082, 0.013996869325637817, -0.012852072715759277, -0.2898429703955945, -0.6106260717941538, 0.7366907873783234,0.020335826770726206,-0.8690338134765625,0.46728515625,-0.090301513671875
20220224-0957,2022-02-24 09:57:23Z,u01, 128,40,movements,el-ex, rt, d,219338.446636, -1.4732839827728623, -0.47008016684261356, -0.36977751318433777, -0.0006149346008896828, -0.01584521122276783, 0.0644400417804718, -0.887296736240387, 0.45295774936676025, -0.08679766952991486, 0.05598264932632446, 0.009581923484802246, 0.0060939788818359375, -0.2896692479100285, -0.6104857837658195, 0.7368465412423809,0.0213552813006804,-0.8422393798828125,0.4709320068359375,-0.093536376953125
20220224-0957,2022-02-24 09:57:23Z,u01, 129,40,movements,el-ex, rt, d,219338.471582375, -1.4741161918778145, -0.471990595168352, -0.3714529752215466, -0.10093989968299866, 0.023390408605337143, 0.06309760361909866, -0.8865057229995728, 0.4546601474285126, -0.0859755277633667, 0.028030991554260254, 0.008825600147247314, 0.01483917236328125, -0.29082018944180343, -0.6102752263101119, 0.7365632352980901,0.021502772911366486,-0.8443756103515625,0.4546051025390625,-0.07025146484375
20220224-0957,2022-02-24 09:57:23Z,u01, 130,40,movements,el-ex, rt, d,219338.49652837502, -1.4745879774631532, -0.47375533794003444, -0.3744721267942131, -0.1309770941734314, 0.027326691895723343, 0.05145280063152313, -0.8857461214065552, 0.4562312364578247, -0.08548007160425186, 0.048832058906555176, 0.030310511589050293, -0.006484627723693848, -0.2923343725883148, -0.6097545234027665, 0.7364079837551272,0.0210547782080499,-0.8529815673828125,0.4830474853515625,-0.0899505615234375
20220224-0957,2022-02-24 09:57:23Z,u01, 131,40,movements,el-ex, rt, d,219338.52147537502, -1.4755264127545396, -0.4751649237995937, -0.37782857106222223, -0.10135296732187271, 0.021711017936468124, 0.041513219475746155, -0.8851849436759949, 0.4574851095676422, -0.08458756655454636, 0.0437999963760376, 0.024234890937805176, 0.007759623229503632, -0.2938249047171855, -0.6094039239690442, 0.7361225174495586,0.02043213738381125,-0.8358612060546875,0.4768218994140625,-0.0819854736328125
20220224-0957,2022-02-24 09:57:23Z,u01, 132,40,movements,el-ex, rt, d,219338.546421375, -1.4748195190937554, -0.47633337854628444, -0.37877162476231435, 0.008440345525741577, 0.06940310448408127, 0.017812348902225494, -0.8845921754837036, 0.45852380990982056, -0.08516198396682739, 0.03611195087432861, 0.04442113637924194, 0.005236506462097168, -0.29451464596890126, -0.6088350597326149, 0.7363191148042726,0.020375204156988576,-0.852081298828125,0.498077392578125,-0.0722808837890625
20220224-0957,2022-02-24 09:57:23Z,u01, 133,40,movements,el-ex, rt, d,219338.571368375, -1.4735819386150186, -0.4768258246318033, -0.3796469956043705, -0.09412368386983871, 0.07088575512170792, -0.0010395701974630356, -0.8842611908912659, 0.4589613676071167, -0.08623474091291428, 0.034682393074035645, 0.029274076223373413, 0.011253125965595245, -0.29496011265827954, -0.6081785600130936, 0.7366925000936394,0.020036525858797373,-0.8419189453125,0.4969635009765625,-0.081085205078125
20220224-0957,2022-02-24 09:57:23Z,u01, 134,40,movements,el-ex, rt, d,219338.59631437503, -1.4726070691089417, -0.476965570426558, -0.3831060772544138, -0.1249966099858284, 0.12387606501579285, -0.03147251158952713, -0.8841130137443542, 0.45908552408218384, -0.08709046989679337, 0.021487891674041748, 0.030279099941253662, 0.00040531158447265625, -0.2960679077749425, -0.6072878730132938, 0.7370189427497578,0.01866513258245113,-0.875091552734375,0.49005126953125,-0.0764007568359375
20220224-0957,2022-02-24 09:57:23Z,u01, 135,40,movements,el-ex, rt, d,219338.62126137502, -1.4719583796954496, -0.4766878009742387, -0.3866146171029397, -0.12126179039478302, 0.07451650500297546, -0.0506504662334919, -0.8841831088066101, 0.45883873105049133, -0.0876765325665474, 0.04934430122375488, 0.011513441801071167, -0.007034651935100555, -0.2970444983768106, -0.6065692866115793, 0.7372536986771108,0.017182236592662492,-0.8388214111328125,0.4797210693359375,-0.092437744140625
20220224-0957,2022-02-24 09:57:23Z,u01, 136,40,movements,el-ex, rt, d,219338.64620737502, -1.4719130040719741, -0.4762937259497725, -0.3905282068042929, -0.12866467237472534, 0.09653772413730621, -0.05114921182394028, -0.8843591213226318, 0.4584885537624359, -0.08773450553417206, 0.023305535316467285, 0.011848419904708862, -0.01152385026216507, -0.29809803797420886, -0.6060283042273744, 0.7373086091838058,0.015599985602074429,-0.85516357421875,0.4679718017578125,-0.095123291015625
20220224-0957,2022-02-24 09:57:23Z,u01, 137,40,movements,el-ex, rt, d,219338.671154375, -1.4713121715147135, -0.47550564998390665, -0.3936184049935159, -0.06959749758243561, 0.08364509791135788, -0.0539465956389904, -0.8846654891967773, 0.45778805017471313, -0.08830170333385468, 0.034064292907714844, -0.0030913949012756348, -0.013367533683776855, -0.298772155570372, -0.6054620955411888, 0.7375309752359891,0.014105442047508389,-0.85504150390625,0.4596099853515625,-0.1047210693359375
20220224-0957,2022-02-24 09:57:23Z,u01, 138,40,movements,el-ex, rt, d,219338.696101375, -1.4701057625272718, -0.47488667247839345, -0.3949959232690369, -0.035824619233608246, 0.05986173450946808, -0.04984799027442932, -0.8848400712013245, 0.4572376608848572, -0.0893973708152771, 0.03202635049819946, 0.0005260109901428223, -0.010334014892578125, -0.2989880400119139, -0.6049028559212992, 0.7379189032908784,0.013208575212063839,-0.845245361328125,0.4625701904296875,-0.095733642578125
20220224-0957,2022-02-24 09:57:23Z,u01, 139,40,movements,el-ex, rt, d,219338.721047375, -1.4692575311296239, -0.4738326009336671, -0.3968606889066766, -0.08876556903123856, 0.06667469441890717, -0.052590712904930115, -0.8852428197860718, 0.4562999904155731, -0.09019668400287628, 0.014347434043884277, 0.00215032696723938, -0.005140185356140137, -0.2992008793249096, -0.6044671142344011, 0.7382095854783775,0.012038754252801855,-0.8669586181640625,0.4540863037109375,-0.0977325439453125
20220224-0957,2022-02-24 09:57:23Z,u01, 140,40,movements,el-ex, rt, d,219338.745994375, -1.4682676966056887, -0.47263876748426203, -0.3987142625872749, -0.029953747987747192, 0.056621067225933075, -0.06588701158761978, -0.8856943845748901, 0.45523735880851746, -0.09112857282161713, 0.024167895317077637, 0.004296332597732544, -0.0015074536204338074, -0.2993628306085138, -0.6040013315818995, 0.7385442093470553,0.010804593096043993,-0.8662261962890625,0.4617919921875,-0.0921630859375
20220224-0957,2022-02-24 09:57:23Z,u01, 141,40,movements,el-ex, rt, d,219338.77094037502, -1.4674088667915872, -0.4712114334954709, -0.39954447512524077, -0.04579516500234604, 0.0398133210837841, -0.058204058557748795, -0.8862611651420593, 0.45396602153778076, -0.09195616096258163, 0.0166933536529541, 0.01391419768333435, 0.005515165627002716, -0.2991350817103632, -0.6037715801341915, 0.7388370975146535,0.009889366941791891,-0.8622894287109375,0.4587249755859375,-0.0907135009765625
20220224-0957,2022-02-24 09:57:23Z,u01, 142,40,movements,el-ex, rt, d,219338.79588737502, -1.4666718326613817, -0.46965179661813844, -0.4017381652462744, -0.09643299877643585, 0.08900836855173111, -0.08534958958625793, -0.8868961334228516, 0.45257580280303955, -0.09268280863761902, -0.006292164325714111, 0.014617711305618286, 0.0043344646692276, -0.29927267634073074, -0.6034024035209774, 0.7391007857988704,0.008444174463346929,-0.8910064697265625,0.46966552734375,-0.084136962890625
20220224-0957,2022-02-24 09:57:23Z,u01, 143,40,movements,el-ex, rt, d,219338.820833375, -1.4658445576565322, -0.4676543979788228, -0.4043568007898635, -0.06317448616027832, 0.06985364854335785, -0.100719153881073, -0.88771653175354, 0.4507937729358673, -0.09351100772619247, 0.020529091358184814, 0.01189848780632019, 0.0013632848858833313, -0.29938940195164887, -0.6030012278070288, 0.7393989860561754,0.006681028340356568,-0.876556396484375,0.4630126953125,-0.091400146484375
20220224-0957,2022-02-24 09:57:23Z,u01, 144,40,movements,el-ex, rt, d,219338.845780375, -1.4649640477405417, -0.4657200536172079, -0.4056933418870328, -0.035609036684036255, 0.060498762875795364, -0.10090611129999161, -0.8884992599487305, 0.44906628131866455, -0.09438454359769821, 0.023020803928375244, -0.0023194849491119385, -0.008520707488059998, -0.2991398609278436, -0.6027628642519117, 0.7397046580413761,0.0054051003396768105,-0.8633575439453125,0.4586639404296875,-0.0934295654296875
20220224-0957,2022-02-24 09:57:23Z,u01, 145,40,movements,el-ex, rt, d,219338.870727375, -1.4648321665791257, -0.4636696173244757, -0.4079519908260587, -0.09217330813407898, 0.03251546248793602, -0.09865880012512207, -0.8894006013870239, 0.44723328948020935, -0.0945989191532135, 0.041866421699523926, -0.01844605803489685, -0.01679014414548874, -0.2991262001185596, -0.6026807256493311, 0.7397868289216842,0.003861110842352064,-0.8583984375,0.4387054443359375,-0.1090850830078125
20220224-0957,2022-02-24 09:57:23Z,u01, 146,40,movements,el-ex, rt, d,219338.89567337502, -1.4653612439186454, -0.46197970519938714, -0.41029849638537913, -0.01516271848231554, 0.03573489189147949, -0.07580335438251495, -0.8902008533477783, 0.4457211494445801, -0.0942077487707138, 0.03502202033996582, -0.00548979640007019, 0.0034638047218322754, -0.29926013164703497, -0.6027764923469229, 0.7396604626509898,0.0025045608211606146,-0.8453826904296875,0.43011474609375,-0.09698486328125
20220224-0957,2022-02-24 09:57:23Z,u01, 147,40,movements,el-ex, rt, d,219338.92062037502, -1.4644065680734222, -0.46024097868738434, -0.40996701443484707, 0.01822207123041153, 0.01532402727752924, -0.05801517143845558, -0.89087975025177, 0.4441640377044678, -0.09513971209526062, 0.050852954387664795, -0.0049855709075927734, -0.0021045133471488953, -0.2985722114518866, -0.6027311001246747, 0.7399772005619727,0.0019003210850689206,-0.8491668701171875,0.441925048828125,-0.0923004150390625
20220224-0957,2022-02-24 09:57:23Z,u01, 148,40,movements,el-ex, rt, d,219338.945566375, -1.4638280732923192, -0.459129754723297, -0.41050256397684093, -0.035485800355672836, 0.06073085591197014, -0.037434861063957214, -0.8913149237632751, 0.44316816329956055, -0.0957077145576477, 0.02177751064300537, -0.03166911005973816, 0.01237952709197998, -0.29835729898306446, -0.6026019129351814, 0.7401705512401097,0.0012425952869058038,-0.8521270751953125,0.4153594970703125,-0.0970611572265625
20220224-0957,2022-02-24 09:57:24Z,u01, 149,40,movements,el-ex, rt, d,219338.970513375, -1.4622051659349755, -0.45859935944614694, -0.41061018502153324, 0.01599859818816185, 0.04202328249812126, -0.01007614191621542, -0.8913919925689697, 0.4426926374435425, -0.09717956930398941, 0.0657082200050354, -0.021809399127960205, 0.025799021124839783, -0.2982105966310726, -0.6020636630317795, 0.7406681619230676,0.0007826709653872971,-0.84661865234375,0.416961669921875,-0.076812744140625
20220224-0957,2022-02-24 09:57:24Z,u01, 150,40,movements,el-ex, rt, d,219338.995459375, -1.461459622038524, -0.4589350688166359, -0.4111488002586831, -0.07351337373256683, 0.045855436474084854, 0.022886469960212708, -0.891171395778656, 0.4429936110973358, -0.09782788902521133, 0.032330453395843506, -0.021683216094970703, 0.0176888108253479, -0.2984868965841207, -0.6016574023228842, 0.7408870891531224,0.0005845895351263702,-0.825836181640625,0.4197998046875,-0.076934814453125
20220224-0957,2022-02-24 09:57:24Z,u01, 151,40,movements,el-ex, rt, d,219339.020406375, -1.4613852256367275, -0.46004341155701156, -0.41452188266515694, -0.14908023178577423, 0.0709790363907814, 0.0299727413803339, -0.8906754851341248, 0.44398701190948486, -0.09784050285816193, 0.003102242946624756, -0.021669507026672363, 0.018098123371601105, -0.2998771009476556, -0.6009604582176886, 0.740891461856843,-0.00030431437770536696,-0.8833770751953125,0.4232330322265625,-0.0808868408203125
20220224-0957,2022-02-24 09:57:24Z,u01, 152,40,movements,el-ex, rt, d,219339.04535337503, -1.461388981911161, -0.46104748156478514, -0.41766821031254003, -0.066039077937603, 0.06345706433057785, 0.02837444469332695, -0.8902323246002197, 0.4448864758014679, -0.09778844565153122, 0.025577783584594727, -0.020249605178833008, 0.008890748023986816, -0.30116236730545537, -0.6003390767636534, 0.7408731511484005,-0.0011324953564956358,-0.8747100830078125,0.4206390380859375,-0.07904052734375
20220224-0957,2022-02-24 09:57:24Z,u01, 153,40,movements,el-ex, rt, d,219339.07029937502, -1.4610392786853403, -0.46220605008816307, -0.41830524916983836, -0.016618601977825165, -0.014595256187021732, 0.05011129751801491, -0.8896850943565369, 0.445923775434494, -0.09804321825504303, 0.05977475643157959, -0.04301542043685913, -0.004068553447723389, -0.30174585134920884, -0.5999398560691365, 0.7409592100569369,-0.0010325814434627434,-0.839385986328125,0.4116973876953125,-0.0987091064453125
20220224-0957,2022-02-24 09:57:24Z,u01, 154,40,movements,el-ex, rt, d,219339.095246375, -1.462631201684506, -0.46381264574767794, -0.4191238035518797, -0.05332754924893379, -0.04676824063062668, 0.058383211493492126, -0.889126718044281, 0.44736120104789734, -0.09654932469129562, 0.009076058864593506, -0.06103914976119995, 0.010596632957458496, -0.3025359293775239, -0.6001644337714932, 0.7404555474970983,-0.0005561906447564685,-0.8463897705078125,0.3865203857421875,-0.103424072265625
20220224-0957,2022-02-24 09:57:24Z,u01, 155,40,movements,el-ex, rt, d,219339.120192375, -1.4645891853237893, -0.4647558375457496, -0.42085912309006973, -0.04567372053861618, -0.05129767954349518, 0.027298061177134514, -0.8888939023017883, 0.44820454716682434, -0.09476345777511597, -0.0026464462280273438, -0.015099138021469116, 0.043036237359046936, -0.3033762173799463, -0.6004840887280237, 0.739852212213932,-0.0005850119280700894,-0.8984527587890625,0.4091339111328125,-0.069580078125
20220224-0957,2022-02-24 09:57:24Z,u01, 156,40,movements,el-ex, rt, d,219339.145139375, -1.4656190164791592, -0.4651299271441324, -0.42059089761764895, 0.0805734246969223, -0.014186262153089046, 0.004307790659368038, -0.8888243436813354, 0.4485389292240143, -0.0938303992152214, 0.00810229778289795, 0.010033458471298218, 0.007130026817321777, -0.30342217136532146, -0.6008492211486913, 0.7395371170924253,-0.0002038667892709789,-0.880859375,0.4630584716796875,-0.0556640625
20220224-0957,2022-02-24 09:57:24Z,u01, 157,40,movements,el-ex, rt, d,219339.17008537502, -1.4648082006463046, -0.46491579158873453, -0.41673888307094914, 0.20056122541427612, -0.1036469042301178, 0.03487502038478851, -0.8888435363769531, 0.4483475387096405, -0.09456121176481247, 0.049182891845703125, -0.010801732540130615, -0.010999083518981934, -0.30219244121119776, -0.6011648052753882, 0.7397835145929148,0.001025974962059445,-0.855712890625,0.4452972412109375,-0.097625732421875
20220224-0957,2022-02-24 09:57:24Z,u01, 158,40,movements,el-ex, rt, d,219339.19503237502, -1.4636859682198928, -0.46489202861495416, -0.40821587508970286, 0.4077380895614624, -0.08946690708398819, 0.03371015563607216, -0.8887473940849304, 0.4483262896537781, -0.09555976837873459, -0.01751786470413208, -0.052559107542037964, -0.002584688365459442, -0.2996220975325117, -0.602035475598464, 0.740110717394071,0.004002455645147562,-0.88238525390625,0.4106597900390625,-0.1014862060546875
20220224-0957,2022-02-24 09:57:24Z,u01, 159,40,movements,el-ex, rt, d,219339.21997937502, -1.4622110599895468, -0.4651354856394813, -0.39722722477847294, 0.324733167886734, -0.15913373231887817, 0.08585631847381592, -0.8884970545768738, 0.448543906211853, -0.0968586653470993, -0.0070413947105407715, -0.06051284074783325, 0.01121114194393158, -0.29639842001678596, -0.6030909084466621, 0.7405177426564548,0.007931904913853843,-0.89715576171875,0.3819427490234375,-0.089752197265625
20220224-0957,2022-02-24 09:57:24Z,u01, 160,40,movements,el-ex, rt, d,219339.244925375, -1.462297949140331, -0.46710520730117916, -0.39113522746529605, 0.07764182239770889, -0.06304354965686798, 0.09267866611480713, -0.8876252770423889, 0.45030349493026733, -0.09668558835983276, -0.06702554225921631, -0.02508684992790222, 0.009878404438495636, -0.29522981618665645, -0.6037355051167882, 0.7404220507347724,0.010860843921604496,-0.94854736328125,0.4095916748046875,-0.08740234375
20220224-0957,2022-02-24 09:57:24Z,u01, 161,40,movements,el-ex, rt, d,219339.269872375, -1.464000256487606, -0.46934418861614174, -0.39162504400941883, -0.11104433983564377, -0.09260916709899902, 0.10420109331607819, -0.8867838978767395, 0.4523015022277832, -0.09506673365831375, -0.0020710229873657227, -0.023697346448898315, 0.0005843713879585266, -0.29612922087089866, -0.6039653274159906, 0.739862752710895,0.011682397758257267,-0.9141082763671875,0.4281158447265625,-0.0946044921875
20220224-0957,2022-02-24 09:57:24Z,u01, 162,40,movements,el-ex, rt, d,219339.29481837503, -1.4670256685318923, -0.47138277089526603, -0.39421914542660025, -0.07373827695846558, -0.03848634287714958, 0.07628098130226135, -0.8861485123634338, 0.4541186988353729, -0.09228771924972534, -0.017888963222503662, -0.002016037702560425, -0.0010960102081298828, -0.29758670130722, -0.6043991208875609, 0.7389203407375893,0.011857192326519897,-0.889190673828125,0.4454498291015625,-0.09320068359375
20220224-0957,2022-02-24 09:57:24Z,u01, 163,40,movements,el-ex, rt, d,219339.31976537502, -1.4687212199806563, -0.47288447377245124, -0.3955466233862921, -0.05213538557291031, -0.05515240505337715, 0.0637872964143753, -0.8856242299079895, 0.45545610785484314, -0.09071547538042068, 0.015400350093841553, 0.004703134298324585, -0.01293741911649704, -0.2984862525915707, -0.6046058391683553, 0.7383838071079667,0.012124652990758343,-0.8848419189453125,0.459991455078125,-0.09722900390625
20220224-0957,2022-02-24 09:57:24Z,u01, 164,40,movements,el-ex, rt, d,219339.34471137502, -1.4707249445438144, -0.4739940316820924, -0.397719853375397, -0.13037335872650146, -0.022185731679201126, 0.04014262184500694, -0.885300874710083, 0.4564436078071594, -0.0888902023434639, -0.0015093088150024414, -0.0034559667110443115, -0.0075147077441215515, -0.29950637188396384, -0.6048560411477181, 0.737767680249446,0.011995724786509517,-0.8813629150390625,0.4555206298828125,-0.1026611328125
20220224-0957,2022-02-24 09:57:24Z,u01, 165,40,movements,el-ex, rt, d,219339.369658375, -1.4733834307691778, -0.4746845094084542, -0.4027498020390748, -0.24242499470710754, -0.027993422001600266, -0.002891799435019493, -0.8852204084396362, 0.4570578634738922, -0.08650568127632141, 0.01133418083190918, 0.004169642925262451, 0.0020483657717704773, -0.30124548204231155, -0.6049779495372047, 0.7369782347147332,0.010773230498468442,-0.878875732421875,0.4564971923828125,-0.0870208740234375
20220224-0957,2022-02-24 09:57:24Z,u01, 166,40,movements,el-ex, rt, d,219339.394605375, -1.4765000845857472, -0.4751968060353838, -0.4099901379907034, -0.2677014470100403, 0.016232363879680634, -0.013471473008394241, -0.8852522969245911, 0.4575134515762329, -0.08372426778078079, -0.02446138858795166, 0.0365966260433197, -0.03138797730207443, -0.3035926826852061, -0.6049540067739614, 0.7360608164298112,0.00875116175640453,-0.8882293701171875,0.4793243408203125,-0.1038818359375
20220224-0957,2022-02-24 09:57:24Z,u01, 167,40,movements,el-ex, rt, d,219339.419551375, -1.4783776241499056, -0.47472652836962154, -0.4167126103324567, -0.23626947402954102, 0.02004634216427803, -0.059006933122873306, -0.8856222033500671, 0.4570952355861664, -0.0820818841457367, -0.02285557985305786, 0.03294077515602112, -0.024531185626983643, -0.30546077626977725, -0.6046922958798605, 0.7355270437692328,0.006404836218805762,-0.9096527099609375,0.4921722412109375,-0.1127777099609375
20220224-0957,2022-02-24 09:57:24Z,u01, 168,40,movements,el-ex, rt, d,219339.444498375, -1.4797329495760358, -0.4732536030087708, -0.4217240385740845, -0.10847385972738266, 0.04369727894663811, -0.0884527713060379, -0.8864021301269531, 0.4557846784591675, -0.08094263821840286, -0.055965423583984375, 0.05887901782989502, -0.016240477561950684, -0.30647923454865433, -0.6046479635912579, 0.7351552047297909,0.004271149402058361,-0.9209747314453125,0.50018310546875,-0.10009765625
20220224-0957,2022-02-24 09:57:24Z,u01, 169,40,movements,el-ex, rt, d,219339.46944450002, -1.4784239096928486, -0.4706104405695524, -0.42380608152715066, -0.0695028230547905, 0.10424597561359406, -0.12361675500869751, -0.887491762638092, 0.4534304440021515, -0.08221372216939926, -0.049748778343200684, 0.04785120487213135, -0.04214536398649216, -0.30622621061096916, -0.6042504828045457, 0.7355956567017442,0.0024105147726281445,-0.9478912353515625,0.5122528076171875,-0.111236572265625
20220224-0957,2022-02-24 09:57:24Z,u01, 170,40,movements,el-ex, rt, d,219339.49439150002, -1.4775181674319278, -0.4679832658526067, -0.42720259755313295, -0.16133011877536774, 0.06698189675807953, -0.1189698725938797, -0.8886001110076904, 0.4510872960090637, -0.08312821388244629, -0.0024369359016418457, 0.0018240511417388916, -0.05211031436920166, -0.3063729402332674, -0.6037975769408551, 0.7359104483797296,0.00013349983717579617,-0.89886474609375,0.468017578125,-0.1394805908203125
20220224-0957,2022-02-24 09:57:24Z,u01, 171,40,movements,el-ex, rt, d,219339.5193375, -1.4784490448643177, -0.4660542747320551, -0.43144399930571586, -0.09402886778116226, 0.013123922981321812, -0.07120347768068314, -0.8895418047904968, 0.44936487078666687, -0.08238108456134796, -0.017165958881378174, -0.0019466876983642578, -0.04182540625333786, -0.3070082120690311, -0.6037842463039715, 0.7356540103575901,-0.0019367508378457104,-0.896881103515625,0.44732666015625,-0.12750244140625
20220224-0957,2022-02-24 09:57:24Z,u01, 172,40,movements,el-ex, rt, d,219339.5442845, -1.477952076196114, -0.46507873187399495, -0.4316048292322809, 0.07744507491588593, 0.020829644054174423, -0.028255611658096313, -0.8899369239807129, 0.44849318265914917, -0.08286376297473907, -0.02659761905670166, -0.020285695791244507, -0.03057003766298294, -0.30672979311492277, -0.6037258932962759, 0.7358167160358938,-0.0024022871057657463,-0.9273834228515625,0.443267822265625,-0.12200927734375
20220224-0957,2022-02-24 09:57:24Z,u01, 173,40,movements,el-ex, rt, d,219339.5692315, -1.4764727852761779, -0.46448737987273236, -0.42884515154642544, 0.07199735194444656, -0.007755593862384558, 0.004981770180165768, -0.8900771737098694, 0.44796454906463623, -0.08420510590076447, -0.004164159297943115, -0.02717292308807373, -0.019951343536376953, -0.30569716197133334, -0.6036942055224616, 0.7362739544379892,-0.0018131406325680582,-0.8957977294921875,0.4161529541015625,-0.1083831787109375
20220224-0957,2022-02-24 09:57:24Z,u01, 174,40,movements,el-ex, rt, d,219339.59417750002, -1.4751397243467583, -0.4647268510191827, -0.4266712004023656, 0.08171279728412628, 0.010379667393863201, 0.020128965377807617, -0.8898573517799377, 0.44817864894866943, -0.08538130670785904, -0.031422555446624756, -0.007794708013534546, 0.018837809562683105, -0.3051203881878178, -0.6034988761457935, 0.736674609136721,-0.0011352524416148035,-0.9071502685546875,0.4356842041015625,-0.092742919921875
20220224-0957,2022-02-24 09:57:24Z,u01, 175,40,movements,el-ex, rt, d,219339.61912450002, -1.4720068449712354, -0.4649096233528505, -0.42252409090193704, 0.22277916967868805, 0.0596994124352932, 0.03732060268521309, -0.8895038962364197, 0.4483420252799988, -0.08816061168909073, -0.025458872318267822, 0.0005715787410736084, 0.039057910442352295, -0.3039300835168202, -0.602947923135302, 0.73761800829035,-2.2047267453043085e-05,-0.9233245849609375,0.4468994140625,-0.05584716796875
20220224-0957,2022-02-24 09:57:24Z,u01, 176,40,movements,el-ex, rt, d,219339.6440705, -1.46651603658492, -0.464377306018691, -0.41496163579691836, 0.2614201009273529, 0.08792772144079208, -0.0010207952000200748, -0.8892437815666199, 0.44786614179611206, -0.0930681973695755, -0.0011829733848571777, -0.0012870728969573975, 0.046101681888103485, -0.30147460462553105, -0.6021453008683713, 0.7392774610444317,0.0017598548705211464,-0.8954925537109375,0.4537811279296875,-0.0424346923828125
20220224-0957,2022-02-24 09:57:24Z,u01, 177,40,movements,el-ex, rt, d,219339.6690175, -1.4618809761560607, -0.46327680307601915, -0.4109412996397055, 0.014732196927070618, 0.13099215924739838, -0.036047954112291336, -0.8892921209335327, 0.4468819200992584, -0.09724237769842148, -0.002416253089904785, -0.013196617364883423, 0.03452879190444946, -0.299897217921564, -0.6011991915923831, 0.7406864566676736,0.0021808832110997572,-0.8951568603515625,0.44110107421875,-0.0549468994140625
20220224-0957,2022-02-24 09:57:24Z,u01, 178,40,movements,el-ex, rt, d,219339.6939635, -1.4611869595051536, -0.46222966957761535, -0.4137500763482496, -0.12804971635341644, 0.09574656188488007, -0.06525963544845581, -0.8896891474723816, 0.4459449052810669, -0.09791068732738495, 0.020319581031799316, -0.018332600593566895, 0.03829467296600342, -0.30038660540229145, -0.6006767392969907, 0.7409149328932109,0.0006851102726443403,-0.8739013671875,0.4240264892578125,-0.0614013671875
20220224-0957,2022-02-24 09:57:24Z,u01, 179,40,movements,el-ex, rt, d,219339.7189105, -1.4624119609785498, -0.4613351983678483, -0.41822069697662856, -0.09710805118083954, 0.12788265943527222, -0.07150794565677643, -0.8902046084403992, 0.4451441168785095, -0.09686385095119476, -0.023461222648620605, 0.005570024251937866, 0.023011386394500732, -0.30142626610328777, -0.6005916098095605, 0.7405611351622584,-0.0010864594576528441,-0.8927001953125,0.442169189453125,-0.065093994140625
20220224-0957,2022-02-24 09:57:24Z,u01, 180,40,movements,el-ex, rt, d,219339.74385750003, -1.4635032914237545, -0.45902096846790613, -0.42277032874924736, -0.16253969073295593, 0.0793430283665657, -0.16732534766197205, -0.8913314938545227, 0.4430706202983856, -0.09600233286619186, 0.00020301342010498047, 0.017607420682907104, -0.015462987124919891, -0.3020106467251611, -0.6006566430475748, 0.7402632393234316,-0.0033830713964901893,-0.9145965576171875,0.4615631103515625,-0.09619140625
20220224-0957,2022-02-24 09:57:24Z,u01, 181,40,movements,el-ex, rt, d,219339.76880350002, -1.4678178104914241, -0.45427400041003396, -0.43023380346487755, -0.29906561970710754, -0.07390438765287399, -0.2729828655719757, -0.8938195705413818, 0.4388100504875183, -0.09237096458673477, -0.003031015396118164, 0.03317481279373169, -0.018865525722503662, -0.30266222231118906, -0.6018389301350096, 0.7390096787388356,-0.007087080957953906,-0.8780364990234375,0.46722412109375,-0.109710693359375
20220224-0957,2022-02-24 09:57:24Z,u01, 182,40,movements,el-ex, rt, d,219339.79375050002, -1.4748091855891616, -0.44689159316663996, -0.4394990283044066, -0.21325892210006714, -0.0952218621969223, -0.3535684645175934, -0.8976437449455261, 0.4321644902229309, -0.08642785996198654, -0.06704753637313843, 0.05333971977233887, -0.018445737659931183, -0.30300357532586975, -0.6041315294402672, 0.7369338993017273,-0.011936747626901056,-0.9560394287109375,0.4820098876953125,-0.11065673828125
20220224-0957,2022-02-24 09:57:24Z,u01, 183,40,movements,el-ex, rt, d,219339.8186965, -1.4764803329940146, -0.4384225663014412, -0.43985228169427726, 0.2966472804546356, -0.008539295755326748, -0.31826651096343994, -0.9013983011245728, 0.42451176047325134, -0.0852692648768425, -0.06756526231765747, 0.07817378640174866, -0.015972726047039032, -0.30027468234408405, -0.605970694184589, 0.7364911544548259,-0.014676901963553382,-0.9656219482421875,0.4880523681640625,-0.09735107421875
20220224-0957,2022-02-24 09:57:24Z,u01, 184,40,movements,el-ex, rt, d,219339.8436435, -1.470280264222183, -0.42965104846842145, -0.4268939298289292, 0.632594645023346, 0.04779355227947235, -0.2847473919391632, -0.9045224189758301, 0.4165535867214203, -0.0912264734506607, -0.024386882781982422, 0.0385093092918396, -0.005727827548980713, -0.2933395785166537, -0.6069091002220083, 0.7385278131842012,-0.013779067420379376,-0.9504241943359375,0.4883270263671875,-0.1025543212890625
20220224-0957,2022-02-24 09:57:24Z,u01, 185,40,movements,el-ex, rt, d,219339.86858950002, -1.462386898757514, -0.4209736767727157, -0.41149270300743135, 0.5138718485832214, 0.0711263120174408, -0.2965680956840515, -0.907333493232727, 0.4086493253707886, -0.09875067323446274, -0.03175342082977295, 0.017162472009658813, 0.017802834510803223, -0.28565779562805776, -0.6074736936991407, 0.7410991439091511,-0.012142239747238062,-0.9316253662109375,0.435272216796875,-0.0828399658203125
20220224-0957,2022-02-24 09:57:24Z,u01, 186,40,movements,el-ex, rt, d,219339.89353650002, -1.4565959585736081, -0.41233914540768646, -0.4013865984229275, 0.3358500897884369, 0.071198470890522, -0.2983470559120178, -0.9102180004119873, 0.40075352787971497, -0.10440148413181305, -0.021269917488098145, 0.014010846614837646, 0.0628519207239151, -0.2795884909738965, -0.6079716550085893, 0.7430034840384464,-0.012103303818660871,-0.9358062744140625,0.419036865234375,-0.0634613037109375
20220224-0957,2022-02-24 09:57:24Z,u01, 187,40,movements,el-ex, rt, d,219339.91848350002, -1.4503826815885517, -0.40383409934963643, -0.3927410122527756, 0.37669119238853455, 0.15231582522392273, -0.3176756501197815, -0.9129026532173157, 0.39294689893722534, -0.1104603260755539, -0.004394710063934326, 0.02712753415107727, 0.07370197772979736, -0.2739837413074004, -0.6080318645517284, 0.7450313628535608,-0.01258655222937334,-0.9269256591796875,0.4195556640625,-0.0305023193359375
20220224-0957,2022-02-24 09:57:24Z,u01, 188,40,movements,el-ex, rt, d,219339.9434295, -1.4429513092763646, -0.39467829571320984, -0.3843923643424737, 0.28302279114723206, 0.17485396564006805, -0.33380821347236633, -0.9155867099761963, 0.38451123237609863, -0.11769511550664902, 0.03793168067932129, -0.002721071243286133, 0.020985007286071777, -0.268213747051638, -0.6076296805268533, 0.7474387437843981,-0.013524236801926381,-0.8857574462890625,0.402679443359375,-0.0736846923828125
20220224-0957,2022-02-24 09:57:25Z,u01, 189,40,movements,el-ex, rt, d,219339.9683765, -1.4367045379307535, -0.385652458234619, -0.3804257303995043, 0.11349286139011383, 0.20511166751384735, -0.34257248044013977, -0.9182358384132385, 0.3761637508869171, -0.12387119978666306, 0.0234144926071167, -0.02702733874320984, 0.021469518542289734, -0.26380485786109215, -0.6070184477502666, 0.7494559148715446,-0.015861518070261135,-0.88824462890625,0.3594512939453125,-0.104583740234375
20220224-0957,2022-02-24 09:57:25Z,u01, 190,40,movements,el-ex, rt, d,219339.99332250003, -1.4313035813938677, -0.37706008795886237, -0.37947844758121135, 0.07410190999507904, 0.1935892403125763, -0.33288735151290894, -0.9207199811935425, 0.36818867921829224, -0.12927332520484924, 0.02960681915283203, -0.012658923864364624, 0.029190972447395325, -0.26044899347397066, -0.6062422459974665, 0.7511814290979346,-0.0190519683738352,-0.891845703125,0.35369873046875,-0.0945892333984375
20220224-0957,2022-02-24 09:57:25Z,u01, 191,40,movements,el-ex, rt, d,219340.01826950003, -1.4261855673857409, -0.36912567535067026, -0.37922688563364143, 0.01658988557755947, 0.20492897927761078, -0.2873148024082184, -0.922908365726471, 0.3608001470565796, -0.13440066576004028, 0.025889873504638672, 0.00039067864418029785, -0.010389924049377441, -0.25751840596836717, -0.6053791709844315, 0.7527988240277385,-0.022233147897354075,-0.89605712890625,0.3657073974609375,-0.130218505859375
20220224-0957,2022-02-24 09:57:25Z,u01, 192,40,movements,el-ex, rt, d,219340.04321550002, -1.421775001058322, -0.3623342788901005, -0.38134329777632386, -0.07171028107404709, 0.21152561902999878, -0.26586970686912537, -0.9247085452079773, 0.35445791482925415, -0.1388304978609085, 0.01627647876739502, -0.02373892068862915, -0.01522219181060791, -0.2556993724063775, -0.6043199310480308, 0.754154057038512,-0.0258269840335668,-0.90386962890625,0.3427276611328125,-0.152679443359375
20220224-0957,2022-02-24 09:57:25Z,u01, 193,40,movements,el-ex, rt, d,219340.0681625, -1.4177692223586975, -0.3564484207796372, -0.3836147797067053, -0.0026059472002089024, 0.17167028784751892, -0.22861294448375702, -0.9261909127235413, 0.3489481210708618, -0.14284910261631012, 0.012525022029876709, -0.010096162557601929, -0.006366506218910217, -0.2542392066992612, -0.6032726356919312, 0.7553651646115113,-0.029123460562237913,-0.9116668701171875,0.332427978515625,-0.151611328125
20220224-0957,2022-02-24 09:57:25Z,u01, 194,40,movements,el-ex, rt, d,219340.0931095, -1.413626199998363, -0.35116173555277563, -0.38359047161683474, 0.06756006181240082, 0.15973606705665588, -0.19086483120918274, -0.9274001717567444, 0.3439888656139374, -0.14697179198265076, -0.010466039180755615, 0.004262477159500122, -0.01626664400100708, -0.25228617780245643, -0.6023834250263339, 0.7566386667863114,-0.03136712795936521,-0.9321136474609375,0.35040283203125,-0.155914306640625
20220224-0957,2022-02-24 09:57:25Z,u01, 195,40,movements,el-ex, rt, d,219340.1180555, -1.4097384621202917, -0.34629640897519515, -0.3824417624389786, 0.07323998212814331, 0.11064215004444122, -0.18125919997692108, -0.9284626245498657, 0.33941641449928284, -0.15084274113178253, -4.112720489501953e-06, -0.004547059535980225, -0.016149386763572693, -0.25013995128582517, -0.6016715362095217, 0.7578468136424258,-0.03300731074455554,-0.9298095703125,0.33807373046875,-0.165985107421875
20220224-0957,2022-02-24 09:57:25Z,u01, 196,40,movements,el-ex, rt, d,219340.1430025, -1.406186763445587, -0.34178708536302055, -0.3803597173433219, 0.14801904559135437, 0.13559845089912415, -0.16976946592330933, -0.9294214844703674, 0.33517134189605713, -0.1543886363506317, -0.04300588369369507, -0.011318832635879517, 0.01959259808063507, -0.24783899837522788, -0.6011501568383079, 0.7589661325791983,-0.03412747210345568,-0.9484405517578125,0.31494140625,-0.1533355712890625
20220224-0957,2022-02-24 09:57:25Z,u01, 197,40,movements,el-ex, rt, d,219340.16794850002, -1.4005875057365955, -0.3372614265022099, -0.37581098906040183, 0.22675064206123352, 0.17044436931610107, -0.12972025573253632, -0.9300278425216675, 0.3309040367603302, -0.15984556078910828, -0.027278006076812744, 0.0019511282444000244, 0.009134605526924133, -0.24475008885878044, -0.6001454938130544, 0.760742041352096,-0.03455772223617054,-0.97161865234375,0.3304290771484375,-0.1414794921875
20220224-0957,2022-02-24 09:57:25Z,u01, 198,40,movements,el-ex, rt, d,219340.19289550002, -1.395535284303698, -0.3334373457256853, -0.372196369668614, 0.07938435673713684, 0.1418452262878418, -0.11456473171710968, -0.9304476976394653, 0.3272929787635803, -0.16476166248321533, 0.003308415412902832, -0.01152762770652771, -0.011874005198478699, -0.24219869933976507, -0.5991318389863728, 0.762334216552615,-0.0350337992675924,-0.9318084716796875,0.328887939453125,-0.1746063232421875
20220224-0957,2022-02-24 09:57:25Z,u01, 199,40,movements,el-ex, rt, d,219340.2178415, -1.392097609445883, -0.33048636000170584, -0.37199277678348014, 0.024293910712003708, 0.16746476292610168, -0.10717453062534332, -0.9308223128318787, 0.324503093957901, -0.16813021898269653, -0.013757884502410889, -0.016000896692276, 0.020379409193992615, -0.24100870860372958, -0.5982053918546371, 0.7633779013741154,-0.036323926328943684,-0.93524169921875,0.3074951171875,-0.1593475341796875
20220224-0957,2022-02-24 09:57:25Z,u01, 200,40,movements,el-ex, rt, d,219340.2427885, -1.388703379390957, -0.3276753342087825, -0.37083574775246875, 0.15720805525779724, 0.19330309331417084, -0.10189687460660934, -0.9311395287513733, 0.32184290885925293, -0.17145314812660217, -0.014157652854919434, 0.013148516416549683, 0.00954224169254303, -0.23958129865920846, -0.5973895085737495, 0.7644233339924729,-0.03719528632624451,-0.949493408203125,0.325469970703125,-0.14300537109375
20220224-0957,2022-02-24 09:57:25Z,u01, 201,40,movements,el-ex, rt, d,219340.26773450003, -1.3825070687462138, -0.324428748178711, -0.3669349440745239, 0.14807604253292084, 0.2094913125038147, -0.11499889940023422, -0.9310808181762695, 0.31876739859580994, -0.17741410434246063, -0.015986382961273193, 0.008915096521377563, -0.006973013281822205, -0.23712120780234877, -0.5958745521755041, 0.7663562914537527,-0.03748378926953637,-0.94757080078125,0.3358917236328125,-0.1801300048828125
20220224-0957,2022-02-24 09:57:25Z,u01, 202,40,movements,el-ex, rt, d,219340.29268150002, -1.377910993755883, -0.3208737923473746, -0.3657952086268417, 0.010557758621871471, 0.18026530742645264, -0.13922719657421112, -0.931361973285675, 0.31539586186408997, -0.18190762400627136, 0.009059667587280273, -0.0052152276039123535, -0.00583648681640625, -0.23539719281335506, -0.5946716344382375, 0.7677590569541488,-0.03872790948290883,-0.9315948486328125,0.3124847412109375,-0.192291259765625
20220224-0957,2022-02-24 09:57:25Z,u01, 203,40,movements,el-ex, rt, d,219340.31762850002, -1.3757004803187125, -0.3178559701898454, -0.36755699114474505, -0.044398266822099686, 0.15469664335250854, -0.1463945060968399, -0.9318870902061462, 0.31253063678741455, -0.1841496378183365, -0.0005317330360412598, -0.0025178492069244385, -0.006341025233268738, -0.23477349264358738, -0.5939752411584652, 0.7683906198711985,-0.0406286706973963,-0.9249420166015625,0.3082275390625,-0.1886444091796875
20220224-0957,2022-02-24 09:57:25Z,u01, 204,40,movements,el-ex, rt, d,219340.3425745, -1.3729571620291614, -0.31536043951542103, -0.36940318707465986, -0.020761746913194656, 0.16827668249607086, -0.1156943142414093, -0.9321402907371521, 0.3101591467857361, -0.186858132481575, -0.016483426094055176, 0.004110872745513916, -0.006836891174316406, -0.23435080572094386, -0.5930013762536569, 0.7691726880282895,-0.04245632867916378,-0.946746826171875,0.312774658203125,-0.1941375732421875
20220224-0957,2022-02-24 09:57:25Z,u01, 205,40,movements,el-ex, rt, d,219340.3675215, -1.3691529384110237, -0.3127324791295166, -0.37110571054497365, -0.07105281949043274, 0.17927780747413635, -0.11517353355884552, -0.932218074798584, 0.30765971541404724, -0.19056543707847595, -0.009615480899810791, 0.007785201072692871, -0.01625216007232666, -0.23380891743877433, -0.5916508012811819, 0.7702675236162008,-0.04439367410431512,-0.94537353515625,0.3145904541015625,-0.1957855224609375
20220224-0957,2022-02-24 09:57:25Z,u01, 206,40,movements,el-ex, rt, d,219340.3924675, -1.3660904874289381, -0.31052061413427123, -0.3734792991975279, -0.07150088995695114, 0.1243695467710495, -0.12020345032215118, -0.9322940111160278, 0.3055543899536133, -0.1935572475194931, 0.016659855842590332, -0.013455390930175781, -0.018723011016845703, -0.23362869790763474, -0.5904566073079075, 0.7711216251887371,-0.04636910517059155,-0.919036865234375,0.2989349365234375,-0.2183380126953125
20220224-0957,2022-02-24 09:57:25Z,u01, 207,40,movements,el-ex, rt, d,219340.4174145, -1.3636699642978691, -0.3082587636769783, -0.3754111751863129, -0.00767031405121088, 0.15284766256809235, -0.08555185794830322, -0.9324967265129089, 0.3033999502658844, -0.19595494866371155, -0.025892555713653564, -0.004281878471374512, -0.012312173843383789, -0.23330988965468102, -0.5895668084356808, 0.7717917418315644,-0.04811444132432301,-0.9383697509765625,0.2957305908203125,-0.2096405029296875
20220224-0957,2022-02-24 09:57:25Z,u01, 208,40,movements,el-ex, rt, d,219340.44236050002, -1.359462495576389, -0.30632643586119945, -0.37523208540656827, 0.04354746639728546, 0.16858960688114166, -0.05663738399744034, -0.9322355389595032, 0.30155813694000244, -0.19999927282333374, -0.009811580181121826, 0.0002454817295074463, -0.025754451751708984, -0.23244328843258039, -0.588192555888513, 0.7730357655077144,-0.04914702062519176,-0.96575927734375,0.3083038330078125,-0.2135467529296875
20220224-0957,2022-02-24 09:57:25Z,u01, 209,40,movements,el-ex, rt, d,219340.46730850002, -1.355422663231224, -0.3051918177286385, -0.37518147898898935, -0.028737349435687065, 0.12221312522888184, -0.024547826498746872, -0.9317535161972046, 0.3004761338233948, -0.20383667945861816, -0.0007720589637756348, -0.023086637258529663, -0.029836341738700867, -0.23190969487289084, -0.5867704469150807, 0.774224013479055,-0.049954778164994454,-0.930419921875,0.2886505126953125,-0.2328643798828125
20220224-0957,2022-02-24 09:57:25Z,u01, 210,40,movements,el-ex, rt, d,219340.49225550002, -1.3527944792672275, -0.30511793335154946, -0.3769973848925411, -0.1182112768292427, 0.11321011930704117, -0.009770943783223629, -0.9312363862991333, 0.3004056513309479, -0.206289604306221, -0.02541351318359375, -0.013113141059875488, -0.016244500875473022, -0.2323482632061832, -0.5855505799764096, 0.7749485570698031,-0.05098640593295664,-0.948150634765625,0.269256591796875,-0.2220001220703125
20220224-0957,2022-02-24 09:57:25Z,u01, 211,40,movements,el-ex, rt, d,219340.5172015, -1.3519064391709386, -0.3063667527447781, -0.38226594231732897, -0.3020002543926239, 0.08578414469957352, 0.03349563851952553, -0.930685818195343, 0.30159658193588257, -0.2070348560810089, -0.022134065628051758, 0.01606091856956482, -0.043224453926086426, -0.23432776249521373, -0.5844425292095116, 0.7750716665772979,-0.0527383347856365,-0.9552764892578125,0.314727783203125,-0.2407379150390625
20220224-0957,2022-02-24 09:57:25Z,u01, 212,40,movements,el-ex, rt, d,219340.5421485, -1.3525511244238126, -0.3094091802576959, -0.39273073381454726, -0.5212467312812805, 0.06143160164356232, 0.053651969879865646, -0.9299190640449524, 0.3044959306716919, -0.20623521506786346, -0.013043642044067383, -0.0050269365310668945, -0.033281922340393066, -0.23852221562978498, -0.5830862260641773, 0.7746023043465028,-0.05575829702710221,-0.951995849609375,0.30615234375,-0.2503814697265625
20220224-0957,2022-02-24 09:57:25Z,u01, 213,40,movements,el-ex, rt, d,219340.5670945, -1.3555720108023617, -0.3137345309228159, -0.40496896079467876, -0.4063206911087036, -0.014383535832166672, 0.09929029643535614, -0.9292424321174622, 0.30861303210258484, -0.20314191281795502, -0.015978574752807617, 0.02271634340286255, -0.012190043926239014, -0.24376472644857605, -0.5822437643304302, 0.773380611212588,-0.05876645693559361,-0.9364776611328125,0.313140869140625,-0.2231292724609375
20220224-0957,2022-02-24 09:57:25Z,u01, 214,40,movements,el-ex, rt, d,219340.5920415, -1.3577646390328684, -0.3176166731425064, -0.4110669206359215, -0.12187937647104263, -0.010937404818832874, 0.094741091132164, -0.9285075068473816, 0.3123033344745636, -0.20084910094738007, -0.06027722358703613, 0.061155498027801514, -0.007707938551902771, -0.2470271308902065, -0.5818531130625366, 0.7725729812103189,-0.059628144338425754,-0.9821014404296875,0.364288330078125,-0.210845947265625
20220224-0957,2022-02-24 09:57:25Z,u01, 215,40,movements,el-ex, rt, d,219340.61698750002, -1.3582178257951338, -0.31978921281377976, -0.41136430135792124, 0.03978598490357399, -0.01985812932252884, 0.06899157911539078, -0.9279329776763916, 0.3143664598464966, -0.2002846598625183, -0.04277008771896362, 0.05427059531211853, -0.00340484082698822, -0.24792203399757787, -0.58171499308396, 0.772438497808048,-0.059000181256143036,-0.9780120849609375,0.3687744140625,-0.2073516845703125
20220224-0957,2022-02-24 09:57:25Z,u01, 216,40,movements,el-ex, rt, d,219340.64193450002, -1.3581014566982312, -0.320943103966384, -0.4090896951909578, 0.10853998363018036, -0.035391613841056824, 0.05892476439476013, -0.9275546073913574, 0.3154616355895996, -0.20031596720218658, -0.03260469436645508, 0.03465127944946289, 0.012297272682189941, -0.24767911934221523, -0.5818050122834096, 0.7725416020233173,-0.05777124431128994,-0.9599761962890625,0.35992431640625,-0.2039337158203125
20220224-0957,2022-02-24 09:57:25Z,u01, 217,40,movements,el-ex, rt, d,219340.66688150002, -1.35764854013783, -0.3213042511695283, -0.4053285079509914, 0.14613565802574158, -0.01809418573975563, 0.0266631618142128, -0.9273523092269897, 0.3158043324947357, -0.2007119208574295, -0.06309568881988525, 0.033164143562316895, 0.02836395800113678, -0.24670404725481043, -0.5820491012006539, 0.772781158172097,-0.05625998259616881,-0.9803466796875,0.3495330810546875,-0.1737823486328125
20220224-0957,2022-02-24 09:57:25Z,u01, 218,40,movements,el-ex, rt, d,219340.6918275, -1.3572706053448573, -0.3215609189407848, -0.40226225663341547, 0.07267040014266968, -0.033414751291275024, 0.04390772804617882, -0.927197277545929, 0.3160478472709656, -0.2010452300310135, -0.04744267463684082, 0.037757694721221924, 0.01365208625793457, -0.24589501513378684, -0.5822482539553993, 0.7729768876751605,-0.055040500515279187,-0.9859619140625,0.3531951904296875,-0.177001953125
20220224-0957,2022-02-24 09:57:25Z,u01, 219,40,movements,el-ex, rt, d,219340.7167745, -1.3580992927499673, -0.3227137796915225, -0.40120529462445886, 0.005280705168843269, -0.050381749868392944, 0.05999615043401718, -0.927006721496582, 0.31714141368865967, -0.20019973814487457, -0.04864025115966797, 0.03852570056915283, 0.01630091667175293, -0.24603220198558834, -0.5825532453740508, 0.7727651786403149,-0.054165711556783736,-0.9728240966796875,0.35308837890625,-0.1880340576171875
20220224-0957,2022-02-24 09:57:25Z,u01, 220,40,movements,el-ex, rt, d,219340.74172050002, -1.3598650356823636, -0.3243098298218555, -0.40114462389176225, -0.02973463572561741, -0.08568534255027771, 0.06214698776602745, -0.9268625378608704, 0.3186546564102173, -0.1984563171863556, -0.05845844745635986, 0.04313120245933533, 0.0035711824893951416, -0.2466463381910422, -0.5830415302038671, 0.7722527953912549,-0.05341984701416837,-0.9830169677734375,0.352020263671875,-0.184814453125
20220224-0957,2022-02-24 09:57:25Z,u01, 221,40,movements,el-ex, rt, d,219340.76666750002, -1.3622185809112444, -0.3264102273595327, -0.40131680226971966, -0.005361552815884352, -0.1014995351433754, 0.07376842200756073, -0.9266701936721802, 0.32064488530158997, -0.19613534212112427, -0.06621909141540527, 0.027072370052337646, -0.00807294249534607, -0.24752689753114707, -0.5836632309521843, 0.7715621640897572,-0.052530212049317335,-0.99169921875,0.3533935546875,-0.205780029296875
20220224-0957,2022-02-24 09:57:25Z,u01, 222,40,movements,el-ex, rt, d,219340.7916135, -1.3647339029220287, -0.32817800786759116, -0.4000509916459988, 0.08730995655059814, -0.1187032163143158, 0.07855498790740967, -0.9266044497489929, 0.32231882214546204, -0.1936875879764557, -0.08317643404006958, 0.04726433753967285, 0.01700615882873535, -0.24786794418448443, -0.5845662376601746, 0.7708602593620486,-0.05116980920448376,-0.9949493408203125,0.3521881103515625,-0.186065673828125
20220224-0957,2022-02-24 09:57:25Z,u01, 223,40,movements,el-ex, rt, d,219340.8165605, -1.3664390111498357, -0.3292401993332063, -0.3955248660211645, 0.21713949739933014, -0.12994195520877838, 0.0784490630030632, -0.9265977144241333, 0.32332414388656616, -0.19203777611255646, -0.08875280618667603, 0.07232102751731873, 0.008566111326217651, -0.24697407186298928, -0.5856491410303458, 0.7704739414358065,-0.0488774232082633,-1.015472412109375,0.387847900390625,-0.177001953125
20220224-0957,2022-02-24 09:57:25Z,u01, 224,40,movements,el-ex, rt, d,219340.8415075, -1.3673781013364812, -0.3302920860930716, -0.3882230004312399, 0.2912100553512573, -0.14311248064041138, 0.11548231542110443, -0.9264438152313232, 0.32431933283805847, -0.19109869003295898, -0.07318991422653198, 0.07085272669792175, 0.007764413952827454, -0.2452400377066656, -0.5867776253873532, 0.7703691317027487,-0.04561469892289906,-1.0068817138671875,0.39752197265625,-0.1893157958984375
20220224-0957,2022-02-24 09:57:25Z,u01, 225,40,movements,el-ex, rt, d,219340.8664535, -1.3691055803559595, -0.3320110372838816, -0.3793933142207272, 0.35123613476753235, -0.21226298809051514, 0.15476560592651367, -0.926224946975708, 0.3259449005126953, -0.1893860101699829, -0.05033743381500244, 0.0383739173412323, 0.012017875909805298, -0.24331157276391635, -0.5883081461592482, 0.7700481803519834,-0.04145647971267388,-0.983123779296875,0.3749847412109375,-0.1782379150390625
20220224-0957,2022-02-24 09:57:25Z,u01, 226,40,movements,el-ex, rt, d,219340.89140050003, -1.3710617658420168, -0.33402273710583696, -0.36908547476627324, 0.3732762336730957, -0.1965918242931366, 0.16336369514465332, -0.9259492754936218, 0.32784608006477356, -0.187443345785141, -0.058090031147003174, 0.00723692774772644, -0.007411301136016846, -0.24104821359946038, -0.5900627806220048, 0.7696631731161504,-0.036611180581742814,-0.9864959716796875,0.3450775146484375,-0.18072509765625
20220224-0957,2022-02-24 09:57:25Z,u01, 227,40,movements,el-ex, rt, d,219340.91634650002, -1.3726888486028526, -0.3362995697877404, -0.35976016201843164, 0.2757417857646942, -0.19381234049797058, 0.1665402501821518, -0.925518810749054, 0.3299962282180786, -0.1857891082763672, -0.03723454475402832, 0.0018366575241088867, -0.022417008876800537, -0.23915389584102098, -0.5915326355989053, 0.7693270541432603,-0.03210212172153831,-0.97003173828125,0.33538818359375,-0.2032623291015625
20220224-0957,2022-02-24 09:57:25Z,u01, 228,40,movements,el-ex, rt, d,219340.94129350001, -1.3745908529645, -0.33942253921701226, -0.352643383775942, 0.20309625566005707, -0.18244537711143494, 0.19836720824241638, -0.9248550534248352, 0.3329426348209381, -0.18382659554481506, -0.02903282642364502, 0.005558311939239502, 8.036196231842041e-05, -0.23821745440854808, -0.5927386824674704, 0.7688441023938928,-0.028141859207188397,-0.951507568359375,0.3315887451171875,-0.1961669921875
20220224-0957,2022-02-24 09:57:26Z,u01, 229,40,movements,el-ex, rt, d,219340.9662395, -1.3770128650232307, -0.34372067347688384, -0.34739969845214463, 0.08027738332748413, -0.180646151304245, 0.20788854360580444, -0.9238847494125366, 0.336992472410202, -0.1813087910413742, -0.034107744693756104, 0.0006539821624755859, 0.01782621443271637, -0.23826467757037567, -0.5937807232471237, 0.7681508614304488,-0.02446524068612943,-0.9562225341796875,0.338287353515625,-0.1652374267578125
20220224-0957,2022-02-24 09:57:26Z,u01, 230,40,movements,el-ex, rt, d,219340.9911865, -1.3808698455606172, -0.3488314646880673, -0.34618773203788666, -0.06406887620687485, -0.20445959270000458, 0.2186455875635147, -0.9228739142417908, 0.34179988503456116, -0.1774166077375412, -0.02321678400039673, 0.0004089474678039551, -0.0007907003164291382, -0.2398140200814241, -0.5947948664820139, 0.7669606238194123,-0.021903297206130337,-0.95343017578125,0.3402557373046875,-0.1744537353515625
20220224-0957,2022-02-24 09:57:26Z,u01, 231,40,movements,el-ex, rt, d,219341.0161335, -1.3860076951386289, -0.3542628023160317, -0.34663143543086894, -0.034075021743774414, -0.22265644371509552, 0.20539502799510956, -0.9219347834587097, 0.34689903259277344, -0.17232905328273773, -0.014039278030395508, -0.0017299950122833252, -0.00830446183681488, -0.2419758055915282, -0.5960563607507982, 0.7653600496232503,-0.019711381901085637,-0.9420623779296875,0.3421783447265625,-0.1845550537109375
20220224-0957,2022-02-24 09:57:26Z,u01, 232,40,movements,el-ex, rt, d,219341.04107950002, -1.3913289451405197, -0.3588198429167143, -0.3453638620585297, 0.04481276869773865, -0.2481396347284317, 0.1845201700925827, -0.9212736487388611, 0.35116949677467346, -0.16713684797286987, -0.025518834590911865, 0.024715512990951538, -0.021400675177574158, -0.2432995381056454, -0.5976929914903861, 0.7637247143690151,-0.017114352883313658,-0.930877685546875,0.3677978515625,-0.181427001953125
20220224-0957,2022-02-24 09:57:26Z,u01, 233,40,movements,el-ex, rt, d,219341.06602650002, -1.3959682031607996, -0.3626960463110074, -0.3426121199802622, 0.10683219134807587, -0.2239738404750824, 0.16446231305599213, -0.9206918478012085, 0.3547961711883545, -0.1626230627298355, -0.043327927589416504, 0.018647462129592896, -0.006322145462036133, -0.24391484669296754, -0.5993279707537223, 0.7623047528599697,-0.014248227657868706,-0.961273193359375,0.375091552734375,-0.177490234375
20220224-0957,2022-02-24 09:57:26Z,u01, 234,40,movements,el-ex, rt, d,219341.0909725, -1.4000121466727466, -0.3660440619675642, -0.3372605007929622, 0.23194900155067444, -0.28221631050109863, 0.17527879774570465, -0.9201661348342896, 0.35792437195777893, -0.15869572758674622, -0.02104175090789795, 0.01182660460472107, -0.003947615623474121, -0.24354298959322734, -0.6011147530043465, 0.761074719829739,-0.010633944879653329,-0.9451751708984375,0.3622894287109375,-0.1608123779296875
20220224-0957,2022-02-24 09:57:26Z,u01, 235,40,movements,el-ex, rt, d,219341.1159195, -1.4044409076251152, -0.3695151918835975, -0.33021332692771743, 0.21244071424007416, -0.2656383514404297, 0.18016178905963898, -0.9196290969848633, 0.3611633777618408, -0.15441232919692993, -0.04869353771209717, 0.002331465482711792, -0.0196903795003891, -0.24269162655494608, -0.6032367778664938, 0.7597147508003858,-0.006290587573570566,-0.95556640625,0.365631103515625,-0.172821044921875
20220224-0957,2022-02-24 09:57:26Z,u01, 236,40,movements,el-ex, rt, d,219341.14086550003, -1.4081881118866937, -0.37312308252276716, -0.32353080495488545, 0.255199134349823, -0.22786293923854828, 0.19198547303676605, -0.91890949010849, 0.3645254075527191, -0.15075328946113586, -0.06525182723999023, 0.019782453775405884, -0.010562524199485779, -0.24198027608747752, -0.6050362805271099, 0.7585328595795898,-0.0021276266485192735,-0.977203369140625,0.3720703125,-0.166046142578125
20220224-0957,2022-02-24 09:57:26Z,u01, 237,40,movements,el-ex, rt, d,219341.16581250002, -1.4101684438378392, -0.37674451741396864, -0.3145329987772985, 0.3598543703556061, -0.21275973320007324, 0.20805485546588898, -0.9178972244262695, 0.367895245552063, -0.14872115850448608, -0.05099022388458252, 0.0285433828830719, -0.013876453042030334, -0.24055826131872132, -0.6064413768601276, 0.7578610687924134,0.002700818028142593,-0.9789886474609375,0.398345947265625,-0.1587982177734375
20220224-0957,2022-02-24 09:57:26Z,u01, 238,40,movements,el-ex, rt, d,219341.19075850002, -1.4110387730851002, -0.380603632077545, -0.30369678375851944, 0.36242976784706116, -0.1726227104663849, 0.21222563087940216, -0.9166176319122314, 0.3714809715747833, -0.14769524335861206, -0.04068821668624878, -0.010137617588043213, -0.01006530225276947, -0.23865647284633812, -0.607614568811516, 0.7574832300804452,0.008166708150786156,-0.954437255859375,0.37591552734375,-0.165374755859375
20220224-0957,2022-02-24 09:57:26Z,u01, 239,40,movements,el-ex, rt, d,219341.2157055, -1.410964795485504, -0.38447985464069045, -0.2943442562745826, 0.255351722240448, -0.1072733923792839, 0.21638669073581696, -0.9151782393455505, 0.3750770092010498, -0.14753277599811554, -0.03323173522949219, -0.006226330995559692, -0.00822882354259491, -0.2372108178051858, -0.6082471838826929, 0.757362752820471,0.012961621965406768,-0.9548187255859375,0.3608245849609375,-0.154541015625
20220224-0957,2022-02-24 09:57:26Z,u01, 240,40,movements,el-ex, rt, d,219341.2406525, -1.411739883005617, -0.3893543210951492, -0.28941178671410267, 0.017117325216531754, -0.11822005361318588, 0.23280401527881622, -0.913476288318634, 0.3795911371707916, -0.1465320885181427, -0.019201934337615967, 0.006944507360458374, -0.024457812309265137, -0.2374616362954423, -0.6085605385123527, 0.7569633891796088,0.016507488041977783,-0.933380126953125,0.3821868896484375,-0.1635284423828125
20220224-0957,2022-02-24 09:57:26Z,u01, 241,40,movements,el-ex, rt, d,219341.2655985, -1.4153600228838672, -0.39566001045162014, -0.2900743581447964, -0.10270179063081741, -0.15807992219924927, 0.24495728313922882, -0.9116179943084717, 0.38541728258132935, -0.1428508311510086, -0.02522599697113037, -0.0015976428985595703, -0.020036712288856506, -0.23990073894178277, -0.6091159312446695, 0.7556945322847495,0.018743508205424246,-0.9329986572265625,0.381927490234375,-0.1681365966796875
20220224-0957,2022-02-24 09:57:26Z,u01, 242,40,movements,el-ex, rt, d,219341.2905455, -1.419904233359198, -0.4015788998978713, -0.29117544209044355, -0.06262613832950592, -0.17578354477882385, 0.20261701941490173, -0.9099863171577454, 0.39087212085723877, -0.13836142420768738, -0.03210657835006714, 0.020077556371688843, -0.024724408984184265, -0.24231510933808792, -0.6100021919365562, 0.7541536377297283,0.02080851297399742,-0.942718505859375,0.402862548828125,-0.1539459228515625
20220224-0957,2022-02-24 09:57:26Z,u01, 243,40,movements,el-ex, rt, d,219341.31549150002, -1.4248008471281717, -0.4064573093196693, -0.29303436664775706, -0.13216839730739594, -0.16065984964370728, 0.1701180636882782, -0.9087556004524231, 0.39535775780677795, -0.13362495601177216, -0.028164565563201904, 0.006329864263534546, -0.049694061279296875, -0.24457437158053097, -0.611040832998621, 0.7525391742217883,0.02230142837043985,-0.9404144287109375,0.411285400390625,-0.1821746826171875
20220224-0957,2022-02-24 09:57:26Z,u01, 244,40,movements,el-ex, rt, d,219341.34043850002, -1.4301235807712307, -0.4107659438069658, -0.2956573854507327, -0.08225077390670776, -0.18166634440422058, 0.15515536069869995, -0.9077587723731995, 0.3993116617202759, -0.12854596972465515, -0.013505816459655762, -0.0008589327335357666, -0.02413336932659149, -0.2468511794738061, -0.6122021826139848, 0.7508169552645413,0.02338408197921573,-0.9244232177734375,0.3904266357421875,-0.162628173828125
20220224-0957,2022-02-24 09:57:26Z,u01, 245,40,movements,el-ex, rt, d,219341.3653845, -1.4347227392702548, -0.4145489641062689, -0.2950255734988798, 0.1056821420788765, -0.200913205742836, 0.15839914977550507, -0.9068373441696167, 0.40277713537216187, -0.1241639032959938, -0.0109940767288208, -0.011572301387786865, -0.02410566806793213, -0.24794529137367038, -0.61354802714413, 0.7492897049489649,0.025435197626295848,-0.9166259765625,0.39794921875,-0.149505615234375
20220224-0957,2022-02-24 09:57:26Z,u01, 246,40,movements,el-ex, rt, d,219341.3903315, -1.437087785076857, -0.41751057282282905, -0.2889932645983061, 0.26163244247436523, -0.18338407576084137, 0.13103510439395905, -0.9059421420097351, 0.405486136674881, -0.12185926735401154, -0.006350278854370117, -0.03161531686782837, 0.014895275235176086, -0.24711101875181335, -0.6148223399381555, 0.748392071411649,0.02896305712275163,-0.915252685546875,0.372406005859375,-0.1316986083984375
20220224-0957,2022-02-24 09:57:26Z,u01, 247,40,movements,el-ex, rt, d,219341.4152785, -1.4382040473848454, -0.42036598855676066, -0.28013017932599904, 0.3572215437889099, -0.19984187185764313, 0.16397841274738312, -0.9049264192581177, 0.4080946147441864, -0.12069438397884369, 0.0154152512550354, -0.035337626934051514, 0.04273724555969238, -0.24537905012328315, -0.6159885799635432, 0.7478198497871823,0.033357726405008385,-0.8987274169921875,0.3763275146484375,-0.0865325927734375
