SessionID,LoggingTime,UID,RecNo,Hertz,Activity,MoveType,Wrist,Side,TimeStamp,DMRoll,DMPitch,DMYaw,DMRotX,DMRotY,DMRotZ,DMGrvX,DMGrvY,DMGrvZ,DMUAccelX,DMUAccelY,DMUAccelZ,DMQuatX,DMQuatY,DMQuatW,DMQuatZ,AccelroX,AceelroY,AceelroZ
20220224-1005,2022-02-24 10:06:00Z,u01, 1,40,movements,el-ex, rt, d,219855.3795350417, -1.4958072283896122, 0.49802863699441235, 0.46333684061515396, -0.028015799820423126, -0.10975679755210876, 0.08961090445518494, -0.876056969165802, -0.477694571018219, -0.06581814587116241, 0.019581198692321777, -0.05068674683570862, 0.05554884672164917, 0.3271852853359102, -0.6000339305414709, 0.730006200995146,-5.551115123125783e-17,-0.8540802001953125,-0.5249786376953125,-0.0106964111328125
20220224-1005,2022-02-24 10:06:00Z,u01, 2,40,movements,el-ex, rt, d,219855.4044820417, -1.4956910848997296, 0.4953905855162149, 0.4575885677934441, -0.3422548472881317, -0.06013225018978119, 0.12607091665267944, -0.8773028254508972, -0.47537532448768616, -0.06601421535015106, -0.009614169597625732, 0.009265124797821045, 0.0368393138051033, 0.32459654644424035, -0.6013567790727506, 0.730072344549388,-0.0011784972908326918,-0.8869171142578125,-0.4661102294921875,-0.0291748046875
20220224-1005,2022-02-24 10:06:00Z,u01, 3,40,movements,el-ex, rt, d,219855.42942804168, -1.491602885504093, 0.49106226426225175, 0.4489050217075945, -0.2822172939777374, 0.7687801122665405, -0.31878167390823364, -0.8790686726570129, -0.4715628921985626, -0.06976237148046494, -0.19186943769454956, 0.04836040735244751, 0.04528719186782837, 0.32056761879091844, -0.6019594790357714, 0.7313523924193744,-0.0022153511595734976,-0.59405517578125,-0.4849700927734375,-0.1407012939453125
20220224-1005,2022-02-24 10:06:00Z,u01, 4,40,movements,el-ex, rt, d,219855.45437504168, -1.4858323167447205, 0.4875867836278893, 0.44097854655824437, -0.2633475363254547, 0.08820788562297821, 0.120522141456604, -0.8802791237831116, -0.46849524974823, -0.07497254014015198, 0.021453499794006348, 0.04028785228729248, 0.013555824756622314, 0.31704343644367766, -0.6016620229729616, 0.733128374214226,-0.003015132580946045,-0.85882568359375,-0.4282073974609375,-0.0614166259765625
20220224-1005,2022-02-24 10:06:00Z,u01, 5,40,movements,el-ex, rt, d,219855.47932104167, -1.480616647916556, 0.4846656731104645, 0.43448385727957944, -0.24138589203357697, 0.0794394239783287, 0.07370324432849884, -0.8812351226806641, -0.4659125506877899, -0.07968562841415405, 0.012933909893035889, 0.03814774751663208, 0.024006202816963196, 0.3141301278541915, -0.6012316093490518, 0.7347310984752848,-0.00358448799355765,-0.86749267578125,-0.432647705078125,-0.0542144775390625
20220224-1005,2022-02-24 10:06:00Z,u01, 6,40,movements,el-ex, rt, d,219855.50426804167, -1.476062202260756, 0.48278985470400165, 0.4290223512295756, -0.11667099595069885, 0.07345370948314667, 0.04902639240026474, -0.8817316889762878, -0.46425196528434753, -0.08378086239099503, 0.004793882369995117, 0.05260038375854492, 0.010141856968402863, 0.3118729983712693, -0.6007035897471246, 0.7361197821702974,-0.004245184351489906,-0.8769378662109375,-0.411651611328125,-0.073638916015625
20220224-1005,2022-02-24 10:06:00Z,u01, 7,40,movements,el-ex, rt, d,219855.5292140417, -1.474962950038847, 0.4820285015718694, 0.4294531991486733, 0.13032391667366028, 0.054340533912181854, 0.027214370667934418, -0.8819907307624817, -0.4635775089263916, -0.08478385955095291, -0.00858849287033081, 0.0722811222076416, -0.004831075668334961, 0.3117502903213254, -0.6003497538082273, 0.7364635419110239,-0.0036579084131025397,-0.8984527587890625,-0.3886566162109375,-0.0937347412109375
20220224-1005,2022-02-24 10:06:00Z,u01, 8,40,movements,el-ex, rt, d,219855.55416104168, -1.4764525267575503, 0.48110207373406566, 0.436947013964343, 0.37435880303382874, 0.11065547168254852, 0.0839836448431015, -0.88254314661026, -0.4627564251422882, -0.0835103914141655, -0.013254523277282715, 0.046145737171173096, -0.04057419300079346, 0.313688089697555, -0.5998704764295045, 0.7360397069051812,-0.0008190514093088797,-0.8957977294921875,-0.4166107177734375,-0.12408447265625
20220224-1005,2022-02-24 10:06:00Z,u01, 9,40,movements,el-ex, rt, d,219855.57910704167, -1.479092973181473, 0.4797890930135471, 0.44795659170674706, 0.3179919421672821, 0.07424100488424301, 0.09084421396255493, -0.8833646774291992, -0.46159207820892334, -0.08123534917831421, 0.006045520305633545, -0.008470088243484497, -0.025759391486644745, 0.31655356853870226, -0.5993130762886976, 0.7352597208088698,0.0032588017497392485,-0.8768310546875,-0.47650146484375,-0.0968780517578125
20220224-1005,2022-02-24 10:06:00Z,u01, 10,40,movements,el-ex, rt, d,219855.60405404167, -1.4805095990855077, 0.47728274899212114, 0.4534678021492024, 0.04348118603229523, -0.0042683836072683334, 0.08742690831422806, -0.8846284747123718, -0.4593672752380371, -0.08008794486522675, -0.0225522518157959, -0.032545506954193115, 0.016412921249866486, 0.317376649923398, -0.5993563948698911, 0.7348530714754766,0.00590894348014348,-0.9071807861328125,-0.491912841796875,-0.0636749267578125
20220224-1005,2022-02-24 10:06:00Z,u01, 11,40,movements,el-ex, rt, d,219855.6290000417, -1.477538705376994, 0.47398253345361885, 0.44952437562697506, -0.3033493757247925, 0.042003706097602844, 0.08958639949560165, -0.8858912587165833, -0.45643338561058044, -0.08285645395517349, -0.05961954593658447, -0.04660308361053467, 0.015214145183563232, 0.3150898759523451, -0.5994081613434479, 0.7357932104451375,0.006046462381687379,-0.9443511962890625,-0.5030059814453125,-0.0677947998046875
20220224-1005,2022-02-24 10:06:00Z,u01, 12,40,movements,el-ex, rt, d,219855.6539470417, -1.4703290143338057, 0.4694297921556302, 0.43890168141357466, -0.3938959836959839, 0.050158437341451645, 0.1641148328781128, -0.8873292803764343, -0.4523778259754181, -0.08944875001907349, -0.002837955951690674, -0.029845625162124634, 0.003206014633178711, 0.3103673881047518, -0.5991224497126663, 0.7380388910012436,0.0047974944791888685,-0.890167236328125,-0.4822235107421875,-0.08624267578125
20220224-1005,2022-02-24 10:06:00Z,u01, 13,40,movements,el-ex, rt, d,219855.67889304168, -1.4653651557229894, 0.4641806149376429, 0.42934898601570454, -0.30748191475868225, 0.03047015517950058, 0.20179051160812378, -0.8892234563827515, -0.44769027829170227, -0.09410079568624496, -0.00744396448135376, -0.03631851077079773, 0.014938123524188995, 0.3057300490533088, -0.5995654584719022, 0.7396187549830883,0.0038003269404955353,-0.9048614501953125,-0.48150634765625,-0.0792694091796875
20220224-1005,2022-02-24 10:06:00Z,u01, 14,40,movements,el-ex, rt, d,219855.70384004168, -1.460829411985318, 0.45894580399630425, 0.42273492332026097, -0.2155539095401764, 0.09453023225069046, 0.15688814222812653, -0.8911048769950867, -0.44300323724746704, -0.09838896989822388, -0.03789597749710083, -0.014836728572845459, 0.017349421977996826, 0.3019697574211708, -0.5996830664692466, 0.7410668955804731,0.0037989532680615112,-0.9290008544921875,-0.4578399658203125,-0.0810394287109375
20220224-1005,2022-02-24 10:06:00Z,u01, 15,40,movements,el-ex, rt, d,219855.72878604167, -1.4560960427853284, 0.4549448690534063, 0.4181074567253592, -0.1497628092765808, 0.1136186346411705, 0.13183492422103882, -0.8923828601837158, -0.43941280245780945, -0.10280781239271164, -0.02114570140838623, -0.0039771199226379395, 0.010965093970298767, 0.2992154126023489, -0.5992213535383916, 0.7425543162426497,0.0041341993587937775,-0.909759521484375,-0.4395751953125,-0.0958404541015625
20220224-1005,2022-02-24 10:06:00Z,u01, 16,40,movements,el-ex, rt, d,219855.75373304167, -1.4523124823121047, 0.45141418048684473, 0.4155585528768932, -0.05660350248217583, 0.09712234884500504, 0.13873423635959625, -0.8935223817825317, -0.43623849749565125, -0.10636617243289948, -0.0026567578315734863, -0.003138303756713867, -0.0009185075759887695, 0.2972406623921586, -0.5987193850913505, 0.7437464649301465,0.0049312670168287775,-0.89617919921875,-0.4393768310546875,-0.1072845458984375
20220224-1005,2022-02-24 10:06:00Z,u01, 17,40,movements,el-ex, rt, d,219855.7786790417, -1.4508806311930698, 0.4473375123073943, 0.41678958442345215, 0.11825576424598694, 0.06251423805952072, 0.20054827630519867, -0.8951274156570435, -0.4325665533542633, -0.10785730928182602, 0.005906224250793457, 0.004191368818283081, -0.009086132049560547, 0.2962129312660017, -0.5986060840014028, 0.7442313170195906,0.006962269692326717,-0.887969970703125,-0.426116943359375,-0.1237945556640625
20220224-1005,2022-02-24 10:06:00Z,u01, 18,40,movements,el-ex, rt, d,219855.80362604168, -1.4520198673013571, 0.44250248947751003, 0.42255449168508435, 0.20544137060642242, 0.05368686094880104, 0.23786042630672455, -0.8973159193992615, -0.4282022714614868, -0.10708405822515488, 0.004096925258636475, 0.004831939935684204, -0.01304847002029419, 0.29629243703971697, -0.5988896094862878, 0.7439292157956587,0.01055197815979353,-0.893218994140625,-0.423370361328125,-0.1201324462890625
20220224-1005,2022-02-24 10:06:00Z,u01, 19,40,movements,el-ex, rt, d,219855.82857204168, -1.4523548056374584, 0.4369139238223747, 0.42628630677096463, -0.04725594073534012, 0.05690835416316986, 0.24024702608585358, -0.899713933467865, -0.4231452941894531, -0.10706460475921631, -0.004979610443115234, -0.0303458571434021, 0.00016141682863235474, 0.2955040872756811, -0.5992871033387832, 0.7438703078075116,0.013756448268775923,-0.9061431884765625,-0.4566497802734375,-0.1031951904296875
20220224-1005,2022-02-24 10:06:00Z,u01, 20,40,movements,el-ex, rt, d,219855.85351904167, -1.4490076669924206, 0.4303479502601375, 0.4216317926277423, -0.3026217818260193, 0.02170456200838089, 0.26429906487464905, -0.90208899974823, -0.41718706488609314, -0.11041063815355301, 0.0077408552169799805, -0.03079572319984436, 0.015363574028015137, 0.2918383077516244, -0.5996874876718196, 0.7449759150982614,0.014705966909303092,-0.89434814453125,-0.4479827880859375,-0.0950469970703125
20220224-1005,2022-02-24 10:06:00Z,u01, 21,40,movements,el-ex, rt, d,219855.8784650417, -1.445364886119956, 0.42303901697849894, 0.4133519282007743, -0.34395894408226013, 0.027539078146219254, 0.2401980757713318, -0.904681921005249, -0.41053345799446106, -0.11407443135976791, -0.022350549697875977, -0.010441243648529053, 0.016982674598693848, 0.28681470268422155, -0.6005831422487311, 0.746206866062011,0.014579781722130203,-0.93951416015625,-0.42059326171875,-0.0977325439453125
20220224-1005,2022-02-24 10:06:01Z,u01, 22,40,movements,el-ex, rt, d,219855.9034120417, -1.4403203616239393, 0.41661133413454293, 0.4055182558698208, -0.24632097780704498, 0.1092812791466713, 0.21571184694766998, -0.9066925048828125, -0.40466395020484924, -0.11897750198841095, -0.037261903285980225, 0.010407447814941406, 0.019871599972248077, 0.28220436151232353, -0.6007261828148374, 0.7478490756887988,0.014506257453083038,-0.9439544677734375,-0.394256591796875,-0.0991058349609375
20220224-1005,2022-02-24 10:06:01Z,u01, 23,40,movements,el-ex, rt, d,219855.92835804168, -1.4361338698827224, 0.41085419962897496, 0.40280304347249857, -0.010317429900169373, 0.14451183378696442, 0.20682181417942047, -0.9084801077842712, -0.39939257502555847, -0.12308306246995926, -0.006238460540771484, 0.03258657455444336, 0.0017450526356697083, 0.2793588138571049, -0.6003475019160852, 0.7491902316408912,0.0159850770896085,-0.9149322509765625,-0.3657989501953125,-0.1214141845703125
20220224-1005,2022-02-24 10:06:01Z,u01, 24,40,movements,el-ex, rt, d,219855.95330504168, -1.4329305548869389, 0.40667705618268174, 0.40479340773847294, 0.053557224571704865, 0.17822173237800598, 0.16055965423583984, -0.9097257852554321, -0.3955595791339874, -0.12622076272964478, -0.012546002864837646, -0.005883932113647461, 0.027206405997276306, 0.27847413111927083, -0.599451232174914, 0.7501773182215418,0.018558942451232463,-0.922271728515625,-0.4014434814453125,-0.0990142822265625
20220224-1005,2022-02-24 10:06:01Z,u01, 25,40,movements,el-ex, rt, d,219855.97825025002, -1.42918338668556, 0.40257200426939904, 0.40566901692952745, -0.04390368610620499, 0.15365833044052124, 0.17438732087612152, -0.9108461737632751, -0.39178603887557983, -0.12985682487487793, 0.006488382816314697, 0.008393794298171997, 0.012135162949562073, 0.2772675012842747, -0.5984933759390997, 0.751330283235569,0.020762899873117413,-0.9069976806640625,-0.381866455078125,-0.12384033203125
20220224-1005,2022-02-24 10:06:01Z,u01, 26,40,movements,el-ex, rt, d,219856.00319725001, -1.424521623472043, 0.39799798757998717, 0.4044078393098465, -0.08750376105308533, 0.17387253046035767, 0.1726573258638382, -0.9119943380355835, -0.38757359981536865, -0.13436134159564972, -0.02133995294570923, 0.00270119309425354, 0.007728591561317444, 0.2752397788795027, -0.5975469779135169, 0.7527796002325364,0.022438565360453022,-0.9333343505859375,-0.3848724365234375,-0.1266326904296875
20220224-1005,2022-02-24 10:06:01Z,u01, 27,40,movements,el-ex, rt, d,219856.02814425, -1.4204584833049572, 0.39322144341499066, 0.4041461652660273, 0.01659434661269188, 0.1465262621641159, 0.18083123862743378, -0.9132608771324158, -0.38316598534584045, -0.13834148645401, -0.009499073028564453, 0.021715819835662842, -0.005381166934967041, 0.27343767031100596, -0.5967085525116006, 0.7540372324826269,0.024466206158086035,-0.92138671875,-0.3563690185546875,-0.1470947265625
20220224-1005,2022-02-24 10:06:01Z,u01, 28,40,movements,el-ex, rt, d,219856.05309025, -1.417360489818876, 0.38917407047341684, 0.40608030764060526, 0.05144420266151428, 0.17104144394397736, 0.17021532356739044, -0.91435307264328, -0.3794243633747101, -0.14140595495700836, -0.005706071853637695, 0.03980952501296997, -0.004529178142547607, 0.2725506901969486, -0.5958297919319926, 0.7549681775428598,0.02694546356474259,-0.9200592041015625,-0.3396148681640625,-0.14593505859375
20220224-1005,2022-02-24 10:06:01Z,u01, 29,40,movements,el-ex, rt, d,219856.07803725, -1.4150413942057676, 0.3856701058193386, 0.4081967551467182, 0.001476113684475422, 0.1722305566072464, 0.17007765173912048, -0.9153304100036621, -0.37618011236190796, -0.14373140037059784, 0.0027022957801818848, 0.026601314544677734, 0.032525256276130676, 0.27191370146141713, -0.5951447220607431, 0.7556537508441312,0.029207275254705567,-0.910247802734375,-0.3428192138671875,-0.1022186279296875
20220224-1005,2022-02-24 10:06:01Z,u01, 30,40,movements,el-ex, rt, d,219856.10298325002, -1.4114056335702543, 0.3807883433880628, 0.40800850443629555, -0.10226117074489594, 0.22645898163318634, 0.2350439429283142, -0.9166041612625122, -0.3716524541378021, -0.14734810590744019, -0.012747764587402344, 0.058404773473739624, 0.09247742593288422, 0.27007925952091694, -0.5944603803297008, 0.7567689292560598,0.031223883551084408,-0.929351806640625,-0.3132476806640625,-0.05487060546875
20220224-1005,2022-02-24 10:06:01Z,u01, 31,40,movements,el-ex, rt, d,219856.12793025002, -1.4045917438276538, 0.37256461725692624, 0.40860864564331684, 0.14475508034229279, 0.31524035334587097, 0.4165574014186859, -0.9185619950294495, -0.36400529742240906, -0.15409070253372192, -0.004014849662780762, 0.05579307675361633, 0.04827089607715607, 0.26723062007238796, -0.5929101509512581, 0.7588261381304171,0.035045660669063505,-0.9167633056640625,-0.309051513671875,-0.1341705322265625
20220224-1005,2022-02-24 10:06:01Z,u01, 32,40,movements,el-ex, rt, d,219856.15287625, -1.4010329070179972, 0.363407569762358, 0.42209619180981106, 0.6915725469589233, 0.3586779236793518, 0.4126777648925781, -0.921254575252533, -0.35546132922172546, -0.15791526436805725, 0.023442745208740234, 0.06705498695373535, -0.08807174861431122, 0.26789930289299246, -0.5909926661863953, 0.7596415080690824,0.043616061813948115,-0.8978118896484375,-0.2884063720703125,-0.2459869384765625
20220224-1005,2022-02-24 10:06:01Z,u01, 33,40,movements,el-ex, rt, d,219856.17782325, -1.400260938888659, 0.3579953522710007, 0.44445149928701133, 0.7704033255577087, 0.3242415487766266, 0.3099871873855591, -0.9230148792266846, -0.35039737820625305, -0.1589505821466446, 0.00887608528137207, 0.03884345293045044, -0.006378531455993652, 0.27255124168022, -0.5884220694571933, 0.7593175170271493,0.053965073902006944,-0.9173431396484375,-0.329193115234375,-0.145904541015625
20220224-1005,2022-02-24 10:06:01Z,u01, 34,40,movements,el-ex, rt, d,219856.20276925003, -1.3982029781635168, 0.35374510725273406, 0.45887818396310853, 0.2011115550994873, 0.24469830095767975, 0.21579580008983612, -0.9241445660591125, -0.34641343355178833, -0.16110408306121826, -0.012806057929992676, -0.05345839262008667, 0.02176070213317871, 0.27522337147124337, -0.586259377214711, 0.7594857631309164,0.06110181033318768,-0.93695068359375,-0.399871826171875,-0.13934326171875
20220224-1005,2022-02-24 10:06:01Z,u01, 35,40,movements,el-ex, rt, d,219856.22771625002, -1.392474642255788, 0.34837237455723324, 0.4583100046649202, -0.2817254066467285, 0.20440040528774261, 0.20019367337226868, -0.9250248074531555, -0.3413684070110321, -0.16672292351722717, -0.03679758310317993, -0.07753106951713562, -0.018274709582328796, 0.27297323942070334, -0.584913795329257, 0.7611444345889123,0.06340739228522252,-0.9658355712890625,-0.40631103515625,-0.1858673095703125
20220224-1005,2022-02-24 10:06:01Z,u01, 36,40,movements,el-ex, rt, d,219856.25266225002, -1.385660334252706, 0.34130840579212013, 0.4513334132980455, -0.2589165270328522, 0.14712800085544586, 0.2440478801727295, -0.9262145757675171, -0.33472031354904175, -0.17346201837062836, -0.04766249656677246, -0.024151146411895752, -0.021896377205848694, 0.2681997568568893, -0.5842412846990864, 0.7633100047047889,0.0639451586973383,-0.973876953125,-0.3588714599609375,-0.1953582763671875
20220224-1005,2022-02-24 10:06:01Z,u01, 37,40,movements,el-ex, rt, d,219856.27760925, -1.3817167679265667, 0.3351899136142267, 0.4491148213637841, -0.003947980236262083, 0.11162519454956055, 0.20335112512111664, -0.9275172352790833, -0.3289485275745392, -0.1774948239326477, -0.0688205361366272, -0.03138771653175354, 0.0061538368463516235, 0.265233896837619, -0.5838694792540123, 0.7644904019417609,0.06558744651513976,-1.0003204345703125,-0.366455078125,-0.161285400390625
20220224-1005,2022-02-24 10:06:01Z,u01, 38,40,movements,el-ex, rt, d,219856.30255525, -1.3803530823476304, 0.3313847954033335, 0.45255260654947616, 0.17902544140815735, 0.08802825957536697, 0.13153044879436493, -0.928496778011322, -0.3253527879714966, -0.17899516224861145, -0.0707554817199707, -0.05347716808319092, 0.017450273036956787, 0.2648265692959056, -0.5834117813031572, 0.7647434069663768,0.06830163180467608,-0.9992523193359375,-0.3788299560546875,-0.1615447998046875
20220224-1005,2022-02-24 10:06:01Z,u01, 39,40,movements,el-ex, rt, d,219856.32750225, -1.379941039996491, 0.3297664200741935, 0.4582705277100403, 0.1832667887210846, 0.09836478531360626, 0.08314907550811768, -0.9289386868476868, -0.3238220512866974, -0.17947737872600555, -0.05519211292266846, -0.042571961879730225, 0.00041538476943969727, 0.26589865885065, -0.582717098176007, 0.7646496237712095,0.07106070519075669,-0.9813385009765625,-0.3631744384765625,-0.176239013671875
20220224-1005,2022-02-24 10:06:01Z,u01, 40,40,movements,el-ex, rt, d,219856.35244825002, -1.379010435229396, 0.3285116135702426, 0.4618743748942128, 0.07464616000652313, 0.0661969929933548, 0.07033394277095795, -0.9291693568229675, -0.32263460755348206, -0.18041905760765076, -0.04344099760055542, -0.060818761587142944, 0.03216458857059479, 0.2664646264346894, -0.5820541826839666, 0.7647781721009366,0.07296405471521139,-0.9726104736328125,-0.383453369140625,-0.14825439453125
20220224-1005,2022-02-24 10:06:01Z,u01, 41,40,movements,el-ex, rt, d,219856.37739525002, -1.3782314739073749, 0.32685104460698305, 0.4639031524214929, 0.1022598147392273, 0.04804674908518791, 0.0919090136885643, -0.9295531511306763, -0.3210623860359192, -0.1812450885772705, -0.04859614372253418, -0.05311360955238342, 0.02887071669101715, 0.26643065504540797, -0.5817148462477576, 0.7649123340851752,0.0743747623220658,-0.97784423828125,-0.3762969970703125,-0.15863037109375
20220224-1005,2022-02-24 10:06:01Z,u01, 42,40,movements,el-ex, rt, d,219856.40234125, -1.3785107651597595, 0.32539529650772575, 0.4675960673831762, 0.1396007239818573, 0.04950656369328499, 0.11688639968633652, -0.9300615191459656, -0.31968337297439575, -0.1810745894908905, -0.06218695640563965, -0.03558701276779175, 0.01037442684173584, 0.2669931153353113, -0.5815302048909441, 0.7646754291420828,0.0762151178271061,-0.99224853515625,-0.3552703857421875,-0.1707000732421875
20220224-1005,2022-02-24 10:06:01Z,u01, 43,40,movements,el-ex, rt, d,219856.42728825, -1.3786011665415705, 0.3234028176973324, 0.4705922114980645, 0.04443925991654396, 0.025400295853614807, 0.09117051959037781, -0.9307011961936951, -0.3177947998046875, -0.18111181259155273, -0.061562418937683105, -0.048507630825042725, 0.018712475895881653, 0.26715356256958556, -0.5814405123132027, 0.7645090201068976,0.07798545724066608,-0.9891357421875,-0.3711700439453125,-0.16546630859375
20220224-1005,2022-02-24 10:06:01Z,u01, 44,40,movements,el-ex, rt, d,219856.45223425003, -1.379478687943787, 0.3219150012549042, 0.47160046835965275, 0.027166862040758133, -0.03182424232363701, 0.06494517624378204, -0.9313230514526367, -0.3163837790489197, -0.18038475513458252, -0.06025409698486328, -0.03977161645889282, 0.005839407444000244, 0.26694802258656186, -0.5818473818577633, 0.7641950269962068,0.07872935049872937,-0.9915771484375,-0.3561553955078125,-0.1745452880859375
20220224-1005,2022-02-24 10:06:01Z,u01, 45,40,movements,el-ex, rt, d,219856.47718125003, -1.3811934333723086, 0.320948291226595, 0.47313350562763823, 0.061698876321315765, -0.06706932187080383, 0.045340314507484436, -0.9319310784339905, -0.31546658277511597, -0.1788450926542282, -0.06291157007217407, -0.013116210699081421, -0.0022615939378738403, 0.26711580807604585, -0.582431624273296, 0.7636223427747804,0.0793952661513066,-0.99285888671875,-0.3270721435546875,-0.1793670654296875
20220224-1005,2022-02-24 10:06:01Z,u01, 46,40,movements,el-ex, rt, d,219856.50212725002, -1.3839654682845213, 0.3205395333214549, 0.4745443209221099, 0.02722422033548355, -0.09292548149824142, 0.0030039725825190544, -0.9325498342514038, -0.31507864594459534, -0.1762849986553192, -0.07448452711105347, -0.029266446828842163, 0.0031128376722335815, 0.26749103619694364, -0.5833575654738123, 0.762752531391514,0.07969406460626716,-1.0070343017578125,-0.3443450927734375,-0.1731719970703125
20220224-1005,2022-02-24 10:06:01Z,u01, 47,40,movements,el-ex, rt, d,219856.52707425, -1.3866822365647302, 0.32121548510648945, 0.47556881592937417, 0.06611436605453491, -0.10838646441698074, -0.03725689649581909, -0.9328155517578125, -0.3157201111316681, -0.17371176183223724, -0.06707751750946045, 0.003250688314437866, -0.01857958734035492, 0.2681396485425943, -0.5841620037799147, 0.7619284119435079,0.07950390740149071,-0.995361328125,-0.3098602294921875,-0.1937103271484375
20220224-1005,2022-02-24 10:06:01Z,u01, 48,40,movements,el-ex, rt, d,219856.55202025, -1.3904534815215652, 0.3233760746344583, 0.4774264499973394, 0.14040936529636383, -0.1311756670475006, -0.08563188463449478, -0.9327908158302307, -0.31776943802833557, -0.17006991803646088, -0.07241237163543701, 0.010274350643157959, -0.01418006420135498, 0.26960221951173224, -0.5850467356975675, 0.7607840627123466,0.07900966423764028,-1.0052032470703125,-0.3074951171875,-0.1842498779296875
20220224-1005,2022-02-24 10:06:01Z,u01, 49,40,movements,el-ex, rt, d,219856.57696725, -1.3971579960995493, 0.32697900954097486, 0.4867118008122288, 0.5655076503753662, -0.15655265748500824, -0.12348685413599014, -0.9327764511108398, -0.32118356227874756, -0.16361339390277863, -0.06961917877197266, 0.02220284938812256, -0.022650718688964844, 0.2738666253684028, -0.5858245275170567, 0.7585066195784204,0.08046413459979562,-1.001617431640625,-0.287261962890625,-0.176727294921875
20220224-1005,2022-02-24 10:06:01Z,u01, 50,40,movements,el-ex, rt, d,219856.60191325002, -1.4062559663663512, 0.3338839863938735, 0.5040055389161542, 0.7510844469070435, -0.1232125461101532, -0.20858657360076904, -0.9320162534713745, -0.3277149796485901, -0.15475338697433472, -0.07260715961456299, -0.00016584992408752441, 0.012739717960357666, 0.2817390272382853, -0.585872363779324, 0.7552501809170176,0.08350958164022787,-1.0046234130859375,-0.327880859375,-0.1420135498046875
20220224-1005,2022-02-24 10:06:01Z,u01, 51,40,movements,el-ex, rt, d,219856.62686025002, -1.414420808026652, 0.3422977619608138, 0.5196884518657249, 0.4921968877315521, -0.10608462244272232, -0.26377731561660767, -0.930492103099823, -0.3356524407863617, -0.14670392870903015, -0.07091176509857178, -0.034174829721450806, 0.016409024596214294, 0.2896155155748079, -0.5854663829106852, 0.7523555020967578,0.08551747846432828,-0.99627685546875,-0.374786376953125,-0.1342926025390625
20220224-1005,2022-02-24 10:06:01Z,u01, 52,40,movements,el-ex, rt, d,219856.65180625, -1.4192977938323883, 0.3507746348637004, 0.5269905775383453, 0.1797986775636673, -0.07646960765123367, -0.3198849558830261, -0.9283503293991089, -0.34362536668777466, -0.1417296975851059, -0.05059248208999634, -0.04359692335128784, 0.015020668506622314, 0.29489930160846967, -0.5849526089701753, 0.7507842582254293,0.08478133949745814,-0.97894287109375,-0.3872222900390625,-0.126708984375
20220224-1005,2022-02-24 10:06:01Z,u01, 53,40,movements,el-ex, rt, d,219856.67675325, -1.42076860314545, 0.3601730396357524, 0.5253638948970004, -0.17777247726917267, -0.09415959566831589, -0.42651811242103577, -0.9253235459327698, -0.3524361848831177, -0.13987521827220917, -0.04179370403289795, -0.039577335119247437, 0.044736579060554504, 0.29773068844142264, -0.5843105602156375, 0.7505973369233689,0.0808778369916644,-0.971038818359375,-0.39739990234375,-0.0861053466796875
20220224-1005,2022-02-24 10:06:01Z,u01, 54,40,movements,el-ex, rt, d,219856.70169925, -1.4197237293070974, 0.36991169292643494, 0.5174886218375799, -0.21724994480609894, -0.033557962626218796, -0.41169247031211853, -0.921739935874939, -0.36153310537338257, -0.14031876623630524, -0.08378374576568604, -0.03337961435317993, 0.019133388996124268, 0.29875034831508085, -0.5835999016590888, 0.7513662600937867,0.07488757633983184,-1.005523681640625,-0.3949127197265625,-0.121185302734375
20220224-1005,2022-02-24 10:06:01Z,u01, 55,40,movements,el-ex, rt, d,219856.72664625003, -1.419347638710117, 0.37950751151268614, 0.5150188364144478, 0.16748732328414917, -0.023720843717455864, -0.3817029595375061, -0.9182152152061462, -0.3704630732536316, -0.14013555645942688, -0.06416082382202148, 0.017756164073944092, -0.018708527088165283, 0.3013251954963082, -0.5823532873227342, 0.751694662511982,0.07087279857383527,-0.9752044677734375,-0.3416900634765625,-0.1570587158203125
20220224-1005,2022-02-24 10:06:01Z,u01, 56,40,movements,el-ex, rt, d,219856.75159225002, -1.4226271325042592, 0.38960121716261104, 0.5213354828068424, 0.34012025594711304, -0.03272412717342377, -0.3561200499534607, -0.9149247407913208, -0.3798195421695709, -0.13656450808048248, -0.0561293363571167, 0.03181236982345581, 0.004514873027801514, 0.30674617994250336, -0.5810546670360871, 0.7506403051985756,0.06943627664950636,-0.9710540771484375,-0.3480072021484375,-0.132049560546875
20220224-1005,2022-02-24 10:06:01Z,u01, 57,40,movements,el-ex, rt, d,219856.77653925002, -1.4274641552179375, 0.3990580139185692, 0.5296706301377144, 0.36414068937301636, -0.09871073067188263, -0.33401355147361755, -0.911978542804718, -0.3885505497455597, -0.1316184252500534, -0.03359323740005493, 0.0063942670822143555, -0.020939037203788757, 0.3125638505143749, -0.5800815674498623, 0.7490587257072966,0.06870311054672751,-0.9408111572265625,-0.3862457275390625,-0.155792236328125
20220224-1005,2022-02-24 10:06:01Z,u01, 58,40,movements,el-ex, rt, d,219856.80148525, -1.4338152481844264, 0.4081823687401863, 0.5370463147263104, 0.2511853575706482, -0.14600208401679993, -0.30600908398628235, -0.9092461466789246, -0.3969416916370392, -0.12533441185951233, -0.03792792558670044, 0.004226237535476685, -0.014466702938079834, 0.3180155116120337, -0.5798266356295658, 0.7470726433726687,0.06745093275649244,-0.947174072265625,-0.3927154541015625,-0.139801025390625
20220224-1005,2022-02-24 10:06:01Z,u01, 59,40,movements,el-ex, rt, d,219856.82643225, -1.43907099619882, 0.416167258216419, 0.5405854940479649, 0.08661098778247833, -0.1455620527267456, -0.3081696033477783, -0.9067212343215942, -0.4042578339576721, -0.12013380229473114, -0.051103413105010986, -0.014489084482192993, -0.01533382385969162, 0.32190943061903915, -0.5799201833778375, 0.745522859328785,0.06528816203917398,-0.9558563232421875,-0.421356201171875,-0.1399993896484375
20220224-1005,2022-02-24 10:06:01Z,u01, 60,40,movements,el-ex, rt, d,219856.85137825002, -1.4433698662931314, 0.42382711696901554, 0.5401805615839576, -0.001470840536057949, -0.19780349731445312, -0.31321612000465393, -0.9041312336921692, -0.411251962184906, -0.11583789438009262, -0.03776317834854126, 0.02314472198486328, -0.02696917951107025, 0.32450055277791345, -0.580327877416961, 0.7443703195975635,0.06190052782664879,-0.94189453125,-0.3881072998046875,-0.1428070068359375
20220224-1005,2022-02-24 10:06:01Z,u01, 61,40,movements,el-ex, rt, d,219856.87632525002, -1.4486048773798827, 0.4323535397222589, 0.5395788333621216, 0.03371104970574379, -0.2390543818473816, -0.36855193972587585, -0.9012120366096497, -0.41900894045829773, -0.1106717586517334, -0.05586487054824829, 0.03404498100280762, -0.018295638263225555, 0.32733358671112256, -0.5809619989223643, 0.7429491263104078,0.057986126239859714,-0.960784912109375,-0.385589599609375,-0.1247711181640625
20220224-1005,2022-02-24 10:06:02Z,u01, 62,40,movements,el-ex, rt, d,219856.90127125, -1.4544765646901865, 0.44219741516206823, 0.5387128722821822, -0.007931103929877281, -0.2399684637784958, -0.40229159593582153, -0.8977060317993164, -0.42792654037475586, -0.10489446669816971, -0.07316499948501587, 0.047524869441986084, 0.002217993140220642, 0.3305207997072034, -0.5816431622830802, 0.7413463388600946,0.05341266213795365,-0.9708709716796875,-0.380401611328125,-0.1026763916015625
20220224-1005,2022-02-24 10:06:02Z,u01, 63,40,movements,el-ex, rt, d,219856.92621825, -1.4598420260074758, 0.45150178926944623, 0.5375515360900903, 0.02367895282804966, -0.23906844854354858, -0.3580923080444336, -0.8942599892616272, -0.4363173246383667, -0.0996311753988266, -0.0576290488243103, 0.0279616117477417, -0.004357576370239258, 0.33340081061840166, -0.5822613776683924, 0.7398763476098456,0.04897579110836686,-0.9466400146484375,-0.4146881103515625,-0.103485107421875
20220224-1005,2022-02-24 10:06:02Z,u01, 64,40,movements,el-ex, rt, d,219856.95116425, -1.4664852194668803, 0.4600955841001743, 0.5386115542772053, 0.11251980811357498, -0.2510077953338623, -0.3183623254299164, -0.8911398649215698, -0.44403374195098877, -0.0932944044470787, -0.048603177070617676, 0.018206745386123657, -0.010679066181182861, 0.3366966109533325, -0.5830850621068037, 0.7379628067896029,0.04536679314946801,-0.9397430419921875,-0.4258270263671875,-0.103973388671875
20220224-1005,2022-02-24 10:06:02Z,u01, 65,40,movements,el-ex, rt, d,219856.97611125003, -1.4736415691585447, 0.46803159408819067, 0.5415015259523566, 0.16172634065151215, -0.226378932595253, -0.313621461391449, -0.8882493376731873, -0.4511304497718811, -0.08657020330429077, -0.05591869354248047, 0.0045209527015686035, -0.001671433448791504, 0.3402946147704007, -0.5838788177044126, 0.7358499219237964,0.04254400833828392,-0.94012451171875,-0.45111083984375,-0.08392333984375
20220224-1005,2022-02-24 10:06:02Z,u01, 66,40,movements,el-ex, rt, d,219857.00105725002, -1.4822337958355165, 0.4761999352397933, 0.5451094711667104, 0.14070773124694824, -0.32824328541755676, -0.3128888010978699, -0.8852602243423462, -0.45840519666671753, -0.0786065086722374, -0.03687417507171631, 0.003678053617477417, 0.01320725679397583, 0.34418036168337063, -0.5850099366781921, 0.7333024387911001,0.03963298993363956,-0.9221343994140625,-0.4547271728515625,-0.065399169921875
20220224-1005,2022-02-24 10:06:02Z,u01, 67,40,movements,el-ex, rt, d,219857.02600425002, -1.4904572145172905, 0.48338432363312883, 0.5476950919640527, 0.1325310319662094, -0.2234523892402649, -0.23558655381202698, -0.8825712203979492, -0.4647783935070038, -0.07105793058872223, -0.07705414295196533, -0.001957446336746216, 0.021695666015148163, 0.3474126364817471, -0.5863237110216014, 0.7308769224090197,0.03671466217444008,-0.96044921875,-0.4812774658203125,-0.0467987060546875
20220224-1005,2022-02-24 10:06:02Z,u01, 68,40,movements,el-ex, rt, d,219857.05095025, -1.4970124081572975, 0.4876598695549053, 0.5517043144668002, 0.13873636722564697, -0.14555273950099945, -0.09202773123979568, -0.8810281753540039, -0.4685598313808441, -0.06512393802404404, -0.033110618591308594, -0.072379469871521, 0.02073603868484497, 0.3500782537759453, -0.5872676128051706, 0.7289008127212254,0.03557562091592642,-0.9141387939453125,-0.5409393310546875,-0.0443878173828125
20220224-1005,2022-02-24 10:06:02Z,u01, 69,40,movements,el-ex, rt, d,219857.07589725, -1.5011484269667947, 0.4882610161181557, 0.5543552177546194, 0.07019232958555222, -0.11257987469434738, 0.02395426295697689, -0.8810087442398071, -0.4690908193588257, -0.06145981699228287, 0.004345595836639404, -0.06980380415916443, 0.026013556867837906, 0.35112278343855724, -0.5882030957761974, 0.7276412433097543,0.03561016846778259,-0.8745880126953125,-0.537017822265625,-0.0361480712890625
20220224-1005,2022-02-24 10:06:02Z,u01, 70,40,movements,el-ex, rt, d,219857.10084325002, -1.503902697422873, 0.4887754046591173, 0.554648831737384, -0.06581294536590576, -0.06812646239995956, -0.05449001118540764, -0.8809338212013245, -0.46954503655433655, -0.059016916900873184, -0.04631221294403076, -0.024809181690216064, 0.03840220347046852, 0.35142165407461784, -0.5890622742307563, 0.726828346281359,0.03505690850826937,-0.92724609375,-0.494354248046875,-0.0206146240234375
20220224-1005,2022-02-24 10:06:02Z,u01, 71,40,movements,el-ex, rt, d,219857.12579025002, -1.5036772463367258, 0.48994886306893265, 0.5518372961594031, -0.08825037628412247, -0.03559388220310211, -0.04749022424221039, -0.880370020866394, -0.4705807566642761, -0.05917851999402046, -0.04365628957748413, 0.021591007709503174, 0.022740434855222702, 0.350963033687969, -0.5892670782653802, 0.7269493082213156,0.033672253892916726,-0.917633056640625,-0.442413330078125,-0.0514678955078125
20220224-1005,2022-02-24 10:06:02Z,u01, 72,40,movements,el-ex, rt, d,219857.15073625, -1.5037376539061074, 0.49164447451897686, 0.5493672111384873, -0.10329121351242065, -0.05965041741728783, -0.08061801642179489, -0.8795761466026306, -0.4720762372016907, -0.05907178297638893, -0.019044220447540283, 0.05096426606178284, -0.019221175462007523, 0.3507760112111569, -0.5894237002364998, 0.7269800641137015,0.032182375055364754,-0.89862060546875,-0.421112060546875,-0.0782928466796875
20220224-1005,2022-02-24 10:06:02Z,u01, 73,40,movements,el-ex, rt, d,219857.17568325, -1.5047998463201049, 0.4938737111505169, 0.5467684976143308, -0.06642184406518936, -0.0957830548286438, -0.10103107988834381, -0.8785861730575562, -0.4740402400493622, -0.0580679252743721, -0.01945441961288452, 0.06837019324302673, -0.02582501247525215, 0.3507360704190987, -0.5898730764396569, 0.7267162471546422,0.030286981946631986,-0.9007568359375,-0.403472900390625,-0.0812835693359375
20220224-1005,2022-02-24 10:06:02Z,u01, 74,40,movements,el-ex, rt, d,219857.20062925, -1.5063742021370943, 0.4964404676112789, 0.5451432332180081, -0.06851448863744736, -0.07733920216560364, -0.12396901845932007, -0.8774595260620117, -0.4762987196445465, -0.05660613626241684, -0.022320687770843506, 0.058589398860931396, -0.014866169542074203, 0.3510961251757002, -0.5902782755402822, 0.726284056534959,0.02853934578261824,-0.8997802734375,-0.4177093505859375,-0.07147216796875
20220224-1005,2022-02-24 10:06:02Z,u01, 75,40,movements,el-ex, rt, d,219857.22557625, -1.5062799386322652, 0.49942116146665505, 0.541756389422223, -0.1269901543855667, -0.04312896355986595, -0.13691271841526031, -0.8760335445404053, -0.4789174795150757, -0.05659706890583038, -0.003345668315887451, 0.06496185064315796, 0.00038355961441993713, 0.35104286589120554, -0.5903137914814811, 0.7263653986575731,0.026302369344249454,-0.8768310546875,-0.4186553955078125,-0.059051513671875
20220224-1005,2022-02-24 10:06:02Z,u01, 76,40,movements,el-ex, rt, d,219857.25052225002, -1.504423171053582, 0.5007206748494676, 0.5387853393789854, 0.003790067508816719, 0.002664557658135891, -0.10215480625629425, -0.8753052353858948, -0.48005786538124084, -0.058182232081890106, 0.025222837924957275, 0.055680423974990845, -0.008803963661193848, 0.35055585535084965, -0.5899317551617147, 0.7269531980445606,0.025102509139369955,-0.8500823974609375,-0.42437744140625,-0.066986083984375
20220224-1005,2022-02-24 10:06:02Z,u01, 77,40,movements,el-ex, rt, d,219857.27546925002, -1.504959050907108, 0.501986383698188, 0.5413424267279638, 0.20856989920139313, -0.00967506691813469, -0.10698697715997696, -0.8747292160987854, -0.4811677932739258, -0.057673145085573196, 0.021824002265930176, 0.054928869009017944, 0.0018716491758823395, 0.3517193500075492, -0.589454771059079, 0.7267641242571359,0.02550340157367148,-0.8574981689453125,-0.435882568359375,-0.057952880859375
20220224-1005,2022-02-24 10:06:02Z,u01, 78,40,movements,el-ex, rt, d,219857.30041525, -1.507280819113007, 0.5041798499419249, 0.5473235486430984, 0.2135690599679947, 0.0522942915558815, -0.10643623024225235, -0.8738054633140564, -0.48308950662612915, -0.05557495355606079, -0.014744341373443604, 0.03786855936050415, -0.0036292672157287598, 0.3542077183498408, -0.5888543252821042, 0.726005901423413,0.026512740987036043,-0.8885498046875,-0.445220947265625,-0.0592041015625
20220224-1005,2022-02-24 10:06:02Z,u01, 79,40,movements,el-ex, rt, d,219857.32536225, -1.5077056740050874, 0.5070010954905622, 0.554113910288613, 0.31462886929512024, 0.13433250784873962, -0.1441286951303482, -0.8724652528762817, -0.48555776476860046, -0.05511755123734474, 0.030698955059051514, 0.07949092984199524, -0.044125672429800034, 0.357102817442724, -0.5872978822697341, 0.7257950763099212,0.02793229474227832,-0.825714111328125,-0.40264892578125,-0.1101226806640625
20220224-1005,2022-02-24 10:06:02Z,u01, 80,40,movements,el-ex, rt, d,219857.35030825002, -1.5080614004561537, 0.5083113953057394, 0.5607654871097493, 0.05409831181168556, 0.09128030389547348, 0.04170769080519676, -0.8718490600585938, -0.4867028295993805, -0.05476725473999977, 0.0265275239944458, 0.01322263479232788, 0.0005832351744174957, 0.35947249586639285, -0.5859999119576507, 0.7255988267799742,0.029831754823781254,-0.8453216552734375,-0.473480224609375,-0.0541839599609375
20220224-1005,2022-02-24 10:06:02Z,u01, 81,40,movements,el-ex, rt, d,219857.37525525002, -1.5036151638101982, 0.5066933175140949, 0.5575827125678823, -0.27553191781044006, 0.17253947257995605, 0.040752947330474854, -0.8723817467689514, -0.48528867959976196, -0.058695949614048004, -0.049630701541900635, -0.04013246297836304, 0.08652787655591965, 0.35796303624969833, -0.5852473745579664, 0.7269431546415844,0.03002906539687966,-0.9272613525390625,-0.52545166015625,0.0341339111328125
20220224-1005,2022-02-24 10:06:02Z,u01, 82,40,movements,el-ex, rt, d,219857.40020125, -1.492510409700989, 0.5049410346632468, 0.5457333207581593, -0.4459798038005829, 0.17494811117649078, 0.006926610134541988, -0.8725223541259766, -0.48375582695007324, -0.0684460997581482, 0.005945324897766113, -0.01300927996635437, 0.07494629174470901, 0.3537814381498825, -0.5836228609962334, 0.7303580012409776,0.02828742306713422,-0.8665771484375,-0.49676513671875,0.006500244140625
20220224-1005,2022-02-24 10:06:02Z,u01, 83,40,movements,el-ex, rt, d,219857.42514825, -1.4859750676060695, 0.5043567946491411, 0.5363274698471531, -0.16253815591335297, 0.022550448775291443, 0.008606133051216602, -0.8723379969596863, -0.4832444190979004, -0.07417077571153641, 0.045250654220581055, 0.05261087417602539, 0.015805840492248535, 0.3507618938181554, -0.5829928881697816, 0.7323927266057357,0.026198000735899785,-0.8279876708984375,-0.4215850830078125,-0.064117431640625
20220224-1005,2022-02-24 10:06:02Z,u01, 84,40,movements,el-ex, rt, d,219857.45009425, -1.4858069951158372, 0.5031239367572236, 0.5359623967216166, 0.10652270913124084, 0.04631802812218666, 0.09819160401821136, -0.8729184865951538, -0.4821647107601166, -0.07436790317296982, -0.009741425514221191, 0.04681617021560669, 0.006252586841583252, 0.35025681347632664, -0.5832119802792564, 0.7324486521542642,0.026513133908062148,-0.882659912109375,-0.4353485107421875,-0.068115234375
20220224-1005,2022-02-24 10:06:02Z,u01, 85,40,movements,el-ex, rt, d,219857.47504125, -1.4855408655291045, 0.5010600207563329, 0.5398638527993855, 0.12809188663959503, 0.08269567787647247, 0.11925528198480606, -0.8738882541656494, -0.48035553097724915, -0.07468478381633759, 0.01329261064529419, 0.029290497303009033, -0.0051645636558532715, 0.3507267077281629, -0.5827936033214741, 0.7324747292456455,0.02869058236485117,-0.8375091552734375,-0.449188232421875,-0.0959014892578125
20220224-1005,2022-02-24 10:06:02Z,u01, 86,40,movements,el-ex, rt, d,219857.49998725002, -1.487064482362536, 0.4983113893009765, 0.5435313953539133, 0.06804472208023071, -0.033111218363046646, 0.11574190855026245, -0.8753134608268738, -0.47794297337532043, -0.07346337288618088, 0.059151411056518555, 0.04532575607299805, -0.008796870708465576, 0.3509351215857589, -0.5831919522393678, 0.7319761717295695,0.03070115510271526,-0.816162109375,-0.4326171875,-0.0822601318359375
20220224-1005,2022-02-24 10:06:02Z,u01, 87,40,movements,el-ex, rt, d,219857.52493425002, -1.488260575021267, 0.4957093388120817, 0.5438153372897838, -0.0721704438328743, -0.0017239991575479507, 0.08071468025445938, -0.8766370415687561, -0.475655734539032, -0.07251863926649094, -0.015055954456329346, -0.008581876754760742, 0.06299705058336258, 0.35020085577093496, -0.5840377048538054, 0.7316202211311671,0.03148112450978807,-0.9055328369140625,-0.495269775390625,-0.0039825439453125
20220224-1005,2022-02-24 10:06:02Z,u01, 88,40,movements,el-ex, rt, d,219857.54988025, -1.4843164125087864, 0.4930039891560683, 0.5373741560173736, -0.35230645537376404, 0.023256514221429825, 0.09352321922779083, -0.8776232004165649, -0.473274290561676, -0.07608655095100403, 0.01664602756500244, 0.026908934116363525, 0.039038121700286865, 0.3473873666390206, -0.5841906715010412, 0.732870386348324,0.03073101803988948,-0.8609771728515625,-0.4463653564453125,-0.03704833984375
20220224-1005,2022-02-24 10:06:02Z,u01, 89,40,movements,el-ex, rt, d,219857.57482725, -1.4802692907662205, 0.4901402232718391, 0.5291407733149124, -0.19875656068325043, -0.045285459607839584, 0.08576975762844086, -0.8786542415618896, -0.4707496166229248, -0.07975996285676956, 0.04582953453063965, 0.06701728701591492, -0.01600426435470581, 0.3439943518067612, -0.5846262946888093, 0.7341775413219009,0.029383084582539687,-0.8348388671875,-0.3969879150390625,-0.1089935302734375
20220224-1005,2022-02-24 10:06:02Z,u01, 90,40,movements,el-ex, rt, d,219857.59977325003, -1.4810701229042125, 0.48771783967749843, 0.5282705316077411, 0.057314544916152954, -0.010183331556618214, 0.09068308770656586, -0.8798509240150452, -0.4686110317707062, -0.0791582241654396, 0.0031877756118774414, 0.06970053911209106, 0.005656540393829346, 0.3429658668839821, -0.5854872337236462, 0.7339578811285137,0.029747841285240828,-0.8766632080078125,-0.3989105224609375,-0.0735015869140625
20220224-1005,2022-02-24 10:06:02Z,u01, 91,40,movements,el-ex, rt, d,219857.62472025002, -1.4807718366214853, 0.48610934100052433, 0.5283450100545365, -0.15712371468544006, 0.07935826480388641, 0.04159517586231232, -0.8805769681930542, -0.4671894907951355, -0.0794883444905281, -0.004982113838195801, 0.025508582592010498, 0.058904170989990234, 0.3424611448563597, -0.5856416926828327, 0.7340448388564799,0.030371977996102528,-0.87957763671875,-0.448150634765625,-0.0102081298828125
20220224-1005,2022-02-24 10:06:02Z,u01, 92,40,movements,el-ex, rt, d,219857.64966625, -1.4766418961776315, 0.4846068768543317, 0.5212159789202979, -0.26390960812568665, -0.01863127574324608, 0.018826613202691078, -0.8809389472007751, -0.4658605456352234, -0.08319027721881866, 0.03963029384613037, 0.03980457782745361, 0.004164867103099823, 0.33982360463212935, -0.5855977955322293, 0.7353612172550901,0.02896669192913054,-0.84130859375,-0.426055908203125,-0.0790252685546875
20220224-1005,2022-02-24 10:06:02Z,u01, 93,40,movements,el-ex, rt, d,219857.67461325, -1.4752706868835193, 0.48369061309577377, 0.517721291282514, 0.021179743111133575, 0.007330748252570629, 0.029047757387161255, -0.8812485933303833, -0.4650495648384094, -0.08443883061408997, 0.0006486177444458008, 0.058341801166534424, 0.015407979488372803, 0.33848150215034783, -0.5858420077039622, 0.735814423237016,0.028223961235535666,-0.8918609619140625,-0.415435791015625,-0.0548095703125
20220224-1005,2022-02-24 10:06:02Z,u01, 94,40,movements,el-ex, rt, d,219857.69955925, -1.4737337762667768, 0.4818472455749372, 0.5171515514238766, -0.14112411439418793, 0.12052914500236511, 0.09013927727937698, -0.8819695115089417, -0.4634168744087219, -0.08587606251239777, -0.02042001485824585, -0.038948237895965576, 0.08532661199569702, 0.3376900750328094, -0.585685395854394, 0.7362764501168731,0.028897438301890455,-0.9023895263671875,-0.5023651123046875,-0.00054931640625
20220224-1005,2022-02-24 10:06:02Z,u01, 95,40,movements,el-ex, rt, d,219857.72450625, -1.4673025984983197, 0.4774392612732522, 0.5115942590151132, -0.2549135088920593, 0.20167407393455505, 0.1815434992313385, -0.8834222555160522, -0.4595063030719757, -0.09175649285316467, 0.02535945177078247, -0.04197382926940918, -0.003366895020008087, 0.334523572609251, -0.5849920780490596, 0.7382499327926544,0.02941724301924864,-0.8441009521484375,-0.47308349609375,-0.1027069091796875
20220224-1005,2022-02-24 10:06:02Z,u01, 96,40,movements,el-ex, rt, d,219857.74945225002, -1.4642533394095283, 0.4735473733244006, 0.5107850512710019, 0.1628977656364441, 0.055212851613759995, 0.10084158927202225, -0.8849096894264221, -0.4560461640357971, -0.09463929384946823, -0.0049217939376831055, 0.022849172353744507, 0.0006451010704040527, 0.3329585239825476, -0.5846528681262863, 0.7391633397972684,0.030937430046928338,-0.88983154296875,-0.433197021484375,-0.093994140625
20220224-1005,2022-02-24 10:06:02Z,u01, 97,40,movements,el-ex, rt, d,219857.77439925002, -1.464288177929895, 0.47143345194465947, 0.5168779971123205, 0.13682880997657776, 0.2271096408367157, 0.11758261173963547, -0.8858696818351746, -0.4541638493537903, -0.09471074491739273, -0.07662415504455566, 0.001069396734237671, 0.05772334337234497, 0.3340420388825902, -0.5840038901796255, 0.7390578867428899,0.03389443751941662,-0.952880859375,-0.458282470703125,-0.034759521484375
20220224-1005,2022-02-24 10:06:02Z,u01, 98,40,movements,el-ex, rt, d,219857.79934525, -1.4606917126040648, 0.4696462957623463, 0.5194869544694347, 0.02467573992908001, 0.23184068500995636, 0.09603065252304077, -0.8863287568092346, -0.45257091522216797, -0.0979851633310318, 0.02303212881088257, 0.02822396159172058, -0.02275778353214264, 0.33415041577122573, -0.5825383405970741, 0.7400623576300291,0.03606061652521769,-0.8632965087890625,-0.424346923828125,-0.1207427978515625
20220224-1005,2022-02-24 10:06:02Z,u01, 99,40,movements,el-ex, rt, d,219857.82429225, -1.4560138377635203, 0.46759954774791873, 0.5207865805729676, 0.13337981700897217, 0.22003403306007385, 0.1122143492102623, -0.8867790699005127, -0.4507448077201843, -0.10223609209060669, 0.043334126472473145, 0.08375564217567444, -0.040220096707344055, 0.33376517199069095, -0.5809326675565956, 0.7413996556760035,0.038009526853768516,-0.84893798828125,-0.3717803955078125,-0.1528778076171875
20220224-1005,2022-02-24 10:06:02Z,u01, 100,40,movements,el-ex, rt, d,219857.84923825003, -1.4530932988364882, 0.46609901933247433, 0.5261053216205224, 0.15930283069610596, 0.23605281114578247, 0.06121095269918442, -0.8871472477912903, -0.44940486550331116, -0.10490481555461884, 0.03750741481781006, 0.06402891874313354, -0.02217048406600952, 0.33475333788264505, -0.5792130813953635, 0.742141274211,0.040972555138831634,-0.849639892578125,-0.3853759765625,-0.1270751953125
20220224-1005,2022-02-24 10:06:02Z,u01, 101,40,movements,el-ex, rt, d,219857.87418525002, -1.4480591921727048, 0.4655760778616896, 0.5286963200139875, 0.013543462380766869, 0.24220196902751923, -0.0037960754707455635, -0.8868411183357239, -0.44893762469291687, -0.10939822345972061, 0.0503237247467041, 0.03426474332809448, 0.004875406622886658, 0.33522328214023706, -0.5769976062335989, 0.7435416785276554,0.0429528003299956,-0.8295745849609375,-0.4100494384765625,-0.1071929931640625
20220224-1005,2022-02-24 10:06:03Z,u01, 102,40,movements,el-ex, rt, d,219857.89913125001, -1.4418300692811032, 0.46593917520852485, 0.5283680826994916, 0.02873762883245945, 0.24286462366580963, -0.025699444115161896, -0.8859806656837463, -0.4492620527744293, -0.11489932984113693, 0.06665998697280884, 0.06742614507675171, -0.019210219383239746, 0.33511444118970896, -0.5746726420277042, 0.7453423982475028,0.043753556614560374,-0.8193206787109375,-0.3818359375,-0.1341094970703125
20220224-1005,2022-02-24 10:06:03Z,u01, 103,40,movements,el-ex, rt, d,219857.92407825, -1.4365197667227347, 0.46685484604530525, 0.5323223411497479, 0.27126365900039673, 0.2625811994075775, -0.03026929497718811, -0.8849499225616455, -0.45007991790771484, -0.11954738944768906, 0.09866458177566528, 0.05812743306159973, -0.06570971012115479, 0.33643399875460905, -0.5718727751718964, 0.7467761029911509,0.04581596884835537,-0.7683258056640625,-0.3935699462890625,-0.1880035400390625
20220224-1005,2022-02-24 10:06:03Z,u01, 104,40,movements,el-ex, rt, d,219857.94902425, -1.436314181754317, 0.4688819318585117, 0.5419058089960531, 0.37783142924308777, 0.12792101502418518, -0.045011088252067566, -0.8840194940567017, -0.45188915729522705, -0.11960675567388535, 0.14152687788009644, 0.02188125252723694, -0.02565699815750122, 0.3398392579227342, -0.5698297115441696, 0.7466098404537671,0.04875623254892447,-0.74249267578125,-0.4300079345703125,-0.145263671875
20220224-1005,2022-02-24 10:06:03Z,u01, 105,40,movements,el-ex, rt, d,219857.97397129168, -1.4376595352938302, 0.47106075864640035, 0.5498055342218084, 0.20983144640922546, 0.09891612827777863, -0.04884937033057213, -0.883201539516449, -0.4538317620754242, -0.11828633397817612, 0.09226226806640625, -0.019831538200378418, -0.004318118095397949, 0.3428441346904235, -0.5686077136338925, 0.7460344343733233,0.050751414062483236,-0.804046630859375,-0.4857025146484375,-0.1302490234375
20220224-1005,2022-02-24 10:06:03Z,u01, 106,40,movements,el-ex, rt, d,219857.99891729167, -1.4361424420945221, 0.4726127093838047, 0.5519802647114468, 0.023891374468803406, 0.0734836682677269, -0.047785237431526184, -0.8823221325874329, -0.45521414279937744, -0.11953140795230865, 0.09457194805145264, -0.02426275610923767, -0.027746498584747314, 0.34393715110583134, -0.5673989172298909, 0.7464135300480065,0.05130829348628352,-0.787750244140625,-0.4794769287109375,-0.14727783203125
20220224-1005,2022-02-24 10:06:03Z,u01, 107,40,movements,el-ex, rt, d,219858.02386429167, -1.4354034859358105, 0.4737480343730304, 0.5526727002972008, 0.03426378592848778, 0.002966226078569889, -0.02227175608277321, -0.8817209601402283, -0.4562247395515442, -0.1201135516166687, 0.10758155584335327, -0.0048348307609558105, -0.040302157402038574, 0.3444905519657586, -0.5668063906821144, 0.7466079248051118,0.05131737050142554,-0.776153564453125,-0.464691162109375,-0.153594970703125
20220224-1005,2022-02-24 10:06:03Z,u01, 108,40,movements,el-ex, rt, d,219858.0488102917, -1.4352482209086672, 0.4743644353019756, 0.5530336214637375, -0.03263581916689873, 0.014342584647238255, -0.025771014392375946, -0.8814234733581543, -0.45677316188812256, -0.12021242082118988, 0.08024555444717407, -0.03941214084625244, -0.00043892860412597656, 0.34479297358182365, -0.5665788515743386, 0.7466439605972615,0.051274443807169,-0.801177978515625,-0.496185302734375,-0.1206512451171875
20220224-1005,2022-02-24 10:06:03Z,u01, 109,40,movements,el-ex, rt, d,219858.07375729168, -1.4335026198001481, 0.47483891127480543, 0.549960757198176, -0.16753335297107697, 0.031041868031024933, -0.05377795174717903, -0.880997359752655, -0.4571951925754547, -0.12172114849090576, 0.06372147798538208, -0.04570391774177551, 0.016176000237464905, 0.3440355801654752, -0.5663735019997522, 0.7472170902180608,0.050270134345575535,-0.8191070556640625,-0.4998626708984375,-0.1029510498046875
20220224-1005,2022-02-24 10:06:03Z,u01, 110,40,movements,el-ex, rt, d,219858.09870329167, -1.4298874860438746, 0.4757379051689447, 0.5436329053261264, -0.20740899443626404, 0.07470545917749405, -0.06496801972389221, -0.8801442980766296, -0.4579945504665375, -0.12484750151634216, 0.0076773762702941895, -0.04850563406944275, 0.058090224862098694, 0.34245389165116435, -0.5659519246834663, 0.7483968413466218,0.04822696323864073,-0.872467041015625,-0.506500244140625,-0.0667572021484375
20220224-1005,2022-02-24 10:06:03Z,u01, 111,40,movements,el-ex, rt, d,219858.12365029167, -1.4222217266245996, 0.47561509998021106, 0.5389763722458922, -0.020940713584423065, 0.3573411703109741, 0.07126651704311371, -0.8792170882225037, -0.45788535475730896, -0.1315990835428238, -0.017862379550933838, -0.03222692012786865, 0.030921518802642822, 0.340913521669809, -0.5638957627520151, 0.7506741243736481,0.047832026531441585,-0.877105712890625,-0.4886932373046875,-0.1271820068359375
20220224-1005,2022-02-24 10:06:03Z,u01, 112,40,movements,el-ex, rt, d,219858.1485962917, -1.41779640940284, 0.47430735782376676, 0.5468815652836313, 0.5343509316444397, 0.20322781801223755, 0.1078653410077095, -0.8792172074317932, -0.4567223787307739, -0.13557973504066467, 0.1788693070411682, 0.033306241035461426, -0.05861896276473999, 0.34258901375060635, -0.5611086325475664, 0.751722808790309,0.05198777214700895,-0.700347900390625,-0.4234161376953125,-0.1941986083984375
20220224-1005,2022-02-24 10:06:03Z,u01, 113,40,movements,el-ex, rt, d,219858.1735432917, -1.424044267575721, 0.4751172227978266, 0.5623455981136221, 0.35176384449005127, -0.04429023712873459, 0.014816224575042725, -0.8796809315681458, -0.4574427008628845, -0.13002978265285492, 0.13665425777435303, -0.012329638004302979, -0.020589768886566162, 0.34736508569840513, -0.56064481405962, 0.7495522930283836,0.05644741733248598,-0.77972412109375,-0.479217529296875,-0.131072998046875
20220224-1005,2022-02-24 10:06:03Z,u01, 114,40,movements,el-ex, rt, d,219858.19848929168, -1.4249104952260547, 0.4743593059240279, 0.5642502001543896, -0.17243146896362305, 0.028982646763324738, 0.053027790039777756, -0.8801358938217163, -0.45676860213279724, -0.12931807339191437, 0.019906461238861084, -0.06961381435394287, 0.019744589924812317, 0.3476720812968665, -0.5607718692197281, 0.7492530853992244,0.05726051357911355,-0.8602294921875,-0.5263824462890625,-0.1095733642578125
20220224-1005,2022-02-24 10:06:03Z,u01, 115,40,movements,el-ex, rt, d,219858.22343629168, -1.4210234544369602, 0.47203738292722935, 0.5561713328741603, -0.33811715245246887, -0.021440446376800537, 0.05001775175333023, -0.8806729912757874, -0.45470181107521057, -0.13289611041545868, 0.08288252353668213, -0.01836642622947693, -0.0022663474082946777, 0.3445240456882296, -0.5611195285996408, 0.7505657795807011,0.055669161832933856,-0.791748046875,-0.465576171875,-0.1460418701171875
20220224-1005,2022-02-24 10:06:03Z,u01, 116,40,movements,el-ex, rt, d,219858.24838229167, -1.4182581866275652, 0.46974696618591394, 0.5493751222583406, -0.13397032022476196, 0.008543751202523708, 0.04672681912779808, -0.8813290596008301, -0.4526606798171997, -0.13548877835273743, 0.08468306064605713, 0.008080631494522095, -0.028772160410881042, 0.34177528340949337, -0.5616451441587762, 0.7515257173067269,0.05434495136316869,-0.7966461181640625,-0.444580078125,-0.1642608642578125
20220224-1005,2022-02-24 10:06:03Z,u01, 117,40,movements,el-ex, rt, d,219858.27332929167, -1.4186752387370967, 0.46927712217077117, 0.5489903612910254, 0.07738276571035385, -0.030830353498458862, -0.02708914689719677, -0.8815956711769104, -0.4522416591644287, -0.13515342772006989, 0.08388149738311768, 0.0180223286151886, -0.007348477840423584, 0.3415212798327619, -0.561948843004246, 0.7514186295003457,0.0542836173396915,-0.8047943115234375,-0.42919921875,-0.14178466796875
20220224-1005,2022-02-24 10:06:03Z,u01, 118,40,movements,el-ex, rt, d,219858.2982752917, -1.4202405966448794, 0.4715715541823656, 0.5510814034689001, 0.09470692276954651, -0.044400423765182495, -0.12186725437641144, -0.880777895450592, -0.4542868733406067, -0.13361725211143494, 0.11196386814117432, 0.06770551204681396, 0.005611196160316467, 0.3429182625448087, -0.5617814862473594, 0.7509244299448027,0.05404639500902242,-0.7688140869140625,-0.3865814208984375,-0.1280059814453125
20220224-1005,2022-02-24 10:06:03Z,u01, 119,40,movements,el-ex, rt, d,219858.32322229168, -1.424243501553048, 0.47637274688795744, 0.5538877831444662, 0.1532469093799591, -0.1733158528804779, -0.18973426520824432, -0.8791379332542419, -0.4585587978363037, -0.12977054715156555, 0.13611119985580444, 0.05009627342224121, -0.011098682880401611, 0.34541417580509226, -0.5619642130539059, 0.7497295801320708,0.052828684564918404,-0.7483673095703125,-0.4168853759765625,-0.1475830078125
20220224-1005,2022-02-24 10:06:03Z,u01, 120,40,movements,el-ex, rt, d,219858.34816829168, -1.4306596515355792, 0.481160519565097, 0.557788300808994, 0.16642038524150848, -0.19331027567386627, -0.12677998840808868, -0.8777685165405273, -0.4628082513809204, -0.12381915748119354, 0.07895559072494507, 0.019235193729400635, 0.0009705275297164917, 0.3482671066934738, -0.5628502860654863, 0.7478286557264063,0.05159454173998035,-0.7988128662109375,-0.443572998046875,-0.1228485107421875
20220224-1005,2022-02-24 10:06:03Z,u01, 121,40,movements,el-ex, rt, d,219858.37311529167, -1.4373203158520773, 0.4837508798491929, 0.5606513481853781, -0.01384005881845951, -0.24069750308990479, -0.06552914530038834, -0.8773826360702515, -0.4651029407978058, -0.11780999600887299, 0.06173926591873169, -0.03321865200996399, 0.01261584460735321, 0.3500992637549342, -0.5643806405240951, 0.7458823727692575,0.05064207051644398,-0.8241424560546875,-0.507659912109375,-0.0970611572265625
20220224-1005,2022-02-24 10:06:03Z,u01, 122,40,movements,el-ex, rt, d,219858.3980612917, -1.4404696151735723, 0.4828235937759515, 0.5558396052043518, -0.3175130784511566, -0.21359816193580627, 0.07313665747642517, -0.8781763315200806, -0.4642818570137024, -0.11510224640369415, 0.04205584526062012, -0.05051913857460022, 0.04230249673128128, 0.3485116406939722, -0.5665584813698413, 0.7451096828607229,0.04860658979064486,-0.83612060546875,-0.514801025390625,-0.0727996826171875
20220224-1005,2022-02-24 10:06:03Z,u01, 123,40,movements,el-ex, rt, d,219858.4230082917, -1.4427937342993822, 0.4797578689929769, 0.5464896239295168, -0.33565735816955566, -0.2832014858722687, 0.07977352291345596, -0.8798490762710571, -0.46156439185142517, -0.11324211955070496, 0.04067683219909668, -0.03855764865875244, 0.06378830224275589, 0.34490013374054346, -0.5695812842885348, 0.7446668328721996,0.0457414849325512,-0.8594512939453125,-0.4974822998046875,-0.0543670654296875
20220224-1005,2022-02-24 10:06:03Z,u01, 124,40,movements,el-ex, rt, d,219858.44795429168, -1.4439257443150693, 0.476550195878703, 0.5392427006791323, -0.16400063037872314, -0.13252435624599457, 0.10784190893173218, -0.8814408183097839, -0.458716481924057, -0.1124328002333641, -0.0013715624809265137, 0.016013264656066895, 0.037390001118183136, 0.34179797690265495, -0.5718021883191144, 0.7445049137874372,0.04391734821672666,-0.8828125,-0.4427032470703125,-0.075042724609375
20220224-1005,2022-02-24 10:06:03Z,u01, 125,40,movements,el-ex, rt, d,219858.47290129168, -1.4478293880103972, 0.47505926578112156, 0.5398679974917021, 0.1811411827802658, -0.1188783198595047, 0.03323078528046608, -0.8825508952140808, -0.4573911428451538, -0.1090749055147171, 0.010663628578186035, 0.02906164526939392, 0.003285631537437439, 0.3415701274042958, -0.5734042166879345, 0.743372878347732,0.043980132218126966,-0.8791046142578125,-0.42730712890625,-0.1105194091796875
20220224-1005,2022-02-24 10:06:03Z,u01, 126,40,movements,el-ex, rt, d,219858.49784729167, -1.4542789018054139, 0.4747870186445289, 0.547670385843748, 0.34139472246170044, -0.15343590080738068, 0.030114751309156418, -0.8833595514297485, -0.45714902877807617, -0.10339511185884476, 0.03964012861251831, 0.04616883397102356, -0.006330966949462891, 0.34386448779121465, -0.5745081876391711, 0.7413461879102358,0.04586202725982258,-0.843719482421875,-0.410980224609375,-0.1097259521484375
20220224-1005,2022-02-24 10:06:03Z,u01, 127,40,movements,el-ex, rt, d,219858.52279429167, -1.4629316451641732, 0.47556836529917307, 0.5568459929928751, 0.2657873332500458, -0.17266331613063812, 0.005512538366019726, -0.8838657140731812, -0.4578438103199005, -0.09570936858654022, 0.025848805904388428, 0.022037595510482788, -0.005899004638195038, 0.3469612905913211, -0.575988870681978, 0.7386462574564121,0.047500484760967965,-0.8679351806640625,-0.4519195556640625,-0.094635009765625
20220224-1005,2022-02-24 10:06:03Z,u01, 128,40,movements,el-ex, rt, d,219858.5477402917, -1.4673082558193338, 0.4755231161625009, 0.5601778836119953, -0.04324325546622276, -0.09926427155733109, 0.020492486655712128, -0.8842968940734863, -0.4578035771846771, -0.09184228628873825, 0.026646077632904053, -0.02263471484184265, 0.0029750391840934753, 0.3480114359568029, -0.5770328389523307, 0.7373050220532932,0.04798476551892483,-0.8576507568359375,-0.480438232421875,-0.0888671875
20220224-1005,2022-02-24 10:06:03Z,u01, 129,40,movements,el-ex, rt, d,219858.5726872917, -1.4692951599400705, 0.47465493148256105, 0.5564147944795789, -0.20338939130306244, -0.16362328827381134, 0.015033272095024586, -0.8848726749420166, -0.4570315480232239, -0.09012532979249954, 0.0404818058013916, -0.05569428205490112, 0.00997084379196167, 0.3466890024377464, -0.5785707149743661, 0.7368149137653262,0.04654547874552961,-0.854736328125,-0.515167236328125,-0.075897216796875
20220224-1005,2022-02-24 10:06:03Z,u01, 130,40,movements,el-ex, rt, d,219858.59763329168, -1.4698525993785252, 0.4728252048060544, 0.5501047515901428, -0.24076272547245026, -0.10015083849430084, 0.06827013194561005, -0.8857532143592834, -0.45540332794189453, -0.08971616625785828, 0.011058449745178223, -0.004954278469085693, 0.01523793488740921, 0.34427832997372476, -0.5801847547675989, 0.7367877883488951,0.04474161082882411,-0.87469482421875,-0.460357666015625,-0.0744781494140625
20220224-1005,2022-02-24 10:06:03Z,u01, 131,40,movements,el-ex, rt, d,219858.62258029167, -1.468679862435833, 0.4705012706954926, 0.5430553163625523, -0.2760363817214966, -0.10632983595132828, 0.07991860061883926, -0.8866978883743286, -0.45333313941955566, -0.09086250513792038, 0.05266773700714111, 0.03769901394844055, 0.015087246894836426, 0.34144732261975763, -0.5813626015885529, 0.7372728252038354,0.04312843547032463,-0.8191375732421875,-0.4097442626953125,-0.07928466796875
20220224-1005,2022-02-24 10:06:03Z,u01, 132,40,movements,el-ex, rt, d,219858.6475262917, -1.4707312803978003, 0.4689921056041881, 0.5371045891867839, -0.1313347965478897, -0.252861887216568, 0.013376985676586628, -0.8875621557235718, -0.45198744535446167, -0.0891115739941597, 0.0413859486579895, 0.03591075539588928, -0.01008588820695877, 0.33926439485209287, -0.5833899935751883, 0.7367950939739318,0.04109535223831251,-0.8461761474609375,-0.41607666015625,-0.0991973876953125
20220224-1005,2022-02-24 10:06:03Z,u01, 133,40,movements,el-ex, rt, d,219858.67247229168, -1.4759741314444037, 0.46865261384430973, 0.5350086090164805, -0.09587250649929047, -0.17435528337955475, 0.009056339971721172, -0.8881697654724121, -0.4516845941543579, -0.08447153121232986, -0.038542211055755615, 0.02506411075592041, 0.028181791305541992, 0.33864658450783713, -0.5857326409861097, 0.73530369931857,0.03955011346495718,-0.94451904296875,-0.4344024658203125,-0.0488433837890625
20220224-1005,2022-02-24 10:06:03Z,u01, 134,40,movements,el-ex, rt, d,219858.69741929168, -1.4756435229900984, 0.4673201392289844, 0.5299197857303827, -0.2586234509944916, -0.024399619549512863, 0.05221046507358551, -0.8887401819229126, -0.4504953920841217, -0.08482226729393005, 0.015586495399475098, -0.0005849301815032959, 0.01258707046508789, 0.3367133149756268, -0.5866966923939856, 0.7354950760152162,0.0381854779855918,-0.8731536865234375,-0.451080322265625,-0.072235107421875
20220224-1005,2022-02-24 10:06:03Z,u01, 135,40,movements,el-ex, rt, d,219858.72236529167, -1.4758928096213557, 0.46594797450619935, 0.5240042460832703, -0.16306036710739136, -0.26641178131103516, 0.0092682596296072, -0.8893758058547974, -0.4492699205875397, -0.08465921133756638, 0.10284632444381714, 0.03177422285079956, 0.014392383396625519, 0.33453167302104286, -0.5880127168129846, 0.7355285576233561,0.036432271582517495,-0.7979278564453125,-0.40509033203125,-0.0607147216796875
20220224-1005,2022-02-24 10:06:03Z,u01, 136,40,movements,el-ex, rt, d,219858.74731229167, -1.4798838875566807, 0.46576153847487367, 0.5201120946605002, -0.17751304805278778, -0.08211831003427505, -0.012076109647750854, -0.8897901177406311, -0.44910335540771484, -0.08111659437417984, -0.08553653955459595, 0.04144948720932007, 0.026245884597301483, 0.3333948813413285, -0.590160620153321, 0.7344216220782482,0.034398659318915004,-0.9753265380859375,-0.40765380859375,-0.05487060546875
20220224-1005,2022-02-24 10:06:03Z,u01, 137,40,movements,el-ex, rt, d,219858.7722582917, -1.477911729565125, 0.4651033550209446, 0.5150413451075957, -0.1754203587770462, -0.005706691183149815, -0.007654796354472637, -0.8899224400520325, -0.4485151767730713, -0.08289862424135208, 0.0023797154426574707, 0.08642411231994629, 0.013150632381439209, 0.3316494340892438, -0.5903891424239489, 0.7350881370865329,0.033086608930095074,-0.85076904296875,-0.35003662109375,-0.070343017578125
20220224-1005,2022-02-24 10:06:03Z,u01, 138,40,movements,el-ex, rt, d,219858.7972052917, -1.4777693789778552, 0.46627874605570724, 0.5107180353097247, -0.18143342435359955, -0.13146229088306427, -0.10638463497161865, -0.8893849849700928, -0.44956541061401367, -0.08297626674175262, 0.13535678386688232, 0.11176642775535583, -0.0045482441782951355, 0.33075615548776377, -0.5908572006870974, 0.7352002178198357,0.03112307827491867,-0.7540283203125,-0.337799072265625,-0.0875244140625
20220224-1005,2022-02-24 10:06:03Z,u01, 139,40,movements,el-ex, rt, d,219858.82215129168, -1.4788977636589742, 0.46758870243618694, 0.5021535420007789, -0.3839285671710968, -0.23611485958099365, -0.046528160572052, -0.8888909220695496, -0.4507351219654083, -0.08191853761672974, 0.10094237327575684, 0.1100369393825531, 0.04026199132204056, 0.32866931774396285, -0.5924670541620715, 0.7349907646018853,0.027345564340926498,-0.810302734375,-0.3470916748046875,-0.027069091796875
20220224-1005,2022-02-24 10:06:03Z,u01, 140,40,movements,el-ex, rt, d,219858.84709829168, -1.477972313517579, 0.46758845070030997, 0.49113608182058605, -0.39757490158081055, -0.05019885674118996, -0.052779197692871094, -0.8888148665428162, -0.4507349133491516, -0.0827411413192749, -0.021677017211914062, 0.04268443584442139, 0.03491998463869095, 0.3253897093851833, -0.5939284201054601, 0.7354051523300967,0.023446956707734723,-0.910491943359375,-0.408050537109375,-0.047821044921875
20220224-1005,2022-02-24 10:06:03Z,u01, 141,40,movements,el-ex, rt, d,219858.87204429167, -1.4737230130232462, 0.46762143042802423, 0.48188837378706145, -0.19908848404884338, -0.031575970351696014, -0.020962480455636978, -0.8884403705596924, -0.45076435804367065, -0.08651577681303024, 0.01571410894393921, 0.021855086088180542, -0.011110059916973114, 0.3226076115116245, -0.5938572559614944, 0.7367689229864596,0.02072061565281408,-0.862213134765625,-0.436248779296875,-0.101348876953125
20220224-1005,2022-02-24 10:06:04Z,u01, 142,40,movements,el-ex, rt, d,219858.89699129167, -1.475621348034724, 0.469080767511457, 0.48122731352137454, 0.086525559425354, -0.12070957571268082, -0.10107302665710449, -0.8879473805427551, -0.4520665407180786, -0.08476646989583969, -0.05268067121505737, -0.06776988506317139, 0.051319122314453125, 0.322913486700094, -0.594427156649309, 0.7362037988539911,0.019677546139584834,-0.9406280517578125,-0.51983642578125,-0.033447265625
20220224-1005,2022-02-24 10:06:04Z,u01, 143,40,movements,el-ex, rt, d,219858.92193729169, -1.4758176132584115, 0.47014758566093207, 0.48085579434671466, -0.19047614932060242, 0.11860407888889313, 0.02714499458670616, -0.8874832987785339, -0.45301786065101624, -0.08454640954732895, -0.1273329257965088, -0.10446196794509888, 0.08521771430969238, 0.3231578906929136, -0.5943868891426596, 0.7361429958856326,0.019148279405159063,-1.006591796875,-0.5505218505859375,-0.0033721923828125
20220224-1005,2022-02-24 10:06:04Z,u01, 144,40,movements,el-ex, rt, d,219858.94688429168, -1.4684760372511458, 0.46819613457984166, 0.4733189218052993, -0.2706138491630554, 0.11419554054737091, 0.04959338158369064, -0.8877164721488953, -0.4512772858142853, -0.0911497250199318, 0.03236985206604004, -0.035630643367767334, 0.00470859557390213, 0.320204203881596, -0.593206883551856, 0.7384058836310021,0.018209545945677197,-0.8553466796875,-0.486907958984375,-0.0864410400390625
20220224-1005,2022-02-24 10:06:04Z,u01, 145,40,movements,el-ex, rt, d,219858.97183029167, -1.4670125150464166, 0.4666344204826483, 0.46942309834395246, 0.01237330213189125, -0.08086123317480087, 0.06019122526049614, -0.888282060623169, -0.4498830735683441, -0.09252172708511353, 0.04155653715133667, 0.02072960138320923, -0.04192359000444412, 0.31851506130847795, -0.5935379459921454, 0.7388867308186757,0.017530490465420878,-0.871185302734375,-0.414459228515625,-0.13079833984375
20220224-1005,2022-02-24 10:06:04Z,u01, 146,40,movements,el-ex, rt, d,219858.99677716667, -1.4699566175869205, 0.46527908923214756, 0.4732961508266764, 0.17466208338737488, 0.04396059736609459, 0.08676239103078842, -0.8891564607620239, -0.44867223501205444, -0.08996743708848953, -0.04643625020980835, 0.09547698497772217, -0.022856183350086212, 0.31924051349535937, -0.5942236750941564, 0.7379869861508215,0.01894778836183253,-0.9355926513671875,-0.3531951904296875,-0.112823486328125
20220224-1005,2022-02-24 10:06:04Z,u01, 147,40,movements,el-ex, rt, d,219859.0217231667, -1.4716178174852013, 0.4646788677124884, 0.477269568873138, 0.02069960907101631, -0.05503695458173752, -0.01997191458940506, -0.8895723223686218, -0.44813573360443115, -0.08851687610149384, 0.016083061695098877, 0.058578938245773315, -0.02275025099515915, 0.3202379296989844, -0.5942972566919462, 0.737457942291708,0.020350309312560544,-0.8690643310546875,-0.40057373046875,-0.108154296875
20220224-1005,2022-02-24 10:06:04Z,u01, 148,40,movements,el-ex, rt, d,219859.0466701667, -1.4717765978779755, 0.465265791855059, 0.4750090229065318, -0.1044497936964035, -0.000287691131234169, -0.028718534857034683, -0.8893245458602905, -0.44866034388542175, -0.08834961801767349, -0.0447574257850647, 0.01262521743774414, -0.025282680988311768, 0.31976259720966577, -0.5946234704976953, 0.7374296926807362,0.01929331133504003,-0.93408203125,-0.43603515625,-0.1136322021484375
20220224-1005,2022-02-24 10:06:04Z,u01, 149,40,movements,el-ex, rt, d,219859.07161616668, -1.4703755935913745, 0.4646341330939422, 0.4737717559632115, 0.0029837284237146378, -0.032698094844818115, 0.04309147223830223, -0.8894817233085632, -0.44809573888778687, -0.08962387591600418, -0.009901821613311768, -0.013085901737213135, -0.021948516368865967, 0.319171277738683, -0.5944053827395377, 0.7378620611537366,0.019273885013909253,-0.8838653564453125,-0.4668426513671875,-0.10296630859375
20220224-1005,2022-02-24 10:06:04Z,u01, 150,40,movements,el-ex, rt, d,219859.09656316668, -1.471336233754561, 0.46269559932475085, 0.473067192901088, -0.08567103743553162, -0.010750452056527138, 0.06371472030878067, -0.8904300928115845, -0.4463618993759155, -0.08885544538497925, -0.07226216793060303, -0.07289469242095947, 0.030322670936584473, 0.3183260779096195, -0.5951813043167296, 0.7375953215682001,0.01951486194350882,-0.9626922607421875,-0.519256591796875,-0.05853271484375
20220224-1005,2022-02-24 10:06:04Z,u01, 151,40,movements,el-ex, rt, d,219859.12150916667, -1.4665288947750605, 0.4592364766351347, 0.46893313894497696, -0.1697385162115097, 0.1640823483467102, 0.16833753883838654, -0.8915228247642517, -0.44326382875442505, -0.0932951346039772, -0.057497382164001465, -0.07066738605499268, 0.03024572879076004, 0.31589559763602826, -0.5946111367390801, 0.7390877965468365,0.019916665125859268,-0.9119873046875,-0.50177001953125,-0.0823822021484375
20220224-1005,2022-02-24 10:06:04Z,u01, 152,40,movements,el-ex, rt, d,219859.1464561667, -1.464476078426411, 0.45506668909085085, 0.46626595439589474, -0.0676180049777031, -0.1350170075893402, 0.13345332443714142, -0.8931595683097839, -0.4395222067832947, -0.09532038122415543, 0.058961689472198486, -0.02066749334335327, -0.02220289409160614, 0.3136864059770491, -0.5949291104186358, 0.739752236407806,0.02065643051767818,-0.834197998046875,-0.4601898193359375,-0.117523193359375
20220224-1005,2022-02-24 10:06:04Z,u01, 153,40,movements,el-ex, rt, d,219859.17140216668, -1.4655876420517966, 0.45123465785693945, 0.4637314844796413, -0.15857833623886108, 0.023431885987520218, 0.1807946115732193, -0.8949334621429443, -0.43607693910598755, -0.09450370818376541, -0.07679194211959839, -0.016925960779190063, 0.007910013198852539, 0.3116586469099748, -0.596336341448444, 0.7394712671186032,0.0208341173921342,-0.982086181640625,-0.4429473876953125,-0.0851898193359375
20220224-1005,2022-02-24 10:06:04Z,u01, 154,40,movements,el-ex, rt, d,219859.19634916668, -1.4624003919215933, 0.44681049951731033, 0.4581698884664086, -0.29042714834213257, 0.07489275187253952, 0.12701426446437836, -0.8965370059013367, -0.4320913553237915, -0.09756337851285934, -0.00615769624710083, 0.0678640604019165, -0.01081991195678711, 0.30848014430550863, -0.5967062182463823, 0.7405071925395521,0.020757435056542317,-0.9026947021484375,-0.364227294921875,-0.1083831787109375
20220224-1005,2022-02-24 10:06:04Z,u01, 155,40,movements,el-ex, rt, d,219859.22129516667, -1.4574115220206305, 0.44425290043217075, 0.4506765024786298, -0.19768746197223663, 0.06707297265529633, 0.06678401678800583, -0.8971342444419861, -0.429783433675766, -0.10215955227613449, 0.027261078357696533, 0.0793653130531311, -0.029035642743110657, 0.305331600184386, -0.5963998963590602, 0.7420886594132883,0.019603302803649802,-0.862060546875,-0.3491363525390625,-0.13385009765625
20220224-1005,2022-02-24 10:06:04Z,u01, 156,40,movements,el-ex, rt, d,219859.24624216667, -1.4570668238820308, 0.44234961853094873, 0.4511530935067246, 0.22151003777980804, -0.06459750235080719, 0.08552674949169159, -0.8979100584983826, -0.42806410789489746, -0.10256143659353256, 0.07904702425003052, 0.11385509371757507, -0.0607687383890152, 0.30482629846413545, -0.5964899069341001, 0.7422006551092872,0.02047012690789768,-0.8188629150390625,-0.314208984375,-0.163330078125
20220224-1005,2022-02-24 10:06:04Z,u01, 157,40,movements,el-ex, rt, d,219859.2711881667, -1.4645235525106695, 0.4421001700921482, 0.4594380479834224, 0.2623317241668701, -0.14496244490146637, -0.01724683679640293, -0.8987557888031006, -0.42783865332603455, -0.09587447345256805, -0.003999829292297363, 0.10381832718849182, -0.014309339225292206, 0.30729635288443957, -0.5980231716680026, 0.7398862514984161,0.02248243700142538,-0.939849853515625,-0.339874267578125,-0.1031494140625
20220224-1005,2022-02-24 10:06:04Z,u01, 158,40,movements,el-ex, rt, d,219859.29613416668, -1.4656074342330792, 0.4429734205207616, 0.46209698148522543, -0.025320779532194138, 0.07286528497934341, -0.04162587970495224, -0.8984874486923218, -0.42862778902053833, -0.09486102312803268, -0.05045664310455322, 0.05616077780723572, -0.00973808765411377, 0.30839731988792485, -0.5978800717106691, 0.739527750896358,0.023005422549943033,-0.948944091796875,-0.372467041015625,-0.1045989990234375
20220224-1005,2022-02-24 10:06:04Z,u01, 159,40,movements,el-ex, rt, d,219859.32108116668, -1.4640876594664451, 0.44396875992733864, 0.4612249662516226, 0.059062644839286804, -0.10113933682441711, -0.06617602705955505, -0.8979174494743347, -0.42952683568000793, -0.09618091583251953, 0.06140017509460449, 0.04997977614402771, -0.029368512332439423, 0.3084541358137047, -0.5972985766251173, 0.7399867388677346,0.022582589233102635,-0.82977294921875,-0.3930206298828125,-0.1263275146484375
20220224-1005,2022-02-24 10:06:04Z,u01, 160,40,movements,el-ex, rt, d,219859.34602716667, -1.4677994956343778, 0.4453022468172816, 0.4637065567502731, 0.16620515286922455, -0.1111295223236084, -0.04970903694629669, -0.8976979851722717, -0.4307306706905365, -0.09278839081525803, -0.06328535079956055, -0.014627635478973389, 0.007140748202800751, 0.3096854304194706, -0.5980808789117206, 0.7388430900181779,0.022477903743227945,-0.9609832763671875,-0.4453582763671875,-0.0856475830078125
20220224-1005,2022-02-24 10:06:04Z,u01, 161,40,movements,el-ex, rt, d,219859.37097416667, -1.4704493305143205, 0.446319515868995, 0.46724824736862447, 0.07417938113212585, -0.019826438277959824, -0.035071972757577896, -0.8975041508674622, -0.43164852261543274, -0.09036535769701004, -0.07167309522628784, 0.004219323396682739, 0.004076838493347168, 0.31111577819577707, -0.5983513120018784, 0.7380055809420082,0.023031492026811595,-0.9539947509765625,-0.427215576171875,-0.0933074951171875
20220224-1005,2022-02-24 10:06:04Z,u01, 162,40,movements,el-ex, rt, d,219859.3959201667, -1.4706058728646532, 0.44731058821971104, 0.4671626649562603, -0.03268685191869736, -0.033870019018650055, -0.057108230888843536, -0.8970922231674194, -0.4325422942638397, -0.09018202871084213, -0.007326722145080566, -0.0009293556213378906, -0.010587096214294434, 0.31142355780598785, -0.5982677925991003, 0.7379555758787159,0.022641375043882583,-0.9044189453125,-0.4334716796875,-0.10076904296875
20220224-1005,2022-02-24 10:06:04Z,u01, 163,40,movements,el-ex, rt, d,219859.4208671667, -1.4713708199791036, 0.4480891672826086, 0.4670598310956522, 0.06386785209178925, -0.04854123666882515, -0.005736521445214748, -0.8968254923820496, -0.43324413895606995, -0.08946231007575989, 0.001104116439819336, -0.0025925934314727783, -0.0075531527400016785, 0.31166178302516756, -0.598444464245411, 0.7377244092619683,0.022221671222943884,-0.89739990234375,-0.4390106201171875,-0.0969696044921875
20220224-1005,2022-02-24 10:06:04Z,u01, 164,40,movements,el-ex, rt, d,219859.44581316668, -1.4733584946225555, 0.4475161990086686, 0.4694424133081027, 0.054967932403087616, -0.014053369872272015, 0.06911128759384155, -0.8972485065460205, -0.4327276647090912, -0.08770368248224258, -0.008284330368041992, -0.010585904121398926, 0.009364962577819824, 0.31220598610598693, -0.5988953013137477, 0.7371048844253619,0.02298352588005481,-0.9055328369140625,-0.4433135986328125,-0.078338623046875
20220224-1005,2022-02-24 10:06:04Z,u01, 165,40,movements,el-ex, rt, d,219859.47076016667, -1.4738114940079194, 0.4450065727201524, 0.469070642031931, -0.07229907065629959, -0.03858374431729317, 0.11064168810844421, -0.8983661532402039, -0.4304638206958771, -0.0874020978808403, -0.008829832077026367, -0.02531614899635315, 0.032363541424274445, 0.31126178573334856, -0.5995123450978511, 0.7369823235974531,0.02362341286747599,-0.911041259765625,-0.4622955322265625,-0.06134033203125
20220224-1005,2022-02-24 10:06:04Z,u01, 166,40,movements,el-ex, rt, d,219859.4957061667, -1.4727966724839985, 0.441971639382271, 0.4669031484098895, -0.05986703932285309, -0.015754597261548042, 0.11976061016321182, -0.8995729684829712, -0.4277224838733673, -0.0884411484003067, -0.010644197463989258, -0.002804189920425415, 0.00979728251695633, 0.3095851169255557, -0.5999470645379154, 0.7373223174477956,0.0240067444196006,-0.91021728515625,-0.4305267333984375,-0.078643798828125
20220224-1005,2022-02-24 10:06:04Z,u01, 167,40,movements,el-ex, rt, d,219859.5206531667, -1.4732041367245015, 0.4396298411308231, 0.46554363558416106, -0.08871399611234665, -0.035680368542671204, 0.08173467218875885, -0.9006033539772034, -0.42560452222824097, -0.08817195147275925, -0.018113017082214355, 0.010458707809448242, 0.01581466943025589, 0.3083981349484727, -0.6006701366856695, 0.7372236289792964,0.024233142798181784,-0.9297637939453125,-0.4209442138671875,-0.0757293701171875
20220224-1005,2022-02-24 10:06:04Z,u01, 168,40,movements,el-ex, rt, d,219859.54559916668, -1.4738693960708575, 0.43827715985130095, 0.46369483894633245, -0.032463643699884415, 0.013269596733152866, 0.07278778403997421, -0.9012341499328613, -0.4243800938129425, -0.08762845396995544, -0.05173832178115845, 0.008578062057495117, -0.021945007145404816, 0.30739751152282646, -0.6014087992124976, 0.7370501048680225,0.023906072733421213,-0.952972412109375,-0.415802001953125,-0.1095733642578125
20220224-1005,2022-02-24 10:06:04Z,u01, 169,40,movements,el-ex, rt, d,219859.57054616668, -1.4763342503766825, 0.43772182067055976, 0.46770975044316676, 0.3055378496646881, -0.0449875183403492, 0.026193182915449142, -0.9016819000244141, -0.42387717962265015, -0.08542899042367935, -0.02527439594268799, 0.04722920060157776, -0.035649605095386505, 0.3084496247580722, -0.6017842913290582, 0.7362607662966383,0.02519302982471644,-0.9201812744140625,-0.3742523193359375,-0.1207733154296875
20220224-1005,2022-02-24 10:06:04Z,u01, 170,40,movements,el-ex, rt, d,219859.59549216667, -1.4831204352887746, 0.43782687938089276, 0.47769911537399884, 0.3393923044204712, -0.1519670933485031, 0.02198738604784012, -0.9021964073181152, -0.42397233843803406, -0.07930418103933334, -0.0010323524475097656, 0.022925615310668945, -0.021724343299865723, 0.3115825859303134, -0.6027140294792906, 0.7340848047522968,0.027777482766488282,-0.903228759765625,-0.4010467529296875,-0.1010284423828125
20220224-1005,2022-02-24 10:06:04Z,u01, 171,40,movements,el-ex, rt, d,219859.62043916667, -1.4883130359565608, 0.4378494029319143, 0.48164965515316394, -0.08421079814434052, -0.09303193539381027, -0.010154638439416885, -0.9025864005088806, -0.42399272322654724, -0.07461759448051453, -0.06034994125366211, -0.003009200096130371, 0.018571972846984863, 0.31285479846740405, -0.6039975804089686, 0.7324627906149005,0.028407623892807488,-0.978515625,-0.43408203125,-0.04425048828125
20220224-1005,2022-02-24 10:06:04Z,u01, 172,40,movements,el-ex, rt, d,219859.6453851667, -1.484717427483257, 0.4367637442340295, 0.4742920020819014, -0.32630765438079834, 0.02543012425303459, -0.005789318587630987, -0.902770459651947, -0.4230092465877533, -0.07790198922157288, -0.03366142511367798, -0.007685363292694092, 0.03194242715835571, 0.31022309930194236, -0.6039955584894947, 0.733649311805951,0.026639843853814626,-0.936431884765625,-0.430694580078125,-0.04595947265625
20220224-1005,2022-02-24 10:06:04Z,u01, 173,40,movements,el-ex, rt, d,219859.6703321667, -1.480883388544554, 0.4355986072608288, 0.46752280133572427, -0.08238449692726135, -0.009810222312808037, 0.03428799286484718, -0.9029554128646851, -0.4219531714916229, -0.08140686899423599, 0.02514779567718506, -0.002027541399002075, 0.018128573894500732, 0.3077414321276562, -0.6038143573186827, 0.7348954523636866,0.025142142412601154,-0.8699951171875,-0.4246978759765625,-0.0637664794921875
20220224-1005,2022-02-24 10:06:04Z,u01, 174,40,movements,el-ex, rt, d,219859.69527816668, -1.4826675841922232, 0.43427304371211195, 0.4687980810862464, 0.09359192103147507, -0.08082674443721771, 0.07474154233932495, -0.9036554098129272, -0.42075103521347046, -0.07984483242034912, 0.019378185272216797, 0.0029959678649902344, 0.04709941893815994, 0.30770728441581324, -0.6044781310177902, 0.734341468153583,0.025785385115321247,-0.88427734375,-0.417755126953125,-0.032745361328125
20220224-1005,2022-02-24 10:06:04Z,u01, 175,40,movements,el-ex, rt, d,219859.72022516667, -1.484369941223039, 0.43238585036225513, 0.4688769518408074, -0.16304059326648712, 0.022327471524477005, 0.06480968743562698, -0.9045795202255249, -0.4190382659435272, -0.07837477326393127, -0.03563642501831055, -0.034208714962005615, 0.05354864150285721, 0.30712424479637757, -0.6053819545799392, 0.7338263973599964,0.02619295619842904,-0.94500732421875,-0.45654296875,-0.0283203125
20220224-1005,2022-02-24 10:06:04Z,u01, 176,40,movements,el-ex, rt, d,219859.7451711667, -1.480984994633909, 0.4297289050312168, 0.46319700259640173, -0.21263034641742706, 0.07561659067869186, 0.12261951714754105, -0.9054148197174072, -0.41662436723709106, -0.08153585344552994, 0.006611168384552002, 0.00579679012298584, 0.03211253881454468, 0.30447414190667127, -0.6054152039074434, 0.7349260840657229,0.025525958342092148,-0.8988037109375,-0.41082763671875,-0.0494232177734375
20220224-1005,2022-02-24 10:06:04Z,u01, 177,40,movements,el-ex, rt, d,219859.77011716668, -1.479488560075567, 0.42698669813559237, 0.46035541866062196, -0.05166053771972656, -0.012227839790284634, 0.0740111693739891, -0.9064261317253113, -0.41412991285324097, -0.08299452066421509, 0.01091831922531128, -0.001992523670196533, 0.019197404384613037, 0.30267657023542727, -0.6057141530076793, 0.7354182337223973,0.025637350054206864,-0.9070892333984375,-0.411834716796875,-0.06793212890625
20220224-1005,2022-02-24 10:06:04Z,u01, 178,40,movements,el-ex, rt, d,219859.79506416668, -1.4813912020701299, 0.4258142314276989, 0.46086695695558333, 0.001601281575858593, 0.019231680780649185, 0.07491864264011383, -0.9070653319358826, -0.4130624532699585, -0.08131305873394012, -0.031395912170410156, 0.03008216619491577, 0.011473484337329865, 0.30246337116635236, -0.6065141221309099, 0.7348359518323782,0.025934661693803485,-0.9384613037109375,-0.3829803466796875,-0.0698394775390625
20220224-1005,2022-02-24 10:06:04Z,u01, 179,40,movements,el-ex, rt, d,219859.82001016667, -1.4822173905852807, 0.42448242726913543, 0.4618379783720407, 0.0011265063658356667, 0.04845600947737694, 0.05556344985961914, -0.9076793193817139, -0.4118492007255554, -0.08061221241950989, -0.005452334880828857, 0.04368516802787781, -0.019424498081207275, 0.30232290867262385, -0.6068729295956206, 0.7345730077118153,0.02661784480666851,-0.908477783203125,-0.3665924072265625,-0.105438232421875
20220224-1005,2022-02-24 10:06:04Z,u01, 180,40,movements,el-ex, rt, d,219859.84495716667, -1.4829072319979144, 0.42394030326902377, 0.46260953875592464, 0.025520894676446915, -0.0040352242067456245, 0.01316319964826107, -0.9079570770263672, -0.4113551378250122, -0.08000563085079193, -0.012819290161132812, 0.04007828235626221, -0.035564541816711426, 0.30238486540743004, -0.607091901233745, 0.7343533616011826,0.026980724915137866,-0.9207763671875,-0.37127685546875,-0.115570068359375
20220224-1005,2022-02-24 10:06:04Z,u01, 181,40,movements,el-ex, rt, d,219859.8699031667, -1.483877311817537, 0.4237147684345374, 0.46504258223996825, 0.16049262881278992, 0.03648437559604645, 0.010858900845050812, -0.9081265926361084, -0.4111495316028595, -0.07913284748792648, -0.042938411235809326, 0.04652556777000427, -0.024611763656139374, 0.3030612943367648, -0.607114015489511, 0.734025403554623,0.027803535336325402,-0.9531402587890625,-0.3668060302734375,-0.1046142578125
20220224-1005,2022-02-24 10:06:05Z,u01, 182,40,movements,el-ex, rt, d,219859.8948501667, -1.4843763733171433, 0.42275005488472606, 0.4709394545574103, 0.28543001413345337, 0.0346888042986393, -0.00020393729209899902, -0.9085606336593628, -0.41026994585990906, -0.07871381938457489, -0.01349729299545288, -0.01535862684249878, -0.011419937014579773, 0.30453549481960684, -0.6065486149415245, 0.7337871407020248,0.030218935777517275,-0.92205810546875,-0.425628662109375,-0.0901336669921875
20220224-1005,2022-02-24 10:06:05Z,u01, 183,40,movements,el-ex, rt, d,219859.91979616668, -1.4866978440007435, 0.42211298219345017, 0.4790913889417255, 0.34004342555999756, -0.07403960824012756, 0.03228096663951874, -0.909001350402832, -0.40968888998031616, -0.07662636786699295, 0.013234198093414307, 0.011236131191253662, -0.021167337894439697, 0.30683151361331806, -0.6062517942006636, 0.7329526666284547,0.03306965073523688,-0.901763916015625,-0.393463134765625,-0.0958709716796875
20220224-1005,2022-02-24 10:06:05Z,u01, 184,40,movements,el-ex, rt, d,219859.94474316668, -1.4880930201794356, 0.42017790819140116, 0.4841424604119362, 0.037197694182395935, -0.0032471278682351112, 0.014069540426135063, -0.909895658493042, -0.4079228937625885, -0.07542341947555542, -0.05658072233200073, -0.0363214910030365, 0.014906950294971466, 0.3077429527817565, -0.6062858785662764, 0.7324350178990978,0.03536329903630864,-0.9664764404296875,-0.444244384765625,-0.060516357421875
20220224-1005,2022-02-24 10:06:05Z,u01, 185,40,movements,el-ex, rt, d,219859.96968916667, -1.4853424687684624, 0.4192783594256965, 0.480577568804857, -0.20021958649158478, 0.055581431835889816, 0.010273337364196777, -0.9100501537322998, -0.40710142254829407, -0.0779571458697319, -0.042144179344177246, -0.03491520881652832, 0.028106562793254852, 0.30631496501398936, -0.6059641657996402, 0.733327112521515,0.03478482317536613,-0.9416961669921875,-0.4352874755859375,-0.0570526123046875
20220224-1005,2022-02-24 10:06:05Z,u01, 186,40,movements,el-ex, rt, d,219859.99463675002, -1.4823298647136134, 0.41868174842347755, 0.47709305193968704, -0.040176957845687866, 0.05441250652074814, 0.015091728419065475, -0.9100528359413147, -0.4065564274787903, -0.08071984350681305, -0.010845541954040527, -0.020552337169647217, -0.00129622220993042, 0.3050086957588847, -0.6054830905276397, 0.7342972097277487,0.034169121278117276,-0.9208984375,-0.4271087646484375,-0.0820159912109375
20220224-1005,2022-02-24 10:06:05Z,u01, 187,40,movements,el-ex, rt, d,219860.01958275, -1.4807175216534598, 0.4181619098481417, 0.4778145327549178, 0.09200581163167953, 0.07525353878736496, 0.024069976061582565, -0.9101318717002869, -0.4060814380645752, -0.08220605552196503, -0.01883840560913086, -0.034836530685424805, 0.012015528976917267, 0.30502549216870894, -0.604860661901082, 0.7347707641689103,0.03485612902971691,-0.9267120361328125,-0.4397735595703125,-0.0701751708984375
20220224-1005,2022-02-24 10:06:05Z,u01, 188,40,movements,el-ex, rt, d,219860.04452975, -1.481574179061556, 0.41745381532591025, 0.4825233940752864, 0.1968323290348053, 0.06255418807268143, 0.06449270248413086, -0.9104881882667542, -0.405434250831604, -0.08145195990800858, 0.0010796189308166504, -0.011481642723083496, -0.008651316165924072, 0.30622804246965446, -0.6045646416731518, 0.7344246124861641,0.03669465516881021,-0.9094085693359375,-0.4169158935546875,-0.0901031494140625
20220224-1005,2022-02-24 10:06:05Z,u01, 189,40,movements,el-ex, rt, d,219860.06947575, -1.4819839861238975, 0.41639171940542397, 0.48788343410813134, 0.18244649469852448, 0.09107298403978348, 0.09075365960597992, -0.9109498262405396, -0.40446311235427856, -0.08111697435379028, -0.014129459857940674, -0.01730501651763916, -0.013380758464336395, 0.3075010486445461, -0.6040568003266724, 0.7341938709546597,0.03895961917678015,-0.9225616455078125,-0.42303466796875,-0.095794677734375
20220224-1005,2022-02-24 10:06:05Z,u01, 190,40,movements,el-ex, rt, d,219860.09442275, -1.4818547785049982, 0.4142920993620125, 0.49370164231546393, 0.22090230882167816, 0.10036429017782211, 0.13102339208126068, -0.9117831587791443, -0.40254202485084534, -0.08130992203950882, 0.011926651000976562, -0.014160215854644775, -0.009632520377635956, 0.30855509117013896, -0.6034391400091584, 0.7341017748892188,0.04182663902838052,-0.8998565673828125,-0.4167022705078125,-0.0909423828125
20220224-1005,2022-02-24 10:06:05Z,u01, 191,40,movements,el-ex, rt, d,219860.11936875002, -1.4822042445446049, 0.4116136330719451, 0.49957206123258485, 0.14630267024040222, 0.07811230421066284, 0.144972562789917, -0.9128821492195129, -0.40008869767189026, -0.08108637481927872, 0.01003497838973999, -0.024502307176589966, 0.000565655529499054, 0.3094414983173565, -0.6030777482333671, 0.7338480298040628,0.04483448696032277,-0.9019622802734375,-0.4218902587890625,-0.0756988525390625
20220224-1005,2022-02-24 10:06:05Z,u01, 192,40,movements,el-ex, rt, d,219860.14431475, -1.4815027726409602, 0.40769710769259626, 0.5022763850031763, 0.03278856351971626, 0.041224200278520584, 0.20422428846359253, -0.9143790006637573, -0.3964962363243103, -0.08186584711074829, 0.010082066059112549, -0.010837197303771973, 0.007875911891460419, 0.3089368078085501, -0.6030133707470384, 0.7339614128946367,0.047261928412287546,-0.904296875,-0.4073333740234375,-0.0739898681640625
20220224-1005,2022-02-24 10:06:05Z,u01, 193,40,movements,el-ex, rt, d,219860.16926175, -1.4793916122321136, 0.40314814347334116, 0.5012433927178068, -0.11568649113178253, 0.07359951734542847, 0.20095187425613403, -0.9159906506538391, -0.3923160433769226, -0.08395981788635254, -0.005426526069641113, -0.007128536701202393, 0.008871197700500488, 0.3070579377767411, -0.6031048945155567, 0.7345771690963006,0.04874729250542237,-0.9200897216796875,-0.397430419921875,-0.0785369873046875
20220224-1005,2022-02-24 10:06:05Z,u01, 194,40,movements,el-ex, rt, d,219860.19420775, -1.475697923678011, 0.3989467278716775, 0.49774376670968457, -0.14961546659469604, 0.10959713160991669, 0.18703919649124146, -0.9173069000244141, -0.38844799995422363, -0.08749835193157196, 0.004190623760223389, 0.006779998540878296, 0.015675142407417297, 0.3045070467084574, -0.602931407935846, 0.7357337965051696,0.04944530313258538,-0.913116455078125,-0.3816680908203125,-0.0718231201171875
20220224-1005,2022-02-24 10:06:05Z,u01, 195,40,movements,el-ex, rt, d,219860.21915475003, -1.4728437472104758, 0.3951298002567511, 0.4947987346507486, -0.0986030176281929, 0.08286219090223312, 0.17599372565746307, -0.9185223579406738, -0.38492798805236816, -0.09026049077510834, 0.007969498634338379, 0.01783210039138794, 0.023747332394123077, 0.30226750818346326, -0.6029130184035276, 0.7366287744174512,0.050081766024403174,-0.914886474609375,-0.3667449951171875,-0.067840576171875
20220224-1005,2022-02-24 10:06:05Z,u01, 196,40,movements,el-ex, rt, d,219860.24410075002, -1.4720863553874604, 0.3916579317719006, 0.4952443743631251, 0.07174970954656601, 0.07501658797264099, 0.15438303351402283, -0.9197781085968018, -0.3817213177680969, -0.09108730405569077, -0.02663290500640869, 0.0092695951461792, -0.0027849003672599792, 0.3012153571828631, -0.603096723391052, 0.7368094588225916,0.051530142845351956,-0.9464111328125,-0.3724517822265625,-0.0938720703125
20220224-1005,2022-02-24 10:06:05Z,u01, 197,40,movements,el-ex, rt, d,219860.26904775001, -1.4725114412904263, 0.3883219129481529, 0.49966165601575807, 0.206672802567482, 0.0824655145406723, 0.15195029973983765, -0.9210789799690247, -0.37863579392433167, -0.09082076698541641, -0.028780579566955566, 0.01887938380241394, -0.01957666128873825, 0.3014366747637245, -0.6030966311178024, 0.7365262138723455,0.05421703551659596,-0.9500732421875,-0.3575286865234375,-0.1121673583984375
20220224-1005,2022-02-24 10:06:05Z,u01, 198,40,movements,el-ex, rt, d,219860.29399375, -1.4735319350581464, 0.3855042021645583, 0.5060033308208194, 0.18379512429237366, 0.08199187368154526, 0.1313607543706894, -0.9222294092178345, -0.3760263919830322, -0.08998402208089828, -0.011974692344665527, 0.0012857913970947266, 0.0031309127807617188, 0.3024304411029729, -0.6029459495348195, 0.7360049894114854,0.05734696824025831,-0.9342041015625,-0.3747406005859375,-0.08685302734375
20220224-1005,2022-02-24 10:06:05Z,u01, 199,40,movements,el-ex, rt, d,219860.31894075, -1.473594517684214, 0.38285718188927104, 0.5089087841669446, 0.015281207859516144, 0.04137413576245308, 0.10568813979625702, -0.9232223033905029, -0.37357231974601746, -0.09002257883548737, -0.010447561740875244, -0.0035028457641601562, 0.013408131897449493, 0.3024194083336299, -0.6029354970036201, 0.7358633439299255,0.05929854764509934,-0.937896728515625,-0.3753204345703125,-0.0802459716796875
20220224-1005,2022-02-24 10:06:05Z,u01, 200,40,movements,el-ex, rt, d,219860.34388675002, -1.4717486085806002, 0.3795732692433379, 0.5086321380126776, -0.03534631431102753, 0.05547577142715454, 0.11265569925308228, -0.9242704510688782, -0.370524138212204, -0.09184742718935013, -0.02909862995147705, 0.017618924379348755, -0.0037032291293144226, 0.30117715232126774, -0.6028006376924584, 0.7363786991592228,0.06058116799194091,-0.953369140625,-0.3529052734375,-0.095550537109375
20220224-1005,2022-02-24 10:06:05Z,u01, 201,40,movements,el-ex, rt, d,219860.36883375002, -1.4693047169617883, 0.37688203966026146, 0.5073741552226205, -0.05405295640230179, 0.0827149897813797, 0.08600158989429474, -0.9250319600105286, -0.3680231273174286, -0.09420666098594666, -0.03645479679107666, 0.009762048721313477, 0.007857084274291992, 0.29981745746393956, -0.6024999255500624, 0.7371123324198244,0.06139018113269895,-0.9591827392578125,-0.360076904296875,-0.083251953125
20220224-1005,2022-02-24 10:06:05Z,u01, 202,40,movements,el-ex, rt, d,219860.39377975, -1.4674202282208264, 0.3747292202362185, 0.5072638491754728, 0.02519003115594387, 0.09160162508487701, 0.08608701080083847, -0.9256386160850525, -0.3660205602645874, -0.09603123366832733, -0.010411739349365234, 0.00835457444190979, 0.0037154629826545715, 0.2989998401280701, -0.602149049592507, 0.737649931252569,0.06235488543377149,-0.9360504150390625,-0.357666015625,-0.092315673828125
20220224-1005,2022-02-24 10:06:05Z,u01, 203,40,movements,el-ex, rt, d,219860.41872675, -1.4664314786607904, 0.37220614308238287, 0.5095014744388021, 0.11733986437320709, 0.053654640913009644, 0.12370030581951141, -0.9264586567878723, -0.3636713922023773, -0.09704229980707169, 0.004568576812744141, -0.009833216667175293, -0.00741945207118988, 0.2987902552495414, -0.6018332268021176, 0.7378364092678253,0.0641749714517858,-0.922515869140625,-0.3786468505859375,-0.1083831787109375
20220224-1005,2022-02-24 10:06:05Z,u01, 204,40,movements,el-ex, rt, d,219860.44367275, -1.4668452222409276, 0.36909922244961024, 0.5132026873336951, 0.11355587840080261, 0.05295442417263985, 0.13673508167266846, -0.927618145942688, -0.3607754707336426, -0.09677576273679733, -0.019769489765167236, -0.009402751922607422, 0.005299270153045654, 0.2988685151701844, -0.6019050820892431, 0.7375383574431719,0.0665208885042533,-0.9473876953125,-0.37017822265625,-0.0914764404296875
20220224-1005,2022-02-24 10:06:05Z,u01, 205,40,movements,el-ex, rt, d,219860.46861875002, -1.4653713662648304, 0.36554758390328657, 0.5142836482127879, -0.08314190059900284, 0.10741014778614044, 0.14023439586162567, -0.9287427663803101, -0.35746073722839355, -0.09827703982591629, -0.016340672969818115, -0.0023109614849090576, 0.021754100918769836, 0.2979443500681361, -0.6017396817758531, 0.7378816219300011,0.06833068431873235,-0.941009521484375,-0.36126708984375,-0.0726318359375
20220224-1005,2022-02-24 10:06:05Z,u01, 206,40,movements,el-ex, rt, d,219860.49356575002, -1.4618465853270584, 0.3615871796794625, 0.5110857315456407, -0.14168117940425873, 0.08606956899166107, 0.16577158868312836, -0.9297906756401062, -0.353759229183197, -0.10170317441225052, 0.026897728443145752, 0.0007777214050292969, 0.002429381012916565, 0.2955204132554893, -0.6015115096846183, 0.73897941172434,0.06899932552037419,-0.90289306640625,-0.3529815673828125,-0.099273681640625
20220224-1005,2022-02-24 10:06:05Z,u01, 207,40,movements,el-ex, rt, d,219860.51851175, -1.4593519467829257, 0.35748782816079927, 0.5101573738636173, 0.046490028500556946, 0.0921577513217926, 0.18263092637062073, -0.9309676289558411, -0.3499220013618469, -0.10418277978897095, 0.013410866260528564, 0.013419926166534424, -0.015491962432861328, 0.2937623697370435, -0.6013420674249023, 0.7396864867982846,0.07039431010540365,-0.923919677734375,-0.329681396484375,-0.115936279296875
20220224-1005,2022-02-24 10:06:05Z,u01, 208,40,movements,el-ex, rt, d,219860.54345875, -1.4588126043867073, 0.35375594572863084, 0.5138525530789692, 0.11055422574281693, 0.12635274231433868, 0.16544422507286072, -0.9322023987770081, -0.3464236259460449, -0.1048300638794899, -0.008410334587097168, 0.004718303680419922, 0.009645640850067139, 0.2935851316429273, -0.601159494857554, 0.7396440878639469,0.07308659442385834,-0.94061279296875,-0.341705322265625,-0.095184326171875
20220224-1005,2022-02-24 10:06:05Z,u01, 209,40,movements,el-ex, rt, d,219860.56840475003, -1.4574523881197583, 0.35043737680197307, 0.5156657521300871, -0.024111805483698845, 0.09356050938367844, 0.15195350348949432, -0.9331960678100586, -0.34330862760543823, -0.10622739791870117, -0.002777993679046631, -0.00414922833442688, 0.013911612331867218, 0.2929506957312529, -0.6008878343492794, 0.7399182438666077,0.07506433731528694,-0.935882568359375,-0.3441619873046875,-0.096832275390625
20220224-1005,2022-02-24 10:06:05Z,u01, 210,40,movements,el-ex, rt, d,219860.59335175002, -1.4549626546672012, 0.3470210783780343, 0.515269354382323, -0.0035863895900547504, 0.08981163799762726, 0.14687839150428772, -0.9340880513191223, -0.34009796380996704, -0.10868538171052933, -0.02570486068725586, 0.0002084970474243164, -0.009143099188804626, 0.29157341948416865, -0.6005349712440464, 0.7406094995834717,0.07642029233128023,-0.9597930908203125,-0.3398895263671875,-0.117828369140625
20220224-1005,2022-02-24 10:06:05Z,u01, 211,40,movements,el-ex, rt, d,219860.61829775, -1.45322921838103, 0.3433562061610809, 0.5171966565948982, 0.10600445419549942, 0.09769067168235779, 0.1458052098751068, -0.9351300001144409, -0.3366492986679077, -0.110449880361557, -0.028615057468414307, -0.010427117347717285, 0.0024938583374023438, 0.29083405261713957, -0.6001588238232849, 0.7409763464155286,0.07860670933889224,-0.9621124267578125,-0.3488006591796875,-0.1074371337890625
20220224-1005,2022-02-24 10:06:05Z,u01, 212,40,movements,el-ex, rt, d,219860.64324475, -1.452979745678218, 0.3403780813399223, 0.5202084297478685, 0.051635053008794785, 0.07626201212406158, 0.14986218512058258, -0.9360939264297485, -0.33384349942207336, -0.11080052703619003, -0.01417773962020874, -0.015567511320114136, 0.004156753420829773, 0.29071084194890473, -0.6000724489759868, 0.7408642433676293,0.08074944103800819,-0.9502716064453125,-0.3494110107421875,-0.1066436767578125
20220224-1005,2022-02-24 10:06:05Z,u01, 213,40,movements,el-ex, rt, d,219860.66819075, -1.4519153722457114, 0.3366734866802643, 0.5211471444262095, 0.0037690941244363785, 0.04109010845422745, 0.1543807089328766, -0.9371969103813171, -0.3303491771221161, -0.11194270849227905, -0.02029198408126831, -0.010135382413864136, 4.187226295471191e-06, 0.28968328275249516, -0.600093527492533, 0.7410585117301112,0.08248327419167573,-0.96142578125,-0.3392486572265625,-0.1118621826171875
20220224-1005,2022-02-24 10:06:05Z,u01, 214,40,movements,el-ex, rt, d,219860.69313775, -1.4509275826457695, 0.33334803381091427, 0.5215268897778688, -0.01182417944073677, 0.046831484884023666, 0.12420563399791718, -0.9381713271141052, -0.32720857858657837, -0.11299914866685867, -0.03860461711883545, 0.012572407722473145, 0.008430622518062592, 0.28861864279663835, -0.600166398269161, 0.741259038448864,0.08387154586364626,-0.976776123046875,-0.31463623046875,-0.1045684814453125
20220224-1005,2022-02-24 10:06:05Z,u01, 215,40,movements,el-ex, rt, d,219860.71808375002, -1.4497250271134396, 0.3308193817126877, 0.521497385179593, -0.013128329068422318, 0.05760503560304642, 0.0857333391904831, -0.9388530850410461, -0.32481807470321655, -0.11422683298587799, -0.03641223907470703, 0.008366107940673828, 0.006926968693733215, 0.2876931396200251, -0.6000993592918806, 0.7415590142518127,0.0848732723549816,-0.972930908203125,-0.3179168701171875,-0.1105804443359375
20220224-1005,2022-02-24 10:06:05Z,u01, 216,40,movements,el-ex, rt, d,219860.74303075002, -1.4487686715340826, 0.32915348035817105, 0.5225930396823224, 0.07507989555597305, 0.05480751767754555, 0.059554602950811386, -0.9392791986465454, -0.32324206829071045, -0.11519036442041397, -0.028112590312957764, 0.004348665475845337, 0.002733007073402405, 0.28741000940124467, -0.5998335629284576, 0.7417575309474351,0.08596968834299701,-0.9673919677734375,-0.3188934326171875,-0.112457275390625
20220224-1005,2022-02-24 10:06:05Z,u01, 217,40,movements,el-ex, rt, d,219860.76797675, -1.4484568339265482, 0.32833409523735113, 0.5255310770418243, 0.09372211992740631, 0.05880086496472359, 0.03383984789252281, -0.9395059943199158, -0.32246655225753784, -0.1155155673623085, -0.03409624099731445, -0.010205566883087158, 0.014212369918823242, 0.28799645634185367, -0.5994165975003127, 0.7417029485058936,0.08737585767812395,-0.9768218994140625,-0.332427978515625,-0.099395751953125
20220224-1005,2022-02-24 10:06:05Z,u01, 218,40,movements,el-ex, rt, d,219860.79292275, -1.4476780709097883, 0.3274621388976303, 0.52719260345047, 0.02488739788532257, 0.05736169219017029, 0.046454980969429016, -0.9396944642066956, -0.32164105772972107, -0.1162816733121872, -0.029559075832366943, -0.022047877311706543, 0.012857496738433838, 0.2881611650894207, -0.5990177835033355, 0.7418406374330043,0.08839325336704118,-0.9692535400390625,-0.34368896484375,-0.103424072265625
20220224-1005,2022-02-24 10:06:05Z,u01, 219,40,movements,el-ex, rt, d,219860.81786975003, -1.44705276201237, 0.32603722684507175, 0.5285346977890689, 0.08563856035470963, 0.02996908128261566, 0.06374888122081757, -0.9400753974914551, -0.32029154896736145, -0.11692570149898529, -0.028918743133544922, -0.02152058482170105, -0.005892395973205566, 0.28804673854353446, -0.5988039970729642, 0.7419305982304063,0.08945317326208246,-0.972503662109375,-0.3438568115234375,-0.1248779296875
20220224-1005,2022-02-24 10:06:05Z,u01, 220,40,movements,el-ex, rt, d,219860.84281575002, -1.4475459552955565, 0.3249707671827535, 0.5318396820196077, 0.13004444539546967, 0.02223006635904312, 0.04762383550405502, -0.9404712915420532, -0.31928107142448425, -0.11650395393371582, -0.052112877368927, -0.02806994318962097, -0.0007446333765983582, 0.2886928609873243, -0.5986689017652829, 0.7416049903172401,0.09096100466644075,-0.992584228515625,-0.34735107421875,-0.11724853515625
20220224-1005,2022-02-24 10:06:05Z,u01, 221,40,movements,el-ex, rt, d,219860.86776275001, -1.4485240156187702, 0.324754364484014, 0.5347085234985712, 0.06177181005477905, -0.01985979452729225, 0.004996550269424915, -0.9406535625457764, -0.3190760016441345, -0.11559250950813293, -0.054265379905700684, -0.031967729330062866, 0.008796140551567078, 0.28952216427020305, -0.5986490290574836, 0.7411752041896892,0.09195479617081032,-0.995391845703125,-0.3509368896484375,-0.105255126953125
20220224-1005,2022-02-24 10:06:06Z,u01, 222,40,movements,el-ex, rt, d,219860.89270875, -1.450245695728807, 0.3249396603284415, 0.5366763895415738, 0.10461457818746567, -0.05535340681672096, -0.009421337395906448, -0.9407922625541687, -0.3192515969276428, -0.113965705037117, -0.06201523542404175, -0.026359915733337402, -0.017107360064983368, 0.29025410855390027, -0.5989738721940168, 0.7405741390868416,0.09237278445046532,-1.0028076171875,-0.345611572265625,-0.131072998046875
20220224-1005,2022-02-24 10:06:06Z,u01, 223,40,movements,el-ex, rt, d,219860.91765575, -1.4530770335866137, 0.32572185464106285, 0.540499355296404, 0.1787797510623932, -0.08244866877794266, -0.014999328181147575, -0.9408628940582275, -0.3199927806854248, -0.1112721860408783, -0.06597292423248291, -0.012236803770065308, -0.01873277872800827, 0.29179776312551836, -0.5993479552494452, 0.7395711255124944,0.0931158858015027,-1.00543212890625,-0.328704833984375,-0.128387451171875
20220224-1005,2022-02-24 10:06:06Z,u01, 224,40,movements,el-ex, rt, d,219860.94260175002, -1.4568064824881313, 0.32712999240982205, 0.5446314965635436, 0.1189599260687828, -0.11926640570163727, -0.053244784474372864, -0.9408228397369385, -0.3213265538215637, -0.10771117359399796, -0.06746268272399902, -0.007164657115936279, 0.006102800369262695, 0.2936902206616283, -0.5999087145919056, 0.7383016312804462,0.0936287358594457,-1.0082855224609375,-0.3284912109375,-0.1016082763671875
20220224-1005,2022-02-24 10:06:06Z,u01, 225,40,movements,el-ex, rt, d,219860.96754875002, -1.4609179701449, 0.32935033389964885, 0.5470158757402522, 0.0917535126209259, -0.14837361872196198, -0.11563538759946823, -0.9405462741851807, -0.32342836260795593, -0.10376360267400742, -0.07700133323669434, -0.021206676959991455, 0.01129525899887085, 0.29535168581354, -0.6007375296659134, 0.7370226877222411,0.0931633472701387,-1.0183868408203125,-0.336181640625,-0.0956878662109375
20220224-1005,2022-02-24 10:06:06Z,u01, 226,40,movements,el-ex, rt, d,219860.992493375, -1.46555227556504, 0.33318246495962095, 0.5494809132243262, 0.11599863320589066, -0.1602575182914734, -0.17856541275978088, -0.9397774338722229, -0.32705211639404297, -0.09927278012037277, -0.07366544008255005, 0.031931906938552856, 0.004225678741931915, 0.2976038339533834, -0.6014944450794536, 0.7356310123274996,0.09210483258695551,-1.0134429931640625,-0.2951202392578125,-0.0950469970703125
20220224-1005,2022-02-24 10:06:06Z,u01, 227,40,movements,el-ex, rt, d,219861.017440375, -1.470007949994318, 0.3384909790621662, 0.5511479174632863, 0.05874236300587654, -0.1552170068025589, -0.21956723928451538, -0.9384698867797852, -0.33206406235694885, -0.0949084460735321, -0.06856435537338257, 0.03735587000846863, 0.02990592271089554, 0.30009800342633125, -0.6020689043642068, 0.7343735664422069,0.09027538615315378,-1.0052337646484375,-0.3069610595703125,-0.0616912841796875
20220224-1005,2022-02-24 10:06:06Z,u01, 228,40,movements,el-ex, rt, d,219861.04238637502, -1.4736493147767105, 0.34500606783402216, 0.5514752560095111, 0.052638497203588486, -0.12305595725774765, -0.2984173893928528, -0.9366362690925598, -0.3382023870944977, -0.09127874672412872, -0.05532240867614746, -0.002099156379699707, 0.017334572970867157, 0.3025468747195008, -0.602350409482027, 0.7334540903231339,0.08766168027892268,-0.9919586181640625,-0.340301513671875,-0.073944091796875
20220224-1005,2022-02-24 10:06:06Z,u01, 229,40,movements,el-ex, rt, d,219861.067332375, -1.4778897820831915, 0.35403673248983997, 0.5535774297933536, 0.19104452431201935, -0.17886236310005188, -0.3918502926826477, -0.9339356422424316, -0.346686989068985, -0.08701924979686737, -0.03685903549194336, 0.03943604230880737, 0.017667949199676514, 0.30638387022976615, -0.6021787938793199, 0.7323435145954227,0.08475014563890976,-0.9658355712890625,-0.295867919921875,-0.0659637451171875
20220224-1005,2022-02-24 10:06:06Z,u01, 230,40,movements,el-ex, rt, d,219861.092279375, -1.4849242482051785, 0.3643949823285551, 0.5593104996804669, 0.2960479259490967, -0.18712207674980164, -0.4250129461288452, -0.9308967590332031, -0.3563840687274933, -0.08013510704040527, -0.050792694091796875, 0.039077579975128174, 0.022380471229553223, 0.3118484236461442, -0.602231687737153, 0.7302739233995963,0.08226524600343871,-0.981689453125,-0.3173065185546875,-0.0577545166015625
20220224-1005,2022-02-24 10:06:06Z,u01, 231,40,movements,el-ex, rt, d,219861.11722537503, -1.4923327579405203, 0.3752605203506449, 0.5670068357570013, 0.40224379301071167, -0.19660227000713348, -0.36790183186531067, -0.9275496006011963, -0.3665149211883545, -0.07292857766151428, -0.04478621482849121, 0.029097318649291992, 0.01665407419204712, 0.3180516289710591, -0.6019791301288886, 0.7280303984219262,0.08022501998597203,-0.9627838134765625,-0.345977783203125,-0.06231689453125
20220224-1005,2022-02-24 10:06:06Z,u01, 232,40,movements,el-ex, rt, d,219861.14217237502, -1.5016062984199048, 0.385630313042288, 0.5780888626199683, 0.410841703414917, -0.2232450693845749, -0.39754125475883484, -0.9243445992469788, -0.3761432468891144, -0.06405768543481827, -0.032686591148376465, -0.002640962600708008, -0.005903959274291992, 0.32514697855579544, -0.6018725789781265, 0.7250868903388925,0.07923303972863843,-0.95703125,-0.3787841796875,-0.0699615478515625
20220224-1005,2022-02-24 10:06:06Z,u01, 233,40,movements,el-ex, rt, d,219861.16711837501, -1.510865308709185, 0.39495863551115645, 0.586379739866483, 0.2709568440914154, -0.26509085297584534, -0.3176738917827606, -0.9213553071022034, -0.384770005941391, -0.05528396740555763, -0.032593607902526855, -0.02337208390235901, -0.02752554416656494, 0.3310260216038882, -0.6023120369332021, 0.7222406091376914,0.07752697608767506,-0.9536590576171875,-0.409088134765625,-0.084930419921875
20220224-1005,2022-02-24 10:06:06Z,u01, 234,40,movements,el-ex, rt, d,219861.192065375, -1.5191833077296588, 0.40347992283469836, 0.5900055325728067, 0.015443960204720497, -0.307351291179657, -0.33219805359840393, -0.9184755682945251, -0.3926211893558502, -0.047447435557842255, -0.045055925846099854, -0.024172604084014893, -0.0137709379196167, 0.3351705622250881, -0.6032718922748891, 0.719840132402275,0.0745246428721601,-0.963531494140625,-0.4167938232421875,-0.06121826171875
20220224-1005,2022-02-24 10:06:06Z,u01, 235,40,movements,el-ex, rt, d,219861.217011375, -1.5266834222544095, 0.4112729502751372, 0.5885149434975457, -0.052156586199998856, -0.3293730914592743, -0.31549885869026184, -0.9157209396362305, -0.3997764587402344, -0.04042133316397667, -0.049214303493499756, 0.005474090576171875, -0.013686418533325195, 0.3374765630785928, -0.6048957782623543, 0.7178472655063899,0.07004248093876947,-0.9656524658203125,-0.3892059326171875,-0.050018310546875
20220224-1005,2022-02-24 10:06:06Z,u01, 236,40,movements,el-ex, rt, d,219861.241958375, -1.5339935312242334, 0.41865083568500777, 0.5871254220907285, -0.03257879242300987, -0.31617239117622375, -0.27956753969192505, -0.9130195379257202, -0.40652817487716675, -0.03361684828996658, -0.05214458703994751, -0.027492821216583252, -0.011350929737091064, 0.3396434391081307, -0.6064931238049491, 0.7158803399512391,0.06575502908808156,-0.9651641845703125,-0.43402099609375,-0.0449676513671875
20220224-1005,2022-02-24 10:06:06Z,u01, 237,40,movements,el-ex, rt, d,219861.26690437502, -1.5418619745237676, 0.4252769900064138, 0.5866292991356808, 0.004694643430411816, -0.35165509581565857, -0.2527969777584076, -0.9105430245399475, -0.4125731289386749, -0.026353327557444572, -0.042307138442993164, -0.021951377391815186, -0.007322961464524269, 0.34183299951583174, -0.6082544998514713, 0.713680870628786,0.06193643522511727,-0.9543304443359375,-0.4303741455078125,-0.0259246826171875
20220224-1005,2022-02-24 10:06:06Z,u01, 238,40,movements,el-ex, rt, d,219861.29185137502, -1.5501863939217264, 0.43158919991464706, 0.5858367418985062, -0.059135936200618744, -0.34901896119117737, -0.262596994638443, -0.908109188079834, -0.4183148145675659, -0.018718719482421875, -0.06300586462020874, -0.022481054067611694, 0.0039938706904649734, 0.34381920655617887, -0.6102696070759795, 0.7113313098533882,0.05802675455716538,-0.9711151123046875,-0.4407958984375,-0.0147247314453125
20220224-1005,2022-02-24 10:06:06Z,u01, 239,40,movements,el-ex, rt, d,219861.316797375, -1.5573244258805172, 0.4382721355230524, 0.5820268903752743, -0.180906280875206, -0.37634962797164917, -0.27555400133132935, -0.9054041504859924, -0.4243755340576172, -0.012198252603411674, -0.05841726064682007, -0.019746750593185425, 0.010504424571990967, 0.3449358130839274, -0.6123072419582472, 0.7094215265553485,0.05310588863444604,-0.9624176025390625,-0.4445037841796875,-0.0029144287109375
20220224-1005,2022-02-24 10:06:06Z,u01, 240,40,movements,el-ex, rt, d,219861.341743375, -1.5637330602575445, 0.4456559817472454, 0.5762964730215792, -0.2174391895532608, -0.3273875117301941, -0.309422105550766, -0.9023057222366333, -0.4310498833656311, -0.006373331882059574, -0.07625573873519897, -0.004970073699951172, 0.004450618289411068, 0.34563054681145994, -0.614290533220585, 0.7077727416809255,0.047376503900751266,-0.9785614013671875,-0.4360198974609375,-0.001922607421875
20220224-1005,2022-02-24 10:06:06Z,u01, 241,40,movements,el-ex, rt, d,219861.36669037503, -1.5684145199436086, 0.45318400862697056, 0.5699309735277355, -0.26596465706825256, -0.2792048752307892, -0.2989170551300049, -0.8990550637245178, -0.4378303587436676, -0.0021413795184344053, -0.05373424291610718, 0.008783727884292603, 0.012975037097930908, 0.34610481053584696, -0.6157440786010464, 0.706636206601236,0.04166505761098527,-0.94561767578125,-0.4269561767578125,0.0178680419921875
20220224-1005,2022-02-24 10:06:06Z,u01, 242,40,movements,el-ex, rt, d,219861.39163637502, -1.5696367661523938, 0.4602929648495263, 0.559043310781668, -0.5273523926734924, -0.20960389077663422, -0.2779552638530731, -0.8959218263626099, -0.44421058893203735, -0.0010388761293143034, -0.029798388481140137, -0.012668013572692871, 0.06030392646789551, 0.34496832613858364, -0.6168285141637473, 0.7066027872936353,0.03509935157472288,-0.92572021484375,-0.456878662109375,0.05926513671875
20220224-1005,2022-02-24 10:06:06Z,u01, 243,40,movements,el-ex, rt, d,219861.41658337502, -1.5657817471854627, 0.46712152414099756, 0.5396726790643916, -0.8475272059440613, -0.1842810958623886, -0.23058414459228516, -0.8928568363189697, -0.4503180682659149, -0.004477339331060648, -0.019115090370178223, -0.00393599271774292, 0.08420443534851074, 0.3410457925411778, -0.6176156553594729, 0.7081922643257115,0.026500242444784328,-0.907470703125,-0.4435882568359375,0.07916259765625
20220224-1005,2022-02-24 10:06:06Z,u01, 244,40,movements,el-ex, rt, d,219861.441529375, -1.5587993720652498, 0.4716352578576513, 0.5155699453283287, -0.7973673343658447, -0.13055601716041565, -0.1619964987039566, -0.8907622694969177, -0.45434361696243286, -0.010686947032809258, -0.021728456020355225, 0.04900926351547241, 0.03604698181152344, 0.33492909789596276, -0.6184488870177396, 0.7106585902395972,0.017541350856529636,-0.9124908447265625,-0.40533447265625,0.025360107421875
20220224-1005,2022-02-24 10:06:06Z,u01, 245,40,movements,el-ex, rt, d,219861.466476375, -1.5527790883928168, 0.4745855191305902, 0.4969742953885517, -0.47582605481147766, -0.08746180683374405, -0.0906946212053299, -0.8893378973007202, -0.45696982741355896, -0.01602514646947384, -0.012807488441467285, 0.05158954858779907, -0.006496906280517578, 0.3300621604986381, -0.6189074218741991, 0.7126668504192589,0.010889276141221371,-0.8936614990234375,-0.409912109375,-0.0354766845703125
20220224-1005,2022-02-24 10:06:06Z,u01, 246,40,movements,el-ex, rt, d,219861.49142237502, -1.5526747134106431, 0.4768701335645772, 0.4899353056743668, -0.028547566384077072, -0.17251326143741608, -0.10472648590803146, -0.8882899880409241, -0.45900073647499084, -0.016099009662866592, 0.0017390847206115723, 0.03666800260543823, -0.03996187448501587, 0.3286041369758209, -0.6196529804127344, 0.7127354165915187,0.007596889380305394,-0.8865509033203125,-0.422332763671875,-0.056060791015625
20220224-1005,2022-02-24 10:06:06Z,u01, 247,40,movements,el-ex, rt, d,219861.51636937502, -1.5587051365662916, 0.47966643681662263, 0.4926410077812013, 0.14894536137580872, -0.20196934044361115, -0.1262628734111786, -0.8870840072631836, -0.46148326992988586, -0.010726423934102058, -0.01695340871810913, 0.00748857855796814, -0.051315903663635254, 0.33034683211613647, -0.6208927108382054, 0.710858507446667,0.006584415379500608,-0.9066009521484375,-0.459503173828125,-0.0556640625
20220224-1005,2022-02-24 10:06:06Z,u01, 248,40,movements,el-ex, rt, d,219861.541315375, -1.5648389363042787, 0.48225849402946935, 0.49400094572095177, -0.10176043212413788, -0.2549232244491577, -0.07218938320875168, -0.885934054851532, -0.4637812674045563, -0.005277917720377445, 0.003518223762512207, 0.006154865026473999, -0.021974384784698486, 0.3316014545195567, -0.6224158710370002, 0.7089517624991466,0.005139331032399774,-0.882415771484375,-0.4576263427734375,-0.027252197265625
