SessionID,LoggingTime,UID,RecNo,Hertz,Activity,MoveType,Wrist,Side,TimeStamp,DMRoll,DMPitch,DMYaw,DMRotX,DMRotY,DMRotZ,DMGrvX,DMGrvY,DMGrvZ,DMUAccelX,DMUAccelY,DMUAccelZ,DMQuatX,DMQuatY,DMQuatW,DMQuatZ,AccelroX,AceelroY,AceelroZ
20220224-1008,2022-02-24 10:09:00Z,u01, 1,40,movements,el-ex, rt, d,220035.19268229167, -1.430108498448415, -0.3694124059488753, -0.32167683979130485, 0.10617772489786148, 0.04940629377961159, -0.005839119199663401, -0.9233260154724121, 0.361067533493042, -0.13076461851596832, -0.0022416114807128906, 0.028413057327270508, -0.0032075047492980957, -0.24009732314760712, -0.6139796136274444, 0.7519191276981382,0.0,-0.917755126953125,0.3828277587890625,-0.13116455078125
20220224-1008,2022-02-24 10:09:00Z,u01, 2,40,movements,el-ex, rt, d,220035.21762929167, -1.4279047481294354, -0.3694685567523287, -0.31959225605987146, 0.07288990914821625, 0.048509009182453156, -0.0011256574653089046, -0.9230155348777771, 0.3611198961734772, -0.13279619812965393, 0.0143393874168396, 0.022119849920272827, 0.0024403929710388184, -0.23947801952903536, -0.6133939857412132, 0.7525940971725927,0.0005383277836556594,-0.9111785888671875,0.3883209228515625,-0.1266021728515625
20220224-1008,2022-02-24 10:09:00Z,u01, 3,40,movements,el-ex, rt, d,220035.2425752917, -1.42632397175557, -0.36995925374077404, -0.3171667785790153, 0.14906620979309082, -0.1697404384613037, 0.13183298707008362, -0.9226290583610535, 0.36157745122909546, -0.13422958552837372, 0.055746614933013916, 0.03182467818260193, -0.0017872601747512817, -0.2389104712671108, -0.6130309894632597, 0.7530689722620497,0.0014235142460543165,-0.5910797119140625,0.36553955078125,-0.1938018798828125
20220224-1008,2022-02-24 10:09:00Z,u01, 4,40,movements,el-ex, rt, d,220035.2675222917, -1.4239431552924766, -0.3703789058942536, -0.31485802816092756, 0.044902484863996506, 0.07506684958934784, -0.001991717144846916, -0.9221566319465637, 0.36196866631507874, -0.13640359044075012, 0.027472734451293945, 0.018768638372421265, -0.02854388952255249, -0.23835546884467304, -0.612360087109479, 0.7537885797032603,0.0021469473028344066,-0.9327392578125,0.392974853515625,-0.1397705078125
20220224-1008,2022-02-24 10:09:00Z,u01, 5,40,movements,el-ex, rt, d,220035.2924692917, -1.421771853130794, -0.3702208087343863, -0.314626975796287, -0.0052405791357159615, 0.07511292397975922, -0.012594826519489288, -0.9219148755073547, 0.3618212938308716, -0.13841405510902405, -0.009466350078582764, 0.021662622690200806, -0.0025313496589660645, -0.23823033845957606, -0.6115875093440857, 0.7544557104537246,0.0019235273977203232,-0.9247589111328125,0.38970947265625,-0.1347503662109375
20220224-1008,2022-02-24 10:09:00Z,u01, 6,40,movements,el-ex, rt, d,220035.31741529168, -1.4196907553383669, -0.36986741131281475, -0.3127376803318533, 0.14294709265232086, 0.03877662122249603, -0.010315293446183205, -0.921751081943512, 0.3614917993545532, -0.1403515636920929, -0.0002459287643432617, 0.02690538763999939, 0.019425705075263977, -0.2375282991669982, -0.6110683461154571, 0.7550964209721835,0.0022732936376329144,-0.927978515625,0.391815185546875,-0.1286773681640625
20220224-1008,2022-02-24 10:09:00Z,u01, 7,40,movements,el-ex, rt, d,220035.34236229167, -1.4165420620849207, -0.3687527156283131, -0.30834384910918955, 0.1820225864648819, 0.07890593260526657, -0.046406183391809464, -0.9217021465301514, 0.360452264547348, -0.14331498742103577, -0.025365054607391357, 0.03369748592376709, -0.002879425883293152, -0.23579022203584998, -0.610528849099964, 0.7560735462541276,0.0031962248512413804,-0.941650390625,0.391204833984375,-0.1434173583984375
20220224-1008,2022-02-24 10:09:00Z,u01, 8,40,movements,el-ex, rt, d,220035.3673082917, -1.4130342591131615, -0.366832203191012, -0.3040641912962106, 0.16465185582637787, 0.06910470128059387, -0.055507805198431015, -0.9218757748603821, 0.35866019129753113, -0.14665575325489044, -0.009017109870910645, 0.04021981358528137, 0.025531545281410217, -0.23379879429490233, -0.6099264280635734, 0.7571747609795616,0.003776772356999511,-0.9322967529296875,0.4053192138671875,-0.111358642578125
20220224-1008,2022-02-24 10:09:00Z,u01, 9,40,movements,el-ex, rt, d,220035.3922552917, -1.4101243379610449, -0.36460145186480886, -0.29959813011368686, 0.168226420879364, 0.040805019438266754, -0.07992859184741974, -0.9222326874732971, 0.35657697916030884, -0.14946535229682922, -0.01989072561264038, 0.07263749837875366, 0.05080211162567139, -0.2316376199719334, -0.6095993236924278, 0.7580985404886955,0.004403457648361739,-0.9500274658203125,0.441131591796875,-0.1034698486328125
20220224-1008,2022-02-24 10:09:00Z,u01, 10,40,movements,el-ex, rt, d,220035.4172022917, -1.4086866855860194, -0.3612969345257219, -0.298186470918195, -0.06164952740073204, 0.04665598273277283, -0.17511795461177826, -0.9231746196746826, 0.3534877300262451, -0.1509803980588913, -0.023343324661254883, 0.06525921821594238, 0.013224124908447266, -0.23001480365562407, -0.6095924805528725, 0.758601709084101,0.0036979518093621933,-0.9425811767578125,0.41168212890625,-0.1474456787109375
20220224-1008,2022-02-24 10:09:00Z,u01, 11,40,movements,el-ex, rt, d,220035.44214829168, -1.4100670127173034, -0.3573272461915602, -0.30506648402035275, -0.3428000211715698, 0.04500368982553482, -0.219983771443367, -0.9247600436210632, 0.34977155923843384, -0.14992937445640564, -0.009596645832061768, 0.04729264974594116, -0.008594155311584473, -0.23067451344405787, -0.6097742082570129, 0.7582643090549586,-4.34135348097997e-05,-0.93450927734375,0.396484375,-0.152557373046875
20220224-1008,2022-02-24 10:09:00Z,u01, 12,40,movements,el-ex, rt, d,220035.46709529168, -1.413884042523837, -0.35431609313525697, -0.3152715783253625, -0.30844810605049133, -0.009610152803361416, -0.18683873116970062, -0.9263615608215332, 0.3469490110874176, -0.1465623527765274, -0.01942390203475952, 0.04997783899307251, 0.00297720730304718, -0.2327043970194252, -0.6103830681856948, 0.7571402221040036,-0.004448596991296017,-0.950775146484375,0.395416259765625,-0.1440582275390625
20220224-1008,2022-02-24 10:09:00Z,u01, 13,40,movements,el-ex, rt, d,220035.49204129167, -1.4171542467871376, -0.3513155470998672, -0.3221782500455268, -0.15888899564743042, -0.03684183955192566, -0.16868242621421814, -0.9278606176376343, 0.34413328766822815, -0.14369086921215057, -0.038982093334198, 0.03655827045440674, -0.01712144911289215, -0.2337426184818855, -0.6111619690579599, 0.7561658878672775,-0.007660072387474265,-0.970367431640625,0.3701934814453125,-0.166900634765625
20220224-1008,2022-02-24 10:09:00Z,u01, 14,40,movements,el-ex, rt, d,220035.51698829167, -1.4196825359205227, -0.34831307602750855, -0.325097716701261, -0.012785745784640312, -0.07041184604167938, -0.1408785581588745, -0.9292383193969727, 0.3413126766681671, -0.14149942994117737, -0.06107240915298462, 0.019420385360717773, -0.01790904998779297, -0.23356645885473934, -0.6121249829685904, 0.7554207761273344,-0.009450064617656587,-0.9955291748046875,0.3595428466796875,-0.1579437255859375
20220224-1008,2022-02-24 10:09:00Z,u01, 15,40,movements,el-ex, rt, d,220035.5419352917, -1.4210557961895252, -0.34521568866798635, -0.3240078764044012, 0.10281088948249817, -0.08300434798002243, -0.0930500477552414, -0.9304725527763367, 0.33839964866638184, -0.14038023352622986, -0.05967026948928833, 0.015711069107055664, -0.014649033546447754, -0.23212593983601038, -0.6131292116871924, 0.7550445635382453,-0.009892865106727905,-0.98150634765625,0.350982666015625,-0.15301513671875
20220224-1008,2022-02-24 10:09:00Z,u01, 16,40,movements,el-ex, rt, d,220035.56688129168, -1.4231920099379638, -0.3440041379516571, -0.3220982457866193, 0.035722531378269196, -0.14173103868961334, 0.014471877366304398, -0.931175172328949, 0.33725932240486145, -0.1384524255990982, -0.047187864780426025, -0.0015048980712890625, -0.010320723056793213, -0.2311148241824208, -0.6142961219280445, 0.7544132623272656,-0.009321928126712939,-0.9856719970703125,0.3324127197265625,-0.1449432373046875
20220224-1008,2022-02-24 10:09:00Z,u01, 17,40,movements,el-ex, rt, d,220035.59182829168, -1.4266153477084307, -0.34518960716955377, -0.32194323895584087, -0.007554300129413605, -0.13931648433208466, 0.0847078263759613, -0.9312472939491272, 0.3383750915527344, -0.13520634174346924, -0.0738491415977478, -0.002101898193359375, -0.003908038139343262, -0.23150796141194474, -0.6154680262365718, 0.7533467243081999,-0.008478444449290023,-1.0083465576171875,0.34088134765625,-0.1423797607421875
20220224-1008,2022-02-24 10:09:00Z,u01, 18,40,movements,el-ex, rt, d,220035.61677429167, -1.4294828438994829, -0.34804068475832245, -0.32079663837418415, 0.050247881561517715, -0.12776875495910645, 0.16337281465530396, -0.930672287940979, 0.34105661511421204, -0.1323990374803543, -0.06203395128250122, 0.012871026992797852, -0.007112026214599609, -0.23218755159095983, -0.6163517042045299, 0.7524318123470736,-0.006776956450068414,-0.988372802734375,0.3579254150390625,-0.140594482421875
20220224-1008,2022-02-24 10:09:00Z,u01, 19,40,movements,el-ex, rt, d,220035.64172129167, -1.4312176983890483, -0.3544490710988831, -0.31869238723855964, 0.013254242949187756, -0.071251280605793, 0.41822466254234314, -0.9287170171737671, 0.3470737338066101, -0.13047748804092407, -0.05123281478881836, 0.021792203187942505, -0.016586706042289734, -0.23383660501658637, -0.6165076653147008, 0.7518145885315866,-0.0036737629244256997,-0.985992431640625,0.407379150390625,-0.1486358642578125
20220224-1008,2022-02-24 10:09:00Z,u01, 20,40,movements,el-ex, rt, d,220035.6666672917, -1.431829513162204, -0.36602637571300983, -0.3165342133394917, 0.05695568397641182, -0.04471760615706444, 0.4890051484107971, -0.9247552156448364, 0.35790786147117615, -0.12934397161006927, -0.08543765544891357, 0.08033981919288635, -0.03514575958251953, -0.2373079222210179, -0.615640285841933, 0.7514459283237961,0.0010231010229841409,-1.00726318359375,0.4313201904296875,-0.16552734375
20220224-1008,2022-02-24 10:09:00Z,u01, 21,40,movements,el-ex, rt, d,220035.6916142917, -1.4333442905305174, -0.3774771142686002, -0.3161512022470032, -0.2594251036643982, -0.09465254098176956, 0.4227892756462097, -0.9208298325538635, 0.36857637763023376, -0.1273730993270874, -0.059257447719573975, 0.0018154680728912354, -0.009147286415100098, -0.24126930481349304, -0.6149004569788203, 0.750773143041856,0.0051222503048398565,-0.9736328125,0.335723876953125,-0.110443115234375
20220224-1008,2022-02-24 10:09:00Z,u01, 22,40,movements,el-ex, rt, d,220035.7165612917, -1.4406905074594376, -0.3888192621084594, -0.32839936323384283, -0.673933744430542, -0.11460886895656586, 0.3698155879974365, -0.9175364375114441, 0.37909606099128723, -0.12005500495433807, -0.06902056932449341, -0.006888449192047119, 0.012266993522644043, -0.24903842880120364, -0.6147782994150034, 0.7483319836337339,0.005180105039347113,-0.98931884765625,0.39788818359375,-0.113739013671875
20220224-1008,2022-02-24 10:09:00Z,u01, 23,40,movements,el-ex, rt, d,220035.74150729168, -1.4493318658963428, -0.3998060033768032, -0.34416826654460575, -0.527525007724762, -0.09593585133552551, 0.3604348599910736, -0.9143497347831726, 0.389239639043808, -0.11161042004823685, -0.07853955030441284, 0.08735331892967224, -0.026069626212120056, -0.25773019921095486, -0.6146299160874215, 0.7455124602918038,0.004032916653654003,-0.985443115234375,0.503173828125,-0.1416015625
20220224-1008,2022-02-24 10:09:00Z,u01, 24,40,movements,el-ex, rt, d,220035.76645429168, -1.4552728838517646, -0.40957981193572984, -0.3528265892448558, -0.23991243541240692, -0.10873913019895554, 0.3416141867637634, -0.9111741185188293, 0.3982239365577698, -0.1057327464222908, -0.05336439609527588, 0.06311026215553284, -0.0218154639005661, -0.2637897636544998, -0.6144498247472522, 0.7435340656634424,0.004842200651027501,-0.96087646484375,0.445526123046875,-0.1199798583984375
20220224-1008,2022-02-24 10:09:00Z,u01, 25,40,movements,el-ex, rt, d,220035.79140029167, -1.4596072682037322, -0.4181680421339837, -0.3565652807076975, -0.136447936296463, -0.12535932660102844, 0.2917494773864746, -0.9081915020942688, 0.4060870409011841, -0.10139916837215424, -0.04847359657287598, 0.029505640268325806, -0.0016891956329345703, -0.26790797736499095, -0.6144312267510564, 0.7420593594348955,0.006900516104543689,-0.956207275390625,0.4405670166015625,-0.1051025390625
20220224-1008,2022-02-24 10:09:00Z,u01, 26,40,movements,el-ex, rt, d,220035.8163472917, -1.463787786036173, -0.42471133992415866, -0.359489994423796, -0.12850148975849152, -0.12037528306245804, 0.22632168233394623, -0.9059460163116455, 0.4120577871799469, -0.0973156988620758, -0.03869521617889404, 0.044485241174697876, -0.0138140469789505, -0.27105334442610607, -0.6147131333271436, 0.7406648909300461,0.008571797084338015,-0.9403533935546875,0.4569854736328125,-0.11181640625
20220224-1008,2022-02-24 10:09:00Z,u01, 27,40,movements,el-ex, rt, d,220035.8412942917, -1.468008899987122, -0.43026190943972936, -0.3617495412394365, -0.08099662512540817, -0.15329235792160034, 0.19792692363262177, -0.904059648513794, 0.4171088635921478, -0.09325461089611053, -0.030281782150268555, 0.03896108269691467, -0.0141824409365654, -0.27364070181586875, -0.6152182208072099, 0.7392724873961308,0.010174251872663395,-0.93798828125,0.449432373046875,-0.107208251953125
20220224-1008,2022-02-24 10:09:00Z,u01, 28,40,movements,el-ex, rt, d,220035.86624029168, -1.4724539858085055, -0.43500085177793596, -0.3634793188731004, -0.0860585942864418, -0.1551479697227478, 0.1826726645231247, -0.9024879932403564, 0.4214111864566803, -0.08904001116752625, -0.04207688570022583, 0.03101193904876709, -0.022730588912963867, -0.2757757349047427, -0.6159770614559471, 0.7378225998046445,0.011740724892654958,-0.941680908203125,0.451690673828125,-0.111602783203125
20220224-1008,2022-02-24 10:09:01Z,u01, 29,40,movements,el-ex, rt, d,220035.89118729168, -1.4767019661585723, -0.4400673555728107, -0.36379420631032205, 0.0412980280816555, -0.1875101774930954, 0.21828259527683258, -0.9007208347320557, 0.4260004162788391, -0.08500376343727112, -0.034490346908569336, 0.033273905515670776, -0.01611626148223877, -0.2775791820314307, -0.6168046007601693, 0.7364156898865999,0.013921000651951052,-0.937744140625,0.458221435546875,-0.0887603759765625
20220224-1008,2022-02-24 10:09:01Z,u01, 30,40,movements,el-ex, rt, d,220035.91613329167, -1.4797413767828416, -0.44538656263090576, -0.3597228753621603, 0.1937803477048874, -0.21899093687534332, 0.24349361658096313, -0.8987058401107788, 0.4308067560195923, -0.08205852657556534, -0.04143404960632324, 0.025934666395187378, 0.008633248507976532, -0.2781142172559403, -0.6177566026028172, 0.735335504746998,0.01763821458618972,-0.9420013427734375,0.457427978515625,-0.0698394775390625
20220224-1008,2022-02-24 10:09:01Z,u01, 31,40,movements,el-ex, rt, d,220035.94108029167, -1.4814193897505752, -0.4508612353791357, -0.3513005640960847, 0.3518223166465759, -0.21170054376125336, 0.23031842708587646, -0.8964797258377075, 0.4357408583164215, -0.08033864945173264, -0.05658435821533203, 0.019062697887420654, 0.01767086237668991, -0.2773603963777386, -0.618790665224158, 0.734607946588196,0.022817544523030905,-0.9546051025390625,0.45098876953125,-0.0610198974609375
20220224-1008,2022-02-24 10:09:01Z,u01, 32,40,movements,el-ex, rt, d,220035.9660262917, -1.4819121115480218, -0.45489223401367485, -0.34144636712217385, 0.2694825828075409, -0.19696547091007233, 0.1527818888425827, -0.8947623372077942, 0.4393655061721802, -0.07974035292863846, -0.041822195053100586, -0.008045315742492676, 0.011579334735870361, -0.2756778486057508, -0.6197834691430532, 0.7342299847367604,0.02786749392344008,-0.9324188232421875,0.4278717041015625,-0.0695953369140625
20220224-1008,2022-02-24 10:09:01Z,u01, 33,40,movements,el-ex, rt, d,220035.9909732917, -1.4847987501189805, -0.4583049807358913, -0.33660413824671487, 0.08041500300168991, -0.21965865790843964, 0.17417386174201965, -0.8934897184371948, 0.4424286484718323, -0.07702793180942535, -0.02939242124557495, -0.011917144060134888, 0.014939963817596436, -0.2752970721898705, -0.6210455346868171, 0.7331718088240619,0.03119621410144193,-0.9268951416015625,0.43695068359375,-0.0529327392578125
20220224-1008,2022-02-24 10:09:01Z,u01, 34,40,movements,el-ex, rt, d,220036.01592029168, -1.4878149211402718, -0.4634093790343256, -0.33256028675639226, 0.1856730431318283, -0.1810256540775299, 0.23230786621570587, -0.8914557695388794, 0.44700050354003906, -0.07414451241493225, -0.06253904104232788, 0.022573471069335938, 0.02383631467819214, -0.27572900204804274, -0.6220138747720336, 0.732024448014396,0.03482218336053134,-0.9595184326171875,0.475799560546875,-0.05487060546875
20220224-1008,2022-02-24 10:09:01Z,u01, 35,40,movements,el-ex, rt, d,220036.04086629167, -1.4879774762771936, -0.4681051720370706, -0.32566190672616135, 0.1970270276069641, -0.11807224154472351, 0.1771860271692276, -0.889366090297699, 0.4511961042881012, -0.07382514327764511, -0.0696030855178833, 0.009131133556365967, 0.0029632970690727234, -0.27517805497746295, -0.6223861068834181, 0.7317067316853944,0.03896040884988654,-0.9382781982421875,0.4284515380859375,-0.0753173828125
20220224-1008,2022-02-24 10:09:01Z,u01, 36,40,movements,el-ex, rt, d,220036.06581329167, -1.489827873477049, -0.47237585308830005, -0.32423866225765613, -0.14459344744682312, -0.10175086557865143, 0.17331984639167786, -0.8875724077224731, 0.4550032317638397, -0.07202282547950745, -0.035172343254089355, -0.04480120539665222, 0.0007947683334350586, -0.27615059315452484, -0.6226792411860366, 0.730968762155278,0.04118358423857693,-0.9266510009765625,0.420318603515625,-0.0735626220703125
20220224-1008,2022-02-24 10:09:01Z,u01, 37,40,movements,el-ex, rt, d,220036.0907592917, -1.4948611856985528, -0.47712820439556336, -0.33028928679069636, -0.28850993514060974, -0.09659991413354874, 0.1600252240896225, -0.8857574462890625, 0.4592300057411194, -0.06738968938589096, -0.045623719692230225, -0.010896295309066772, -0.018990270793437958, -0.2795425977077379, -0.6230257535898267, 0.729376509435167,0.041287537572355766,-0.92950439453125,0.4543304443359375,-0.08905029296875
20220224-1008,2022-02-24 10:09:01Z,u01, 38,40,movements,el-ex, rt, d,220036.1157062917, -1.50004052564909, -0.481716029971215, -0.33771145326033125, -0.26219040155410767, -0.07919015735387802, 0.1702100783586502, -0.8839837312698364, 0.4633006155490875, -0.06265155971050262, -0.0215032696723938, -0.016019731760025024, -0.035691313445568085, -0.28329673989184423, -0.6232312378431399, 0.7277739866909227,0.040874563118271715,-0.89923095703125,0.4517059326171875,-0.1015625
20220224-1008,2022-02-24 10:09:01Z,u01, 39,40,movements,el-ex, rt, d,220036.14065229168, -1.504290178980244, -0.486888612362878, -0.34242965748913307, -0.09525196254253387, -0.10193908214569092, 0.21106356382369995, -0.8818392157554626, 0.4678783416748047, -0.05873434990644455, -0.009014785289764404, -0.010648667812347412, -0.03516823798418045, -0.28641682000621177, -0.6233764759458003, 0.7263900849831557,0.041530006826204974,-0.8903045654296875,0.4587554931640625,-0.081329345703125
20220224-1008,2022-02-24 10:09:01Z,u01, 40,40,movements,el-ex, rt, d,220036.16559925, -1.5066213742538164, -0.4924656832811728, -0.3420730001996599, 0.0860283151268959, -0.10871769487857819, 0.22183732688426971, -0.8793560266494751, 0.47280001640319824, -0.056510232388973236, -0.026833057403564453, -0.016623198986053467, -0.011864431202411652, -0.2881227731632011, -0.623482278905037, 0.7254846613075777,0.043900769583804844,-0.905731201171875,0.455596923828125,-0.062835693359375
20220224-1008,2022-02-24 10:09:01Z,u01, 41,40,movements,el-ex, rt, d,220036.19054625, -1.5066315192515658, -0.49746196371332296, -0.3369980926453507, 0.23290561139583588, -0.09687788039445877, 0.20628012716770172, -0.8769880533218384, 0.47719666361808777, -0.056349121034145355, -0.017176926136016846, -0.013649910688400269, -0.013307210057973862, -0.288211048115356, -0.6235060791183169, 0.7252054119857066,0.04745121072288502,-0.8816375732421875,0.4679107666015625,-0.0689849853515625
20220224-1008,2022-02-24 10:09:01Z,u01, 42,40,movements,el-ex, rt, d,220036.21549225002, -1.5041693416891424, -0.5027242661343757, -0.32728476116125155, 0.43351081013679504, -0.09469927847385406, 0.24769800901412964, -0.8743290901184082, 0.48181453347206116, -0.05834026262164116, 0.004288077354431152, 0.010556131601333618, -0.0011384561657905579, -0.2870063709108182, -0.6232633565050487, 0.7255498833942416,0.05241736616278088,-0.871917724609375,0.49755859375,-0.0543670654296875
20220224-1008,2022-02-24 10:09:01Z,u01, 43,40,movements,el-ex, rt, d,220036.24043925002, -1.4983888233216647, -0.5073279494174447, -0.3107935687010273, 0.6553531885147095, -0.09655550122261047, 0.17919723689556122, -0.8717556595802307, 0.4858434796333313, -0.0632321909070015, -0.0042819976806640625, 0.0171167254447937, 0.005920231342315674, -0.28357686468183535, -0.622870824912703, 0.7267170491533536,0.059148062379177774,-0.8661041259765625,0.4938812255859375,-0.06329345703125
20220224-1008,2022-02-24 10:09:01Z,u01, 44,40,movements,el-ex, rt, d,220036.26538525, -1.4924674874073358, -0.5096418101995124, -0.2932898778866492, 0.4989039897918701, -0.12539207935333252, 0.09796004742383957, -0.8702428936958313, 0.48786461353302, -0.0683048665523529, 0.0307958722114563, -0.020152151584625244, 0.005209803581237793, -0.279092008010555, -0.6228605127051108, 0.7279194892454394,0.06546536654790601,-0.83685302734375,0.4651336669921875,-0.0557708740234375
20220224-1008,2022-02-24 10:09:01Z,u01, 45,40,movements,el-ex, rt, d,220036.29033225, -1.4903818090474426, -0.5106740838825524, -0.28217251617230893, 0.28558725118637085, -0.13381053507328033, 0.0367036834359169, -0.8695960640907288, 0.4887654483318329, -0.0700792670249939, 0.02367931604385376, -0.010936439037322998, 0.015193402767181396, -0.2760487734817008, -0.6235041624855419, 0.7281479320744809,0.06957191068516785,-0.8509063720703125,0.495330810546875,-0.065185546875
20220224-1008,2022-02-24 10:09:01Z,u01, 46,40,movements,el-ex, rt, d,220036.31527825003, -1.489743935669392, -0.5104946081089736, -0.2748710751083781, 0.23066215217113495, -0.1203555092215538, -0.01215420663356781, -0.8696383833885193, 0.48860886693000793, -0.07064103335142136, 0.03241932392120361, 0.01104012131690979, 0.001457706093788147, -0.27373261456709447, -0.6242995597000801, 0.7280965359594533,0.07208183585383716,-0.8333892822265625,0.5003204345703125,-0.064483642578125
20220224-1008,2022-02-24 10:09:01Z,u01, 47,40,movements,el-ex, rt, d,220036.34022525002, -1.4892804188740552, -0.5096214581422295, -0.2683494088812527, 0.24678084254264832, -0.10703431069850922, -0.03125779330730438, -0.8700307011604309, 0.48784685134887695, -0.0710788443684578, 0.04190564155578613, 0.008994609117507935, 0.022922158241271973, -0.2714147824139395, -0.6251356593506473, 0.7280446195481756,0.07409807471126452,-0.8298797607421875,0.49462890625,-0.047576904296875
20220224-1008,2022-02-24 10:09:01Z,u01, 48,40,movements,el-ex, rt, d,220036.36517225002, -1.4883513407160656, -0.5083716282363128, -0.2613811284826149, 0.22675210237503052, -0.10039111971855164, -0.04614066705107689, -0.8705713748931885, 0.48675546050071716, -0.07193730771541595, 0.034160733222961426, -0.0082855224609375, 0.019798092544078827, -0.26884341263165085, -0.6259030005979969, 0.7281342292983,0.07608788068272547,-0.8391571044921875,0.4703369140625,-0.0526275634765625
20220224-1008,2022-02-24 10:09:01Z,u01, 49,40,movements,el-ex, rt, d,220036.39011825, -1.4879404710036572, -0.5065941722405806, -0.25631786290376507, 0.1464861035346985, -0.06600478291511536, -0.06396108120679855, -0.8714025020599365, 0.48520201444625854, -0.07236647605895996, 0.03245896100997925, -0.03709712624549866, 0.02042555809020996, -0.2666655320849166, -0.626662792612793, 0.7281562801071696,0.07727731820497624,-0.834259033203125,0.436492919921875,-0.0490570068359375
20220224-1008,2022-02-24 10:09:01Z,u01, 50,40,movements,el-ex, rt, d,220036.41506525, -1.487973928478051, -0.5046790060285383, -0.25332583536575654, 0.07456024736166, -0.054341740906238556, -0.06033598259091377, -0.8723291754722595, 0.4835264980792999, -0.07241404801607132, 0.0412745475769043, -0.033224403858184814, 0.017467208206653595, -0.2650702334079592, -0.6273202910211878, 0.7281247432883882,0.07772592387182252,-0.831451416015625,0.4500885009765625,-0.0563507080078125
20220224-1008,2022-02-24 10:09:01Z,u01, 51,40,movements,el-ex, rt, d,220036.44001125, -1.4885897823317724, -0.5031557359936482, -0.2525386344709723, -0.008916806429624557, -0.020584041252732277, -0.045787401497364044, -0.8731067776679993, 0.4821925759315491, -0.07193721830844879, 0.04249459505081177, -0.042144328355789185, 0.007133185863494873, -0.26427722595452646, -0.6278446784857531, 0.7279765836240326,0.07758073361564899,-0.83587646484375,0.4308624267578125,-0.059814453125
20220224-1008,2022-02-24 10:09:01Z,u01, 52,40,movements,el-ex, rt, d,220036.46495825003, -1.4890616055587982, -0.5023980988753708, -0.2536029673085052, -0.030055981129407883, 0.03603116795420647, -0.02544604241847992, -0.8735044002532959, 0.48152869939804077, -0.07155505567789078, 0.0210416316986084, -0.052176862955093384, 0.01875966787338257, -0.264333508906867, -0.6279731435352182, 0.72790690308623,0.0770003598708317,-0.85308837890625,0.4365234375,-0.0566558837890625
20220224-1008,2022-02-24 10:09:01Z,u01, 53,40,movements,el-ex, rt, d,220036.48990425002, -1.487744516440378, -0.5019912866803047, -0.25408471821138945, 0.0009381882846355438, 0.09021298587322235, 0.010969555005431175, -0.8736047148704529, 0.481172114610672, -0.07272172719240189, 0.03696519136428833, -0.021302640438079834, -0.0057846978306770325, -0.2643958089084541, -0.6274822636637465, 0.7283588537814263,0.07651375530400649,-0.82098388671875,0.4614105224609375,-0.086151123046875
20220224-1008,2022-02-24 10:09:01Z,u01, 54,40,movements,el-ex, rt, d,220036.51485125002, -1.4850896436404026, -0.503138915343141, -0.25424771564635845, 0.003068317659199238, 0.13614344596862793, 0.08208528161048889, -0.8728576302528381, 0.48217782378196716, -0.07499344646930695, 0.054086387157440186, -0.011428922414779663, 0.008404143154621124, -0.26494216080436517, -0.6263456925519101, 0.7291406435010195,0.07648941751501659,-0.8234100341796875,0.4756622314453125,-0.068115234375
20220224-1008,2022-02-24 10:09:01Z,u01, 55,40,movements,el-ex, rt, d,220036.53979825, -1.4793360670946942, -0.5052698883890512, -0.2509343843172195, 0.22173236310482025, 0.209901824593544, 0.0930473804473877, -0.8713865280151367, 0.4840436279773712, -0.0799202024936676, 0.021853506565093994, 0.005732983350753784, 0.014917857944965363, -0.2648603583685131, -0.6244108323064532, 0.7307052701524851,0.07765232254462177,-0.8652801513671875,0.4955291748046875,-0.0776214599609375
20220224-1008,2022-02-24 10:09:01Z,u01, 56,40,movements,el-ex, rt, d,220036.56474425, -1.4692829077333818, -0.5054688524141328, -0.24249208498792582, 0.31522971391677856, 0.25400838255882263, 0.011312102898955345, -0.8704432845115662, 0.48421770334243774, -0.08866645395755768, 0.030889451503753662, -0.010783255100250244, 0.00578075647354126, -0.2626937179669872, -0.6218189321013413, 0.7334955141431487,0.07948325649989824,-0.8282318115234375,0.467803955078125,-0.084869384765625
20220224-1008,2022-02-24 10:09:01Z,u01, 57,40,movements,el-ex, rt, d,220036.58969125, -1.459611725925211, -0.5053575438246795, -0.23491065111839354, 0.21138031780719757, 0.22609664499759674, 0.037230852991342545, -0.8695985674858093, 0.48412030935287476, -0.0970863625407219, 0.0494081974029541, -0.013997048139572144, 0.023310132324695587, -0.26069065308387496, -0.6192715104158315, 0.7361980426229883,0.08096644514899662,-0.835174560546875,0.483367919921875,-0.076446533203125
20220224-1008,2022-02-24 10:09:01Z,u01, 58,40,movements,el-ex, rt, d,220036.61463725002, -1.4519270403464837, -0.5052085027913668, -0.23057758770353917, 0.06485854834318161, 0.2239784300327301, -0.01413985900580883, -0.8688985109329224, 0.4839898943901062, -0.10377457737922668, 0.021394848823547363, 0.006900578737258911, 0.03355366736650467, -0.25961149866021, -0.6170207288780762, 0.7384054396827283,0.08151494414154177,-0.8444061279296875,0.4809112548828125,-0.071502685546875
20220224-1008,2022-02-24 10:09:01Z,u01, 59,40,movements,el-ex, rt, d,220036.63958425002, -1.44632060146295, -0.5051031145015525, -0.2303001017290282, -0.0015730061568319798, 0.21375922858715057, -0.0033126450143754482, -0.868353545665741, 0.48389768600463867, -0.10865066945552826, 0.030554592609405518, -0.01174500584602356, 0.023918643593788147, -0.25971667112543534, -0.6149974921225044, 0.7401268288289031,0.08085490576560858,-0.8347625732421875,0.4788360595703125,-0.088226318359375
20220224-1008,2022-02-24 10:09:01Z,u01, 60,40,movements,el-ex, rt, d,220036.66453025, -1.4417096026285703, -0.5043316197637154, -0.23098777714640736, -0.04573587328195572, 0.20395119488239288, -0.05698692426085472, -0.8682133555412292, 0.4832223951816559, -0.11270151287317276, 0.03517508506774902, -0.010871291160583496, 0.01646435260772705, -0.25984182416073015, -0.6132955806800331, 0.7416138171142895,0.07974768768700613,-0.8327178955078125,0.470703125,-0.098175048828125
20220224-1008,2022-02-24 10:09:01Z,u01, 61,40,movements,el-ex, rt, d,220036.68947725, -1.4375413312792196, -0.5033194073592564, -0.23255730001092786, -0.03385334834456444, 0.1758866012096405, -0.03165194019675255, -0.8682205677032471, 0.4823359549045563, -0.11638441681861877, 0.050090014934539795, 0.0009098947048187256, 0.008047044277191162, -0.260130695262092, -0.6116696927817046, 0.7430092790775408,0.07829136086809443,-0.815032958984375,0.4885711669921875,-0.117340087890625
20220224-1008,2022-02-24 10:09:01Z,u01, 62,40,movements,el-ex, rt, d,220036.71442425, -1.4342091174972158, -0.502890557018832, -0.23344719600575284, -0.04223408177495003, 0.13017097115516663, -0.0020280699245631695, -0.8680326342582703, 0.4819602370262146, -0.11930499970912933, 0.055975139141082764, -0.013393312692642212, 0.018352866172790527, -0.26038099414815374, -0.6103681170323239, 0.7440858921204497,0.0773865666882759,-0.8118438720703125,0.4625396728515625,-0.0952911376953125
20220224-1008,2022-02-24 10:09:01Z,u01, 63,40,movements,el-ex, rt, d,220036.73937025003, -1.432600454578682, -0.5031640348396519, -0.2350936822486434, -0.04629819840192795, 0.09344679117202759, -0.0032509928569197655, -0.8677089810371399, 0.48219984769821167, -0.12068305164575577, 0.04960906505584717, -0.018729418516159058, 0.028214827179908752, -0.26104163817167864, -0.6095209092403642, 0.7446245496822693,0.07665349130836863,-0.828704833984375,0.4736480712890625,-0.0991363525390625
20220224-1008,2022-02-24 10:09:01Z,u01, 64,40,movements,el-ex, rt, d,220036.76431725002, -1.4308025036439782, -0.502591947744733, -0.23621322498129768, -0.028970342129468918, 0.09380525350570679, -0.06584087014198303, -0.8677635788917542, 0.48169857263565063, -0.12228141725063324, 0.046627163887023926, -0.010827600955963135, 0.01841486245393753, -0.2612490556363534, -0.6087760032608887, 0.7452467534383636,0.07581487457250992,-0.81640625,0.4657135009765625,-0.104705810546875
20220224-1008,2022-02-24 10:09:01Z,u01, 65,40,movements,el-ex, rt, d,220036.78926325002, -1.4295746256738318, -0.5009884596934859, -0.23825132622831782, -0.08033476769924164, 0.07446211576461792, -0.06493066996335983, -0.8683763146400452, 0.48029276728630066, -0.12345539033412933, 0.06751888990402222, -0.015983104705810547, 0.013256445527076721, -0.2613484411052581, -0.6082510147823869, 0.7457858345449637,0.07437129287821265,-0.8091888427734375,0.46783447265625,-0.1085662841796875
20220224-1008,2022-02-24 10:09:01Z,u01, 66,40,movements,el-ex, rt, d,220036.81421025, -1.4287855310304456, -0.49911384980049034, -0.24107509766221713, -0.076004259288311, 0.12894733250141144, -0.11962386965751648, -0.8691685795783997, 0.4786476790904999, -0.1242678239941597, 0.03417706489562988, 0.003987908363342285, 0.012710794806480408, -0.26157299093526765, -0.6078204168018603, 0.7462324036807718,0.0726030210070274,-0.82769775390625,0.479583740234375,-0.1114501953125
20220224-1008,2022-02-24 10:09:01Z,u01, 67,40,movements,el-ex, rt, d,220036.83915625, -1.4269979570802072, -0.4967889470569385, -0.2427766505060822, -0.025561030954122543, 0.08193354308605194, -0.07693786919116974, -0.870043933391571, 0.4766051173210144, -0.1259804368019104, 0.06692814826965332, 0.004306137561798096, 0.01066984236240387, -0.2613314145268316, -0.6072196244468681, 0.7469622742351909,0.0709757135782152,-0.8146209716796875,0.481689453125,-0.1068572998046875
20220224-1008,2022-02-24 10:09:01Z,u01, 68,40,movements,el-ex, rt, d,220036.86410325, -1.4251476457516095, -0.49459992187900076, -0.2435927297928165, -0.01336807943880558, 0.12161265313625336, -0.11524730175733566, -0.8708394765853882, 0.474679559469223, -0.12774118781089783, 0.03459686040878296, -0.011865288019180298, 0.013071432709693909, -0.2608688210903085, -0.6066933879720211, 0.7476698853802607,0.06971563856168803,-0.827972412109375,0.458160400390625,-0.1182098388671875
20220224-1008,2022-02-24 10:09:02Z,u01, 69,40,movements,el-ex, rt, d,220036.88905025, -1.4224152440759177, -0.491884523016656, -0.24427156817343162, 0.007220251485705376, 0.1288617104291916, -0.1120302677154541, -0.8717589378356934, 0.4722878336906433, -0.1303102821111679, 0.06948220729827881, -0.015897363424301147, 0.005356058478355408, -0.26020571825464023, -0.6059190053592589, 0.7486662087956651,0.0682214703238535,-0.79693603515625,0.45819091796875,-0.128082275390625
20220224-1008,2022-02-24 10:09:02Z,u01, 70,40,movements,el-ex, rt, d,220036.91399625002, -1.4194289465677967, -0.4898297958900661, -0.24459018029855467, -0.003633527085185051, 0.1436953842639923, -0.07497118413448334, -0.8723232746124268, 0.4704757034778595, -0.1330590695142746, 0.05466580390930176, -0.009294062852859497, 0.003817141056060791, -0.2596731883519005, -0.605012647240577, 0.7496895231927002,0.06704584401931153,-0.8218841552734375,0.4640045166015625,-0.1277923583984375
20220224-1008,2022-02-24 10:09:02Z,u01, 71,40,movements,el-ex, rt, d,220036.93894325002, -1.4161185007484245, -0.48778699017011823, -0.245725546981014, -0.03390401601791382, 0.15532739460468292, -0.09973259270191193, -0.8728259205818176, 0.46867212653160095, -0.1360938996076584, 0.051628291606903076, 0.003251791000366211, 0.007675990462303162, -0.2593990561634177, -0.6038751333761311, 0.7508350310164238,0.0655270642201258,-0.8076934814453125,0.4701080322265625,-0.1338348388671875
20220224-1008,2022-02-24 10:09:02Z,u01, 72,40,movements,el-ex, rt, d,220036.96388925, -1.4140234322789937, -0.4858250533171581, -0.24785235192806213, -0.09397810697555542, 0.10971977561712265, -0.08090291172266006, -0.8734452724456787, 0.4669381082057953, -0.13806551694869995, 0.06669789552688599, -0.010196805000305176, -0.018977925181388855, -0.2594094312789221, -0.6030538869227124, 0.7516379955619357,0.06382027912156121,-0.81280517578125,0.4521636962890625,-0.1549835205078125
20220224-1008,2022-02-24 10:09:02Z,u01, 73,40,movements,el-ex, rt, d,220036.98883625, -1.4130847649980813, -0.4842042133250041, -0.2509175543365223, -0.06462041288614273, 0.09024207293987274, -0.0918331891298294, -0.8740615248680115, 0.4655041992664337, -0.13900400698184967, 0.044639647006988525, -0.013081133365631104, -0.002002403140068054, -0.259784892059656, -0.6025029533077972, 0.7521005985365776,0.06202081943286769,-0.836700439453125,0.4596405029296875,-0.1379547119140625
20220224-1008,2022-02-24 10:09:02Z,u01, 74,40,movements,el-ex, rt, d,220037.01378225003, -1.4110420839995124, -0.4820037856739557, -0.25137001573755424, 0.04558578506112099, 0.10134465992450714, -0.11492878198623657, -0.8747848868370056, 0.46355560421943665, -0.1409517377614975, 0.036726534366607666, 0.003790557384490967, -0.019357070326805115, -0.2591987853284647, -0.6019469407390445, 0.7528414543440738,0.060872818708753426,-0.8322906494140625,0.4641265869140625,-0.16619873046875
20220224-1008,2022-02-24 10:09:02Z,u01, 75,40,movements,el-ex, rt, d,220037.03872925002, -1.409242738813244, -0.4796819397274811, -0.25150998496909954, -0.05001657456159592, 0.03218569606542587, -0.053190723061561584, -0.8755897879600525, 0.461497038602829, -0.1426982879638672, 0.06453949213027954, -0.010294675827026367, -0.021425172686576843, -0.2584657467003397, -0.601536624280235, 0.753504290270313,0.05983587148573952,-0.8281707763671875,0.44134521484375,-0.1531524658203125
20220224-1008,2022-02-24 10:09:02Z,u01, 76,40,movements,el-ex, rt, d,220037.06367625002, -1.4084927953008106, -0.4785227632295867, -0.2532487601790258, -0.013017275370657444, 0.1100141778588295, -0.093451589345932, -0.8760098218917847, 0.4604683816432953, -0.14344123005867004, 0.0007200241088867188, -0.0002938807010650635, -0.01465502381324768, -0.2585963867692396, -0.6011715990097541, 0.7538393207950199,0.058708795991974094,-0.864715576171875,0.4605255126953125,-0.1595306396484375
20220224-1008,2022-02-24 10:09:02Z,u01, 77,40,movements,el-ex, rt, d,220037.08862225, -1.4056381818450896, -0.4765587644060758, -0.25228317279357143, 0.0715285986661911, 0.06214512512087822, -0.028018590062856674, -0.876487135887146, 0.45872408151626587, -0.14608971774578094, 0.06446033716201782, -0.0032340586185455322, -0.014142781496047974, -0.2576868088917428, -0.6004603656398, 0.7547665556721411,0.05806987643346554,-0.8109588623046875,0.4520111083984375,-0.163787841796875
20220224-1008,2022-02-24 10:09:02Z,u01, 78,40,movements,el-ex, rt, d,220037.11356925, -1.4031886650784522, -0.4760667774632865, -0.2512897057278685, -0.020267531275749207, 0.07207518815994263, -0.021375402808189392, -0.8763492107391357, 0.458286851644516, -0.14827390015125275, 0.024878263473510742, -0.009571641683578491, -0.009440898895263672, -0.25728342154080186, -0.5997235107709595, 0.7554973873288392,0.057970846065662426,-0.8551177978515625,0.4452667236328125,-0.159637451171875
20220224-1008,2022-02-24 10:09:02Z,u01, 79,40,movements,el-ex, rt, d,220037.13851525, -1.4020099311637158, -0.475829116577641, -0.25317281498413113, -0.0887899324297905, 0.08668329566717148, -0.02788190357387066, -0.8762811422348022, 0.458075612783432, -0.14932507276535034, 0.02180427312850952, -0.024405598640441895, -0.01965068280696869, -0.25779642022689797, -0.5990646621014544, 0.7559166404569502,0.05703091315560781,-0.8444366455078125,0.4327392578125,-0.170166015625
20220224-1008,2022-02-24 10:09:02Z,u01, 80,40,movements,el-ex, rt, d,220037.163462375, -1.4009002743334962, -0.4764606941599851, -0.25499393917214835, -0.03895000368356705, 0.06383270770311356, 0.04470081999897957, -0.8758296370506287, 0.45863693952560425, -0.15024840831756592, 0.04427140951156616, -0.024509161710739136, -0.014683768153190613, -0.25859963542336095, -0.5983327029527137, 0.7562690858049864,0.05640266981216652,-0.8328399658203125,0.4326324462890625,-0.16595458984375
20220224-1008,2022-02-24 10:09:02Z,u01, 81,40,movements,el-ex, rt, d,220037.18840837502, -1.3998063411591255, -0.4781214619279709, -0.25555393882487465, -0.05096852034330368, 0.03330369293689728, 0.08162621408700943, -0.8749129176139832, 0.4601120948791504, -0.15107659995555878, 0.03995203971862793, -0.02624368667602539, -0.02696293592453003, -0.259393875544546, -0.5976424658069445, 0.7565292612254658,0.056583992777801,-0.8384552001953125,0.438385009765625,-0.17919921875
20220224-1008,2022-02-24 10:09:02Z,u01, 82,40,movements,el-ex, rt, d,220037.21335537502, -1.4001861491891128, -0.48069745519981394, -0.25738860901041477, -0.10996133089065552, -0.017710356041789055, 0.11293792724609375, -0.8737993836402893, 0.4623976945877075, -0.15054257214069366, 0.023121893405914307, -0.0019026696681976318, -0.020905137062072754, -0.2608550544048615, -0.597229736322095, 0.7563389565628211,0.05676879343767556,-0.8554840087890625,0.46527099609375,-0.1700592041015625
20220224-1008,2022-02-24 10:09:02Z,u01, 83,40,movements,el-ex, rt, d,220037.238301375, -1.401807488460158, -0.4834417921203617, -0.2602701162670294, -0.11545620113611221, -0.01589854061603546, 0.07407023012638092, -0.8727881908416748, 0.46482929587364197, -0.14891166985034943, 0.005036115646362305, 0.01211470365524292, -0.021040678024291992, -0.26265236713053103, -0.5971246934072778, 0.7557992125695879,0.05677573108710307,-0.863372802734375,0.4794464111328125,-0.166717529296875
20220224-1008,2022-02-24 10:09:02Z,u01, 84,40,movements,el-ex, rt, d,220037.263248375, -1.4026219909738264, -0.4850085479510457, -0.26222940855748345, -0.08513005077838898, -0.02470095455646515, 0.04469888657331467, -0.8721900582313538, 0.46621590852737427, -0.14807863533496857, 0.03480297327041626, 0.022996097803115845, -0.024727091193199158, -0.26377459022883143, -0.5969787662805196, 0.7555331677843784,0.05664775862797126,-0.8341064453125,0.487030029296875,-0.1710968017578125
20220224-1008,2022-02-24 10:09:02Z,u01, 85,40,movements,el-ex, rt, d,220037.288195375, -1.4037269972347142, -0.48632654002273995, -0.2642687505714565, -0.10825041681528091, -0.02724480628967285, 0.0302797369658947, -0.871746301651001, 0.4673815071582794, -0.14701244235038757, 0.04331624507904053, 0.012003839015960693, -0.030966028571128845, -0.26482301274996767, -0.5969610984549104, 0.7551950938889489,0.056448758432809484,-0.829803466796875,0.4752197265625,-0.1791229248046875
20220224-1008,2022-02-24 10:09:02Z,u01, 86,40,movements,el-ex, rt, d,220037.31314137502, -1.4051811238648186, -0.48744929412409876, -0.2669625838999317, -0.12031663209199905, -0.032753754407167435, 0.03461303189396858, -0.8714412450790405, 0.46837377548217773, -0.14565809071063995, 0.04427754878997803, 0.0030159950256347656, -0.027193427085876465, -0.265986890076543, -0.597010830500163, 0.7547811320212949,0.05598727245047042,-0.8307037353515625,0.47259521484375,-0.1750946044921875
20220224-1008,2022-02-24 10:09:02Z,u01, 87,40,movements,el-ex, rt, d,220037.33808837502, -1.4062014012927895, -0.4887205153019898, -0.26964533935809143, -0.09733135998249054, 0.02036978304386139, 0.029919877648353577, -0.8710012435913086, 0.46949657797813416, -0.14467120170593262, 0.03045564889907837, 0.007126927375793457, -0.02955363690853119, -0.26721228751953957, -0.5968768654109389, 0.7544884976740653,0.05552181778293026,-0.8314208984375,0.466796875,-0.1776123046875
20220224-1008,2022-02-24 10:09:02Z,u01, 88,40,movements,el-ex, rt, d,220037.363034375, -1.4058879156442463, -0.49048192026678333, -0.2719211166442414, -0.135239377617836, 0.02510981261730194, 0.06621915847063065, -0.870138943195343, 0.47105103731155396, -0.14480829238891602, 0.05673855543136597, -0.0023162364959716797, -0.026578441262245178, -0.26852700928295953, -0.5962290671595135, 0.7545583494357899,0.05519057809201766,-0.81329345703125,0.4707489013671875,-0.1703948974609375
20220224-1008,2022-02-24 10:09:02Z,u01, 89,40,movements,el-ex, rt, d,220037.387981375, -1.406565724695121, -0.49321212894629424, -0.275680461597832, -0.18064095079898834, 0.03113628178834915, 0.07068581134080887, -0.8689646124839783, 0.4734576344490051, -0.1440076231956482, 0.03990894556045532, 0.006705909967422485, -0.019902214407920837, -0.27059979697954767, -0.59562734556921, 0.7543252281739302,0.05474657568516397,-0.8375244140625,0.486083984375,-0.16168212890625
20220224-1008,2022-02-24 10:09:02Z,u01, 90,40,movements,el-ex, rt, d,220037.412927375, -1.4069832109548306, -0.49507786218200156, -0.28067055806573327, -0.20185454189777374, 0.059989165514707565, 0.02077491395175457, -0.8681517243385315, 0.47510015964508057, -0.14350053668022156, 0.046038687229156494, 0.021863311529159546, -0.018669843673706055, -0.2727363895062133, -0.5948651884729077, 0.7542448821140318,0.05352482835280029,-0.8161773681640625,0.4969482421875,-0.1617431640625
20220224-1008,2022-02-24 10:09:02Z,u01, 91,40,movements,el-ex, rt, d,220037.43787437503, -1.4074406190770432, -0.49614024304367715, -0.28533714630171153, -0.1569083333015442, 0.04940849170088768, 0.020551543682813644, -0.8677187561988831, 0.4760347306728363, -0.14302125573158264, 0.05831629037857056, 0.020074278116226196, -0.017119646072387695, -0.2744884480104125, -0.5942604331291346, 0.7541808515169248,0.05217145050007715,-0.821014404296875,0.5008392333984375,-0.1589508056640625
20220224-1008,2022-02-24 10:09:02Z,u01, 92,40,movements,el-ex, rt, d,220037.46282037502, -1.407564352822746, -0.49722436230897105, -0.2890115554673445, -0.1448347270488739, 0.058363176882267, -0.0007291790097951889, -0.8672268390655518, 0.4769878387451172, -0.14282995462417603, 0.024315953254699707, 0.030763685703277588, -0.007316485047340393, -0.27596060156150365, -0.5936587959695048, 0.7541872254215756,0.051153897902597875,-0.84271240234375,0.5093536376953125,-0.1485748291015625
20220224-1008,2022-02-24 10:09:02Z,u01, 93,40,movements,el-ex, rt, d,220037.48776737502, -1.4076794574884983, -0.49730600094476335, -0.292961709663545, -0.13875633478164673, 0.052016325294971466, -0.04256397858262062, -0.8672047257423401, 0.47705960273742676, -0.14272379875183105, 0.04561054706573486, 0.03175997734069824, -0.0076973289251327515, -0.27715863228474047, -0.5931451729674209, 0.7542487157708566,0.049706642557196964,-0.801666259765625,0.5088043212890625,-0.1463165283203125
20220224-1008,2022-02-24 10:09:02Z,u01, 94,40,movements,el-ex, rt, d,220037.512714375, -1.4081702309080641, -0.49697829775748975, -0.29693201827118826, -0.13297593593597412, 0.035538285970687866, -0.07058948278427124, -0.8674289584159851, 0.4767715632915497, -0.14232349395751953, 0.06557959318161011, 0.030308544635772705, 0.00017267465591430664, -0.27820786120690616, -0.5928226030602138, 0.754215719034956,0.04817130474352033,-0.8066253662109375,0.50518798828125,-0.1458892822265625
20220224-1008,2022-02-24 10:09:02Z,u01, 95,40,movements,el-ex, rt, d,220037.537660375, -1.4091670228503397, -0.4958591509323033, -0.3009592066700018, -0.14043880999088287, 0.030351709574460983, -0.08831369131803513, -0.8680964112281799, 0.475787490606308, -0.14154453575611115, 0.04302322864532471, 0.030224472284317017, -0.01092122495174408, -0.27898248333738473, -0.5927870651648659, 0.7540667159628295,0.04642872203810288,-0.8373260498046875,0.4985809326171875,-0.1607513427734375
20220224-1008,2022-02-24 10:09:02Z,u01, 96,40,movements,el-ex, rt, d,220037.562607375, -1.4108256080792227, -0.4947069590583456, -0.30607044299015546, -0.20541025698184967, 0.009699362330138683, -0.0952552855014801, -0.8688706755638123, 0.4747737646102905, -0.14019177854061127, 0.037495553493499756, -0.00512346625328064, -0.02116990089416504, -0.2800531926152479, -0.5928526966603331, 0.7537427788477974,0.04435977188039689,-0.8265380859375,0.4609527587890625,-0.1573333740234375
20220224-1008,2022-02-24 10:09:02Z,u01, 97,40,movements,el-ex, rt, d,220037.58755337502, -1.4137989472958388, -0.49446681214153637, -0.31169641905081635, -0.14549894630908966, -0.015502328984439373, -0.03615701198577881, -0.8693960905075073, 0.474562406539917, -0.13762551546096802, 0.039852142333984375, -0.03169137239456177, -0.019829854369163513, -0.2815721966760229, -0.5932152577836545, 0.7529937627208357,0.04257997309569313,-0.842315673828125,0.439971923828125,-0.155029296875
20220224-1008,2022-02-24 10:09:02Z,u01, 98,40,movements,el-ex, rt, d,220037.61250037502, -1.4148333456797981, -0.4943757647152509, -0.3139441693139636, -0.05002652853727341, -0.003051052801311016, -0.014076009392738342, -0.869580864906311, 0.4744822382926941, -0.13673287630081177, 0.03445202112197876, -0.037516266107559204, -0.018174350261688232, -0.28218507083307814, -0.5933002185442947, 0.7527383936658327,0.04184995708147284,-0.832122802734375,0.43603515625,-0.1566925048828125
20220224-1008,2022-02-24 10:09:02Z,u01, 99,40,movements,el-ex, rt, d,220037.637446375, -1.4156510999138128, -0.49503882271167104, -0.31656423637874015, -0.18172161281108856, 0.018353503197431564, 0.021734118461608887, -0.8693813681602478, 0.47506582736968994, -0.13597308099269867, 0.0355648398399353, -0.040693819522857666, -0.012037098407745361, -0.2831781869836865, -0.5931471765385886, 0.7525221308033961,0.04119560059076434,-0.8387451171875,0.436920166015625,-0.143707275390625
20220224-1008,2022-02-24 10:09:02Z,u01, 100,40,movements,el-ex, rt, d,220037.662393375, -1.417319683343541, -0.49623631279242547, -0.323072265642948, -0.25635042786598206, 0.06685925275087357, 0.008932302705943584, -0.8690442442893982, 0.47611919045448303, -0.13443519175052643, 0.023707270622253418, 0.005341380834579468, 0.00992351770401001, -0.2854939577638639, -0.5926850788794642, 0.7521085568784652,0.03937530153175815,-0.8428955078125,0.4922332763671875,-0.117919921875
20220224-1008,2022-02-24 10:09:02Z,u01, 101,40,movements,el-ex, rt, d,220037.687340375, -1.4174996639445068, -0.4975583311988493, -0.32728044171431037, -0.004293857607990503, 0.03282398730516434, 0.0863087847828865, -0.8684455156326294, 0.4772813320159912, -0.13418254256248474, 0.040351033210754395, 0.04830765724182129, 0.03727400302886963, -0.2871996741510084, -0.59196712502535, 0.7520825937173095,0.03825009198187431,-0.8159332275390625,0.5412139892578125,-0.0838623046875
20220224-1008,2022-02-24 10:09:02Z,u01, 102,40,movements,el-ex, rt, d,220037.71228637503, -1.4148431097155447, -0.5000240945352018, -0.3213868352339106, 0.4081089496612549, -0.08344469219446182, 0.14200706779956818, -0.8669207096099854, 0.479446679353714, -0.13630592823028564, 0.06446105241775513, 0.04991120100021362, 0.03599466383457184, -0.28637223208994933, -0.5914710334064612, 0.7526492674533204,0.04089040652374651,-0.804351806640625,0.510406494140625,-0.1152801513671875
20220224-1008,2022-02-24 10:09:02Z,u01, 103,40,movements,el-ex, rt, d,220037.73723337502, -1.4082639031105741, -0.4993957764936721, -0.30531143378050246, 0.624431312084198, 0.007930624298751354, 0.06347616761922836, -0.8663023114204407, 0.4788951873779297, -0.14205530285835266, 0.05282580852508545, -0.012678146362304688, -0.009662851691246033, -0.28154018506960415, -0.5913606956517008, 0.7542739982775197,0.04580817880688966,-0.8029022216796875,0.4429473876953125,-0.1400299072265625
20220224-1008,2022-02-24 10:09:02Z,u01, 104,40,movements,el-ex, rt, d,220037.76217937501, -1.4010050242908043, -0.4985102881716187, -0.2915333012519474, 0.27682366967201233, 0.06208780035376549, -0.0008927634917199612, -0.8656659722328186, 0.4781176745891571, -0.14841148257255554, 0.037937700748443604, -0.03158444166183472, 0.04254603385925293, -0.2773286034395447, -0.5906632722191396, 0.7561313772639177,0.0497101707518295,-0.83990478515625,0.4506683349609375,-0.1038818359375
20220224-1008,2022-02-24 10:09:02Z,u01, 105,40,movements,el-ex, rt, d,220037.787126375, -1.3983297681826283, -0.4974364832564973, -0.2913617656210291, -0.22457799315452576, 0.11042990535497665, -0.06733264029026031, -0.8657711744308472, 0.4771742820739746, -0.15081486105918884, 0.010912775993347168, -0.023072659969329834, 0.04905402660369873, -0.2769625820134104, -0.5898171705925208, 0.7569681897591704,0.04905803220643486,-0.8494873046875,0.4459228515625,-0.1005706787109375
20220224-1008,2022-02-24 10:09:02Z,u01, 106,40,movements,el-ex, rt, d,220037.812072375, -1.400734315758057, -0.49736208692714107, -0.30076299654270383, -0.36240386962890625, 0.07131319493055344, -0.06576770544052124, -0.8661662340164185, 0.477108895778656, -0.14873863756656647, 0.006989598274230957, -0.017575174570083618, 0.04543668031692505, -0.2796507517674724, -0.5894286547475738, 0.7564857001096983,0.04581156413646101,-0.8644866943359375,0.468536376953125,-0.10406494140625
20220224-1008,2022-02-24 10:09:02Z,u01, 107,40,movements,el-ex, rt, d,220037.837019375, -1.4031408783078207, -0.4963487919750642, -0.3086977749194349, -0.12461157888174057, 0.044348087161779404, -0.11578619480133057, -0.866998016834259, 0.4762181043624878, -0.1467343419790268, -0.005591154098510742, 0.009087681770324707, 0.02638828754425049, -0.2815770152322401, -0.5893617004256027, 0.7559984181625127,0.04282137547926438,-0.86920166015625,0.48297119140625,-0.1198577880859375
20220224-1008,2022-02-24 10:09:02Z,u01, 108,40,movements,el-ex, rt, d,220037.86196537502, -1.4026077756467432, -0.49296288470562044, -0.3086979511335731, 0.143842875957489, 0.014002365060150623, -0.15044569969177246, -0.8685042262077332, 0.473238080739975, -0.1474655717611313, -0.00878453254699707, -0.0031148195266723633, 0.036702051758766174, -0.28039044997816853, -0.5896171744274601, 0.7563054457750537,0.041651110880081325,-0.8830108642578125,0.4683837890625,-0.109832763671875
20220224-1008,2022-02-24 10:09:03Z,u01, 109,40,movements,el-ex, rt, d,220037.88691237502, -1.4005897384340815, -0.4882982937705625, -0.3051930392138029, 0.11460882425308228, 0.025055814534425735, -0.17511510848999023, -0.8703709244728088, 0.4691237509250641, -0.14959022402763367, -0.007787585258483887, -0.012138277292251587, 0.015450254082679749, -0.2777455571647691, -0.589968045993431, 0.7570327654200157,0.041187621971027655,-0.8654632568359375,0.4375,-0.141937255859375
20220224-1008,2022-02-24 10:09:03Z,u01, 110,40,movements,el-ex, rt, d,220037.911858375, -1.4013836447352979, -0.4851620526146361, -0.3058711873559529, -0.08171914517879486, -0.03802887722849846, -0.08152415603399277, -0.8719354867935181, 0.466351717710495, -0.14914652705192566, 0.010302126407623291, -0.0656711757183075, 0.017829418182373047, -0.27681664822558805, -0.590592310888849, 0.7569485512986388,0.04002743910137144,-0.8756561279296875,0.394287109375,-0.126708984375
20220224-1008,2022-02-24 10:09:03Z,u01, 111,40,movements,el-ex, rt, d,220037.936805375, -1.404289801852862, -0.483873313685075, -0.3090111498039901, -0.035517558455467224, -0.005691444501280785, -0.09891220182180405, -0.872957170009613, 0.46521130204200745, -0.14671140909194946, -0.03671079874038696, -0.06256240606307983, 0.03469669818878174, -0.27723027184157933, -0.5914285033770712, 0.7562065183289836,0.03882517924146011,-0.90264892578125,0.41778564453125,-0.1196441650390625
20220224-1008,2022-02-24 10:09:03Z,u01, 112,40,movements,el-ex, rt, d,220037.961752375, -1.4050798385816923, -0.48098621530236224, -0.3083644845509968, 0.15169307589530945, -0.0319608636200428, -0.10626146197319031, -0.8743939399719238, 0.4626537263393402, -0.1462426483631134, 0.028568744659423828, -0.029975473880767822, 0.006365299224853516, -0.27600065123461753, -0.5922012462883266, 0.7560812116040445,0.038243676033808016,-0.83673095703125,0.4323272705078125,-0.142364501953125
20220224-1008,2022-02-24 10:09:03Z,u01, 113,40,movements,el-ex, rt, d,220037.98669837503, -1.4033748074398744, -0.47767839739499973, -0.3009928035175351, 0.3986799120903015, -0.09053316712379456, -0.08815044164657593, -0.8756474256515503, 0.4597186744213104, -0.1479875147342682, 0.020880579948425293, -0.020921647548675537, 0.019401729106903076, -0.272675700786779, -0.5930043912989846, 0.7565814933000722,0.0397264388986134,-0.8893585205078125,0.452301025390625,-0.1159210205078125
20220224-1008,2022-02-24 10:09:03Z,u01, 114,40,movements,el-ex, rt, d,220038.01164537502, -1.4016669738300893, -0.47084534572442177, -0.29110596582615245, 0.3501478135585785, -0.06021227687597275, -0.23727227747440338, -0.8784695267677307, 0.45363980531692505, -0.15000802278518677, -0.04302412271499634, 0.0066416263580322266, 0.03449903428554535, -0.2673416297780875, -0.5945792114749895, 0.757179522011297,0.04102783201262115,-0.9123992919921875,0.45904541015625,-0.123687744140625
20220224-1008,2022-02-24 10:09:03Z,u01, 115,40,movements,el-ex, rt, d,220038.036591375, -1.4018004704906222, -0.46395286848416867, -0.2865590146218374, 0.032837532460689545, -0.07694511860609055, -0.19467520713806152, -0.8815507888793945, 0.44748660922050476, -0.15041308104991913, 0.0010576248168945312, -0.009284675121307373, 0.0017162561416625977, -0.26352384212832025, -0.59611127028789, 0.7573395150355478,0.040539888989720115,-0.882568359375,0.4240264892578125,-0.15313720703125
20220224-1008,2022-02-24 10:09:03Z,u01, 116,40,movements,el-ex, rt, d,220038.061538375, -1.406361082405902, -0.4611774735842316, -0.2916724792474453, -0.3095618784427643, -0.06702318042516708, -0.11263461410999298, -0.8834493160247803, 0.44500288367271423, -0.14659383893013, -0.03752541542053223, -0.04619920253753662, 0.010470226407051086, -0.2639688617106883, -0.5975144515194827, 0.7561940254027119,0.03830829928941433,-0.925079345703125,0.4019927978515625,-0.133392333984375
20220224-1008,2022-02-24 10:09:03Z,u01, 117,40,movements,el-ex, rt, d,220038.086484375, -1.413541152569681, -0.46025825192970143, -0.3032671533893546, -0.46959808468818665, -0.10628130286931992, -0.08858726173639297, -0.8848826885223389, 0.444179505109787, -0.1403108835220337, -0.03223156929016113, -0.029598206281661987, 0.02316923439502716, -0.266978808860696, -0.5988045376290457, 0.7542939235568524,0.03458433458525025,-0.9059600830078125,0.4217681884765625,-0.1143341064453125
20220224-1008,2022-02-24 10:09:03Z,u01, 118,40,movements,el-ex, rt, d,220038.111431375, -1.4227063453054334, -0.460577366755002, -0.3173747073594655, -0.5215818285942078, -0.12663857638835907, -0.02216809242963791, -0.8859914541244507, 0.44446536898612976, -0.13217408955097198, -0.010065793991088867, 0.022514671087265015, 0.009890183806419373, -0.2711714287807874, -0.6003157580750448, 0.75176476753716,0.030609834182629324,-0.9013824462890625,0.478912353515625,-0.1228790283203125
20220224-1008,2022-02-24 10:09:03Z,u01, 119,40,movements,el-ex, rt, d,220038.13637737502, -1.4309514277053068, -0.46108713445552535, -0.3293767782671204, -0.28551343083381653, -0.10947143286466599, -0.0833149328827858, -0.8868266940116882, 0.44492197036743164, -0.12483301758766174, -0.038283348083496094, 0.03614196181297302, 0.021088525652885437, -0.27483761354330216, -0.6017040611348653, 0.7494438348470746,0.02739823943079877,-0.9304351806640625,0.4825439453125,-0.084442138671875
20220224-1008,2022-02-24 10:09:03Z,u01, 120,40,movements,el-ex, rt, d,220038.16132500002, -1.4343096488207643, -0.4583884409907269, -0.33290343258666155, 0.059659194201231, -0.04426193982362747, -0.1615869700908661, -0.8884269595146179, 0.4425034821033478, -0.12201705574989319, -0.02871781587600708, 0.045548856258392334, 0.05153679847717285, -0.2749109829485145, -0.6028394663580992, 0.7485656968327371,0.0256499684508988,-0.9075164794921875,0.490447998046875,-0.0756683349609375
20220224-1008,2022-02-24 10:09:03Z,u01, 121,40,movements,el-ex, rt, d,220038.186271, -1.4333027571667387, -0.4533652388967594, -0.3290253936171338, 0.20499001443386078, -0.018042853102087975, -0.18778395652770996, -0.8904942870140076, 0.43799328804016113, -0.12321465462446213, 0.006018579006195068, 0.045298367738723755, 0.028289794921875, -0.27199632734573154, -0.6036643680340568, 0.7489772176273887,0.025308086536888943,-0.8725738525390625,0.46575927734375,-0.0979461669921875
20220224-1008,2022-02-24 10:09:03Z,u01, 122,40,movements,el-ex, rt, d,220038.211218, -1.4325618253994261, -0.44862176427062495, -0.3251786416245371, 0.12918317317962646, -0.020422320812940598, -0.16948875784873962, -0.8924505114555359, 0.4337241053581238, -0.1241593062877655, -0.009023487567901611, -0.014534622430801392, 0.02569437026977539, -0.2691804028867419, -0.6045347453713215, 0.7492999253537898,0.0250857222618021,-0.91082763671875,0.41168212890625,-0.1033477783203125
20220224-1008,2022-02-24 10:09:03Z,u01, 123,40,movements,el-ex, rt, d,220038.236165, -1.4304125831154588, -0.44340287239654813, -0.3205368994818909, 0.2653045058250427, 0.008500873111188412, -0.1949409395456314, -0.8944106698036194, 0.42901575565338135, -0.12639211118221283, -0.00813138484954834, -0.028319954872131348, 0.008975759148597717, -0.26596908734086655, -0.6050325527500224, 0.750053335391054,0.024819941685036283,-0.8863983154296875,0.4116363525390625,-0.138336181640625
20220224-1008,2022-02-24 10:09:03Z,u01, 124,40,movements,el-ex, rt, d,220038.261111, -1.4273678875154363, -0.4375059443534576, -0.31351643092672415, 0.27238228917121887, -0.005938186310231686, -0.21003566682338715, -0.8965101838111877, 0.4236816465854645, -0.12947411835193634, 0.024134695529937744, -0.00317990779876709, -0.04366731643676758, -0.26180253685538124, -0.605576068545708, 0.751070199682189,0.025114495095266497,-0.8717803955078125,0.418304443359375,-0.1734771728515625
20220224-1008,2022-02-24 10:09:03Z,u01, 125,40,movements,el-ex, rt, d,220038.28605800003, -1.426462375712589, -0.43129557965973303, -0.3093037317913781, 0.10391140729188919, -0.053034789860248566, -0.2287813127040863, -0.898979127407074, 0.41804808378219604, -0.13066180050373077, 0.011298954486846924, -0.02804863452911377, -0.01881326735019684, -0.2583401495434936, -0.6065718982734447, 0.7514843760924343,0.024540304008650836,-0.9154510498046875,0.38848876953125,-0.129913330078125
20220224-1008,2022-02-24 10:09:03Z,u01, 126,40,movements,el-ex, rt, d,220038.31100400002, -1.4271233479594256, -0.42500011934367277, -0.30946122174879354, -0.006377715617418289, 0.0035772891715168953, -0.27092698216438293, -0.9016521573066711, 0.4123208820819855, -0.130441814661026, -0.03528326749801636, 0.015672922134399414, 0.004739880561828613, -0.25614956992405524, -0.60759072681359, 0.7514750842388763,0.022499398024598043,-0.92694091796875,0.4341278076171875,-0.1306610107421875
20220224-1008,2022-02-24 10:09:03Z,u01, 127,40,movements,el-ex, rt, d,220038.33595100002, -1.4279342092707012, -0.4188444586647816, -0.310581924253929, -0.018664706498384476, -0.03423606976866722, -0.21687433123588562, -0.904252827167511, 0.4067050814628601, -0.1300695687532425, 0.0023362040519714355, 0.034945398569107056, -0.01142515242099762, -0.2542991025695344, -0.6085204863434246, 0.7514176752168733,0.020159870267622684,-0.9098052978515625,0.4387664794921875,-0.1303558349609375
20220224-1008,2022-02-24 10:09:03Z,u01, 128,40,movements,el-ex, rt, d,220038.360897, -1.428650276785298, -0.4137929051598368, -0.31109750895193916, 0.08385197818279266, 0.004171307198703289, -0.2256365865468979, -0.9063678979873657, 0.40208500623703003, -0.12971141934394836, -0.04111140966415405, 0.03074583411216736, 0.010769188404083252, -0.2526572112612624, -0.6093509855994281, 0.751343688541816,0.0183967886851074,-0.9460906982421875,0.4303436279296875,-0.1141815185546875
20220224-1008,2022-02-24 10:09:03Z,u01, 129,40,movements,el-ex, rt, d,220038.385844, -1.426834221361194, -0.40671180827479847, -0.30718710097642216, 0.23669032752513885, 0.009904426522552967, -0.28424519300460815, -0.9089258313179016, 0.39559149742126465, -0.13176240026950836, -0.01601618528366089, 0.03560662269592285, 0.025866448879241943, -0.24896532678702876, -0.6100287417821101, 0.752051578497844,0.017312278871252716,-0.911468505859375,0.4301300048828125,-0.11328125
20220224-1008,2022-02-24 10:09:03Z,u01, 130,40,movements,el-ex, rt, d,220038.41079000002, -1.4253035972852481, -0.3989085671781612, -0.30302076243025905, 0.13913504779338837, -0.024815138429403305, -0.278972327709198, -0.911749541759491, 0.38841283321380615, -0.13359692692756653, 0.008490324020385742, 0.03471338748931885, 0.011496126651763916, -0.2449261334699792, -0.6109113879167597, 0.7526873618875504,0.016129363634444227,-0.90692138671875,0.4195404052734375,-0.122344970703125
20220224-1008,2022-02-24 10:09:03Z,u01, 131,40,movements,el-ex, rt, d,220038.43573700002, -1.4259028426659592, -0.3917363656990318, -0.3022684121675547, 0.03940941393375397, -0.026927223429083824, -0.2981371581554413, -0.9145625829696655, 0.3817938268184662, -0.13344936072826385, -0.020755350589752197, 0.023204952478408813, 0.014522388577461243, -0.24213121134601467, -0.6120847971570874, 0.7526785277626786,0.014131942398140182,-0.9481201171875,0.39666748046875,-0.115203857421875
20220224-1008,2022-02-24 10:09:03Z,u01, 132,40,movements,el-ex, rt, d,220038.46068400002, -1.4258804793871322, -0.383252790456434, -0.3010882763093273, 0.13822564482688904, -0.016343755647540092, -0.3496290445327759, -0.917731761932373, 0.37393924593925476, -0.13393275439739227, -0.018471240997314453, 0.012260735034942627, 0.013601958751678467, -0.23873724458870335, -0.6132194976294651, 0.7528794740972424,0.011789017645184321,-0.92987060546875,0.3849945068359375,-0.1257781982421875
20220224-1008,2022-02-24 10:09:03Z,u01, 133,40,movements,el-ex, rt, d,220038.48563, -1.425555055150255, -0.37423686293391417, -0.2975952855330629, 0.1926441788673401, -0.08040522783994675, -0.33221137523651123, -0.9209865927696228, 0.3655623197555542, -0.13471385836601257, 0.009335041046142578, 0.012062221765518188, -0.001531839370727539, -0.23443780026947977, -0.6145583662717864, 0.753163169053356,0.010106838611195684,-0.912567138671875,0.37896728515625,-0.140106201171875
20220224-1008,2022-02-24 10:09:03Z,u01, 134,40,movements,el-ex, rt, d,220038.510577, -1.4276614083616241, -0.36567813287242334, -0.29431718328763706, 0.18910007178783417, -0.15822726488113403, -0.3254615366458893, -0.9243313074111938, 0.3575826585292816, -0.13321508467197418, -0.03611791133880615, -0.001991838216781616, 0.012930095195770264, -0.23034863068111006, -0.6167106024845741, 0.7526822118610595,0.008775622358011784,-0.97357177734375,0.3510589599609375,-0.1161956787109375
20220224-1008,2022-02-24 10:09:03Z,u01, 135,40,movements,el-ex, rt, d,220038.53552300003, -1.429004946211914, -0.35606943554388143, -0.288493432770848, 0.35078197717666626, -0.13179205358028412, -0.3578060269355774, -0.927868127822876, 0.3485929071903229, -0.13245253264904022, -0.05273789167404175, -0.0018827319145202637, 0.01604326069355011, -0.22509236945555972, -0.618956506285841, 0.7524379265612374,0.007962471630299867,-0.9612579345703125,0.3409881591796875,-0.1217498779296875
20220224-1008,2022-02-24 10:09:03Z,u01, 136,40,movements,el-ex, rt, d,220038.56047000003, -1.4300269122117852, -0.34682180636802723, -0.27960892321203906, 0.3685745894908905, -0.1852397620677948, -0.2770674228668213, -0.9311550855636597, 0.3399105668067932, -0.13195088505744934, -0.023434758186340332, -0.025869429111480713, -0.0007700175046920776, -0.2190045752215214, -0.6213385167040217, 0.7522667393308174,0.008377765612021651,-0.961669921875,0.306915283203125,-0.130340576171875
20220224-1008,2022-02-24 10:09:03Z,u01, 137,40,movements,el-ex, rt, d,220038.58541600002, -1.4325637464028176, -0.3402159049961065, -0.27332133520606755, 0.1878947615623474, -0.17424637079238892, -0.1890852451324463, -0.9336904883384705, 0.3336906433105469, -0.12989485263824463, -0.05007416009902954, -0.046428680419921875, 0.01643049716949463, -0.214655117903231, -0.623679207765296, 0.7515778205663951,0.00884315069131146,-0.992431640625,0.284912109375,-0.1075439453125
20220224-1008,2022-02-24 10:09:03Z,u01, 138,40,movements,el-ex, rt, d,220038.610363, -1.4347631068389084, -0.3356715098690108, -0.269335808166732, 0.20099981129169464, -0.11965629458427429, -0.14068089425563812, -0.9354667067527771, 0.329403281211853, -0.12804535031318665, -0.0319252610206604, -0.02415117621421814, 0.029473602771759033, -0.21176156368476068, -0.6254073574204576, 0.7509596157704589,0.0090776926512907,-0.95849609375,0.3077850341796875,-0.10113525390625
20220224-1008,2022-02-24 10:09:03Z,u01, 139,40,movements,el-ex, rt, d,220038.635309, -1.4354607270708566, -0.33174749830600764, -0.2641223328293622, 0.19622887670993805, -0.07492850720882416, -0.12314503639936447, -0.9368293285369873, 0.3256957530975342, -0.1275661289691925, 0.0018012523651123047, -0.02062678337097168, 0.015856638550758362, -0.20871017658684843, -0.6266234890472983, 0.7507907305262047,0.009814831786764455,-0.92071533203125,0.3001708984375,-0.1175079345703125
20220224-1008,2022-02-24 10:09:03Z,u01, 140,40,movements,el-ex, rt, d,220038.660256, -1.436589989515724, -0.32855347554816255, -0.26261816763418366, -0.06953904032707214, -0.049308694899082184, -0.12934760749340057, -0.93799889087677, 0.3226742148399353, -0.12664666771888733, 0.008464038372039795, -0.03666350245475769, 0.02303953468799591, -0.20707968509487235, -0.6275306118404148, 0.7504892672802199,0.0094434072028136,-0.928466796875,0.281463623046875,-0.1007232666015625
20220224-1008,2022-02-24 10:09:03Z,u01, 141,40,movements,el-ex, rt, d,220038.68520200002, -1.4386672827362372, -0.3257125996662721, -0.2667080567840349, -0.19616124033927917, -0.007200524210929871, -0.14091810584068298, -0.939164936542511, 0.31998398900032043, -0.12481817603111267, 0.027818500995635986, -0.041221171617507935, 0.02258431911468506, -0.20732954897866712, -0.6281762259913014, 0.7499049981355249,0.007186733487238653,-0.894287109375,0.29803466796875,-0.122833251953125
20220224-1008,2022-02-24 10:09:03Z,u01, 142,40,movements,el-ex, rt, d,220038.71014900002, -1.4401933241835092, -0.3231364177495439, -0.2705566736151234, -0.030020693317055702, -0.031800076365470886, -0.11304646730422974, -0.9401684403419495, 0.3175421953201294, -0.12349175661802292, 0.06437504291534424, -0.022116810083389282, 0.0011773258447647095, -0.20760516866757123, -0.6286129294295985, 0.7494800380928297,0.005051079604221201,-0.879608154296875,0.2996673583984375,-0.1215362548828125
20220224-1008,2022-02-24 10:09:03Z,u01, 143,40,movements,el-ex, rt, d,220038.735095, -1.441138979683579, -0.3202243756502083, -0.2680741780001011, 0.2571619153022766, -0.06975258886814117, -0.09497272223234177, -0.9411978125572205, 0.3147795498371124, -0.12272167950868607, 0.01917022466659546, -0.010046243667602539, 0.006312429904937744, -0.2057721550144881, -0.6295212325901104, 0.7492227410692038,0.005115937037008897,-0.9544525146484375,0.3134002685546875,-0.1125030517578125
20220224-1008,2022-02-24 10:09:03Z,u01, 144,40,movements,el-ex, rt, d,220038.760042, -1.4400469737469268, -0.3156825128974044, -0.25863647213447855, 0.46263986825942993, -0.05067310109734535, -0.13677389919757843, -0.9424710273742676, 0.31046533584594727, -0.12393452227115631, -0.013324260711669922, -0.004206180572509766, 0.006274044513702393, -0.20116285990184574, -0.6305285430977443, 0.7496117529034582,0.00703952409900678,-0.948699951171875,0.2991943359375,-0.1245574951171875
20220224-1008,2022-02-24 10:09:03Z,u01, 145,40,movements,el-ex, rt, d,220038.784989, -1.4379276369337992, -0.3112284139819925, -0.24922187435015525, 0.25248849391937256, 0.004664457403123379, -0.12233451008796692, -0.9435675144195557, 0.30622828006744385, -0.12611359357833862, 0.001093149185180664, -0.02053794264793396, -0.0204317569732666, -0.1965896469942984, -0.6311067359623064, 0.750318497165391,0.008888012307428042,-0.9371795654296875,0.274566650390625,-0.1514739990234375
20220224-1008,2022-02-24 10:09:03Z,u01, 146,40,movements,el-ex, rt, d,220038.80993500003, -1.4367932194826671, -0.3086164315956435, -0.2464481335768358, 0.00496175792068243, 0.007226618938148022, -0.05162258446216583, -0.944213330745697, 0.3037407398223877, -0.12729035317897797, 0.01930183172225952, -0.04159471392631531, -0.01531827449798584, -0.19477201727753712, -0.6312041574053583, 0.7507096750488248,0.008956096466147867,-0.9312286376953125,0.26824951171875,-0.140411376953125
20220224-1008,2022-02-24 10:09:03Z,u01, 147,40,movements,el-ex, rt, d,220038.83488200002, -1.4370688856095533, -0.308047003789815, -0.24821541010218678, -0.07227706909179688, 0.050052709877491, -0.033603571355342865, -0.9444195628166199, 0.3031981587409973, -0.12705308198928833, -0.01970696449279785, -0.007772773504257202, -0.0127631276845932, -0.1951219685711413, -0.6311900469369099, 0.7506399903114905,0.008131819291926523,-0.9695281982421875,0.3087310791015625,-0.13409423828125
20220224-1008,2022-02-24 10:09:03Z,u01, 148,40,movements,el-ex, rt, d,220038.85982800002, -1.4359989361666285, -0.3073727848148473, -0.2501114251180246, -0.06935012340545654, 0.04982048645615578, -0.010981883853673935, -0.9444855451583862, 0.3025555908679962, -0.12809094786643982, -0.0047026872634887695, 0.009105175733566284, -0.016608119010925293, -0.19547949893046923, -0.6306681315337512, 0.7509961594960433,0.007093188118954555,-0.9477691650390625,0.3123931884765625,-0.146240234375
20220224-1008,2022-02-24 10:09:04Z,u01, 149,40,movements,el-ex, rt, d,220038.884775, -1.4337083334382417, -0.30648143154439195, -0.251504048032805, -0.05507281795144081, 0.06806866079568863, 0.0007615247741341591, -0.9444563984870911, 0.30170589685440063, -0.13029085099697113, -0.011460959911346436, 0.009451329708099365, -0.016788601875305176, -0.19560219087549807, -0.6297573801494885, 0.7517372170132635,0.006052339486836172,-0.967529296875,0.3040008544921875,-0.1485595703125
20220224-1008,2022-02-24 10:09:04Z,u01, 150,40,movements,el-ex, rt, d,220038.909721, -1.4300414657650302, -0.30538432217834366, -0.25084733475071197, 0.11702587455511093, 0.13664859533309937, -0.0016371174715459347, -0.9442995190620422, 0.30065974593162537, -0.13379952311515808, -0.022085487842559814, -0.01062062382698059, -0.003102317452430725, -0.19500731454881967, -0.628547836952727, 0.7529068595055322,0.005580361266187758,-0.962066650390625,0.2833099365234375,-0.1292724609375
20220224-1008,2022-02-24 10:09:04Z,u01, 151,40,movements,el-ex, rt, d,220038.934668, -1.4259448083967692, -0.3047779817219342, -0.2468883182066704, 0.12618502974510193, 0.09114821255207062, -0.015058116987347603, -0.9439236521720886, 0.30008140206336975, -0.1376931518316269, -0.011749565601348877, -0.026399731636047363, 0.020688772201538086, -0.19355557051548986, -0.6274469422659387, 0.7541914466380866,0.006475037442044085,-0.963226318359375,0.267059326171875,-0.1266021728515625
20220224-1008,2022-02-24 10:09:04Z,u01, 152,40,movements,el-ex, rt, d,220038.95961400002, -1.423019617404429, -0.3048609325248175, -0.24532953243790145, 0.016205258667469025, 0.09256795048713684, 0.047746144235134125, -0.94349205493927, 0.3001605272293091, -0.14045003056526184, -0.03174281120300293, -0.017125248908996582, -0.004050657153129578, -0.1931069378263495, -0.6264859921029294, 0.7551016921998426,0.006807631989855928,-0.9774322509765625,0.2957611083984375,-0.1450653076171875
20220224-1008,2022-02-24 10:09:04Z,u01, 153,40,movements,el-ex, rt, d,220038.98456100002, -1.4194318824758652, -0.3062625638993111, -0.24309261936590867, 0.15174750983715057, 0.12712620198726654, 0.08427219837903976, -0.9425653219223022, 0.301497220993042, -0.14377054572105408, -0.03239494562149048, 0.03404355049133301, 0.009981527924537659, -0.1929326351960474, -0.6252133439923385, 0.7561910923914793,0.007764827824672971,-0.9584503173828125,0.346527099609375,-0.129974365234375
20220224-1008,2022-02-24 10:09:04Z,u01, 154,40,movements,el-ex, rt, d,220039.009507, -1.4154462167029032, -0.3076112497204588, -0.2392003353832133, 0.08464063704013824, 0.13229645788669586, 0.10494685173034668, -0.9415823817253113, 0.30278289318084717, -0.1474631130695343, 0.009254992008209229, 0.03141516447067261, 0.004442557692527771, -0.19222828936158418, -0.6239525044040615, 0.7573937616842796,0.009293869909146518,-0.932403564453125,0.3326568603515625,-0.146026611328125
20220224-1008,2022-02-24 10:09:04Z,u01, 155,40,movements,el-ex, rt, d,220039.034454, -1.41243891955369, -0.3092474962824417, -0.2398334187613002, -0.13538376986980438, 0.13874416053295135, 0.05055757611989975, -0.9406441450119019, 0.3043419122695923, -0.1502157300710678, -0.0021659135818481445, 0.020563513040542603, 0.004036545753479004, -0.19304007244392113, -0.622597516148267, 0.7583017303587908,0.009297076652224665,-0.9484100341796875,0.3223419189453125,-0.1310272216796875
20220224-1008,2022-02-24 10:09:04Z,u01, 156,40,movements,el-ex, rt, d,220039.05940000003, -1.4112320784584722, -0.31086124482916094, -0.24478292912406657, -0.18064332008361816, 0.11121733486652374, 0.033046625554561615, -0.9399760961532593, 0.30587872862815857, -0.15127260982990265, -0.013210058212280273, 0.041396111249923706, 0.026882991194725037, -0.19517712273556326, -0.6215059032462082, 0.7586667304731547,0.007827710387414324,-0.9561004638671875,0.353546142578125,-0.1275634765625
20220224-1008,2022-02-24 10:09:04Z,u01, 157,40,movements,el-ex, rt, d,220039.08434700003, -1.4091414613250266, -0.3121896886808649, -0.24570880248574456, 0.13122817873954773, 0.12161198258399963, 0.008650008589029312, -0.9392558932304382, 0.3071432113647461, -0.1531718522310257, -0.026762843132019043, 0.057526588439941406, 0.015491843223571777, -0.195960526219652, -0.6204945966319179, 0.7592935379700081,0.0077036085552822375,-0.967681884765625,0.364837646484375,-0.1543426513671875
20220224-1008,2022-02-24 10:09:04Z,u01, 158,40,movements,el-ex, rt, d,220039.10929400002, -1.40459391541838, -0.31133114668694584, -0.2398215497613801, 0.292498916387558, 0.11354247480630875, -0.025067076086997986, -0.938809335231781, 0.3063260614871979, -0.15748512744903564, -0.019976794719696045, 0.0312594473361969, -0.011505916714668274, -0.19383903102530495, -0.6194222011794145, 0.7606955172119635,0.009219154177796854,-0.9578399658203125,0.33233642578125,-0.1641693115234375
20220224-1008,2022-02-24 10:09:04Z,u01, 159,40,movements,el-ex, rt, d,220039.13424, -1.4007074526474603, -0.30983576221592113, -0.2324974046644798, 0.2837919294834137, 0.06493359059095383, -0.023611459881067276, -0.9386404752731323, 0.30490222573280334, -0.16120992600917816, -0.0253944993019104, 0.014281094074249268, 0.02143944799900055, -0.19103998374336906, -0.6187881399852637, 0.7618928035555194,0.011149410171345006,-0.97015380859375,0.3119354248046875,-0.1336669921875
20220224-1008,2022-02-24 10:09:04Z,u01, 160,40,movements,el-ex, rt, d,220039.15918616668, -1.3983803927974172, -0.30885939153208686, -0.22643777586293853, 0.19423913955688477, 0.04250071942806244, -0.014164160937070847, -0.9385557174682617, 0.30397218465805054, -0.16344477236270905, -0.03544330596923828, 0.022153913974761963, 0.011238336563110352, -0.1888184701958145, -0.6185670531405294, 0.7625978597546581,0.012922670160026309,-0.9711456298828125,0.3276214599609375,-0.1636810302734375
20220224-1008,2022-02-24 10:09:04Z,u01, 161,40,movements,el-ex, rt, d,220039.18413216667, -1.396638676577682, -0.30864359786717044, -0.22326011200720908, 0.05040251091122627, 0.0332241952419281, 0.014797781594097614, -0.9383342266082764, 0.3037666082382202, -0.16509059071540833, -0.023106813430786133, 0.018666893243789673, -0.010080277919769287, -0.18776770762735526, -0.6182216386765309, 0.7631200283780526,0.013901173224351013,-0.957916259765625,0.316192626953125,-0.1663055419921875
20220224-1008,2022-02-24 10:09:04Z,u01, 162,40,movements,el-ex, rt, d,220039.20907916667, -1.396330051731835, -0.30914772500056514, -0.2226683958075652, 0.014903338626027107, -0.0032949987798929214, 0.026952646672725677, -0.9381321668624878, 0.3042468726634979, -0.16535355150699615, -0.01943308115005493, 0.021604537963867188, 0.016427770256996155, -0.1877738221317823, -0.6181134349370577, 0.7631994433835696,0.014260426641330967,-0.9600372314453125,0.3336181640625,-0.152587890625
20220224-1008,2022-02-24 10:09:04Z,u01, 163,40,movements,el-ex, rt, d,220039.2340251667, -1.39624278247929, -0.30984954912903, -0.22121020364613425, 0.0879768505692482, 0.004432362504303455, 0.03914932906627655, -0.9379072189331055, 0.30491533875465393, -0.16539828479290009, -0.037617623805999756, 0.03892618417739868, 0.006569579243659973, -0.18758390010574832, -0.6181530035776416, 0.7631992250402091,0.015034772206344124,-0.9772491455078125,0.342559814453125,-0.15277099609375
20220224-1008,2022-02-24 10:09:04Z,u01, 164,40,movements,el-ex, rt, d,220039.2589721667, -1.3960529361027674, -0.31059097803442454, -0.22072480755987153, -0.08579237759113312, 0.007978961803019047, 0.039889752864837646, -0.9376530647277832, 0.3056213855743408, -0.1655370146036148, -0.030761301517486572, 0.02326655387878418, 0.012598216533660889, -0.18771013976842002, -0.6180585695791141, 0.7632366466381696,0.01544099302727496,-0.967193603515625,0.3270416259765625,-0.15093994140625
20220224-1008,2022-02-24 10:09:04Z,u01, 165,40,movements,el-ex, rt, d,220039.28391816668, -1.3972880622905899, -0.3124118751779603, -0.2252611116857513, -0.2564029395580292, 0.005948432721197605, 0.053198765963315964, -0.9373069405555725, 0.3073546588420868, -0.1642823964357376, -0.021479010581970215, 0.01964116096496582, 0.01035173237323761, -0.18977715186447797, -0.6179348140053899, 0.7628455707865219,0.014413605411359776,-0.957855224609375,0.3303070068359375,-0.145660400390625
20220224-1008,2022-02-24 10:09:04Z,u01, 166,40,movements,el-ex, rt, d,220039.30886516668, -1.3992362455349219, -0.31489008485969877, -0.23151202069582372, -0.19868090748786926, 0.005250685848295689, 0.03801262378692627, -0.9368718862533569, 0.3097119629383087, -0.16232551634311676, -0.01977783441543579, 0.036799877882003784, 0.022570312023162842, -0.19261146097911916, -0.6178495477422714, 0.7622292153386443,0.0130159494030654,-0.957000732421875,0.3536224365234375,-0.139007568359375
20220224-1008,2022-02-24 10:09:04Z,u01, 167,40,movements,el-ex, rt, d,220039.33381116667, -1.3996390714369877, -0.31611596349201915, -0.23435461367237845, -0.017720583826303482, 0.04189445078372955, 0.008730635978281498, -0.9365623593330383, 0.31087732315063477, -0.16188332438468933, -0.017356038093566895, 0.05116793513298035, 0.017962470650672913, -0.19393963550425092, -0.6176129519615187, 0.7620949366420408,0.012367376382998674,-0.9471588134765625,0.3545684814453125,-0.1485748291015625
20220224-1008,2022-02-24 10:09:04Z,u01, 168,40,movements,el-ex, rt, d,220039.3587581667, -1.3984340146164502, -0.3159220444234593, -0.23390098417089228, 0.015239828266203403, 0.05449453368782997, -0.0220713522285223, -0.9364259839057922, 0.31069302558898926, -0.16302214562892914, 0.004007160663604736, 0.03807711601257324, 0.009289875626564026, -0.19373543117817377, -0.61721593388823, 0.7624685314787343,0.012360889970018704,-0.9337005615234375,0.345733642578125,-0.1574249267578125
20220224-1008,2022-02-24 10:09:04Z,u01, 169,40,movements,el-ex, rt, d,220039.38370416668, -1.3974398823213494, -0.3157971654046186, -0.23475336748194306, -0.07890184968709946, 0.06962660700082779, -0.012103406712412834, -0.9363017678260803, 0.31057432293891907, -0.16395971179008484, -0.0048909783363342285, 0.023562699556350708, 0.003971323370933533, -0.19395826338738342, -0.6167660310215178, 0.7627833124689337,0.01189921355467384,-0.9462890625,0.3286590576171875,-0.165283203125
20220224-1008,2022-02-24 10:09:04Z,u01, 170,40,movements,el-ex, rt, d,220039.40865116668, -1.3971493223108706, -0.31680941174305227, -0.23770098269816828, -0.12124770879745483, 0.07504507899284363, 0.0035663656890392303, -0.9359438419342041, 0.31153634190559387, -0.1641773283481598, -0.008422613143920898, 0.02228015661239624, -0.0005259960889816284, -0.19524257753549862, -0.61627239931974, 0.7628669748653083,0.011073119852071295,-0.943817138671875,0.33905029296875,-0.1698150634765625
20220224-1008,2022-02-24 10:09:04Z,u01, 171,40,movements,el-ex, rt, d,220039.43359716667, -1.3970855215680882, -0.31834949351380587, -0.24133812599011523, -0.17063425481319427, 0.052635710686445236, 0.03743678331375122, -0.9354596734046936, 0.312999427318573, -0.16415393352508545, -0.014735639095306396, 0.02637133002281189, -0.017486631870269775, -0.1969318989475242, -0.6157441537895146, 0.7628718173736747,0.010176160237499926,-0.9576263427734375,0.33880615234375,-0.173431396484375
20220224-1008,2022-02-24 10:09:04Z,u01, 172,40,movements,el-ex, rt, d,220039.45854416667, -1.3981172794163776, -0.3208254435930559, -0.2462692156810151, -0.19534766674041748, 0.021315470337867737, 0.05040784180164337, -0.9348623752593994, 0.3153499960899353, -0.16305503249168396, -0.04995524883270264, 0.028522104024887085, 0.006118401885032654, -0.19935800863822384, -0.6154095124088135, 0.7625241294406568,0.009196648296143806,-0.9913787841796875,0.3514556884765625,-0.1610565185546875
20220224-1008,2022-02-24 10:09:04Z,u01, 173,40,movements,el-ex, rt, d,220039.48349116667, -1.3984433199449562, -0.32261589098364224, -0.2501235170218723, -0.11161245405673981, 0.04823517054319382, 0.04041506350040436, -0.9343575239181519, 0.317048579454422, -0.1626531034708023, -0.059370994567871094, 0.056272953748703, -0.016836032271385193, -0.20120189701734215, -0.6149725589589433, 0.7624020806696006,0.008337841985014555,-0.98291015625,0.37127685546875,-0.185333251953125
20220224-1008,2022-02-24 10:09:04Z,u01, 174,40,movements,el-ex, rt, d,220039.5084371667, -1.3985702085137228, -0.32417695041127853, -0.2526635999245608, -0.11367250978946686, 0.0060220034793019295, 0.05075990781188011, -0.9338895678520203, 0.3185287117958069, -0.16244953870773315, -0.04766261577606201, 0.036802738904953, -0.01551365852355957, -0.20255695213188363, -0.614610372784552, 0.7623402331471729,0.007886367082721848,-0.9859466552734375,0.3521728515625,-0.1760711669921875
20220224-1008,2022-02-24 10:09:04Z,u01, 175,40,movements,el-ex, rt, d,220039.5333841667, -1.3993275862389452, -0.3259046278826934, -0.2547081358922364, -0.038920678198337555, -0.02112819254398346, 0.06809462606906891, -0.9334685802459717, 0.3201659321784973, -0.16164803504943848, -0.056552112102508545, 0.0373474657535553, -0.00865529477596283, -0.20381791316968817, -0.614519522710545, 0.762078744753416,0.007742087233959388,-0.9897613525390625,0.3669281005859375,-0.1689605712890625
20220224-1008,2022-02-24 10:09:04Z,u01, 176,40,movements,el-ex, rt, d,220039.55833016668, -1.4001572951313543, -0.3282177088093755, -0.2548123442627875, -0.034502726048231125, -0.03743572533130646, 0.10167422145605087, -0.9328701496124268, 0.3223564028739929, -0.16074728965759277, -0.05808138847351074, 0.04501423239707947, -0.020099878311157227, -0.20469693474147996, -0.614593783959172, 0.7617747919154708,0.00853446798392414,-0.9913787841796875,0.361358642578125,-0.1814117431640625
20220224-1008,2022-02-24 10:09:04Z,u01, 177,40,movements,el-ex, rt, d,220039.58327716668, -1.401597718765779, -0.33142359165432506, -0.2564799580151681, -0.11857932060956955, -0.044130243360996246, 0.1241394579410553, -0.9320773482322693, 0.32538947463035583, -0.15922856330871582, -0.05863010883331299, 0.019901663064956665, -0.013851821422576904, -0.2063804900062428, -0.6146485249173057, 0.7612699121444954,0.009084022922443272,-0.989990234375,0.3502349853515625,-0.1646270751953125
20220224-1008,2022-02-24 10:09:04Z,u01, 178,40,movements,el-ex, rt, d,220039.60822316667, -1.4034292775153556, -0.33513495465832227, -0.25801248966309753, -0.039953652769327164, -0.06416554003953934, 0.15775221586227417, -0.9311701655387878, 0.3288966119289398, -0.1573188751935959, -0.056577086448669434, 0.04917043447494507, -0.00012125074863433838, -0.2082039898814365, -0.6148102620402147, 0.7606324103654164,0.009891843759634991,-0.9905853271484375,0.38055419921875,-0.1563568115234375
20220224-1008,2022-02-24 10:09:04Z,u01, 179,40,movements,el-ex, rt, d,220039.6331701667, -1.4051755066919653, -0.3393524070361013, -0.25832281460254075, -0.05797100067138672, -0.05894600972533226, 0.16836783289909363, -0.9300670027732849, 0.3328765034675598, -0.15546253323554993, -0.06730848550796509, 0.03856822848320007, -0.010644674301147461, -0.2098346019182475, -0.6150107120346294, 0.7600020243214667,0.011322612950815783,-1.0005035400390625,0.369415283203125,-0.1664276123046875
20220224-1008,2022-02-24 10:09:04Z,u01, 180,40,movements,el-ex, rt, d,220039.65811616668, -1.4068330225779984, -0.3435930358698624, -0.26037207116854577, -0.13554012775421143, -0.021157685667276382, 0.1367350071668625, -0.9289222955703735, 0.33687227964401245, -0.15368889272212982, -0.06387549638748169, 0.01876428723335266, -0.01170109212398529, -0.21200563194175098, -0.6149871241044831, 0.7594064023873907,0.01209408659163988,-0.9846954345703125,0.35357666015625,-0.1617279052734375
20220224-1008,2022-02-24 10:09:04Z,u01, 181,40,movements,el-ex, rt, d,220039.68306316668, -1.4086864294501515, -0.34756209150189904, -0.26294873886305314, -0.08441789448261261, -0.06791041046380997, 0.16076511144638062, -0.927878737449646, 0.340606689453125, -0.15174996852874756, -0.03473716974258423, 0.03349301218986511, -0.0028520673513412476, -0.21423531170306467, -0.6150026393952797, 0.7587595864500734,0.012601972740700476,-0.9668121337890625,0.3869781494140625,-0.155059814453125
20220224-1008,2022-02-24 10:09:04Z,u01, 182,40,movements,el-ex, rt, d,220039.70800916667, -1.4104452294564362, -0.352142471541682, -0.2637767906871258, -0.04117394611239433, -0.036345161497592926, 0.18033894896507263, -0.9265943765640259, 0.3449096083641052, -0.14986711740493774, -0.06873637437820435, 0.038971006870269775, 0.0031386762857437134, -0.21614742986736635, -0.6150989588024198, 0.7581150906593699,0.013965510112699336,-0.9898681640625,0.3791961669921875,-0.143157958984375
20220224-1008,2022-02-24 10:09:04Z,u01, 183,40,movements,el-ex, rt, d,220039.73295616667, -1.411875735713376, -0.3565080769735181, -0.26371982452706977, -0.014491135254502296, -0.09141360968351364, 0.16984915733337402, -0.9253122210502625, 0.34900400042533875, -0.14830176532268524, -0.04174399375915527, 0.027430295944213867, 0.01648111641407013, -0.21770796117048927, -0.6151848176099689, 0.7575676153338232,0.015561998608316308,-0.9638824462890625,0.378265380859375,-0.131866455078125
20220224-1008,2022-02-24 10:09:04Z,u01, 184,40,movements,el-ex, rt, d,220039.7579021667, -1.414319715252961, -0.36080437764444423, -0.2636955129139882, -0.04257586598396301, -0.09650576859712601, 0.17551003396511078, -0.9241823554039001, 0.3530269265174866, -0.14580486714839935, -0.04603254795074463, 0.03172343969345093, -0.0012288093566894531, -0.219241472598372, -0.6156547245673362, 0.7567069183749152,0.017236816875467756,-0.96844482421875,0.385955810546875,-0.1451263427734375
20220224-1008,2022-02-24 10:09:04Z,u01, 185,40,movements,el-ex, rt, d,220039.7828491667, -1.4173110517836347, -0.3654759558577915, -0.26469155059354815, -0.08431482315063477, -0.12202184647321701, 0.17076687514781952, -0.9229743480682373, 0.35739386081695557, -0.14278598129749298, -0.036559224128723145, 0.022748321294784546, 0.0007724910974502563, -0.22121539102526708, -0.6161742958258296, 0.7556737039995605,0.01871268245547813,-0.9617919921875,0.375518798828125,-0.1358184814453125
20220224-1008,2022-02-24 10:09:04Z,u01, 186,40,movements,el-ex, rt, d,220039.80779516668, -1.4209348758493672, -0.3697607960837255, -0.2661185148705863, -0.05234330892562866, -0.11567100137472153, 0.15932753682136536, -0.9219630360603333, 0.36139240860939026, -0.13921043276786804, -0.0447726845741272, 0.014996141195297241, 0.015522733330726624, -0.2231703943847071, -0.6169195719475153, 0.7544574861403132,0.01997606895057416,-0.96575927734375,0.375701904296875,-0.1230010986328125
20220224-1008,2022-02-24 10:09:04Z,u01, 187,40,movements,el-ex, rt, d,220039.83274216668, -1.4231594194120485, -0.37391672486150695, -0.2658593810831361, -0.01219908520579338, -0.06793916970491409, 0.16831357777118683, -0.9207770228385925, 0.36526432633399963, -0.13693705201148987, -0.03991633653640747, 0.006958603858947754, 0.02095496654510498, -0.22456767570183428, -0.617333650273388, 0.7536567379174036,0.021682306454882373,-0.955078125,0.3541259765625,-0.10516357421875
20220224-1008,2022-02-24 10:09:04Z,u01, 188,40,movements,el-ex, rt, d,220039.85768816667, -1.4259239075351455, -0.3784860700291012, -0.269502263406542, -0.3623252213001251, -0.07052363455295563, 0.15153099596500397, -0.9194909334182739, 0.3695141077041626, -0.1341487020254135, -0.019794344902038574, -0.05817374587059021, 0.025521397590637207, -0.22730822528015093, -0.6174598131436095, 0.7527185196808842,0.022119569066472507,-0.93719482421875,0.300537109375,-0.115386962890625
20220224-1008,2022-02-24 10:09:05Z,u01, 189,40,movements,el-ex, rt, d,220039.8826351667, -1.4332134596387567, -0.38506351908148845, -0.28482124959509075, -0.8361919522285461, -0.05749671533703804, 0.2208411693572998, -0.9180169701576233, 0.37561801075935364, -0.1271064281463623, -0.02116149663925171, -0.09348300099372864, 0.005493879318237305, -0.23432176321409104, -0.6176893229803551, 0.7504520335717991,0.01936533226062668,-0.940673828125,0.2794647216796875,-0.1159210205078125
20220224-1008,2022-02-24 10:09:05Z,u01, 190,40,movements,el-ex, rt, d,220039.90758116668, -1.444864600636435, -0.3939358214444884, -0.31100666624428275, -1.1153558492660522, -0.0823272317647934, 0.2504099905490875, -0.9160932302474976, 0.38382574915885925, -0.11597894877195358, -0.03179806470870972, -0.06766355037689209, 0.012905821204185486, -0.24546676210044333, -0.6178645431218662, 0.7468577851697674,0.013893185481258785,-0.94927978515625,0.330230712890625,-0.1004180908203125
20220224-1008,2022-02-24 10:09:05Z,u01, 191,40,movements,el-ex, rt, d,220039.93252816668, -1.4571099374682661, -0.40430157964186697, -0.3380690170333048, -0.9048062562942505, -0.07328653335571289, 0.3224615752696991, -0.9134423732757568, 0.39337673783302307, -0.10429567843675613, -0.04091846942901611, -0.007222592830657959, 0.013719573616981506, -0.25739783972261293, -0.617736604439249, 0.7430142942285528,0.00880326338533087,-0.9456329345703125,0.4185028076171875,-0.0904388427734375
20220224-1008,2022-02-24 10:09:05Z,u01, 192,40,movements,el-ex, rt, d,220039.95747416667, -1.4662230105723222, -0.4142673518590291, -0.35551336040378034, -0.4593357741832733, -0.12656612694263458, 0.3278160095214844, -0.9104107022285461, 0.4025193750858307, -0.09555322676897049, -0.010045170783996582, 0.04773697257041931, 0.009219057857990265, -0.2662112199545401, -0.6175394492012131, 0.7400874380262049,0.00686612367423016,-0.9149169921875,0.4503326416015625,-0.0869903564453125
20220224-1008,2022-02-24 10:09:05Z,u01, 193,40,movements,el-ex, rt, d,220039.98242116667, -1.4721506111896543, -0.4222897929462299, -0.36068627872486325, -0.025864098221063614, -0.1697751134634018, 0.257983922958374, -0.907718300819397, 0.40985018014907837, -0.08983410149812698, -0.008831262588500977, 0.03471460938453674, 0.0007685497403144836, -0.2705522402941549, -0.6179679870417845, 0.7381365887247433,0.00844797113009374,-0.920928955078125,0.44854736328125,-0.097503662109375
20220224-1008,2022-02-24 10:09:05Z,u01, 194,40,movements,el-ex, rt, d,220040.0073671667, -1.4751133425026448, -0.427341743739723, -0.3578990038185227, 0.15814943611621857, -0.17572802305221558, 0.18145860731601715, -0.9059078097343445, 0.41445305943489075, -0.08694545924663544, -0.007712066173553467, 0.025183111429214478, -0.020461075007915497, -0.2714109953195326, -0.6187595183808196, 0.7371150023640038,0.0115802950660846,-0.9112701416015625,0.439605712890625,-0.1065826416015625
20220224-1008,2022-02-24 10:09:05Z,u01, 195,40,movements,el-ex, rt, d,220040.0323141667, -1.477589366988272, -0.43110307623032496, -0.35198557036136635, 0.23407872021198273, -0.21855796873569489, 0.16611993312835693, -0.9045619368553162, 0.41787320375442505, -0.0845564678311348, -0.002695143222808838, 0.01665136218070984, -0.016410887241363525, -0.27085329356362503, -0.61996794912366, 0.7362351807476715,0.015363503920002283,-0.9144439697265625,0.4356231689453125,-0.0943603515625
20220224-1008,2022-02-24 10:09:05Z,u01, 196,40,movements,el-ex, rt, d,220040.0572611667, -1.4797654434934517, -0.4344969829068132, -0.34519522083248894, 0.20608916878700256, -0.18769486248493195, 0.1639196276664734, -0.9033262729644775, 0.420954167842865, -0.0824584811925888, -0.01803004741668701, 0.029821038246154785, -0.028121955692768097, -0.2698909125747322, -0.621232368252537, 0.7354296219716396,0.019302465991915194,-0.9175872802734375,0.451263427734375,-0.1080322265625
20220224-1008,2022-02-24 10:09:05Z,u01, 197,40,movements,el-ex, rt, d,220040.08220716668, -1.4821081963403928, -0.4380881084367205, -0.33906079904255404, 0.2129586935043335, -0.23553475737571716, 0.17019464075565338, -0.9020054340362549, 0.4242089092731476, -0.08020757883787155, -0.0032528042793273926, 0.016892194747924805, -0.01804375648498535, -0.2691892490088912, -0.6224414509753032, 0.7345548974657311,0.02308678038676021,-0.9056549072265625,0.428955078125,-0.0878448486328125
20220224-1008,2022-02-24 10:09:05Z,u01, 198,40,movements,el-ex, rt, d,220040.10715416668, -1.4852044705350462, -0.4421800752295826, -0.3326050731246866, 0.21560658514499664, -0.2270067185163498, 0.19260892271995544, -0.9005122184753418, 0.42791086435317993, -0.07726528495550156, -0.03356975317001343, 0.005637079477310181, -0.008122853934764862, -0.2685396429187572, -0.6239020898716854, 0.7334095851835921,0.027257307133640454,-0.93817138671875,0.439422607421875,-0.0892333984375
20220224-1008,2022-02-24 10:09:05Z,u01, 199,40,movements,el-ex, rt, d,220040.13210016667, -1.4882121651992681, -0.4468115324374575, -0.3272343713445797, 0.15419627726078033, -0.22478711605072021, 0.20915821194648743, -0.8987559080123901, 0.4320922791957855, -0.07439219951629639, -0.04008692502975464, 0.014120489358901978, -0.019662976264953613, -0.2684022669383372, -0.6251112881138977, 0.7322723579625388,0.031198572601675995,-0.9330596923828125,0.4243621826171875,-0.0879364013671875
20220224-1008,2022-02-24 10:09:05Z,u01, 200,40,movements,el-ex, rt, d,220040.15704700002, -1.491632888115062, -0.4519933540190137, -0.3222644863248988, 0.18633723258972168, -0.20485694706439972, 0.23269084095954895, -0.8967609405517578, 0.4367595911026001, -0.07113935053348541, -0.04214280843734741, -0.0362011194229126, 0.001757688820362091, -0.2685596124122093, -0.6263434048546781, 0.7309775428232008,0.035234255766682154,-0.9382476806640625,0.3999786376953125,-0.0631561279296875
20220224-1008,2022-02-24 10:09:05Z,u01, 201,40,movements,el-ex, rt, d,220040.181993, -1.492624448936959, -0.457400828207577, -0.31363441890858007, 0.3900109529495239, -0.19139452278614044, 0.2530454993247986, -0.8944633603096008, 0.44161760807037354, -0.07006465643644333, -0.02989870309829712, -0.03974694013595581, 0.008785374462604523, -0.2676810113973102, -0.6271479473293522, 0.7303448717551659,0.04035627315599314,-0.9157867431640625,0.40484619140625,-0.06793212890625
20220224-1008,2022-02-24 10:09:05Z,u01, 202,40,movements,el-ex, rt, d,220040.20694, -1.4908134666102921, -0.4637484607191166, -0.3004326619800302, 0.4938755929470062, -0.12837688624858856, 0.3090060353279114, -0.8915228247642517, 0.44730380177497864, -0.07145899534225464, -0.02975708246231079, -0.05249789357185364, 0.010439097881317139, -0.2657477555419203, -0.6274142444091666, 0.730419127952084,0.04708955092654843,-0.9211578369140625,0.397125244140625,-0.0591888427734375
20220224-1008,2022-02-24 10:09:05Z,u01, 203,40,movements,el-ex, rt, d,220040.23188600002, -1.4865432336117124, -0.4704636967313688, -0.28645983048335666, 0.42047008872032166, -0.05345150828361511, 0.32524412870407104, -0.8881964683532715, 0.4532996416091919, -0.07501087337732315, -0.013399720191955566, -0.04851442575454712, 0.009932152926921844, -0.26377403256079135, -0.6268315743263531, 0.7311634814804121,0.05390265647256072,-0.8842315673828125,0.41497802734375,-0.0825958251953125
20220224-1008,2022-02-24 10:09:05Z,u01, 204,40,movements,el-ex, rt, d,220040.25683300002, -1.4833290276250042, -0.47869519189319326, -0.2776098726504239, 0.13428714871406555, -0.02543511986732483, 0.3659563362598419, -0.8842036128044128, 0.4606214165687561, -0.07753673195838928, 0.005510985851287842, -0.018223315477371216, -0.007942914962768555, -0.26392013009357873, -0.6257617735654112, 0.7315934566741132,0.05949304290558929,-0.8816070556640625,0.443634033203125,-0.081146240234375
20220224-1008,2022-02-24 10:09:05Z,u01, 205,40,movements,el-ex, rt, d,220040.281779, -1.4833409249994844, -0.48697326622119075, -0.2759738206832834, -0.0348588265478611, -0.05432289466261864, 0.30686378479003906, -0.8803756833076477, 0.4679531455039978, -0.07719050347805023, -0.0007430315017700195, -0.01844450831413269, 0.018856175243854523, -0.26625107019103067, -0.6249120860908075, 0.7311914640010503,0.06288254939632797,-0.8826446533203125,0.4578704833984375,-0.0561676025390625
20220224-1008,2022-02-24 10:09:05Z,u01, 206,40,movements,el-ex, rt, d,220040.306726, -1.4843946105043744, -0.49404868240423017, -0.27664945666402513, -0.04369605705142021, -0.014099176041781902, 0.25759145617485046, -0.8771358728408813, 0.47419431805610657, -0.075975202023983, -0.010254144668579102, 0.033145129680633545, -0.006818942725658417, -0.2688541307466062, -0.6242834748942944, 0.7305762133314413,0.0651606557276109,-0.881378173828125,0.5149688720703125,-0.0856781005859375
20220224-1008,2022-02-24 10:09:05Z,u01, 207,40,movements,el-ex, rt, d,220040.331672, -1.484326489196551, -0.4996726761465688, -0.2756083124323503, 0.08390820771455765, -0.03908022865653038, 0.205458402633667, -0.8744600415229797, 0.47913825511932373, -0.07580344378948212, 0.018731892108917236, 0.03415217995643616, -0.007890939712524414, -0.2704569304125362, -0.6236596249562119, 0.7303118483809531,0.06742656919012222,-0.8448028564453125,0.4941253662109375,-0.07611083984375
20220224-1008,2022-02-24 10:09:05Z,u01, 208,40,movements,el-ex, rt, d,220040.35661900003, -1.483546354143012, -0.5042300507547066, -0.27225663601585204, 0.10596786439418793, -0.023818915709853172, 0.18147218227386475, -0.8722162842750549, 0.483133465051651, -0.07629454880952835, 0.015603125095367432, 0.006948351860046387, 0.0003821253776550293, -0.2709985920123033, -0.6232274789321538, 0.7302302341488653,0.07007932850618669,-0.8582611083984375,0.4930877685546875,-0.0812835693359375
20220224-1008,2022-02-24 10:09:05Z,u01, 209,40,movements,el-ex, rt, d,220040.38156500002, -1.4828559132211374, -0.5084080433014344, -0.2688832927643652, 0.08473162353038788, -0.06531722098588943, 0.16880632936954498, -0.8701451420783997, 0.48678725957870483, -0.07671879976987839, 0.006146728992462158, 0.006895601749420166, -0.004076480865478516, -0.2714023367037644, -0.622881508305111, 0.7301269970186923,0.0726228905783834,-0.8751068115234375,0.4928436279296875,-0.0809783935546875
20220224-1008,2022-02-24 10:09:05Z,u01, 210,40,movements,el-ex, rt, d,220040.40651200002, -1.4831847080809508, -0.5117058408966706, -0.26677135402898405, 0.07589808106422424, -0.038569699972867966, 0.08809743076562881, -0.8685662150382996, 0.48966529965400696, -0.07629179209470749, -0.02292841672897339, 0.009571731090545654, 0.013181455433368683, -0.27186114088047897, -0.6228528114162829, 0.7297865925522521,0.07454736188032979,-0.8855438232421875,0.503143310546875,-0.0675506591796875
20220224-1008,2022-02-24 10:09:05Z,u01, 211,40,movements,el-ex, rt, d,220040.431458, -1.4826466853058877, -0.5132408396757314, -0.2638154312484809, 0.12857598066329956, -0.06379029899835587, 0.06981249898672104, -0.8677753210067749, 0.4910030961036682, -0.07669283449649811, 0.019920825958251953, 0.03029811382293701, -0.012433759868144989, -0.2714861950508691, -0.6228553848444612, 0.7297669992385923,0.07606883860996633,-0.8359527587890625,0.519378662109375,-0.0990142822265625
20220224-1008,2022-02-24 10:09:05Z,u01, 212,40,movements,el-ex, rt, d,220040.456405, -1.4824340774189315, -0.5148035201249719, -0.26009256277958126, 0.08944082260131836, -0.059822190552949905, 0.051367443054914474, -0.86699378490448, 0.492363840341568, -0.07680953294038773, 0.00925147533416748, 0.008231282234191895, -0.009845137596130371, -0.27086986522486733, -0.6230768419161559, 0.7296113739605583,0.07792327441012123,-0.85858154296875,0.495330810546875,-0.0777740478515625
20220224-1008,2022-02-24 10:09:05Z,u01, 213,40,movements,el-ex, rt, d,220040.48135100002, -1.4831315296108207, -0.5157423536431736, -0.25746048112176734, 0.11702238023281097, -0.09200729429721832, 0.061356961727142334, -0.8665862679481506, 0.4931807816028595, -0.07616432011127472, 0.009637415409088135, 0.009794682264328003, 0.007042050361633301, -0.2703437011998152, -0.623564049508763, 0.729242617715135,0.079292962463879,-0.863067626953125,0.5141754150390625,-0.067413330078125
20220224-1008,2022-02-24 10:09:05Z,u01, 214,40,movements,el-ex, rt, d,220040.50629800002, -1.483037231578677, -0.5166388888635483, -0.2528619698081959, 0.2029322236776352, -0.0731920599937439, -0.0022577005438506603, -0.8661383390426636, 0.49396049976348877, -0.07620725780725479, -0.007488369941711426, 0.031201273202896118, 0.011860966682434082, -0.269220394720989, -0.6240326521335764, 0.7290410496523589,0.08125781666035511,-0.8710174560546875,0.522186279296875,-0.067230224609375
20220224-1008,2022-02-24 10:09:05Z,u01, 215,40,movements,el-ex, rt, d,220040.531244, -1.4802842692180769, -0.5160116800866579, -0.24535666355285954, 0.32023048400878906, -0.04595803841948509, -0.027132421731948853, -0.8662335276603699, 0.49341505765914917, -0.07861939072608948, 0.0043714046478271484, 0.02211838960647583, 0.023794658482074738, -0.26677650210730985, -0.6241158558953338, 0.7296242490682655,0.08341547777311466,-0.8620452880859375,0.5106048583984375,-0.055206298828125
20220224-1008,2022-02-24 10:09:05Z,u01, 216,40,movements,el-ex, rt, d,220040.556191, -1.475659507580684, -0.5145962897030223, -0.23499182162968996, 0.40433090925216675, 0.025191903114318848, -0.03449885919690132, -0.8665550947189331, 0.49218347668647766, -0.08269092440605164, 0.00042045116424560547, 0.017261743545532227, 0.027911901473999023, -0.2632507725618636, -0.6239820252493635, 0.7307051726275018,0.08611310583337056,-0.86175537109375,0.5048065185546875,-0.0535125732421875
20220224-1008,2022-02-24 10:09:05Z,u01, 217,40,movements,el-ex, rt, d,220040.581137, -1.470612856683946, -0.5132028224107966, -0.2248661035607123, 0.31338727474212646, 0.004238619469106197, -0.045397382229566574, -0.8668081760406494, 0.4909699857234955, -0.0871315523982048, 0.008776068687438965, 0.002544969320297241, 0.03747952729463577, -0.2598308162652738, -0.6236362483672504, 0.7319150359504295,0.08869098110437444,-0.8642425537109375,0.4841156005859375,-0.0457763671875
20220224-1008,2022-02-24 10:09:05Z,u01, 218,40,movements,el-ex, rt, d,220040.606084, -1.4676864923354487, -0.5117745356192803, -0.21874469682070438, 0.19321392476558685, 0.07007156312465668, -0.0862722396850586, -0.8672460913658142, 0.4897252023220062, -0.0897398516535759, -0.01664966344833374, -0.007486462593078613, 0.039660580456256866, -0.25755689861996944, -0.623533893941364, 0.7326360929017897,0.0900786909405418,-0.88079833984375,0.485443115234375,-0.0537109375
20220224-1008,2022-02-24 10:09:05Z,u01, 219,40,movements,el-ex, rt, d,220040.63103000002, -1.4641761100662394, -0.5093990849800555, -0.2155242732668433, 0.07110579311847687, 0.09915047883987427, -0.07459414750337601, -0.8680802583694458, 0.4876527190208435, -0.09290722012519836, 0.00649261474609375, -0.0022400319576263428, 0.01995503157377243, -0.2558840478266795, -0.6229524397660332, 0.7337234692076143,0.09002007517676403,-0.8555908203125,0.4734954833984375,-0.0760955810546875
20220224-1008,2022-02-24 10:09:05Z,u01, 220,40,movements,el-ex, rt, d,220040.65597700002, -1.462129917653098, -0.5077979921050645, -0.2155140078477383, -0.030980095267295837, 0.10248449444770813, -0.0687120258808136, -0.8686631917953491, 0.4862542748451233, -0.09476782381534576, -0.0041089653968811035, -0.03521975874900818, 0.016352899372577667, -0.25541383146566143, -0.6223984761055024, 0.7344532566950978,0.08923160821275732,-0.87640380859375,0.448974609375,-0.07635498046875
20220224-1008,2022-02-24 10:09:05Z,u01, 221,40,movements,el-ex, rt, d,220040.680923, -1.461425439094241, -0.5065949040617164, -0.21761655906277716, -0.026095960289239883, 0.11497664451599121, -0.0515470877289772, -0.8691771030426025, 0.4852026402950287, -0.09544353932142258, 2.1278858184814453e-05, -0.026264041662216187, 0.019409067928791046, -0.25567900499119284, -0.6220180665149488, 0.7348352880690694,0.08797070297535964,-0.8640289306640625,0.4697723388671875,-0.09136962890625
20220224-1008,2022-02-24 10:09:05Z,u01, 222,40,movements,el-ex, rt, d,220040.70587, -1.4586489821137247, -0.5058428792587738, -0.21551398002036154, 0.25075554847717285, 0.13078263401985168, -0.01803772896528244, -0.8692712187767029, 0.48454493284225464, -0.09789721667766571, 0.013802409172058105, -0.004854351282119751, -0.01315617561340332, -0.25488477843075796, -0.6213574979757461, 0.7356493222509951,0.08814032673380748,-0.8583984375,0.48486328125,-0.113800048828125
20220224-1008,2022-02-24 10:09:05Z,u01, 223,40,movements,el-ex, rt, d,220040.73081600002, -1.450167323625313, -0.5044173176014415, -0.20405504054860887, 0.5561167001724243, 0.13540150225162506, 0.012181025929749012, -0.8690944314002991, 0.4832974076271057, -0.10534948855638504, 0.011733591556549072, -0.002996504306793213, -0.006558418273925781, -0.25120812550593274, -0.6198546071544031, 0.7378528617055785,0.09081818509054744,-0.860992431640625,0.4781646728515625,-0.1093597412109375
20220224-1008,2022-02-24 10:09:05Z,u01, 224,40,movements,el-ex, rt, d,220040.75576300002, -1.439532312442415, -0.5024091487384026, -0.18724396285741726, 0.5809004902839661, 0.09589243680238724, 0.011811379343271255, -0.8688854575157166, 0.4815383851528168, -0.11471299082040787, 0.001331627368927002, -0.02365255355834961, 0.018521592020988464, -0.24578887779753486, -0.6182485994031021, 0.7404875266074297,0.09505171214850865,-0.87158203125,0.4530029296875,-0.093597412109375
20220224-1008,2022-02-24 10:09:05Z,u01, 225,40,movements,el-ex, rt, d,220040.780709, -1.4299316583024626, -0.5007732106296432, -0.1740831502223603, 0.3252934515476227, 0.1575455516576767, 0.002512820065021515, -0.8685227036476135, 0.4801039397716522, -0.12315985560417175, -0.0151900053024292, -0.04161214828491211, 0.021505840122699738, -0.24160764471483465, -0.6164785621816149, 0.7429203800794,0.09823007022058665,-0.8794097900390625,0.440521240234375,-0.1011962890625
20220224-1008,2022-02-24 10:09:05Z,u01, 226,40,movements,el-ex, rt, d,220040.805656, -1.4215198424515332, -0.4997950321211198, -0.16813551737384588, 0.09228494763374329, 0.23823054134845734, -0.006764567922800779, -0.8679201006889343, 0.479245662689209, -0.13053107261657715, 0.017440974712371826, -0.022778958082199097, 0.01789069175720215, -0.23984236263194308, -0.6141743301842781, 0.7452798269770666,0.0991137998340775,-0.842498779296875,0.4536590576171875,-0.1132354736328125
20220224-1008,2022-02-24 10:09:05Z,u01, 227,40,movements,el-ex, rt, d,220040.830603, -1.4158874953599425, -0.5002682078165078, -0.16927179033820583, -0.19494593143463135, 0.2519071400165558, 0.029012003913521767, -0.8669469356536865, 0.47966089844703674, -0.13538238406181335, 0.019428014755249023, -0.038864970207214355, 0.026007413864135742, -0.2406385464878105, -0.6118838921069878, 0.7470305412069512,0.0981658531739694,-0.8663330078125,0.441314697265625,-0.102752685546875
20220224-1008,2022-02-24 10:09:05Z,u01, 228,40,movements,el-ex, rt, d,220040.855549, -1.4122158876712856, -0.501490919987458, -0.17728786780910322, -0.37556350231170654, 0.2936851978302002, -0.01832115650177002, -0.8658643364906311, 0.4807334244251251, -0.1384718418121338, 0.024860918521881104, -0.026433467864990234, 0.03022599220275879, -0.24370355312095346, -0.6094035243533309, 0.7484574933488914,0.09511752479836244,-0.8255462646484375,0.455963134765625,-0.1185150146484375
20220224-1008,2022-02-24 10:09:05Z,u01, 229,40,movements,el-ex, rt, d,220040.88049600003, -1.4107618939218298, -0.5028819019944876, -0.18878251531406015, -0.4372972548007965, 0.2589888870716095, 0.004614386707544327, -0.8650010824203491, 0.48195263743400574, -0.1396239697933197, 0.06365525722503662, -0.03326794505119324, 0.00411069393157959, -0.24776797852007787, -0.6072882714453656, 0.7493438007270041,0.09108182958224831,-0.8025360107421875,0.455657958984375,-0.1369781494140625
20220224-1008,2022-02-24 10:09:06Z,u01, 230,40,movements,el-ex, rt, d,220040.90544200002, -1.4099910066511152, -0.5048136145209583, -0.20096145731358941, -0.41098764538764954, 0.28314289450645447, 3.1818635761737823e-05, -0.8639726042747498, 0.4836443066596985, -0.14014141261577606, 0.044331490993499756, -0.0023058056831359863, 0.010411262512207031, -0.25218790244487893, -0.6052524706575312, 0.749996334062074,0.08704161697698368,-0.817657470703125,0.4876251220703125,-0.1313629150390625
20220224-1008,2022-02-24 10:09:06Z,u01, 231,40,movements,el-ex, rt, d,220040.93038900002, -1.4079575752095421, -0.5052762593021102, -0.21102153959275063, -0.28582316637039185, 0.2564791142940521, -0.0797063484787941, -0.8634647727012634, 0.4840492010116577, -0.14186164736747742, 0.07045042514801025, 0.010869592428207397, -0.0047752708196640015, -0.2554795355778908, -0.6031578452616824, 0.7510096987243585,0.0831573191390824,-0.7786865234375,0.4885406494140625,-0.153656005859375
20220224-1008,2022-02-24 10:09:06Z,u01, 232,40,movements,el-ex, rt, d,220040.955335, -1.4059631449985257, -0.5039781740301794, -0.21824161087859423, -0.21470296382904053, 0.17956137657165527, -0.09058570116758347, -0.8637992739677429, 0.48291289806365967, -0.1436864584684372, 0.08740168809890747, -0.002505272626876831, -0.005788594484329224, -0.25727015045111934, -0.6016384610917379, 0.7519838351762632,0.07977126569966685,-0.7878265380859375,0.4827423095703125,-0.1503753662109375
20220224-1008,2022-02-24 10:09:06Z,u01, 233,40,movements,el-ex, rt, d,220040.980282, -1.40284357381332, -0.5021603433955241, -0.2231068126245176, -0.10060927271842957, 0.22227688133716583, -0.12103495001792908, -0.864210844039917, 0.4813202917575836, -0.14652694761753082, 0.06362813711166382, 0.010790854692459106, -0.010928481817245483, -0.2582021327643878, -0.6000568206225105, 0.753220669854627,0.07695432173308914,-0.774261474609375,0.4953155517578125,-0.1631927490234375
20220224-1008,2022-02-24 10:09:06Z,u01, 234,40,movements,el-ex, rt, d,220041.00522800002, -1.3999357115443982, -0.49950301850004986, -0.22576160490497063, -0.07513697445392609, 0.08410588651895523, -0.10487682372331619, -0.8650386929512024, 0.4789893329143524, -0.14925631880760193, 0.12112694978713989, -0.01960819959640503, -0.019643187522888184, -0.25815416103274635, -0.5989392894397212, 0.7543503147087025,0.07472542998834145,-0.7574920654296875,0.4546356201171875,-0.1701812744140625
20220224-1008,2022-02-24 10:09:06Z,u01, 235,40,movements,el-ex, rt, d,220041.03017500002, -1.3996712048715936, -0.4962594845610627, -0.229937768919006, -0.17165404558181763, 0.11679699271917343, -0.2125265747308731, -0.866525411605835, 0.4761395752429962, -0.14974886178970337, 0.07154256105422974, -0.0067639946937561035, -0.04074178636074066, -0.2582490589238787, -0.5986927354481464, 0.7547711842389484,0.07207510634050213,-0.7719879150390625,0.4662322998046875,-0.1970367431640625
20220224-1008,2022-02-24 10:09:06Z,u01, 236,40,movements,el-ex, rt, d,220041.055121, -1.4024091206124185, -0.49171517664011516, -0.23915557223565947, -0.44428324699401855, -0.03248104453086853, -0.2030612975358963, -0.8690562844276428, 0.47213855385780334, -0.14773693680763245, 0.15041321516036987, -0.017853915691375732, -0.024397477507591248, -0.2592828591059645, -0.5990859135605802, 0.7545285649974016,0.06749107501661593,-0.721038818359375,0.440826416015625,-0.1637115478515625
20220224-1008,2022-02-24 10:09:06Z,u01, 237,40,movements,el-ex, rt, d,220041.080068, -1.411286684892317, -0.48999472973471275, -0.25359702892030234, -0.478693425655365, -0.09861159324645996, -0.12584188580513, -0.8711344599723816, 0.4706212282180786, -0.140144944190979, 0.10311383008956909, -0.05082142353057861, -0.02999049425125122, -0.2627109621565703, -0.6007582504363163, 0.7524274777202428,0.06265360877845566,-0.805572509765625,0.4242095947265625,-0.16583251953125
20220224-1008,2022-02-24 10:09:06Z,u01, 238,40,movements,el-ex, rt, d,220041.105014, -1.418049201377176, -0.48850211915374636, -0.26390288197521355, -0.20140282809734344, -0.05829506739974022, -0.09145249426364899, -0.8727554678916931, 0.4693037271499634, -0.13435745239257812, 0.047728002071380615, 0.006236463785171509, -0.020870208740234375, -0.26507355996066306, -0.6021272987980197, 0.7507832264244833,0.059188618574057716,-0.82061767578125,0.4855499267578125,-0.1529693603515625
20220224-1008,2022-02-24 10:09:06Z,u01, 239,40,movements,el-ex, rt, d,220041.12996100003, -1.4206883088879956, -0.4873114856311337, -0.2656436633136924, 0.05646499991416931, -0.11630870401859283, -0.0327560231089592, -0.8736588954925537, 0.468252032995224, -0.13213714957237244, 0.07048201560974121, 0.036173015832901, -0.009739026427268982, -0.265098381572906, -0.6030375372219466, 0.7500977340199743,0.058497714170736244,-0.813201904296875,0.5092010498046875,-0.146087646484375
20220224-1008,2022-02-24 10:09:06Z,u01, 240,40,movements,el-ex, rt, d,220041.15490700002, -1.4219943914820588, -0.4858399212541412, -0.26281867941438636, 0.12058340013027191, -0.08087906986474991, -0.07789793610572815, -0.8745112419128418, 0.46695125102996826, -0.13109798729419708, 0.019500255584716797, 0.042020946741104126, -0.024251699447631836, -0.2636861077293967, -0.6040866180700356, 0.7496922471689597,0.05925010483888119,-0.856689453125,0.5115966796875,-0.1547393798828125
20220224-1008,2022-02-24 10:09:06Z,u01, 241,40,movements,el-ex, rt, d,220041.17985462502, -1.4224178863201558, -0.4825027161566604, -0.25917717913009036, 0.2084646224975586, -0.0934963971376419, -0.15190671384334564, -0.8761028051376343, 0.46399763226509094, -0.1309572458267212, 0.032230913639068604, 0.04372325539588928, -0.015267640352249146, -0.2613897636402672, -0.6051419416880551, 0.7496188099045414,0.059582927162505385,-0.8311309814453125,0.5034637451171875,-0.1393280029296875
20220224-1008,2022-02-24 10:09:06Z,u01, 242,40,movements,el-ex, rt, d,220041.204800625, -1.4212114863844043, -0.4776162808410505, -0.2515209848369777, 0.3675788938999176, -0.08371727168560028, -0.12692572176456451, -0.8781757950782776, 0.4596635103225708, -0.1323504000902176, 0.07812702655792236, 0.02490982413291931, -0.014164432883262634, -0.25737186617324104, -0.6062874894288417, 0.7499933958231717,0.060704797883562686,-0.793853759765625,0.475250244140625,-0.1498870849609375
20220224-1008,2022-02-24 10:09:06Z,u01, 243,40,movements,el-ex, rt, d,220041.229747625, -1.4182573509563199, -0.4740126725877227, -0.24094279963950435, 0.3844451606273651, -0.08430781960487366, -0.044591840356588364, -0.8794124722480774, 0.45646020770072937, -0.13519488275051117, 0.10570043325424194, -0.0015347003936767578, -0.017042025923728943, -0.25297075481694675, -0.606966516989527, 0.7507414223272183,0.06312453045423595,-0.7767791748046875,0.44757080078125,-0.1451568603515625
20220224-1008,2022-02-24 10:09:06Z,u01, 244,40,movements,el-ex, rt, d,220041.254693625, -1.4162880402930824, -0.4722423849633191, -0.2320916556182902, 0.25026795268058777, -0.06911016255617142, -0.028557680547237396, -0.8799416422843933, 0.4548843801021576, -0.13705061376094818, 0.06699919700622559, -0.023793071508407593, 0.005947113037109375, -0.24971382624580474, -0.6075505727674486, 0.7511448442341482,0.06562571228035952,-0.8200225830078125,0.4286956787109375,-0.130126953125
20220224-1008,2022-02-24 10:09:06Z,u01, 245,40,movements,el-ex, rt, d,220041.27964062503, -1.41462460986305, -0.47059810156209037, -0.22679343809067384, 0.1636037677526474, -0.0012482916936278343, -0.02816593088209629, -0.8804501295089722, 0.45341944694519043, -0.13863030076026917, 0.06677520275115967, -0.026310652494430542, -7.206201553344727e-05, -0.24757001483648505, -0.6077778711924822, 0.7515601867576394,0.06687634036179865,-0.800994873046875,0.427825927734375,-0.138153076171875
20220224-1008,2022-02-24 10:09:06Z,u01, 246,40,movements,el-ex, rt, d,220041.30458662502, -1.412890776204091, -0.470298994806536, -0.22294999738853885, 0.10026657581329346, 0.02434728294610977, 0.03953448683023453, -0.8803422451019287, 0.4531528353691101, -0.14017793536186218, 0.07238948345184326, -0.012616366147994995, -0.00034020841121673584, -0.24635330122083066, -0.6076356475846361, 0.7519730648760525,0.0680101190781141,-0.816802978515625,0.438934326171875,-0.14263916015625
20220224-1008,2022-02-24 10:09:06Z,u01, 247,40,movements,el-ex, rt, d,220041.32953362502, -1.411124425171159, -0.4713633051970077, -0.22225662395389867, -0.07496466487646103, 0.06374096125364304, 0.04936867207288742, -0.8796168565750122, 0.4541013538837433, -0.14165599644184113, 0.05600839853286743, -0.0246579647064209, -0.003104090690612793, -0.2465853749014336, -0.6069329931140587, 0.7524293546037965,0.06839733197425035,-0.814239501953125,0.418670654296875,-0.145751953125
20220224-1008,2022-02-24 10:09:06Z,u01, 248,40,movements,el-ex, rt, d,220041.354479625, -1.4116485223956121, -0.47334058522309497, -0.225924851287611, -0.16879604756832123, 0.04096434265375137, 0.05885039642453194, -0.8788025975227356, 0.4558621048927307, -0.14105238020420074, 0.057116806507110596, -0.014043867588043213, -0.003127872943878174, -0.24839055276395966, -0.6064453359851483, 0.752289834095281,0.06772146833622576,-0.8246612548828125,0.4518890380859375,-0.1438140869140625
