SessionID,LoggingTime,UID,RecNo,Hertz,Activity,MoveType,Wrist,Side,TimeStamp,DMRoll,DMPitch,DMYaw,DMRotX,DMRotY,DMRotZ,DMGrvX,DMGrvY,DMGrvZ,DMUAccelX,DMUAccelY,DMUAccelZ,DMQuatX,DMQuatY,DMQuatW,DMQuatZ,AccelroX,AceelroY,AceelroZ
20220224-0919,2022-02-24 09:19:17Z,u01, 1,40,movements,el-ex, rt, d,218388.40091312502, -1.5094199850500754, -0.4584637105055022, -0.4320212457749688, 0.14600156247615814, 0.0051257070153951645, -0.13894625008106232, -0.8950450420379639, 0.4425709843635559, -0.05500367656350136, -0.013493776321411133, 0.027262389659881592, 0.011012613773345947, -0.3046778833997183, -0.6161733113789613, 0.7262932619695789,-1.734723475976807e-18,-0.904296875,0.462249755859375,-0.04461669921875
20220224-0919,2022-02-24 09:19:17Z,u01, 2,40,movements,el-ex, rt, d,218388.425859125, -1.5093458741762977, -0.45488123940882647, -0.4306878018268833, -0.024694271385669708, -0.05970894917845726, -0.15246500074863434, -0.896617591381073, 0.43935564160346985, -0.05516701564192772, -0.021915674209594727, 0.011434763669967651, 0.01839328184723854, -0.3030847079229282, -0.6168923345364065, 0.7263490065142919,-0.0007577661695416255,-0.9185333251953125,0.4507904052734375,-0.036773681640625
20220224-0919,2022-02-24 09:19:17Z,u01, 3,40,movements,el-ex, rt, d,218388.450806125, -1.5113920748914802, -0.4509390363397048, -0.4309205065083056, 0.05993828922510147, -0.14106485247612, -0.14254584908485413, -0.8984507322311401, 0.4358108937740326, -0.05343466252088547, -0.03219807147979736, 0.027857929468154907, 0.0077040791511535645, -0.3018564538810754, -0.6181952366635035, 0.7257505086611644,-0.001887797730524013,-0.927459716796875,0.462554931640625,-0.0514984130859375
20220224-0919,2022-02-24 09:19:17Z,u01, 4,40,movements,el-ex, rt, d,218388.475753125, -1.5124632903802218, -0.4447234812656122, -0.42981029184343383, 0.02890653908252716, 0.12576857209205627, -0.2515994906425476, -0.9011942744255066, 0.4302082657814026, -0.05262910574674606, 0.2962290644645691, -0.005495131015777588, -0.08831632137298584, -0.2994614360754498, -0.6196840287472163, 0.7254671664137436,-0.003461928718806363,-0.6049652099609375,0.424713134765625,-0.1409454345703125
20220224-0919,2022-02-24 09:19:17Z,u01, 5,40,movements,el-ex, rt, d,218388.50069912503, -1.5130440723108483, -0.4376230319770486, -0.428136463537154, 0.10863685607910156, -0.08477548509836197, -0.29420754313468933, -0.9042514562606812, 0.4237876832485199, -0.052280694246292114, -0.005172371864318848, 0.032373785972595215, -0.0081135593354702, -0.2965950486893371, -0.6212012791297981, 0.7253365770794562,-0.005211496629358374,-0.9036865234375,0.4472808837890625,-0.0584869384765625
20220224-0919,2022-02-24 09:19:17Z,u01, 6,40,movements,el-ex, rt, d,218388.52564612502, -1.513140208758694, -0.4302929332633546, -0.42343741640904037, 0.2654222548007965, -0.0811050534248352, -0.28021684288978577, -0.907333493232727, 0.4171370565891266, -0.052371371537446976, -0.01356494426727295, 0.019233793020248413, 0.02814042568206787, -0.29270407476375804, -0.6230077360959274, 0.7253616795982603,-0.006015645805497689,-0.9208984375,0.436370849609375,-0.02423095703125
20220224-0919,2022-02-24 09:19:17Z,u01, 7,40,movements,el-ex, rt, d,218388.55059312502, -1.5112719327359958, -0.423388469471278, -0.41505925754807255, 0.35069799423217773, -0.045409902930259705, -0.2477363795042038, -0.9100872874259949, 0.4108520746231079, -0.05423646420240402, -0.02326226234436035, 0.009542763233184814, 0.026373930275440216, -0.2877891527123001, -0.6245471727583086, 0.7260072793413893,-0.005621640471980478,-0.9338836669921875,0.4151763916015625,-0.0296783447265625
20220224-0919,2022-02-24 09:19:17Z,u01, 8,40,movements,el-ex, rt, d,218388.575539125, -1.5089789191349798, -0.41689600658048154, -0.4065611302049147, 0.28568145632743835, -0.037659309804439545, -0.23067563772201538, -0.9126038551330566, 0.40492427349090576, -0.05648677796125412, -0.023248255252838135, -0.025651752948760986, 0.03141658753156662, -0.2829576560502505, -0.6258526794047728, 0.7267857933797861,-0.005093001987921465,-0.93585205078125,0.3792724609375,-0.0250701904296875
20220224-0919,2022-02-24 09:19:17Z,u01, 9,40,movements,el-ex, rt, d,218388.600486125, -1.5072088944048698, -0.41061752208472296, -0.4008592315153009, 0.16471870243549347, 0.0075234174728393555, -0.2329118251800537, -0.9150214791297913, 0.39917558431625366, -0.0582624115049839, -0.037905097007751465, -0.02196308970451355, 0.029118124395608902, -0.27906176207169475, -0.6268917981300218, 0.7273938225173933,-0.005423590940648143,-0.9506683349609375,0.38201904296875,-0.02685546875
20220224-0919,2022-02-24 09:19:17Z,u01, 10,40,movements,el-ex, rt, d,218388.625433125, -1.505176597533647, -0.4044573030363655, -0.3976946954235193, 0.09990724176168442, 0.04584610462188721, -0.23449181020259857, -0.9173374772071838, 0.39351990818977356, -0.060281988233327866, -0.004186511039733887, -0.014674723148345947, 0.016474012285470963, -0.27599083927666684, -0.6274456653381996, 0.7280772769160931,-0.006666241874762984,-0.9215240478515625,0.37884521484375,-0.0438079833984375
20220224-0919,2022-02-24 09:19:17Z,u01, 11,40,movements,el-ex, rt, d,218388.650380125, -1.5037939639184108, -0.3995897459060553, -0.3964669747867657, 0.025653619319200516, 0.04707189276814461, -0.15630707144737244, -0.91915363073349, 0.38904044032096863, -0.06167779117822647, -0.0018668174743652344, -0.023714512586593628, 0.01442134752869606, -0.27395889988337596, -0.6277799181528761, 0.7285421657592723,-0.00807669989306694,-0.93096923828125,0.360931396484375,-0.0467529296875
20220224-0919,2022-02-24 09:19:17Z,u01, 12,40,movements,el-ex, rt, d,218388.67532612503, -1.501932916549472, -0.3960795716345599, -0.3958462725231611, 0.05849059671163559, 0.07066576927900314, -0.12281875312328339, -0.9203938245773315, 0.3858044147491455, -0.06348183751106262, -0.008484840393066406, -0.029465943574905396, 0.010716922581195831, -0.2725700143992205, -0.6276660482205931, 0.7291462267003275,-0.009306214485043908,-0.9288787841796875,0.3563385009765625,-0.052764892578125
20220224-0919,2022-02-24 09:19:17Z,u01, 13,40,movements,el-ex, rt, d,218388.70027312502, -1.4998084476791345, -0.3927043352575128, -0.39425852480687756, 0.05275970697402954, 0.046913497149944305, -0.14239837229251862, -0.9215506315231323, 0.3826882839202881, -0.06552903354167938, 0.0063285231590271, -0.013898611068725586, -0.010185055434703827, -0.27091880860072104, -0.6275655197301072, 0.7298363289182177,-0.010169847602795434,-0.91259765625,0.3691253662109375,-0.0797271728515625
20220224-0919,2022-02-24 09:19:17Z,u01, 14,40,movements,el-ex, rt, d,218388.72522012502, -1.500802303904965, -0.3890390406413047, -0.3952011183744185, -0.04816291108727455, 0.025118457153439522, -0.1481979340314865, -0.923008382320404, 0.37929943203926086, -0.06471078097820282, -0.006007730960845947, -0.022136956453323364, -0.008760333061218262, -0.26997805889377935, -0.6282964728369008, 0.729534155120208,-0.011632239812141365,-0.92901611328125,0.3571624755859375,-0.0734710693359375
20220224-0919,2022-02-24 09:19:17Z,u01, 15,40,movements,el-ex, rt, d,218388.750166125, -1.5021166888582638, -0.38526778317437266, -0.3970656147718579, 0.011515532620251179, 0.053029317408800125, -0.11990918219089508, -0.924513041973114, 0.3758073151111603, -0.0635952427983284, -0.021730124950408936, -0.014952242374420166, -0.009372219443321228, -0.2692945143653101, -0.6290332600972042, 0.7291209347792269,-0.013424752597120884,-0.94561767578125,0.362823486328125,-0.0695037841796875
20220224-0919,2022-02-24 09:19:17Z,u01, 16,40,movements,el-ex, rt, d,218388.775113125, -1.4996780810469823, -0.38198752916197504, -0.3952072720634704, 0.09769342839717865, 0.08024389296770096, -0.11973580718040466, -0.925579845905304, 0.3727654814720154, -0.06593681871891022, -0.0007048249244689941, -0.0026330649852752686, 0.005252666771411896, -0.26758071650627163, -0.6288339621950914, 0.7299087439556942,-0.014195739123941807,-0.9262847900390625,0.3701324462890625,-0.0606842041015625
20220224-0919,2022-02-24 09:19:17Z,u01, 17,40,movements,el-ex, rt, d,218388.800060125, -1.4962534759481672, -0.3792234315681134, -0.3938544412941878, -0.028866279870271683, 0.05646632984280586, -0.08755583316087723, -0.9263727068901062, 0.37019917368888855, -0.06918264925479889, 0.003856837749481201, 0.0019168853759765625, -0.006623022258281708, -0.2661907434570595, -0.6281330773121773, 0.731001557678746,-0.015102301483973795,-0.92999267578125,0.3709564208984375,-0.0755767822265625
20220224-0919,2022-02-24 09:19:17Z,u01, 18,40,movements,el-ex, rt, d,218388.825006125, -1.4951646515936965, -0.3766723814079867, -0.3953190688648995, -0.03886694833636284, 0.05384531244635582, -0.08881144970655441, -0.9272354245185852, 0.3678281903266907, -0.07026238739490509, -0.03081810474395752, 0.014618098735809326, 0.003398425877094269, -0.26577326763391845, -0.627880064782539, 0.731337011831629,-0.016652443773831915,-0.9580535888671875,0.3824462890625,-0.066864013671875
20220224-0919,2022-02-24 09:19:17Z,u01, 19,40,movements,el-ex, rt, d,218388.84995312503, -1.493705752725854, -0.3743128203699289, -0.39462122167110236, 0.11043881624937057, 0.05534154176712036, -0.09812339395284653, -0.9279946088790894, 0.3656330108642578, -0.07168169319629669, -0.016005516052246094, 0.0060710608959198, 0.002559378743171692, -0.26473743145083994, -0.6277525358582374, 0.7318047010689843,-0.017394734189581533,-0.941558837890625,0.3704833984375,-0.0689544677734375
20220224-0919,2022-02-24 09:19:17Z,u01, 20,40,movements,el-ex, rt, d,218388.87490012503, -1.491175896933612, -0.3718965894434508, -0.39171646182460174, 0.09228184819221497, 0.09963909536600113, -0.10641553997993469, -0.9286885261535645, 0.363383024930954, -0.07409922778606415, -0.023597300052642822, -0.0019480586051940918, -0.010953247547149658, -0.2629785741295024, -0.6275290080290115, 0.7326281119654121,-0.017487613712642708,-0.9522857666015625,0.3614349365234375,-0.085052490234375
20220224-0919,2022-02-24 09:19:17Z,u01, 21,40,movements,el-ex, rt, d,218388.89984612502, -1.4885908191561081, -0.36910990392025594, -0.39163115012988425, -0.049579016864299774, 0.10649541020393372, -0.11739469319581985, -0.9294993877410889, 0.36078542470932007, -0.07658255845308304, -0.0006000995635986328, -0.006369531154632568, -0.004289031028747559, -0.26197475571273093, -0.6269592885555613, 0.7334439661548855,-0.01874298717902291,-0.9217376708984375,0.3533172607421875,-0.076080322265625
20220224-0919,2022-02-24 09:19:17Z,u01, 22,40,movements,el-ex, rt, d,218388.924793125, -1.488194773428153, -0.36698078248235816, -0.3937235382447782, -0.020270127803087234, 0.06413117051124573, -0.0835523009300232, -0.9302322268486023, 0.35879889130592346, -0.07701386511325836, 0.007731735706329346, 0.01346975564956665, 0.00970739871263504, -0.26189739545482965, -0.6268196092656048, 0.7335498086654662,-0.02028548506723959,-0.9225006103515625,0.3722686767578125,-0.0673065185546875
20220224-0919,2022-02-24 09:19:17Z,u01, 23,40,movements,el-ex, rt, d,218388.949740125, -1.486251243830866, -0.36495184885388715, -0.3928198591529966, 0.07850465178489685, 0.09680655598640442, -0.08700776100158691, -0.9308043718338013, 0.3569043278694153, -0.07888296991586685, -0.02891242504119873, 0.018645018339157104, 0.003046751022338867, -0.2608985728050663, -0.6264905813831358, 0.7341694794802192,-0.020896741811848918,-0.9602508544921875,0.3675537109375,-0.080780029296875
20220224-0919,2022-02-24 09:19:17Z,u01, 24,40,movements,el-ex, rt, d,218388.974686125, -1.4834888231941565, -0.3625134430043987, -0.3916211390531983, 0.01962069608271122, 0.08032798767089844, -0.09248747676610947, -0.9314470291137695, 0.3546254336833954, -0.08152958005666733, -0.010218501091003418, -0.017131567001342773, -0.0036907121539115906, -0.25965633747610517, -0.6259503159058453, 0.7350485052223776,-0.021642743347838337,-0.9416656494140625,0.337493896484375,-0.0852203369140625
20220224-0919,2022-02-24 09:19:17Z,u01, 25,40,movements,el-ex, rt, d,218388.999633125, -1.482554641288776, -0.36033796501655785, -0.39181546478892315, -0.0027884729206562042, 0.05317465960979462, -0.10338406264781952, -0.9321367740631104, 0.35259050130844116, -0.08246748149394989, -0.017066657543182373, -0.00580403208732605, 0.002084203064441681, -0.2589585122560826, -0.6258648007699503, 0.7353395225799524,-0.02257224241554238,-0.95556640625,0.356170654296875,-0.08203125
20220224-0919,2022-02-24 09:19:17Z,u01, 26,40,movements,el-ex, rt, d,218389.02458012503, -1.4821343163106382, -0.35830557733796076, -0.3926902429440668, -0.035020142793655396, 0.06555017083883286, -0.0966496616601944, -0.9328140020370483, 0.3506879210472107, -0.08292256295681, -0.04440462589263916, 0.024296820163726807, -0.008981108665466309, -0.25852786564768543, -0.6258610568650069, 0.7354608404949065,-0.023636491559646935,-0.9772186279296875,0.3749847412109375,-0.0919036865234375
20220224-0919,2022-02-24 09:19:17Z,u01, 27,40,movements,el-ex, rt, d,218389.04952712503, -1.4813225602271853, -0.3562588888012508, -0.39434954258378435, -0.05228448659181595, 0.046697650104761124, -0.08072715997695923, -0.9334591031074524, 0.34877046942710876, -0.08374369144439697, -0.04977136850357056, 0.013549447059631348, -0.00950276106595993, -0.2583323889123208, -0.6256137222835739, 0.7356932168136693,-0.02504443967451996,-0.9849700927734375,0.3602142333984375,-0.0858917236328125
20220224-0919,2022-02-24 09:19:17Z,u01, 28,40,movements,el-ex, rt, d,218389.07447312502, -1.480659184848619, -0.35450118268235603, -0.394682797916993, 0.06750516593456268, 0.02663392759859562, -0.05142199993133545, -0.9340124726295471, 0.3471226096153259, -0.08441796153783798, -0.05699998140335083, 0.031829386949539185, 0.0038363412022590637, -0.2578226078259976, -0.6255545702795433, 0.7358945664843689,-0.02584738907133008,-0.9910125732421875,0.3789520263671875,-0.0805816650390625
20220224-0919,2022-02-24 09:19:17Z,u01, 29,40,movements,el-ex, rt, d,218389.099420125, -1.4794461775666112, -0.3532252000157373, -0.39253588600684747, 0.062523253262043, 0.025916337966918945, -0.030780769884586334, -0.934349775314331, 0.3459256887435913, -0.08559120446443558, -0.06676405668258667, 0.03757345676422119, 0.004078753292560577, -0.25669546979761515, -0.6255492244605038, 0.7363001613239137,-0.02564478277304999,-1.0035552978515625,0.377166748046875,-0.08123779296875
20220224-0919,2022-02-24 09:19:17Z,u01, 30,40,movements,el-ex, rt, d,218389.124367125, -1.479015500755104, -0.352582235843996, -0.3923335289827145, -0.033024273812770844, 0.0012211799621582031, -0.013092253357172012, -0.9345342516899109, 0.3453223407268524, -0.08601398020982742, -0.07016551494598389, 0.019057542085647583, 0.014053583145141602, -0.25640471972108353, -0.6254995037733402, 0.7364368580807976,-0.02584288935716062,-1.00469970703125,0.3643798828125,-0.07196044921875
20220224-0919,2022-02-24 09:19:17Z,u01, 31,40,movements,el-ex, rt, d,218389.149313125, -1.4789536540640063, -0.35276046005093126, -0.39214052029001323, 0.05537273362278938, -0.0007092785090208054, 0.020170696079730988, -0.9344676733016968, 0.34548959136009216, -0.08606613427400589, -0.07752585411071777, 0.039047181606292725, 0.009817950427532196, -0.256405075317037, -0.6254785121908679, 0.7364589087034304,-0.025719512929531754,-1.0110015869140625,0.3865203857421875,-0.0766754150390625
20220224-0919,2022-02-24 09:19:17Z,u01, 32,40,movements,el-ex, rt, d,218389.174260125, -1.478487859591492, -0.3529110632802541, -0.39059542708290307, 0.03863859176635742, 0.00013833865523338318, 0.006002877838909626, -0.9343757033348083, 0.3456309139728546, -0.08649660646915436, -0.0661126971244812, 0.019893407821655273, 0.0044043585658073425, -0.2559679288263347, -0.62548550513569, 0.7366244071432918,-0.02515927490160868,-1.00048828125,0.3655242919921875,-0.08209228515625
20220224-0919,2022-02-24 09:19:17Z,u01, 33,40,movements,el-ex, rt, d,218389.199207125, -1.4785627266831494, -0.3532888837663822, -0.3896885089477447, 0.05080684274435043, -0.02514065057039261, 0.02892124280333519, -0.9342519640922546, 0.34598544239997864, -0.08641460537910461, -0.06571751832962036, 0.03211209177970886, 0.009586632251739502, -0.2558157132164114, -0.6255805445729349, 0.7366124445414008,-0.024687980600257974,-1.005462646484375,0.379058837890625,-0.072967529296875
20220224-0919,2022-02-24 09:19:17Z,u01, 34,40,movements,el-ex, rt, d,218389.22415312502, -1.4784757382817357, -0.3538742300337171, -0.3878141349062357, 0.08240192383527756, -0.018149055540561676, 0.04422589763998985, -0.9340426325798035, 0.3465345799922943, -0.08647719025611877, -0.07253396511077881, 0.02802291512489319, 0.016301989555358887, -0.2554305086067725, -0.6257129219167139, 0.7366625511361138,-0.023810926889036896,-1.0065765380859375,0.3745574951171875,-0.0701751708984375
20220224-0919,2022-02-24 09:19:17Z,u01, 35,40,movements,el-ex, rt, d,218389.24910012502, -1.4786219079838925, -0.3549508117449981, -0.38584960902689575, 0.05673723667860031, -0.040852371603250504, 0.0535510890185833, -0.9336832761764526, 0.34754425287246704, -0.08630627393722534, -0.062349557876586914, 0.021123409271240234, 0.010515861213207245, -0.255189458877185, -0.6258795427830814, 0.7366395104553327,-0.02270487414735445,-0.998382568359375,0.3660888671875,-0.0753173828125
20220224-0919,2022-02-24 09:19:17Z,u01, 36,40,movements,el-ex, rt, d,218389.27404750002, -1.4795182827070001, -0.35630197037544653, -0.3849966872012082, -0.0025426303036510944, -0.052835863083601, 0.04411756992340088, -0.9332917332649231, 0.3488108515739441, -0.08542641997337341, -0.06672358512878418, 0.013264983892440796, 0.0144730806350708, -0.25539919755153934, -0.6261453814884083, 0.736367552200685,-0.021819617648548006,-1.0000152587890625,0.3620758056640625,-0.070953369140625
20220224-0919,2022-02-24 09:19:17Z,u01, 37,40,movements,el-ex, rt, d,218389.2989935, -1.4811956104925794, -0.3574389460818577, -0.38555615198777515, -0.02431819960474968, -0.05564170330762863, 0.046604499220848083, -0.933038055896759, 0.34987619519233704, -0.08382532000541687, -0.05684536695480347, 0.015602320432662964, 0.006966769695281982, -0.2559849531811412, -0.6265453232765269, 0.7358353074179927,-0.021426490673202982,-0.98699951171875,0.3679962158203125,-0.076995849609375
20220224-0919,2022-02-24 09:19:17Z,u01, 38,40,movements,el-ex, rt, d,218389.3239405, -1.4824296969634978, -0.3588425686085907, -0.3850179492490071, 0.06343661993741989, -0.059416599571704865, 0.07437580823898315, -0.932650625705719, 0.3511907756328583, -0.08263038098812103, -0.03632819652557373, 0.029531270265579224, 0.0044901445508003235, -0.2563132540749376, -0.626887808514326, 0.7354529123100618,-0.020595309721259204,-0.9689788818359375,0.3807220458984375,-0.0781402587890625
20220224-0919,2022-02-24 09:19:17Z,u01, 39,40,movements,el-ex, rt, d,218389.3488875, -1.4833359256111815, -0.3609074815340326, -0.3831157929492062, 0.04907336086034775, -0.04367125779390335, 0.10063184797763824, -0.9320006966590881, 0.35312339663505554, -0.08172163367271423, -0.042303383350372314, 0.012553423643112183, 0.0073960572481155396, -0.25643743068557856, -0.6271993519940244, 0.735184801116418,-0.019080381451140303,-0.980499267578125,0.35992431640625,-0.073211669921875
20220224-0919,2022-02-24 09:19:18Z,u01, 40,40,movements,el-ex, rt, d,218389.37383350002, -1.4840595743759455, -0.3634629374812124, -0.3826939159298027, -0.01649879291653633, -0.024997573345899582, 0.11394885182380676, -0.9311575889587402, 0.3555130660533905, -0.08096873760223389, -0.04296344518661499, 0.006394892930984497, 0.003606744110584259, -0.2571918764844453, -0.6271905370911228, 0.7349568340127768,-0.01796646031225391,-0.97412109375,0.361907958984375,-0.077362060546875
20220224-0919,2022-02-24 09:19:18Z,u01, 41,40,movements,el-ex, rt, d,218389.39878050002, -1.4848851517868578, -0.3666858914199372, -0.382757355419344, -0.01360367052257061, -0.03414420038461685, 0.14201776683330536, -0.9300777316093445, 0.3585236072540283, -0.08010123670101166, -0.03790932893753052, 0.01191401481628418, 0.0028765201568603516, -0.2583278752686434, -0.6270694460905055, 0.7346895186691351,-0.016790761463509944,-0.970001220703125,0.3714447021484375,-0.076812744140625
20220224-0919,2022-02-24 09:19:18Z,u01, 42,40,movements,el-ex, rt, d,218389.42372750002, -1.4860079253692042, -0.37006592470671584, -0.38322805160350215, -0.04443518444895744, -0.03685789555311203, 0.12693555653095245, -0.9289543628692627, 0.3616769015789032, -0.07895384728908539, -0.040085554122924805, 0.01269751787185669, -0.001276850700378418, -0.2596461940612195, -0.6269823997195575, 0.7343237581991465,-0.015671766442831626,-0.9690399169921875,0.3743743896484375,-0.080230712890625
20220224-0919,2022-02-24 09:19:18Z,u01, 43,40,movements,el-ex, rt, d,218389.44867450002, -1.4874567047045404, -0.37304420496635665, -0.3837581296057923, 0.0022516585886478424, -0.05126766115427017, 0.11027834564447403, -0.9279900789260864, 0.36445194482803345, -0.07751789689064026, -0.030643224716186523, 0.016819387674331665, -0.003994517028331757, -0.2608455966441262, -0.627057116866436, 0.7338554058421664,-0.014666889458780226,-0.9614105224609375,0.3830108642578125,-0.081451416015625
20220224-0919,2022-02-24 09:19:18Z,u01, 44,40,movements,el-ex, rt, d,218389.4736205, -1.4881438573565542, -0.3753181662767855, -0.38301898814678703, 0.014288481324911118, -0.03390198573470116, 0.08611815422773361, -0.927215039730072, 0.36656856536865234, -0.07681160420179367, -0.03846806287765503, 0.015999823808670044, -0.0020458176732063293, -0.26139834557719593, -0.6271085254670671, 0.7336366916863217,-0.01353375655563604,-0.9656829833984375,0.382568359375,-0.078857421875
20220224-0919,2022-02-24 09:19:18Z,u01, 45,40,movements,el-ex, rt, d,218389.4985675, -1.4888995491701904, -0.37751747308076805, -0.38309000659549075, -0.022320963442325592, -0.022983092814683914, 0.09870205819606781, -0.9264670014381409, 0.3686138987541199, -0.07604475319385529, -0.04641813039779663, 0.006904929876327515, -0.0011188983917236328, -0.2621791301699424, -0.6270882933457212, 0.7333899470607315,-0.012713666573074931,-0.974029541015625,0.378662109375,-0.078094482421875
20220224-0919,2022-02-24 09:19:18Z,u01, 46,40,movements,el-ex, rt, d,218389.5235145, -1.4898045876435522, -0.3801722870485182, -0.38353622860375197, -0.034171029925346375, -0.05386257916688919, 0.12048497796058655, -0.9255567193031311, 0.3710804581642151, -0.07512678951025009, -0.04021775722503662, 0.008497148752212524, 0.0010300949215888977, -0.2632333762930877, -0.6270125952492207, 0.7330912857769111,-0.011856004080708235,-0.9657745361328125,0.37957763671875,-0.0740966796875
20220224-0919,2022-02-24 09:19:18Z,u01, 47,40,movements,el-ex, rt, d,218389.54846050002, -1.4917342966279434, -0.3831403739738089, -0.3849644219598663, -0.09927157312631607, -0.053898461163043976, 0.10973040014505386, -0.9245977997779846, 0.3738349974155426, -0.07325327396392822, -0.047539472579956055, -0.001520603895187378, -0.011356696486473083, -0.2647068348050287, -0.6271392624783204, 0.7324636234295353,-0.011114967357470397,-0.9725494384765625,0.3715057373046875,-0.086181640625
20220224-0919,2022-02-24 09:19:18Z,u01, 48,40,movements,el-ex, rt, d,218389.57340750002, -1.493974848240305, -0.3859454420137356, -0.387760195920113, -0.11778147518634796, -0.04651458561420441, 0.09855444729328156, -0.9237105250358582, 0.37643519043922424, -0.07110073417425156, -0.04183506965637207, 0.01484590768814087, -0.019780628383159637, -0.26655278361043067, -0.627215470890613, 0.731732087144422,-0.010885610336357977,-0.965545654296875,0.3912811279296875,-0.09088134765625
20220224-0919,2022-02-24 09:19:18Z,u01, 49,40,movements,el-ex, rt, d,218389.59835450002, -1.4957959110283936, -0.38841890677343305, -0.38989531486537493, -0.044663816690444946, -0.04535870626568794, 0.09203723073005676, -0.9229071736335754, 0.3787255585193634, -0.06934849917888641, -0.038060784339904785, 0.011105924844741821, -0.017336659133434296, -0.26807427503504505, -0.6272654409661301, 0.7311376478299779,-0.010579904330889917,-0.9558258056640625,0.3878936767578125,-0.0834197998046875
20220224-0919,2022-02-24 09:19:18Z,u01, 50,40,movements,el-ex, rt, d,218389.6233005, -1.4974617010050368, -0.39042014758372345, -0.38999110166173906, 0.032553739845752716, -0.08292871713638306, 0.09071417152881622, -0.9222637414932251, 0.3805769681930542, -0.06775537133216858, -0.0353320837020874, 0.003883451223373413, -0.010690085589885712, -0.2687930488242058, -0.6275927114465539, 0.7306048414837264,-0.009708546300658323,-0.9575958251953125,0.38446044921875,-0.0784454345703125
20220224-0919,2022-02-24 09:19:18Z,u01, 51,40,movements,el-ex, rt, d,218389.6482475, -1.4980825983733588, -0.39229709063881535, -0.3873883080745041, 0.12508361041545868, -0.07183012366294861, 0.07796202600002289, -0.9215917587280273, 0.38231199979782104, -0.06713072955608368, -0.04619711637496948, 0.0067414045333862305, -0.018135376274585724, -0.2686163984507669, -0.6279170864534769, 0.730411529215241,-0.00803371878605396,-0.964935302734375,0.3884735107421875,-0.08612060546875
20220224-0919,2022-02-24 09:19:18Z,u01, 52,40,movements,el-ex, rt, d,218389.6731945, -1.4978511112929835, -0.39397061472852263, -0.38370736757705126, 0.11033831536769867, -0.05882624536752701, 0.07480211555957794, -0.920936644077301, 0.3838578760623932, -0.06729733198881149, -0.027549684047698975, -0.01842513680458069, -0.00443422794342041, -0.26802833573942847, -0.6281020192520684, 0.7304867757269042,-0.006149035737484314,-0.948486328125,0.3654327392578125,-0.0717315673828125
20220224-0919,2022-02-24 09:19:18Z,u01, 53,40,movements,el-ex, rt, d,218389.6981415, -1.4983971929508684, -0.3960812940410094, -0.38069618673091227, 0.10346106439828873, -0.06731247901916504, 0.11199868470430374, -0.9201630353927612, 0.38580599427223206, -0.0667356476187706, -0.022906363010406494, -0.011004388332366943, -0.010611169040203094, -0.2678011142866814, -0.6284224206494015, 0.7303079309366803,-0.004255545981721899,-0.94805908203125,0.373779296875,-0.0808258056640625
20220224-0919,2022-02-24 09:19:18Z,u01, 54,40,movements,el-ex, rt, d,218389.72308750002, -1.4985875905364772, -0.39842153908712563, -0.3780969021816227, 0.06816865503787994, -0.05529828742146492, 0.10745812952518463, -0.9192726016044617, 0.38796401023864746, -0.0664951279759407, -0.02687901258468628, -0.02619341015815735, -0.01172136515378952, -0.2677798526032242, -0.6285271578545165, 0.7302337292261051,-0.0024818034571362085,-0.9461517333984375,0.3617706298828125,-0.078216552734375
20220224-0919,2022-02-24 09:19:18Z,u01, 55,40,movements,el-ex, rt, d,218389.74803450002, -1.4986858574207746, -0.40095968526049897, -0.3751209494534787, 0.11882687360048294, -0.06941497325897217, 0.10979152470827103, -0.9182941317558289, 0.3903020918369293, -0.06633363664150238, -0.021952390670776367, -0.009183347225189209, -0.003994099795818329, -0.2677070489365821, -0.6286223958979534, 0.7301825561685152,-0.0005153674855497732,-0.94189453125,0.384857177734375,-0.071136474609375
20220224-0919,2022-02-24 09:19:18Z,u01, 56,40,movements,el-ex, rt, d,218389.77298150002, -1.4986543873851894, -0.40326709232554375, -0.3719900515072845, 0.06434529274702072, -0.04170844331383705, 0.1120012179017067, -0.9173914194107056, 0.39242544770240784, -0.06629744917154312, -0.03533691167831421, -0.02046191692352295, -0.0007038712501525879, -0.26750701877427635, -0.6287219336563209, 0.7301690115730611,0.001411418059246862,-0.952728271484375,0.3719635009765625,-0.0670013427734375
20220224-0919,2022-02-24 09:19:18Z,u01, 57,40,movements,el-ex, rt, d,218389.7979275, -1.4986769007668903, -0.4060903556746408, -0.37086790809889475, -0.006631913594901562, -0.04387699067592621, 0.1309017390012741, -0.9162840247154236, 0.39502066373825073, -0.06619668751955032, -0.016989171504974365, -0.023698091506958008, 0.0055735185742378235, -0.2681136630549785, -0.6285035560793021, 0.7301304414104445,0.00278819437378436,-0.9295501708984375,0.374237060546875,-0.0609130859375
20220224-0919,2022-02-24 09:19:18Z,u01, 58,40,movements,el-ex, rt, d,218389.8228745, -1.4995704921922317, -0.4090346236717417, -0.3717106606316002, -0.08706523478031158, -0.028630126267671585, 0.14228488504886627, -0.9151788949966431, 0.3977237641811371, -0.06529483199119568, -0.023465514183044434, -0.018603891134262085, 0.0021692514419555664, -0.2693767039351519, -0.6283221897641361, 0.7298180806652775,0.0036062689152393315,-0.9386444091796875,0.379119873046875,-0.0631256103515625
20220224-0919,2022-02-24 09:19:18Z,u01, 59,40,movements,el-ex, rt, d,218389.8478215, -1.500773688472416, -0.4126146333088533, -0.37409115723123454, -0.10329823195934296, -0.02018357813358307, 0.15760931372642517, -0.9138306975364685, 0.40100589394569397, -0.06409362703561783, -0.024218738079071045, -0.010075658559799194, 0.0008916780352592468, -0.2713357350588685, -0.6279570897755897, 0.7294038296706128,0.004123887542749361,-0.9377288818359375,0.396240234375,-0.0610809326171875
20220224-0919,2022-02-24 09:19:18Z,u01, 60,40,movements,el-ex, rt, d,218389.87276750003, -1.5015729339363673, -0.41607117793206555, -0.3756513555790651, -0.0349617563188076, 0.015311632305383682, 0.14120323956012726, -0.9124934077262878, 0.4041699469089508, -0.06326697766780853, -0.02840942144393921, -7.137656211853027e-05, 0.00777076929807663, -0.27299365238073825, -0.6275675074058852, 0.7291160214637913,0.004845582190159901,-0.9409027099609375,0.4040985107421875,-0.0554962158203125
20220224-0919,2022-02-24 09:19:18Z,u01, 61,40,movements,el-ex, rt, d,218389.89771450002, -1.5016200708547227, -0.41905639603381434, -0.37682657171487044, -0.0720280259847641, 0.03840044140815735, 0.11236973106861115, -0.9112885594367981, 0.4068986773490906, -0.06314028054475784, -0.01069331169128418, -0.012840449810028076, 0.0041498541831970215, -0.27437146191322487, -0.6270168755886888, 0.7290682456164873,0.0054445396978063925,-0.922576904296875,0.3947296142578125,-0.0595855712890625
20220224-0919,2022-02-24 09:19:18Z,u01, 62,40,movements,el-ex, rt, d,218389.92266150002, -1.5013223267411988, -0.42143142973105047, -0.3794756422299312, -0.12042835354804993, 0.08726884424686432, 0.09488574415445328, -0.9103031158447266, 0.4090670645236969, -0.06334434449672699, -0.03572654724121094, -0.0004214048385620117, 0.009572386741638184, -0.27600453680968967, -0.6262182716057704, 0.7291396730570935,0.005250040086296998,-0.9460296630859375,0.4086456298828125,-0.05377197265625
20220224-0919,2022-02-24 09:19:18Z,u01, 63,40,movements,el-ex, rt, d,218389.94760850002, -1.500630698744121, -0.42366286082323423, -0.3828948566356097, -0.13627858459949493, 0.09069652855396271, 0.09173543006181717, -0.9093461632728577, 0.4111022353172302, -0.06390976160764694, -0.01887643337249756, -0.008911073207855225, 0.007177598774433136, -0.27782913302784085, -0.6251848469342832, 0.7293373992191292,0.0046705173129404556,-0.923797607421875,0.402923583984375,-0.0561370849609375
20220224-0919,2022-02-24 09:19:18Z,u01, 64,40,movements,el-ex, rt, d,218389.9725545, -1.5004485621940726, -0.42594936820023, -0.3867702685055759, -0.13259071111679077, 0.09149721264839172, 0.08278121054172516, -0.9083945155143738, 0.4131855070590973, -0.0640091523528099, -0.01294642686843872, -0.011040091514587402, 0.00863504409790039, -0.27981104119581657, -0.6242605280472547, 0.7293754116887543,0.004013484790206266,-0.9213409423828125,0.4021453857421875,-0.0553741455078125
20220224-0919,2022-02-24 09:19:18Z,u01, 65,40,movements,el-ex, rt, d,218389.9975015, -1.499373124475465, -0.4281228397018072, -0.3896875300998125, -0.0892014279961586, 0.12610259652137756, 0.08540788292884827, -0.9074273705482483, 0.4151637852191925, -0.0649218037724495, -0.00816112756729126, -0.00822708010673523, -0.0048566535115242004, -0.2814550727861411, -0.6231549900966885, 0.7296906810818418,0.0035412594805288543,-0.913330078125,0.4072265625,-0.06988525390625
20220224-0919,2022-02-24 09:19:18Z,u01, 66,40,movements,el-ex, rt, d,218390.0224485, -1.4980734988739297, -0.4295395786605972, -0.3927905542863067, -0.12705612182617188, 0.1484965831041336, 0.04542265459895134, -0.9067546129226685, 0.4164522588253021, -0.06605824828147888, 0.006257116794586182, -0.034326374530792236, 0.0006438493728637695, -0.28290020469354327, -0.6220436867713294, 0.7300834364538162,0.00270941082570309,-0.9004974365234375,0.3821258544921875,-0.0654144287109375
20220224-0919,2022-02-24 09:19:18Z,u01, 67,40,movements,el-ex, rt, d,218390.04739450003, -1.49669467857274, -0.4308358704623688, -0.39638379717462713, -0.08985210210084915, 0.15396764874458313, 0.06272321194410324, -0.9061236381530762, 0.4176304340362549, -0.06726842373609543, 0.009379744529724121, -0.03255954384803772, 0.012550406157970428, -0.2844546119508472, -0.6208472926626258, 0.7305009678723401,0.001644281665649833,-0.899566650390625,0.3930206298828125,-0.0549163818359375
20220224-0919,2022-02-24 09:19:18Z,u01, 68,40,movements,el-ex, rt, d,218390.07234150002, -1.494087571227303, -0.43249920975475054, -0.3980993406409598, -0.055423155426979065, 0.15152019262313843, 0.08407297730445862, -0.9052513241767883, 0.4191412031650543, -0.06957722455263138, 0.008690595626831055, -0.02787533402442932, -0.0036497116088867188, -0.28554847957232415, -0.6194137986325209, 0.7312915098401822,0.0012131120753487087,-0.8965606689453125,0.391265869140625,-0.0732269287109375
20220224-0919,2022-02-24 09:19:18Z,u01, 69,40,movements,el-ex, rt, d,218390.09728850002, -1.4914066610441672, -0.43457122363242684, -0.40024968757828366, -0.09164790064096451, 0.1658330261707306, 0.08019614964723587, -0.9041936993598938, 0.4210215210914612, -0.07193482667207718, -0.010097682476043701, -0.03117471933364868, -0.001078486442565918, -0.28691299150599153, -0.6178296866236718, 0.7320975635949031,0.0007485186674339901,-0.9216461181640625,0.3900604248046875,-0.07342529296875
20220224-0919,2022-02-24 09:19:18Z,u01, 70,40,movements,el-ex, rt, d,218390.1222345, -1.4892219378954648, -0.4353225381874767, -0.402572988781929, -0.059650689363479614, 0.13889861106872559, 0.03643694892525673, -0.903718888759613, 0.42170289158821106, -0.0738842710852623, 0.026399552822113037, -0.02865174412727356, -0.010771505534648895, -0.28788351697929265, -0.616588147331963, 0.7327633594259979,-0.00016064725671737293,-0.8773193359375,0.3930511474609375,-0.08465576171875
20220224-0919,2022-02-24 09:19:18Z,u01, 71,40,movements,el-ex, rt, d,218390.1471815, -1.4880147847379626, -0.4361671759840846, -0.4049410027543948, -0.11082276701927185, 0.08588314056396484, 0.029409468173980713, -0.9032736420631409, 0.4224686026573181, -0.07494565844535828, 0.03626936674118042, -0.026091068983078003, -0.012273542582988739, -0.2888974546292503, -0.615682898343831, 0.7331247526857751,-0.0009153729456407144,-0.8695526123046875,0.3960418701171875,-0.086456298828125
20220224-0919,2022-02-24 09:19:18Z,u01, 72,40,movements,el-ex, rt, d,218390.1721285, -1.4873331546055026, -0.4368275684592248, -0.4074281123172575, -0.041483670473098755, 0.06613839417695999, 0.044057052582502365, -0.9029443264007568, 0.4230670630931854, -0.07553808391094208, 0.028859853744506836, -0.015886247158050537, -0.009514391422271729, -0.28988475715489115, -0.6149778752414754, 0.7333254739132644,-0.0017014352487341976,-0.87408447265625,0.4071807861328125,-0.085052490234375
20220224-0919,2022-02-24 09:19:18Z,u01, 73,40,movements,el-ex, rt, d,218390.1970755, -1.4858872531982636, -0.4377454090956783, -0.40751982769548734, 0.0047385189682245255, 0.062449049204587936, 0.034318335354328156, -0.9024467468261719, 0.4238985478878021, -0.07681059837341309, 0.01244741678237915, -0.003305286169052124, -0.003618471324443817, -0.29022113221156637, -0.6143015512337162, 0.7337592445501009,-0.0016330237840947968,-0.8914031982421875,0.4166259765625,-0.0809783935546875
20220224-0919,2022-02-24 09:19:18Z,u01, 74,40,movements,el-ex, rt, d,218390.22202150003, -1.4841306173862494, -0.4380524889200902, -0.4083087121109569, -0.07436122745275497, 0.06017790734767914, -0.0022420696914196014, -0.9021809697151184, 0.4241766333580017, -0.07838449627161026, 0.023076176643371582, -0.023969054222106934, 0.009582631289958954, -0.29056518758903804, -0.613497859299414, 0.7342943339419306,-0.0020734361141826092,-0.8791046142578125,0.40020751953125,-0.0688018798828125
20220224-0919,2022-02-24 09:19:18Z,u01, 75,40,movements,el-ex, rt, d,218390.24696850003, -1.482997724740261, -0.4381533199026021, -0.41055972967309823, -0.08311953395605087, 0.10914365947246552, -0.014046730473637581, -0.902048647403717, 0.4242679476737976, -0.07940274477005005, 0.010782837867736816, 0.006991147994995117, 0.004802532494068146, -0.29128787629626457, -0.6127397503154894, 0.7346373985612701,-0.0030306361685151426,-0.893951416015625,0.4353485107421875,-0.0757293701171875
20220224-0919,2022-02-24 09:19:18Z,u01, 76,40,movements,el-ex, rt, d,218390.27191487502, -1.4814290110246262, -0.43805560853945297, -0.412465682498042, -0.06544000655412674, 0.05327053368091583, 0.0028049536049365997, -0.9019644260406494, 0.42417946457862854, -0.08082140982151031, 0.04019373655319214, -0.01496925950050354, -0.0063062310218811035, -0.29183565336547673, -0.6118997017593999, 0.7351155166860174,-0.003992782319698331,-0.8617706298828125,0.409210205078125,-0.087127685546875
20220224-0919,2022-02-24 09:19:18Z,u01, 77,40,movements,el-ex, rt, d,218390.296860875, -1.4809477539297486, -0.4378757278225451, -0.41287722396186965, 0.05671686679124832, 0.020638419315218925, -0.028411954641342163, -0.9020014405250549, 0.4240165650844574, -0.08126232773065567, 0.03067868947982788, -0.014852076768875122, -0.015585191547870636, -0.2918998217508886, -0.6116889160228375, 0.7352638824449366,-0.004275233391297798,-0.8734130859375,0.412445068359375,-0.0933380126953125
20220224-0919,2022-02-24 09:19:18Z,u01, 78,40,movements,el-ex, rt, d,218390.321807875, -1.4794505202542563, -0.4363448673787533, -0.4101722428932907, 0.15079835057258606, 0.05417480319738388, -0.06723258644342422, -0.9025240540504456, 0.4226296544075012, -0.08267185091972351, 0.04018878936767578, 0.005181044340133667, -0.0207216739654541, -0.2905521304740072, -0.6117544705834737, 0.7357444171596473,-0.004016787924404163,-0.862335205078125,0.4278106689453125,-0.1033935546875
20220224-0919,2022-02-24 09:19:18Z,u01, 79,40,movements,el-ex, rt, d,218390.346754875, -1.4765622449887363, -0.4341555231555171, -0.4067085877877896, 0.09327930212020874, 0.07292859256267548, -0.07043976336717606, -0.9032005071640015, 0.4206444323062897, -0.08536510169506073, 0.051226019859313965, 0.008493781089782715, -0.0015184283256530762, -0.2887458437910825, -0.6115090238905871, 0.7366596129839947,-0.003900500602545669,-0.86260986328125,0.431182861328125,-0.080352783203125
20220224-0919,2022-02-24 09:19:19Z,u01, 80,40,movements,el-ex, rt, d,218390.37170087502, -1.4724653068938593, -0.43196571562122177, -0.4053215245542436, 0.006346235983073711, 0.16046476364135742, -0.08124587684869766, -0.9037577509880066, 0.41865676641464233, -0.08915495127439499, 0.020975708961486816, 0.011595308780670166, -0.005724191665649414, -0.28756974877888014, -0.6105130333363334, 0.7379398926380538,-0.004718666691201214,-0.882781982421875,0.4302520751953125,-0.094879150390625
20220224-0919,2022-02-24 09:19:19Z,u01, 81,40,movements,el-ex, rt, d,218390.39664787502, -1.4701709959332958, -0.4311213733443767, -0.40720521341282545, -0.15017914772033691, 0.04768342152237892, -0.01215861551463604, -0.9039021730422974, 0.4178898334503174, -0.09126368910074234, 0.05848890542984009, -0.002194643020629883, -0.00817781686782837, -0.2878509138914012, -0.6095162060646737, 0.738644405684081,-0.00602863737293583,-0.8466949462890625,0.4156646728515625,-0.0998077392578125
20220224-0919,2022-02-24 09:19:19Z,u01, 82,40,movements,el-ex, rt, d,218390.42159487502, -1.4701382697201812, -0.43128148444131387, -0.41136855521594357, -0.10129263997077942, 0.06922533363103867, -0.027644764631986618, -0.9038324952125549, 0.4180352985858917, -0.0912865400314331, 0.026681065559387207, 0.007684916257858276, -0.016608349978923798, -0.28917342984029476, -0.6088804950381227, 0.7386384384059641,-0.007517021881002513,-0.8771514892578125,0.42572021484375,-0.1078948974609375
20220224-0919,2022-02-24 09:19:19Z,u01, 83,40,movements,el-ex, rt, d,218390.44654187502, -1.4685577250828363, -0.4300581283052505, -0.4123396499610537, 0.015964608639478683, 0.08430840820074081, -0.08757919818162918, -0.9041951894760132, 0.4169236421585083, -0.09276709705591202, 0.043538451194763184, 0.05258932709693909, -0.014288544654846191, -0.28904647290323376, -0.6083326288403259, 0.7391285411959253,-0.008516193982462755,-0.8560028076171875,0.47076416015625,-0.107940673828125
20220224-0919,2022-02-24 09:19:19Z,u01, 84,40,movements,el-ex, rt, d,218390.471487875, -1.4665769378058962, -0.427540737867711, -0.4131214884297592, -0.06260283291339874, 0.09132889658212662, -0.13267678022384644, -0.9050507545471191, 0.41463416814804077, -0.09466683119535446, 0.029745519161224365, 0.02898460626602173, -0.008314728736877441, -0.28841779747991386, -0.6078501117262325, 0.7397531576983593,-0.009938135723753055,-0.87530517578125,0.4436187744140625,-0.1029815673828125
20220224-0919,2022-02-24 09:19:19Z,u01, 85,40,movements,el-ex, rt, d,218390.496434875, -1.4651191411019187, -0.4242977220054108, -0.41480728225723984, -0.010892339050769806, 0.0720151886343956, -0.1464495211839676, -0.9062442183494568, 0.4116808772087097, -0.09612744301557541, 0.02109706401824951, 0.02591070532798767, 0.006604135036468506, -0.2878164201545432, -0.6075343502685575, 0.7402182890308522,-0.011861945330900951,-0.8874969482421875,0.4376983642578125,-0.0886688232421875
20220224-0919,2022-02-24 09:19:19Z,u01, 86,40,movements,el-ex, rt, d,218390.521381875, -1.4625537282806973, -0.42097727972873655, -0.41443901574132047, 0.03885171189904213, 0.06477978825569153, -0.14888830482959747, -0.9073483943939209, 0.4086526036262512, -0.09859912842512131, 0.03694140911102295, 0.02286592125892639, -0.004611298441886902, -0.28655474133774467, -0.6071135120374953, 0.7410296966952459,-0.013208851634648138,-0.8704071044921875,0.4315185546875,-0.10321044921875
20220224-0919,2022-02-24 09:19:19Z,u01, 87,40,movements,el-ex, rt, d,218390.54632787502, -1.4606962389592355, -0.4179703841176419, -0.4130148766604822, 0.08242948353290558, 0.03315994143486023, -0.12271115928888321, -0.9083809852600098, 0.40590640902519226, -0.10041891783475876, 0.034571170806884766, 0.015831291675567627, -0.0068656206130981445, -0.285081102233076, -0.6070579102159008, 0.7416297794616141,-0.013954908589132451,-0.886260986328125,0.42242431640625,-0.1053924560546875
20220224-0919,2022-02-24 09:19:19Z,u01, 88,40,movements,el-ex, rt, d,218390.57127487502, -1.4584495409830136, -0.41468472355126773, -0.4113855307452971, 0.04809404909610748, 0.10886435210704803, -0.16349074244499207, -0.9094735980033875, 0.40290138125419617, -0.10260849446058273, 0.0161781907081604, 0.0027383267879486084, 0.0014427155256271362, -0.28344413222834924, -0.6069227091392941, 0.7423518071566263,-0.014770523146532044,-0.8932952880859375,0.4056396484375,-0.101165771484375
20220224-0919,2022-02-24 09:19:19Z,u01, 89,40,movements,el-ex, rt, d,218390.59622187502, -1.4568906192758586, -0.4116953915250722, -0.412821307628674, -0.11278901249170303, 0.08267662674188614, -0.10097630321979523, -0.910504937171936, 0.4001636207103729, -0.10416258871555328, 0.057248711585998535, -0.014528214931488037, -0.00672304630279541, -0.2828411476270778, -0.6065637572632041, 0.7428379713740029,-0.016524771856571224,-0.8542022705078125,0.381561279296875,-0.1060943603515625
20220224-0919,2022-02-24 09:19:19Z,u01, 90,40,movements,el-ex, rt, d,218390.62116887502, -1.4565755064044474, -0.41034161024185983, -0.4178185762715528, -0.21542960405349731, 0.10026820749044418, -0.08725190162658691, -0.9110094308853149, 0.3989225924015045, -0.10451113432645798, 0.03436154127120972, -0.009487837553024292, 0.013934984803199768, -0.28388822881402936, -0.6059306114831259, 0.7428991500153845,-0.018878436532999542,-0.87664794921875,0.389434814453125,-0.090576171875
20220224-0919,2022-02-24 09:19:19Z,u01, 91,40,movements,el-ex, rt, d,218390.646114875, -1.4565101559319493, -0.40905518583038053, -0.4226358810015511, -0.10264240205287933, 0.06376971304416656, -0.0773855596780777, -0.9115116596221924, 0.3977426290512085, -0.10462910681962967, 0.06925708055496216, 0.010933458805084229, 0.006820276379585266, -0.28490491225845715, -0.6054045251215726, 0.7428788523806413,-0.021107396791061595,-0.8426055908203125,0.4147796630859375,-0.100494384765625
20220224-0919,2022-02-24 09:19:19Z,u01, 92,40,movements,el-ex, rt, d,218390.671061875, -1.4548560490060727, -0.40707348696464746, -0.4241360733091295, -0.005531196482479572, 0.09992179274559021, -0.11157501488924026, -0.9121184349060059, 0.3959236443042755, -0.10622767359018326, 0.03681337833404541, 0.022075563669204712, 0.017818227410316467, -0.2846605594126536, -0.6048590999651078, 0.7433738728146332,-0.02256292923808232,-0.87530517578125,0.417999267578125,-0.088409423828125
20220224-0919,2022-02-24 09:19:19Z,u01, 93,40,movements,el-ex, rt, d,218390.696008875, -1.4519872895430412, -0.40415018891044074, -0.42521137811620896, -0.0755968689918518, 0.1594175547361374, -0.13290514051914215, -0.9129554629325867, 0.39323756098747253, -0.10898061841726303, 0.03327089548110962, 0.009731858968734741, 0.019289478659629822, -0.283947133934388, -0.604056052663364, 0.7442430315808546,-0.02434691004843441,-0.875335693359375,0.4004974365234375,-0.09130859375
20220224-0919,2022-02-24 09:19:19Z,u01, 94,40,movements,el-ex, rt, d,218390.72095487503, -1.4503445624426454, -0.402157024779583, -0.4299008473024804, -0.22134289145469666, 0.14738112688064575, -0.07916521281003952, -0.9135514497756958, 0.3914041817188263, -0.1105741634964943, 0.0432969331741333, -0.015503883361816406, 0.020791471004486084, -0.284655505261385, -0.603062320201597, 0.7446869539456301,-0.026990822475315313,-0.8702545166015625,0.3759002685546875,-0.08978271484375
20220224-0919,2022-02-24 09:19:19Z,u01, 95,40,movements,el-ex, rt, d,218390.74590187502, -1.4492627665981281, -0.40118821829815904, -0.4367071626249731, -0.2620421350002289, 0.14771129190921783, -0.06857308745384216, -0.9138070940971375, 0.39051249623298645, -0.11160827428102493, 0.028187096118927002, -0.008279860019683838, 0.00665833055973053, -0.2863570946584608, -0.601826783954379, 0.7449187049854131,-0.030002838458035058,-0.8826141357421875,0.384490966796875,-0.1058807373046875
20220224-0919,2022-02-24 09:19:19Z,u01, 96,40,movements,el-ex, rt, d,218390.77084887502, -1.4487668997181056, -0.4002736166913927, -0.4441951886601067, -0.24013350903987885, 0.14369496703147888, -0.07122239470481873, -0.9141057729721069, 0.38967034220695496, -0.11210481077432632, 0.062146663665771484, -0.0068884193897247314, -0.010636910796165466, -0.2882860986686455, -0.6006985257023163, 0.7449511335314328,-0.033167857813862944,-0.851959228515625,0.382781982421875,-0.12274169921875
20220224-0919,2022-02-24 09:19:19Z,u01, 97,40,movements,el-ex, rt, d,218390.795794875, -1.4485126296538133, -0.3994509992639902, -0.4499366675731357, -0.16926094889640808, 0.10228733718395233, -0.055645570158958435, -0.9143952131271362, 0.3889126181602478, -0.11237631738185883, 0.06751716136932373, 0.020267069339752197, -0.010655276477336884, -0.2897225934522574, -0.5998938731828243, 0.7449292721972416,-0.03561718395914668,-0.8557891845703125,0.4100341796875,-0.12652587890625
20220224-0919,2022-02-24 09:19:19Z,u01, 98,40,movements,el-ex, rt, d,218390.820741875, -1.447878032383497, -0.39809278513708246, -0.45491515752203815, -0.1850375086069107, 0.0951993465423584, -0.07135210186243057, -0.9148471355438232, 0.3876609802246094, -0.11302123218774796, 0.06897610425949097, 0.005069762468338013, -0.025131821632385254, -0.2907373000310156, -0.5991337140174928, 0.7450271378966422,-0.03801604055163159,-0.8458709716796875,0.392730712890625,-0.138153076171875
20220224-0919,2022-02-24 09:19:19Z,u01, 99,40,movements,el-ex, rt, d,218390.845688875, -1.44788935537249, -0.3970363474553392, -0.4597385393875303, -0.13671694695949554, 0.03456348925828934, -0.053088072687387466, -0.9152542352676392, 0.38668692111968994, -0.11306100338697433, 0.09625405073165894, -0.005781799554824829, -0.02028553932905197, -0.2918196217561248, -0.5985906838885913, 0.7449277643641524,-0.04016279136012944,-0.810546875,0.3804931640625,-0.13739013671875
20220224-0919,2022-02-24 09:19:19Z,u01, 100,40,movements,el-ex, rt, d,218390.870635875, -1.4489822895807205, -0.39683978234005185, -0.4616281849313435, 0.0031064003705978394, -0.08780170232057571, -0.0005957032553851604, -0.915452778339386, 0.386505663394928, -0.11206987500190735, 0.126634418964386, -0.00918629765510559, -0.030813395977020264, -0.2923400201823917, -0.5987506799278618, 0.7445620208745618,-0.04077231531878399,-0.788818359375,0.3773193359375,-0.14288330078125
20220224-0919,2022-02-24 09:19:19Z,u01, 101,40,movements,el-ex, rt, d,218390.89558187503, -1.4510314137690499, -0.39643903232595146, -0.46066033690013597, 0.06772247701883316, -0.09183678776025772, -0.004172195680439472, -0.9158341884613037, 0.3861360251903534, -0.11021225154399872, 0.09800887107849121, -0.0077943503856658936, -0.025346867740154266, -0.2919543826898472, -0.5997136913165965, 0.7439666384602381,-0.04024639610225002,-0.8160247802734375,0.38238525390625,-0.133544921875
20220224-0919,2022-02-24 09:19:19Z,u01, 102,40,movements,el-ex, rt, d,218390.92052887502, -1.4527676362506823, -0.3959839613730401, -0.4575503843056595, 0.13094165921211243, -0.1611519455909729, -0.0023668380454182625, -0.9161986112594604, 0.38571619987487793, -0.10864268243312836, 0.12142932415008545, 0.01884007453918457, 0.0011903122067451477, -0.2908996198103553, -0.6008794130362759, 0.7435060780688615,-0.03898875091291527,-0.794769287109375,0.4045562744140625,-0.107452392578125
20220224-0919,2022-02-24 09:19:19Z,u01, 103,40,movements,el-ex, rt, d,218390.94547587502, -1.4550901592114573, -0.39561306798088625, -0.45452229028872976, 0.09462419897317886, -0.1468205451965332, 0.0015851594507694244, -0.9165905117988586, 0.3853739798069, -0.10653101652860641, 0.08195000886917114, 0.022295117378234863, -0.0008755922317504883, -0.28990646013719923, -0.602236446806659, 0.7428647723264586,-0.03765017640055741,-0.8382415771484375,0.404754638671875,-0.10205078125
20220224-0919,2022-02-24 09:19:19Z,u01, 104,40,movements,el-ex, rt, d,218390.970421875, -1.4570363818476666, -0.39541651355024277, -0.4516519657408473, 0.11674802005290985, -0.11180371046066284, 0.007041177712380886, -0.9168712496757507, 0.3851926028728485, -0.10475550591945648, 0.06530880928039551, 0.01089504361152649, 0.011982090771198273, -0.28901014529071983, -0.6034031691344603, 0.742330812113373,-0.03636844979966964,-0.8515625,0.396087646484375,-0.0927734375
20220224-0919,2022-02-24 09:19:19Z,u01, 105,40,movements,el-ex, rt, d,218390.995368875, -1.45864764899878, -0.39580099523480966, -0.44823786819233036, 0.09662629663944244, -0.1523483395576477, 0.055596865713596344, -0.9168918132781982, 0.38554736971855164, -0.10326148569583893, 0.09395468235015869, -0.01440778374671936, -0.00860072672367096, -0.2881392740584652, -0.6044377696792175, 0.741905645478053,-0.034740488755633084,-0.82012939453125,0.3720245361328125,-0.107421875
20220224-0919,2022-02-24 09:19:19Z,u01, 106,40,movements,el-ex, rt, d,218391.020315875, -1.461740029237171, -0.39774420757889073, -0.4465353916347887, 0.018939059227705002, -0.11385054886341095, 0.07688982784748077, -0.9164600372314453, 0.38733962178230286, -0.10034386068582535, 0.05142408609390259, 0.005162179470062256, -0.00295817106962204, -0.28834043093294337, -0.6055475745310411, 0.7410007111080192,-0.03301251589639007,-0.8650360107421875,0.3925018310546875,-0.103302001953125
20220224-0919,2022-02-24 09:19:19Z,u01, 107,40,movements,el-ex, rt, d,218391.045262875, -1.4641896309177664, -0.399482453500458, -0.4457631642432887, 0.03467687964439392, -0.13646957278251648, 0.08161427825689316, -0.9160322546958923, 0.38894158601760864, -0.0980268120765686, 0.08400106430053711, 0.0029651224613189697, -0.0014604851603507996, -0.28873900121695517, -0.6063137657135906, 0.7402721000817117,-0.03178985659714937,-0.825408935546875,0.3980255126953125,-0.095977783203125
20220224-0919,2022-02-24 09:19:19Z,u01, 108,40,movements,el-ex, rt, d,218391.07020887503, -1.4667672776074416, -0.4017225611371678, -0.4437131121446261, 0.08418680727481842, -0.1350119560956955, 0.09850358217954636, -0.9154132604598999, 0.391004353761673, -0.09557458758354187, 0.049949824810028076, 0.03788977861404419, 0.006951555609703064, -0.2889197423291431, -0.6072380821855992, 0.7395221794144831,-0.029906529628747007,-0.8654632568359375,0.42889404296875,-0.088623046875
20220224-0919,2022-02-24 09:19:19Z,u01, 109,40,movements,el-ex, rt, d,218391.09515587502, -1.4680664942324384, -0.40310064521782624, -0.44110671172837657, 0.07947541028261185, -0.07003189623355865, 0.0374295748770237, -0.9149996042251587, 0.39227235317230225, -0.0943298265337944, 0.02554953098297119, 0.045380234718322754, 0.014251708984375, -0.2886158656470404, -0.607894702930638, 0.7391647179776335,-0.028291890468504062,-0.8850860595703125,0.4382171630859375,-0.0779266357421875
20220224-0919,2022-02-24 09:19:19Z,u01, 110,40,movements,el-ex, rt, d,218391.12010287502, -1.4679809938267296, -0.40383503727110304, -0.43789275553724616, 0.18109071254730225, -0.06468400359153748, 0.06720131635665894, -0.9147047996520996, 0.3929477632045746, -0.09437847137451172, 0.055558621883392334, 0.040050894021987915, 0.03358745574951172, -0.2878874894891266, -0.60821999221605, 0.7392342802905613,-0.02686924912473205,-0.8591461181640625,0.4329986572265625,-0.060791015625
20220224-0919,2022-02-24 09:19:19Z,u01, 111,40,movements,el-ex, rt, d,218391.145048875, -1.4665802449478529, -0.40595377274522293, -0.4296165627174466, 0.4224732518196106, -0.07384713739156723, 0.1585506796836853, -0.9137417078018188, 0.39489519596099854, -0.09557283669710159, 0.0377039909362793, 0.06897208094596863, 0.0474313348531723, -0.2860742965242274, -0.6085844877194454, 0.7397592858704288,-0.023297536610866254,-0.88433837890625,0.468017578125,-0.048309326171875
20220224-0919,2022-02-24 09:19:19Z,u01, 112,40,movements,el-ex, rt, d,218391.169995875, -1.4629495045146095, -0.40952428171287114, -0.4138625056250203, 0.7176734209060669, -0.09370939433574677, 0.19024614989757538, -0.9119809865951538, 0.3981730043888092, -0.09873735159635544, 0.0019468069076538086, 0.07204186916351318, 0.039350152015686035, -0.2824631635282386, -0.6089711694699974, 0.741004120148868,-0.016782193644293685,-0.9100341796875,0.47021484375,-0.05938720703125
20220224-0919,2022-02-24 09:19:19Z,u01, 113,40,movements,el-ex, rt, d,218391.194942875, -1.4575399146962376, -0.41015234399992584, -0.3939519801754298, 0.601351261138916, -0.12478841841220856, 0.05123453587293625, -0.9111849069595337, 0.39874905347824097, -0.10364104807376862, 0.04933786392211914, -0.0022951066493988037, -0.018154576420783997, -0.27657694556296836, -0.609659469966959, 0.7427797726912819,-0.009942009349607716,-0.8430938720703125,0.3714752197265625,-0.1361541748046875
20220224-0919,2022-02-24 09:19:19Z,u01, 114,40,movements,el-ex, rt, d,218391.219888875, -1.4580644612571225, -0.4104606878974806, -0.38546781619346976, 0.0072997817769646645, -0.145565465092659, 0.0405665785074234, -0.9111168384552002, 0.39903178811073303, -0.10314922779798508, 0.035353899002075195, -0.05074992775917053, -0.030258357524871826, -0.2740965040060545, -0.6109799437624617, 0.7426512467597045,-0.006615952629621141,-0.875762939453125,0.3482818603515625,-0.1334075927734375
20220224-0919,2022-02-24 09:19:19Z,u01, 115,40,movements,el-ex, rt, d,218391.24483587503, -1.4604947981216927, -0.4105948568338316, -0.3878305756353808, -0.07251664996147156, -0.0020307395607233047, -0.039124853909015656, -0.9113117456436157, 0.39915481209754944, -0.10092872381210327, -0.022678852081298828, -0.008560270071029663, -0.024513795971870422, -0.27487325541401886, -0.6115393136867631, 0.7418988298801713,-0.00711440777641945,-0.92193603515625,0.400909423828125,-0.1287689208984375
20220224-0919,2022-02-24 09:19:19Z,u01, 116,40,movements,el-ex, rt, d,218391.2697835, -1.4605409658980557, -0.4097622317677929, -0.3863756452793583, 0.1738654524087906, -0.040506426244974136, -0.025333072990179062, -0.9116461873054504, 0.3983912467956543, -0.10092315822839737, 0.02944415807723999, 0.003937214612960815, -0.025068625807762146, -0.2741413474079791, -0.6118700364430877, 0.7418993270870936,-0.006847293801056539,-0.8822021484375,0.4023284912109375,-0.1259918212890625
20220224-0919,2022-02-24 09:19:19Z,u01, 117,40,movements,el-ex, rt, d,218391.29473050003, -1.4596252457044347, -0.4086303908159376, -0.38085937962507893, 0.22799643874168396, -0.06337691843509674, 0.0008467976003885269, -0.9120010137557983, 0.39735284447669983, -0.10180789977312088, 0.035246312618255615, -0.04878109693527222, -0.02035396546125412, -0.2720594432513477, -0.612437514882906, 0.7422100799072084,-0.005304757349490643,-0.8751373291015625,0.3400726318359375,-0.12017822265625
20220224-0919,2022-02-24 09:19:19Z,u01, 118,40,movements,el-ex, rt, d,218391.31967650002, -1.4584739794768862, -0.40868982286953415, -0.37424821915394496, 0.2786675989627838, -0.04876282811164856, 0.03268728777766228, -0.911859929561615, 0.3974073827266693, -0.10285516083240509, 0.02273017168045044, -0.059486180543899536, -0.001286044716835022, -0.2700523547200468, -0.612898151064984, 0.7425758350845859,-0.002986883023023971,-0.889129638671875,0.337921142578125,-0.1041412353515625
20220224-0919,2022-02-24 09:19:19Z,u01, 119,40,movements,el-ex, rt, d,218391.34462350002, -1.4565812370906077, -0.40908031531249006, -0.36678107047960823, 0.19344638288021088, -0.06525671482086182, 0.0892777219414711, -0.9115091562271118, 0.3977656960487366, -0.10456317663192749, 0.04612225294113159, -0.06181296706199646, 0.005381062626838684, -0.2678973648840102, -0.6131471399458412, 0.7431563994408867,-0.0003372637958489917,-0.8664093017578125,0.349517822265625,-0.09173583984375
20220224-0919,2022-02-24 09:19:20Z,u01, 120,40,movements,el-ex, rt, d,218391.3695705, -1.455324279161594, -0.41115850218336436, -0.3637856521222751, -0.02516525238752365, 0.022831466048955917, 0.08166494965553284, -0.9105539321899414, 0.3996715545654297, -0.1056133508682251, -0.015822410583496094, 0.0123005211353302, 0.0371013879776001, -0.267700859863916, -0.6128046785079341, 0.7435085421945471,0.0013020417947760266,-0.9263763427734375,0.4119720458984375,-0.068511962890625
20220224-0919,2022-02-24 09:19:20Z,u01, 121,40,movements,el-ex, rt, d,218391.3945165, -1.455052225975527, -0.4131682763747787, -0.36580082792754987, -0.10951991379261017, 0.015744861215353012, 0.0757988691329956, -0.909725546836853, 0.401513010263443, -0.1057680994272232, 0.022869408130645752, 0.016333669424057007, 0.025918900966644287, -0.2690157064231029, -0.6121654190962753, 0.7435608243998543,0.0011875334763000924,-0.873931884765625,0.411376953125,-0.084808349609375
20220224-0919,2022-02-24 09:19:20Z,u01, 122,40,movements,el-ex, rt, d,218391.4194635, -1.4563155088952222, -0.41534815968587424, -0.36765064282258053, 0.010891620069742203, -0.04445476084947586, 0.11908702552318573, -0.9089866280555725, 0.4035085141658783, -0.10451853275299072, 0.036473870277404785, -0.004842162132263184, 0.008754387497901917, -0.27033689892052093, -0.6120936982022124, 0.7431401291673075,0.0013985739385675364,-0.8725128173828125,0.3986663818359375,-0.09576416015625
20220224-0919,2022-02-24 09:19:20Z,u01, 123,40,movements,el-ex, rt, d,218391.4444105, -1.4552315151866175, -0.41709253887767667, -0.36224464542867946, 0.3697855770587921, -0.016193363815546036, 0.06937185674905777, -0.9081723093986511, 0.4051039516925812, -0.1054224967956543, 0.010024726390838623, -0.0024702847003936768, 0.0004115104675292969, -0.2692884695549513, -0.6121866323872827, 0.7434356141315605,0.003844158795484014,-0.892791748046875,0.4022064208984375,-0.10284423828125
20220224-0919,2022-02-24 09:19:20Z,u01, 124,40,movements,el-ex, rt, d,218391.46935750003, -1.4536005540177186, -0.4180651669958299, -0.3524366033702378, 0.30866697430610657, -0.0740867555141449, 0.07628142833709717, -0.9076074361801147, 0.4059930145740509, -0.10685742646455765, 0.029479384422302246, 0.014569759368896484, 0.007415890693664551, -0.2666273730595776, -0.6127651525139922, 0.7438891175489651,0.007597212198973122,-0.8781280517578125,0.420562744140625,-0.0994415283203125
20220224-0919,2022-02-24 09:19:20Z,u01, 125,40,movements,el-ex, rt, d,218391.49430350002, -1.454098237335774, -0.4195151958087847, -0.3481576189665634, 0.028866194188594818, -0.04708949476480484, 0.06307747960090637, -0.9070748686790466, 0.40731772780418396, -0.1063370555639267, -0.01429659128189087, 0.02298012375831604, 0.01963663101196289, -0.2658179531343351, -0.6133288567180974, 0.7436892937582212,0.009738498370309866,-0.9309844970703125,0.428314208984375,-0.0818328857421875
20220224-0919,2022-02-24 09:19:20Z,u01, 126,40,movements,el-ex, rt, d,218391.51925050002, -1.4550919766711092, -0.42067689195492886, -0.34843588960228317, 0.0042100148275494576, 0.0052446164190769196, 0.037984445691108704, -0.9067094326019287, 0.4083784222602844, -0.10538090765476227, -0.02418351173400879, 0.014778316020965576, 0.01149362325668335, -0.2663023337000933, -0.6135084449955082, 0.7433622178469012,0.01015490125950017,-0.9308929443359375,0.42315673828125,-0.0938873291015625
20220224-0919,2022-02-24 09:19:20Z,u01, 127,40,movements,el-ex, rt, d,218391.5441975, -1.4552722131245626, -0.42145482024066194, -0.3480134799247903, -0.002388499677181244, -0.024934325367212296, 0.028371766209602356, -0.9064124226570129, 0.4090884029865265, -0.10518082231283188, 0.021982550621032715, -0.009826958179473877, -0.01548563688993454, -0.2664422351318131, -0.6135292377150878, 0.7432886785955938,0.010595589260027365,-0.8749542236328125,0.388092041015625,-0.1242523193359375
20220224-0919,2022-02-24 09:19:20Z,u01, 128,40,movements,el-ex, rt, d,218391.5691435, -1.4584027305950193, -0.42373341175998364, -0.34958751574911356, -0.09749364852905273, -0.11388882994651794, 0.10932692885398865, -0.9058086276054382, 0.41116654872894287, -0.10223795473575592, 0.028764069080352783, -0.06528037786483765, -0.00683186948299408, -0.2676993583126457, -0.6141808169179221, 0.7422894730004482,0.011190278812985305,-0.877044677734375,0.34588623046875,-0.10906982421875
20220224-0919,2022-02-24 09:19:20Z,u01, 129,40,movements,el-ex, rt, d,218391.5940905, -1.4630891264615562, -0.42734452888520974, -0.3531416798379743, -0.12709517776966095, -0.08851602673530579, 0.13976959884166718, -0.9047960042953491, 0.4144555926322937, -0.09783164411783218, -0.007145702838897705, -0.055690884590148926, -0.0016557127237319946, -0.2700146229075291, -0.6149603894626429, 0.740796065797323,0.011711374194114494,-0.9109344482421875,0.361358642578125,-0.105072021484375
20220224-0919,2022-02-24 09:19:20Z,u01, 130,40,movements,el-ex, rt, d,218391.6190375, -1.4661038087754266, -0.43154342839368987, -0.3560064053652218, -0.14328007400035858, -0.08713291585445404, 0.17085334658622742, -0.9033480286598206, 0.4182732403278351, -0.0949208214879036, -0.009539604187011719, -0.058669328689575195, -0.019352197647094727, -0.2723261045064855, -0.6151244430714489, 0.7398006432054061,0.01246835052010314,-0.9128875732421875,0.3596038818359375,-0.1142730712890625
20220224-0919,2022-02-24 09:19:20Z,u01, 131,40,movements,el-ex, rt, d,218391.64398450003, -1.4691987864972977, -0.43598707742746506, -0.361121016048615, -0.31074246764183044, -0.09401219338178635, 0.1626395583152771, -0.9017794728279114, 0.4223053455352783, -0.09193511307239532, -0.014922857284545898, -0.04521486163139343, -0.017516136169433594, -0.27540804004176506, -0.6149657350451057, 0.7387905455809086,0.01249470798096218,-0.9148101806640625,0.3860015869140625,-0.111602783203125
20220224-0919,2022-02-24 09:19:20Z,u01, 132,40,movements,el-ex, rt, d,218391.66893050002, -1.4746955016587664, -0.4397967337544956, -0.36964531971228176, -0.34950143098831177, -0.14984935522079468, 0.15228652954101562, -0.9006631970405579, 0.4257555603981018, -0.08682192116975784, -0.006487071514129639, 0.007594078779220581, -0.013977587223052979, -0.27930170539898563, -0.6152882224909895, 0.7370760880831975,0.011394931237749187,-0.9071502685546875,0.433349609375,-0.100799560546875
20220224-0919,2022-02-24 09:19:20Z,u01, 133,40,movements,el-ex, rt, d,218391.69387750002, -1.4801952161465797, -0.4434660881312268, -0.3755695015622641, -0.10780753195285797, -0.1641453355550766, 0.13636068999767303, -0.8995652198791504, 0.42907285690307617, -0.0817253440618515, -0.01715230941772461, 0.018345355987548828, -0.017990827560424805, -0.2823446295768835, -0.615969834266168, 0.7353480304497908,0.011225967505322103,-0.9138946533203125,0.4441680908203125,-0.10382080078125
20220224-0919,2022-02-24 09:19:20Z,u01, 134,40,movements,el-ex, rt, d,218391.7188245, -1.4841028932082947, -0.4464227819650782, -0.37481172368011717, 0.07487000524997711, -0.1901196837425232, 0.12517113983631134, -0.8986098170280457, 0.4317416548728943, -0.078099325299263, -0.01404881477355957, 0.020345717668533325, -0.020731858909130096, -0.28309135076862574, -0.617097741750531, 0.7340838887352392,0.013057950130668681,-0.91265869140625,0.45208740234375,-0.0988311767578125
20220224-0919,2022-02-24 09:19:20Z,u01, 135,40,movements,el-ex, rt, d,218391.7437705, -1.486750881464886, -0.4488222840386318, -0.37183736764845127, 0.1116161048412323, -0.14134642481803894, 0.07233390212059021, -0.8977787494659424, 0.433904767036438, -0.07563237845897675, -0.026385188102722168, 0.028161972761154175, -5.114823579788208e-05, -0.28296735810275764, -0.6181531233735909, 0.7331992410450774,0.015337508345294284,-0.9201812744140625,0.4626617431640625,-0.0710296630859375
20220224-0919,2022-02-24 09:19:20Z,u01, 136,40,movements,el-ex, rt, d,218391.7687175, -1.488147832855895, -0.45003379553545614, -0.36884478464243114, 0.09177202731370926, -0.06747472286224365, 0.0448097288608551, -0.8973588347434998, 0.43499597907066345, -0.07433468848466873, -0.002314627170562744, 0.022660881280899048, -0.004934720695018768, -0.28244091033168395, -0.6189182412809724, 0.7327188139410302,0.017042983947142275,-0.8996734619140625,0.4576568603515625,-0.0792694091796875
20220224-0919,2022-02-24 09:19:20Z,u01, 137,40,movements,el-ex, rt, d,218391.7936645, -1.4887404408558815, -0.4505018239667542, -0.3671061971915622, -0.006937977857887745, -0.12674804031848907, 0.024636413902044296, -0.8971997499465942, 0.4354173541069031, -0.07378619909286499, 0.03040897846221924, 0.020179569721221924, -0.009297847747802734, -0.2820560197412951, -0.6193151871002591, 0.732510710880743,0.01792240418573215,-0.865753173828125,0.456329345703125,-0.0779266357421875
20220224-0919,2022-02-24 09:19:20Z,u01, 138,40,movements,el-ex, rt, d,218391.8186115, -1.4909174223188537, -0.4511901723270907, -0.3669328237060461, 0.013639369048178196, -0.07726936787366867, -0.0099534522742033, -0.8970592617988586, 0.4360369145870209, -0.07180890440940857, -0.04321783781051636, 0.026151806116104126, 0.030259251594543457, -0.28221542545029304, -0.6200403212990183, 0.7318205035295966,0.018526894713150596,-0.940277099609375,0.462188720703125,-0.0415496826171875
20220224-0919,2022-02-24 09:19:20Z,u01, 139,40,movements,el-ex, rt, d,218391.84355750002, -1.491294840145766, -0.45016032091472347, -0.36519518078662244, 0.11960048973560333, -0.03774312883615494, -0.055740781128406525, -0.8975334763526917, 0.4351098835468292, -0.07150595635175705, -0.00462716817855835, 0.026880502700805664, 0.0043520331382751465, -0.28132457398944005, -0.6205670829197077, 0.7317083366147418,0.018865661346645628,-0.8839263916015625,0.4510955810546875,-0.075439453125
20220224-0919,2022-02-24 09:19:20Z,u01, 140,40,movements,el-ex, rt, d,218391.86850450002, -1.4910209509093004, -0.4493461281528992, -0.3623506241401919, 0.05943099409341812, -0.0810677632689476, -0.018056053668260574, -0.8978667855262756, 0.43437665700912476, -0.0717799961566925, 0.017861783504486084, -0.00989234447479248, -0.00489545613527298, -0.28016867311594906, -0.6209794821023131, 0.7317829449783657,0.01959110683450881,-0.8800048828125,0.4244842529296875,-0.0766754150390625
20220224-0919,2022-02-24 09:19:20Z,u01, 141,40,movements,el-ex, rt, d,218391.89345150001, -1.4921558181960526, -0.4493103124021537, -0.36101552109334784, 0.07296990603208542, -0.02242802269756794, -0.012407355010509491, -0.8979631662368774, 0.43434441089630127, -0.07076220959424973, -0.02874886989593506, 0.006085306406021118, 0.011420786380767822, -0.27973050943427386, -0.6215864671660629, 0.7314178744842579,0.02022615964329247,-0.929168701171875,0.4459991455078125,-0.058868408203125
20220224-0919,2022-02-24 09:19:20Z,u01, 142,40,movements,el-ex, rt, d,218391.9183975, -1.493341864787945, -0.44902693193462684, -0.3603978069231443, -0.001757263671606779, -0.002290130592882633, -0.020361818373203278, -0.8981690406799316, 0.43408912420272827, -0.06970664858818054, -0.01299428939819336, 0.013634264469146729, 0.01019740104675293, -0.27943044983174836, -0.6221457215149915, 0.7310487000470055,0.020521396285851593,-0.911163330078125,0.447723388671875,-0.05950927734375
20220224-0919,2022-02-24 09:19:20Z,u01, 143,40,movements,el-ex, rt, d,218391.9433445, -1.4935642805491713, -0.4484282266114247, -0.3616341220729776, -0.0820091962814331, -0.011316582560539246, -0.0556531623005867, -0.8984435796737671, 0.433549702167511, -0.06952693313360214, -0.01752626895904541, 0.022993266582489014, -0.010185003280639648, -0.2796101758604999, -0.6221371908957087, 0.7310045905795832,0.01989678058513583,-0.916748046875,0.45819091796875,-0.0825958251953125
20220224-0919,2022-02-24 09:19:20Z,u01, 144,40,movements,el-ex, rt, d,218391.9682915, -1.4948496977907606, -0.4468702530400015, -0.3632500691005699, 0.008496505208313465, -0.034070830792188644, -0.05619797855615616, -0.8992044925689697, 0.43214523792266846, -0.06842315196990967, -0.015971839427947998, 0.019255489110946655, 0.0022611096501350403, -0.2795736090474996, -0.622596996121127, 0.7306519478979902,0.01895546630028387,-0.9151763916015625,0.4514007568359375,-0.066162109375
20220224-0919,2022-02-24 09:19:20Z,u01, 145,40,movements,el-ex, rt, d,218391.9932385, -1.4943065674514133, -0.4455027816462584, -0.3603847931060089, 0.2213890701532364, 0.014725737273693085, -0.04868839681148529, -0.8997556567192078, 0.4309116303920746, -0.06895662844181061, -0.026620686054229736, 0.017773061990737915, 0.006181955337524414, -0.2782239478016575, -0.6229872558064908, 0.7308212180264301,0.019460842008741142,-0.9194793701171875,0.441680908203125,-0.0659332275390625
20220224-0919,2022-02-24 09:19:20Z,u01, 146,40,movements,el-ex, rt, d,218392.01818450002, -1.4921147981159006, -0.4439934969369401, -0.3554493511925684, 0.09283498674631119, 0.005504341796040535, -0.04206185042858124, -0.9002495408058167, 0.4295491874217987, -0.070979543030262, 0.003322780132293701, -0.025221824645996094, -0.005390636622905731, -0.27619684429142255, -0.6230774679476806, 0.7314858727273678,0.020447700283020936,-0.8969268798828125,0.404327392578125,-0.0763702392578125
20220224-0919,2022-02-24 09:19:20Z,u01, 147,40,movements,el-ex, rt, d,218392.04313150002, -1.4920999632069458, -0.4435356876726785, -0.3566436864960316, -0.11820388585329056, 0.034201234579086304, -0.029595596715807915, -0.9004446864128113, 0.4291357100009918, -0.07100836932659149, -0.013511180877685547, -0.012509673833847046, 0.012048415839672089, -0.2764136772353605, -0.622969737131044, 0.7315122702794479,0.019853068887020858,-0.9179229736328125,0.425689697265625,-0.0552520751953125
20220224-0919,2022-02-24 09:19:20Z,u01, 148,40,movements,el-ex, rt, d,218392.06807850001, -1.49245366825174, -0.442390170926325, -0.35908285772805415, -0.009339316748082638, 0.046714894473552704, -0.079708032310009, -0.9009590148925781, 0.4281007647514343, -0.07072827965021133, 0.0013161301612854004, 0.026000767946243286, 0.004322059452533722, -0.2767814791025003, -0.6229188321165923, 0.7314488097696187,0.018620235368124554,-0.8996429443359375,0.4541015625,-0.06640625
20220224-0919,2022-02-24 09:19:20Z,u01, 149,40,movements,el-ex, rt, d,218392.0930245, -1.491079646237913, -0.4404531082435085, -0.3581609392269761, 0.0832863599061966, 0.03777918964624405, -0.08030085265636444, -0.901685893535614, 0.42634937167167664, -0.07203205674886703, 0.009855508804321289, 0.025341272354125977, 0.011347837746143341, -0.27584965396646477, -0.6228089124902036, 0.7319071178868938,0.018108862046576878,-0.898193359375,0.4506988525390625,-0.0594024658203125
20220224-0919,2022-02-24 09:19:20Z,u01, 150,40,movements,el-ex, rt, d,218392.1179715, -1.4889845096231196, -0.4374830951894696, -0.35532438310954706, 0.135980024933815, 0.07384764403104782, -0.1200278252363205, -0.9027913212776184, 0.42366093397140503, -0.07402422279119492, -0.010828793048858643, 0.021102309226989746, 0.016132406890392303, -0.27397550996448833, -0.6228365018049778, 0.7325937936958252,0.01785013243524035,-0.9136199951171875,0.44476318359375,-0.057891845703125
20220224-0919,2022-02-24 09:19:20Z,u01, 151,40,movements,el-ex, rt, d,218392.1429185, -1.4877515216584625, -0.43452834979626265, -0.35340563198764596, 0.04637860506772995, 0.056433435529470444, -0.12385911494493484, -0.9039427042007446, 0.42098262906074524, -0.07524079084396362, 0.0002257227897644043, 0.002998054027557373, -0.00630217045545578, -0.2723824292464748, -0.6230468818892239, 0.7330199600300936,0.017381608753196456,-0.9056854248046875,0.418914794921875,-0.086181640625
20220224-0919,2022-02-24 09:19:20Z,u01, 152,40,movements,el-ex, rt, d,218392.16786450002, -1.4879434261103552, -0.43223437957236216, -0.3541812151269069, -0.008288133889436722, 0.017444424331188202, -0.1093878298997879, -0.9049170613288879, 0.418900728225708, -0.07514703273773193, 0.00763934850692749, -0.024613678455352783, -0.0074335262179374695, -0.27184050123751563, -0.6233211242488721, 0.7330117853795056,0.0163448273652139,-0.89727783203125,0.394287109375,-0.08258056640625
20220224-0919,2022-02-24 09:19:20Z,u01, 153,40,movements,el-ex, rt, d,218392.19281150002, -1.4884307157632304, -0.42993043416314725, -0.35341550009685313, 0.13553467392921448, 0.017590899020433426, -0.09057978540658951, -0.9059131741523743, 0.4168075621128082, -0.07478528469800949, 0.008406460285186768, -0.00866544246673584, -0.019605517387390137, -0.2708121893285399, -0.6239135485092664, 0.732898052831007,0.01590934835552703,-0.8951568603515625,0.41357421875,-0.0980224609375
20220224-0919,2022-02-24 09:19:20Z,u01, 154,40,movements,el-ex, rt, d,218392.21775850002, -1.4874942113583647, -0.4276281194442061, -0.35044736493680056, 0.06299959123134613, -0.0013764677569270134, -0.09554984420537949, -0.9067965745925903, 0.41471368074417114, -0.07571328431367874, 0.010007083415985107, -0.01806148886680603, -0.03396689146757126, -0.2691076963515107, -0.6242791090160887, 0.7332105687963616,0.016089325379755645,-0.89678955078125,0.3966522216796875,-0.10968017578125
20220224-0919,2022-02-24 09:19:20Z,u01, 155,40,movements,el-ex, rt, d,218392.24270550002, -1.4875895757210593, -0.4255627627204272, -0.35007884632173625, -0.004387534689158201, -0.052450768649578094, -0.05339806526899338, -0.9076555371284485, 0.41283342242240906, -0.07569784671068192, 0.0064408183097839355, -0.026511341333389282, -0.02752787619829178, -0.2682862660988455, -0.6246387416105694, 0.733217319767927,0.015536293099294171,-0.9073944091796875,0.3995208740234375,-0.0964813232421875
20220224-0919,2022-02-24 09:19:20Z,u01, 156,40,movements,el-ex, rt, d,218392.26765037503, -1.486381944686854, -0.4238802438968165, -0.34666068160212493, 0.22249016165733337, -0.04344382882118225, -0.0670120120048523, -0.9082542657852173, 0.411300390958786, -0.07685235142707825, -0.03093951940536499, 0.018188774585723877, -0.0009216666221618652, -0.26665266046907327, -0.6248761335158772, 0.7335996024860116,0.016057431033081895,-0.9391937255859375,0.4294891357421875,-0.0777740478515625
20220224-0919,2022-02-24 09:19:20Z,u01, 157,40,movements,el-ex, rt, d,218392.29259737502, -1.4832372519056118, -0.4214227752490564, -0.3395852867274207, 0.20461492240428925, -0.06370481848716736, -0.09283316135406494, -0.9090120792388916, 0.40905916690826416, -0.07979628443717957, -0.007949471473693848, 0.0032179951667785645, -0.010795168578624725, -0.263625669359916, -0.6249826921124211, 0.7345713696371128,0.01740481976649618,-0.90869140625,0.4066925048828125,-0.092742919921875
20220224-0919,2022-02-24 09:19:20Z,u01, 158,40,movements,el-ex, rt, d,218392.31754437502, -1.4818369288690985, -0.4185802964416497, -0.3356432554037335, 0.05785556510090828, -0.09412024915218353, -0.07445867359638214, -0.9100539088249207, 0.40646371245384216, -0.08117208629846573, -0.020793139934539795, 0.0003355443477630615, 0.0042220428586006165, -0.2614286295918957, -0.6253551208016984, 0.7350322463180945,0.01770736377357606,-0.93084716796875,0.40679931640625,-0.0769500732421875
20220224-0919,2022-02-24 09:19:20Z,u01, 159,40,movements,el-ex, rt, d,218392.342490375, -1.4823376601663818, -0.4164579760435582, -0.33270651714135707, 0.19289349019527435, -0.05417883023619652, -0.08535273373126984, -0.9109517335891724, 0.40452373027801514, -0.08079241961240768, -0.04104405641555786, 0.021638989448547363, 0.024151809513568878, -0.2597747352293183, -0.6261955588912522, 0.734892735580295,0.01813378194640719,-0.9496307373046875,0.426055908203125,-0.0553741455078125
20220224-0919,2022-02-24 09:19:21Z,u01, 160,40,movements,el-ex, rt, d,218392.367437375, -1.4808963048598864, -0.41390887010043026, -0.32699974448588975, 0.19168296456336975, -0.007458661682903767, -0.08918894827365875, -0.9118583798408508, 0.4021911919116974, -0.0821976438164711, -0.028739094734191895, 0.014282196760177612, 0.016615398228168488, -0.25712191020274966, -0.6267292078417475, 0.7353439752593504,0.01918299350238854,-0.9405975341796875,0.416473388671875,-0.065582275390625
20220224-0919,2022-02-24 09:19:21Z,u01, 161,40,movements,el-ex, rt, d,218392.392384375, -1.4793546378577445, -0.41161921298130855, -0.32456518295666376, -0.003168805968016386, 0.03882122039794922, -0.08186046034097672, -0.9126452207565308, 0.40009382367134094, -0.0836872085928917, -0.026243269443511963, 0.0037300288677215576, 0.0175250843167305, -0.25558291074559764, -0.626764527531272, 0.7358522272177788,0.019107104387932082,-0.9390106201171875,0.402618408203125,-0.0634765625
20220224-0919,2022-02-24 09:19:21Z,u01, 162,40,movements,el-ex, rt, d,218392.417331375, -1.4789252548413037, -0.4100379389520308, -0.3259063237063511, -0.015311755239963531, 0.07321035116910934, -0.050707608461380005, -0.9132382273674011, 0.3986441195011139, -0.08413702249526978, -0.030090749263763428, 0.010474592447280884, 0.024734608829021454, -0.25546045340370954, -0.6266350173037544, 0.7360324523464432,0.018024650461691688,-0.943328857421875,0.40911865234375,-0.0594024658203125
20220224-0919,2022-02-24 09:19:21Z,u01, 163,40,movements,el-ex, rt, d,218392.44227737503, -1.4763670288964732, -0.408982121166344, -0.3248815553445066, 0.08964995294809341, 0.14549040794372559, -0.041555918753147125, -0.9134383797645569, 0.39767560362815857, -0.08651264011859894, -0.041761815547943115, 0.01359453797340393, 0.024989187717437744, -0.25479706966339327, -0.6259569737074748, 0.736846225430949,0.017719337465867666,-0.956085205078125,0.4065704345703125,-0.0637359619140625
20220224-0919,2022-02-24 09:19:21Z,u01, 164,40,movements,el-ex, rt, d,218392.46722437502, -1.4728584652824839, -0.4072401167623505, -0.32467633455429146, -0.06937991827726364, 0.14624860882759094, -0.08758945763111115, -0.913817286491394, 0.39607667922973633, -0.08978456258773804, 0.004530787467956543, -0.011494159698486328, -0.001447729766368866, -0.2541592199581715, -0.624908641818095, 0.7379778758020398,0.01676157344911612,-0.9092864990234375,0.38458251953125,-0.0912322998046875
20220224-0919,2022-02-24 09:19:21Z,u01, 165,40,movements,el-ex, rt, d,218392.49217137502, -1.4727594435164761, -0.4056323295111581, -0.32988890740745574, -0.2314983755350113, 0.08627022802829742, -0.06838886439800262, -0.9144411087036133, 0.3945998549461365, -0.08993727713823318, 0.017514050006866455, -0.0114363431930542, -0.015684016048908234, -0.25523022180653926, -0.6244108396806645, 0.7380817977906003,0.014284101165989618,-0.901763916015625,0.3816375732421875,-0.1060943603515625
20220224-0919,2022-02-24 09:19:21Z,u01, 166,40,movements,el-ex, rt, d,218392.517117375, -1.4743817475809102, -0.40456534719052134, -0.33587830656159096, -0.11070685088634491, 0.08270052820444107, -0.06604794412851334, -0.9150042533874512, 0.39361923933029175, -0.08849412947893143, -0.004963397979736328, 0.01495012640953064, -0.01583021879196167, -0.25671972887140027, -0.624378023704081, 0.7376347213818567,0.011922634046062528,-0.9199676513671875,0.4085693359375,-0.1043243408203125
20220224-0919,2022-02-24 09:19:21Z,u01, 167,40,movements,el-ex, rt, d,218392.542064375, -1.4734846093120428, -0.40319789542422363, -0.3369151266943291, 0.04172253608703613, 0.08891188353300095, -0.05825680494308472, -0.915459394454956, 0.3923617899417877, -0.08936719596385956, -0.018226027488708496, 0.016467005014419556, -0.024020858108997345, -0.25657487639665905, -0.6240879229903664, 0.737945450933842,0.010964222028836422,-0.941162109375,0.406585693359375,-0.1117095947265625
20220224-0919,2022-02-24 09:19:21Z,u01, 168,40,movements,el-ex, rt, d,218392.567011375, -1.470006886449627, -0.40121010365718096, -0.3356985079507606, 0.03363275155425072, 0.09245675057172775, -0.08038268238306046, -0.9159170389175415, 0.39053264260292053, -0.09262863546609879, -0.018317461013793945, 0.02156144380569458, -0.01113109290599823, -0.255524628314228, -0.6232117196004812, 0.7390589548245542,0.01029915381885572,-0.934234619140625,0.4120941162109375,-0.103759765625
20220224-0919,2022-02-24 09:19:21Z,u01, 169,40,movements,el-ex, rt, d,218392.591958375, -1.4675248643692242, -0.3991103288572411, -0.33491172370562555, 0.042410265654325485, 0.06316890567541122, -0.08595401048660278, -0.9164979457855225, 0.3885987401008606, -0.09498599916696548, -0.004598736763000488, 0.02782881259918213, -0.006713792681694031, -0.254562210963868, -0.6226596832081833, 0.7398657708543905,0.00956783805460542,-0.9242095947265625,0.418060302734375,-0.1014556884765625
20220224-0919,2022-02-24 09:19:21Z,u01, 170,40,movements,el-ex, rt, d,218392.61690437503, -1.464712482692689, -0.39687342742803744, -0.333869078115214, 0.021220289170742035, 0.07445991039276123, -0.09280606359243393, -0.9170892238616943, 0.38653668761253357, -0.09765496104955673, -0.016107678413391113, 0.016508907079696655, -0.014802321791648865, -0.25347194630935455, -0.6220325503664121, 0.7407760208326476,0.008845839356920937,-0.933197021484375,0.403045654296875,-0.112457275390625
20220224-0919,2022-02-24 09:19:21Z,u01, 171,40,movements,el-ex, rt, d,218392.64185137502, -1.4625102553660414, -0.39510431138810687, -0.33402260583492316, -0.022166265174746513, 0.08771086484193802, -0.0707181990146637, -0.9175503849983215, 0.3849044740200043, -0.09974810481071472, -0.01831686496734619, 0.00259244441986084, -0.006117329001426697, -0.25291197034380747, -0.6214189260254829, 0.7414925911617655,0.007917172219241052,-0.9329071044921875,0.38336181640625,-0.1038665771484375
20220224-0919,2022-02-24 09:19:21Z,u01, 172,40,movements,el-ex, rt, d,218392.66679837502, -1.4614403832021892, -0.39408474860110265, -0.3363475789921205, -0.15354156494140625, 0.0577908456325531, -0.040809500962495804, -0.9178329706192017, 0.3839632570743561, -0.10077251493930817, 0.005799829959869385, -0.02490869164466858, -0.022564291954040527, -0.25328204887719963, -0.6208558185650896, 0.7418511300356146,0.006578101756173989,-0.9120330810546875,0.3590545654296875,-0.1233367919921875
20220224-0919,2022-02-24 09:19:21Z,u01, 173,40,movements,el-ex, rt, d,218392.691744375, -1.4627406961689187, -0.39457685411399657, -0.34315156876359076, -0.33932191133499146, 0.033922068774700165, 0.004846466705203056, -0.9177750945091248, 0.3844175934791565, -0.09955855458974838, 0.005558967590332031, -0.026904195547103882, -0.024052850902080536, -0.2555615015048131, -0.6204103821724787, 0.7414580361641594,0.00438527003817492,-0.9105224609375,0.35504150390625,-0.1179656982421875
20220224-0919,2022-02-24 09:19:21Z,u01, 174,40,movements,el-ex, rt, d,218392.716691375, -1.4661783581178123, -0.3961182751564072, -0.3531961462901205, -0.3931882381439209, -0.02614506334066391, 0.0375974215567112, -0.9175216555595398, 0.38584011793136597, -0.09634099155664444, 0.008051931858062744, -0.03674948215484619, -0.005557194352149963, -0.2592076512362967, -0.6201942419820224, 0.7403836618062318,0.0016235978942284162,-0.9094696044921875,0.349090576171875,-0.101898193359375
20220224-0919,2022-02-24 09:19:21Z,u01, 175,40,movements,el-ex, rt, d,218392.741638375, -1.4696900409422484, -0.39777652024468085, -0.36289138131164766, -0.3312079608440399, 0.01103506051003933, 0.027600448578596115, -0.9172164797782898, 0.38736942410469055, -0.09305364638566971, -0.010487377643585205, -0.006235361099243164, -0.005502820014953613, -0.2627875067028975, -0.6200128236826108, 0.739273977541945,-0.0009471656913184294,-0.9285736083984375,0.3881683349609375,-0.099212646484375
20220224-0919,2022-02-24 09:19:21Z,u01, 176,40,movements,el-ex, rt, d,218392.766584375, -1.469005126601717, -0.3984683471805557, -0.3695224745822423, -0.24855786561965942, 0.0643853023648262, 0.008367565460503101, -0.9168856739997864, 0.38800713419914246, -0.0936545804142952, -0.023635566234588623, 0.022789984941482544, 0.000514984130859375, -0.26507951715458944, -0.6187936314507078, 0.7394705683851142,-0.0032562245458748248,-0.940521240234375,0.410797119140625,-0.0931396484375
20220224-0919,2022-02-24 09:19:21Z,u01, 177,40,movements,el-ex, rt, d,218392.79153137503, -1.4684562118077416, -0.3986183015675324, -0.37448105513830443, -0.13333556056022644, 0.08362018316984177, -0.022125694900751114, -0.9167763590812683, 0.3881453275680542, -0.09415192157030106, -0.006014347076416016, 0.032798945903778076, 0.005284711718559265, -0.26666320288288814, -0.6179116229531466, 0.7396282545964313,-0.0051123299250777875,-0.917205810546875,0.422119140625,-0.0904083251953125
20220224-0919,2022-02-24 09:19:21Z,u01, 178,40,movements,el-ex, rt, d,218392.81647837503, -1.4679610347067342, -0.39821555718305024, -0.3766613252411719, -0.030941147357225418, 0.03977895900607109, -0.027313534170389175, -0.9168850183486938, 0.38777413964271545, -0.0946219190955162, -0.002670764923095703, 0.03796139359474182, -0.0024392157793045044, -0.26719620105339975, -0.617491076864333, 0.739779452710596,-0.006120231158062803,-0.9195556640625,0.4257354736328125,-0.0970611572265625
20220224-0919,2022-02-24 09:19:21Z,u01, 179,40,movements,el-ex, rt, d,218392.84142537502, -1.4665457777535318, -0.39725004571073413, -0.3767881228056018, 0.01872330904006958, 0.08457805216312408, -0.056123144924640656, -0.9171221256256104, 0.38688400387763977, -0.09595836699008942, -0.036704838275909424, 0.03605914115905762, 0.005260169506072998, -0.26689748568049987, -0.617079046142125, 0.740226085116818,-0.006680638830213538,-0.9564056396484375,0.4205322265625,-0.0901031494140625
20220224-0919,2022-02-24 09:19:21Z,u01, 180,40,movements,el-ex, rt, d,218392.866371375, -1.464714480301232, -0.39554216680803994, -0.376777215744435, -0.006053641438484192, 0.0912402868270874, -0.09431333839893341, -0.9176005721092224, 0.38530856370925903, -0.09770754724740982, -0.013170361518859863, 0.027716368436813354, 0.002965688705444336, -0.26629740501904386, -0.6166294820435013, 0.7408088289339396,-0.007494279353388815,-0.9307708740234375,0.41302490234375,-0.0947418212890625
20220224-0919,2022-02-24 09:19:21Z,u01, 181,40,movements,el-ex, rt, d,218392.891318375, -1.4628946504673135, -0.393666441162132, -0.37783228259906654, -0.03387761488556862, 0.09053867310285568, -0.09020102024078369, -0.9181379079818726, 0.38357698917388916, -0.09945489466190338, -0.005751132965087891, 0.031172126531600952, 0.004041686654090881, -0.26596621773409984, -0.6160637319710692, 0.7413842959056434,-0.008756705515260981,-0.9222412109375,0.412811279296875,-0.0949249267578125
20220224-0919,2022-02-24 09:19:21Z,u01, 182,40,movements,el-ex, rt, d,218392.916265375, -1.4617834277944033, -0.3914864041344838, -0.3790097734738293, -0.023831240832805634, 0.04703167825937271, -0.10126272588968277, -0.9188559651374817, 0.3815627694129944, -0.1005658358335495, 0.003710150718688965, 0.024412542581558228, -0.002827756106853485, -0.265568681824755, -0.6157843427536459, 0.7417421628405609,-0.010071865053747657,-0.9151458740234375,0.405975341796875,-0.1033935546875
20220224-0919,2022-02-24 09:19:21Z,u01, 183,40,movements,el-ex, rt, d,218392.941211375, -1.4609644545984541, -0.389368161081187, -0.37942594282347597, 0.023347757756710052, 0.06600969284772873, -0.0913064256310463, -0.9195746183395386, 0.37960395216941833, -0.10140668600797653, -0.00809866189956665, 0.015034079551696777, -0.006152495741844177, -0.2649584331518346, -0.6157058439297098, 0.7420116588702672,-0.011044679396200517,-0.92828369140625,0.3927764892578125,-0.1064300537109375
20220224-0919,2022-02-24 09:19:21Z,u01, 184,40,movements,el-ex, rt, d,218392.96615837503, -1.4594531737810228, -0.38725024912913647, -0.3787345259607806, 0.04687022417783737, 0.06402984261512756, -0.09715506434440613, -0.9202171564102173, 0.3776437044143677, -0.102885402739048, 0.022527456283569336, -0.006458461284637451, -0.0015151947736740112, -0.26400235602640776, -0.6155160892712209, 0.7424996782472195,-0.011697190011731409,-0.8976898193359375,0.371185302734375,-0.104400634765625
20220224-0919,2022-02-24 09:19:21Z,u01, 185,40,movements,el-ex, rt, d,218392.99110537503, -1.4578557648072097, -0.3854493122811839, -0.37759739495505745, 0.07119880616664886, 0.04984064772725105, -0.0742458924651146, -0.9207261204719543, 0.37597551941871643, -0.10443173348903656, 0.042842090129852295, -0.017302364110946655, -0.00489749014377594, -0.2630174016982884, -0.6153096621301716, 0.7430140235273381,-0.01208799077959957,-0.87774658203125,0.3577423095703125,-0.10906982421875
20220224-0919,2022-02-24 09:19:21Z,u01, 186,40,movements,el-ex, rt, d,218393.01605137502, -1.4562084907161525, -0.3837569956046713, -0.37542817215848356, 0.10984310507774353, 0.016608059406280518, -0.06515631824731827, -0.9211834669113159, 0.3744068443775177, -0.10602086037397385, 0.03542608022689819, -0.027528822422027588, 0.00964636355638504, -0.26175152349387526, -0.6152037950089441, 0.7435488275891852,-0.012063680815542637,-0.8857574462890625,0.3468780517578125,-0.09637451171875
20220224-0919,2022-02-24 09:19:21Z,u01, 187,40,movements,el-ex, rt, d,218393.040998375, -1.4544782475443812, -0.3820792461236337, -0.37191556459703906, 0.1626603752374649, 0.03323017805814743, -0.03646182268857956, -0.9216212630271912, 0.37285059690475464, -0.1076873168349266, 0.012655258178710938, -0.036714762449264526, 0.016043081879615784, -0.26007626312513477, -0.6152370903929268, 0.7441171548349487,-0.011543378612376051,-0.9127960205078125,0.3362884521484375,-0.0930633544921875
20220224-0919,2022-02-24 09:19:21Z,u01, 188,40,movements,el-ex, rt, d,218393.065945375, -1.4515983580168703, -0.3809747033376446, -0.36814868224887504, 0.09645988047122955, 0.06578006595373154, -0.03842943534255028, -0.9217156767845154, 0.3718254566192627, -0.11038994789123535, -0.004416465759277344, -0.030593186616897583, 0.009514108300209045, -0.2585161500895248, -0.6147962489422718, 0.7450345516225332,-0.010882843192059607,-0.9261322021484375,0.3412322998046875,-0.1008758544921875
20220224-0919,2022-02-24 09:19:21Z,u01, 189,40,movements,el-ex, rt, d,218393.090892375, -1.4501814230558734, -0.3802397050981237, -0.3688298668676306, -0.12662044167518616, 0.05144912749528885, -0.013216955587267876, -0.9218294620513916, 0.37114307284355164, -0.11172870546579361, -0.00018286705017089844, -0.020511358976364136, 0.009296424686908722, -0.25846051515492174, -0.6142750277691502, 0.7454734185365953,-0.01156470842381759,-0.9217376708984375,0.3567047119140625,-0.1035919189453125
20220224-0919,2022-02-24 09:19:21Z,u01, 190,40,movements,el-ex, rt, d,218393.115838375, -1.4508864817388403, -0.38032434638064994, -0.3722336305033534, -0.06737382709980011, 0.03539653122425079, -0.018261384218931198, -0.9218769073486328, 0.371221661567688, -0.11107499152421951, -0.01592838764190674, 0.013421952724456787, -0.007333233952522278, -0.25953962919073587, -0.6140860575450903, 0.7452355279094718,-0.012713728022608178,-0.93780517578125,0.3846435546875,-0.118408203125
20220224-0919,2022-02-24 09:19:21Z,u01, 191,40,movements,el-ex, rt, d,218393.140785375, -1.4508769251636444, -0.379479977454751, -0.3722420718651222, 0.07594165951013565, 0.009441092610359192, -0.03383501619100571, -0.9221866726875305, 0.37043750286102295, -0.11112125217914581, -0.016885042190551758, 0.03097549080848694, -0.016915202140808105, -0.2592471156672282, -0.614190775531066, 0.7452460586535413,-0.012999454109609256,-0.9393768310546875,0.4043731689453125,-0.1286773681640625
20220224-0919,2022-02-24 09:19:21Z,u01, 192,40,movements,el-ex, rt, d,218393.16573237503, -1.4508188322510243, -0.3779247227825475, -0.37028917623215507, 0.06953848898410797, -0.00988759659230709, -0.05281270295381546, -0.9227510690689087, 0.3689924478530884, -0.11124364286661148, -0.018777310848236084, 0.02407398819923401, -0.01789146661758423, -0.2581031102147674, -0.6146226186754695, 0.7452906090149769,-0.012797456864655636,-0.9415283203125,0.39306640625,-0.1291351318359375
20220224-0919,2022-02-24 09:19:21Z,u01, 193,40,movements,el-ex, rt, d,218393.19067837502, -1.4510690638481185, -0.37631250507629516, -0.37002303167596506, -0.026063933968544006, -0.015454668551683426, -0.0786493569612503, -0.9233684539794922, 0.36749351024627686, -0.11108366400003433, -0.017427563667297363, 0.01389998197555542, -0.02038605511188507, -0.2574590410990276, -0.6149577295966212, 0.7452299700029164,-0.013203247100904756,-0.93841552734375,0.3818817138671875,-0.1375274658203125
20220224-0919,2022-02-24 09:19:21Z,u01, 194,40,movements,el-ex, rt, d,218393.215625375, -1.4513626434539184, -0.3749587807519106, -0.3707455685987681, -0.016269095242023468, -0.021996991708874702, -0.06028260290622711, -0.9238939881324768, 0.3662341833114624, -0.11087173223495483, -0.011927604675292969, 0.012550026178359985, -0.034697115421295166, -0.25720974661661755, -0.6151481767729237, 0.7451463518059169,-0.013885788315122998,-0.935821533203125,0.3787841796875,-0.14556884765625
20220224-0919,2022-02-24 09:19:21Z,u01, 195,40,movements,el-ex, rt, d,218393.240572375, -1.451587076028158, -0.37391379957554277, -0.37009471448097747, 0.07689283788204193, -0.04015994817018509, -0.027660410851240158, -0.9242983460426331, 0.36526158452033997, -0.11070983856916428, -0.013338983058929443, 0.006869763135910034, -0.024101614952087402, -0.2566455236207436, -0.6154495565924314, 0.7450906182912698,-0.01396275952059058,-0.939239501953125,0.3702850341796875,-0.1318359375
20220224-0919,2022-02-24 09:19:21Z,u01, 196,40,movements,el-ex, rt, d,218393.2655202917, -1.4509376065348758, -0.3735034232874864, -0.3668183705249501, 0.13978888094425201, -0.05199683457612991, 0.013182960450649261, -0.9243749380111694, 0.3648795485496521, -0.11132802814245224, -0.008730530738830566, -0.0029105544090270996, -0.0018158555030822754, -0.2554891182516525, -0.6156795414206564, 0.745316055974907,-0.012961889632223325,-0.93310546875,0.361968994140625,-0.1131439208984375
20220224-0919,2022-02-24 09:19:21Z,u01, 197,40,movements,el-ex, rt, d,218393.29046629168, -1.4505058127193502, -0.37363241077852516, -0.3643086922121484, -0.017345145344734192, -0.04070782661437988, 0.027433933690190315, -0.9242801070213318, 0.3649996221065521, -0.11172151565551758, -0.027410566806793213, -0.011697620153427124, -0.003833293914794922, -0.25475892424825725, -0.6158223224277358, 0.7454635700730545,-0.01203866687468992,-0.9583587646484375,0.353271484375,-0.117919921875
20220224-0919,2022-02-24 09:19:21Z,u01, 198,40,movements,el-ex, rt, d,218393.31541329168, -1.4508370499153371, -0.3749487296777078, -0.3668401139676482, -0.17400771379470825, 0.004964051768183708, 0.04545474797487259, -0.9238391518592834, 0.36622482538223267, -0.11135774850845337, -0.05077022314071655, -0.003767549991607666, 0.0005789399147033691, -0.2560012513782113, -0.6154546984685665, 0.7453338734875679,-0.012501316079043796,-0.974609375,0.362457275390625,-0.11077880859375
20220224-0919,2022-02-24 09:19:21Z,u01, 199,40,movements,el-ex, rt, d,218393.34036029168, -1.4518535194093425, -0.37650555281039866, -0.3697960020827184, -0.03328835964202881, -0.013508830219507217, 0.06053796038031578, -0.9233847856521606, 0.36767303943634033, -0.11035086214542389, -0.029770851135253906, 0.020327508449554443, 0.011748597025871277, -0.25746186617659855, -0.6152543825529122, 0.744988453626001,-0.01295333584285565,-0.9496307373046875,0.3935394287109375,-0.0966339111328125
20220224-0919,2022-02-24 09:19:21Z,u01, 200,40,movements,el-ex, rt, d,218393.36530629167, -1.4518182998429514, -0.3775484030150887, -0.3684622993637683, 0.08033643662929535, -0.010284075513482094, 0.03138346970081329, -0.9229996204376221, 0.368642657995224, -0.11033780127763748, -0.038334667682647705, 0.03554743528366089, 0.007997095584869385, -0.2574160167061367, -0.6152788738852562, 0.7449981405312758,-0.012113419307861549,-0.961334228515625,0.4041900634765625,-0.1023406982421875
20220224-0919,2022-02-24 09:19:22Z,u01, 201,40,movements,el-ex, rt, d,218393.39025329167, -1.4513662925946762, -0.37824267874484696, -0.3677056063911319, -0.05029390752315521, 0.009120713919401169, 0.03558879718184471, -0.9226953983306885, 0.3692879378795624, -0.11072448641061783, -0.04510873556137085, 0.019841760396957397, 0.011282965540885925, -0.2574233622437601, -0.6151186641542674, 0.745135203476411,-0.01165830613676793,-0.9691619873046875,0.387969970703125,-0.09759521484375
20220224-0919,2022-02-24 09:19:22Z,u01, 202,40,movements,el-ex, rt, d,218393.41520029167, -1.451843757756444, -0.3793764111139774, -0.36961049395476486, -0.05717471241950989, 0.011003836989402771, 0.043380942195653915, -0.9223317503929138, 0.37034130096435547, -0.11023414880037308, -0.03988748788833618, 0.02980518341064453, 0.01392066478729248, -0.2584083276902929, -0.6149049195476591, 0.7449663527145229,-0.011928450991656746,-0.96221923828125,0.400146484375,-0.0963134765625
20220224-0919,2022-02-24 09:19:22Z,u01, 203,40,movements,el-ex, rt, d,218393.4401462917, -1.4520477515667616, -0.38049286182489706, -0.37026711587918554, -0.02300562709569931, 0.008972244337201118, 0.03080962412059307, -0.9219431281089783, 0.3713781237602234, -0.10999694466590881, -0.046074509620666504, 0.03493291139602661, 0.011516749858856201, -0.259001489174593, -0.6147517829048039, 0.744889197286644,-0.011774422983705058,-0.97015380859375,0.4071807861328125,-0.1016693115234375
20220224-0919,2022-02-24 09:19:22Z,u01, 204,40,movements,el-ex, rt, d,218393.46509329168, -1.4522947601799128, -0.38143151541631765, -0.3711736574265204, -0.03617485985159874, 0.00454120896756649, 0.030431922525167465, -0.921623706817627, 0.3722494840621948, -0.10972795635461807, -0.04859119653701782, 0.035938382148742676, 0.008440136909484863, -0.2596093888601003, -0.6146047411408226, 0.7447990218474865,-0.01176703509839787,-0.97021484375,0.4081878662109375,-0.101287841796875
20220224-0919,2022-02-24 09:19:22Z,u01, 205,40,movements,el-ex, rt, d,218393.49004029168, -1.4528869326246696, -0.3821554316524975, -0.37179121705333124, 0.004409418441355228, -0.027077503502368927, 0.026577729731798172, -0.9214205741882324, 0.37292128801345825, -0.10915043950080872, -0.04215669631958008, 0.041843146085739136, 0.008488237857818604, -0.2600553584307663, -0.6146511130864767, 0.7446064978161671,-0.011678608943207307,-0.9640655517578125,0.4134979248046875,-0.0998077392578125
20220224-0919,2022-02-24 09:19:22Z,u01, 206,40,movements,el-ex, rt, d,218393.51498729168, -1.4535981876150377, -0.382603374001691, -0.37076004435573723, 0.0805170014500618, -0.037306372076272964, 0.019177667796611786, -0.9213321208953857, 0.37333688139915466, -0.10847552120685577, -0.04943215847015381, 0.03819271922111511, 0.009415492415428162, -0.25989869548667754, -0.6149917953375846, 0.7443895120168695,-0.011052875203584434,-0.97076416015625,0.411529541015625,-0.09906005859375
20220224-0919,2022-02-24 09:19:22Z,u01, 207,40,movements,el-ex, rt, d,218393.53993329167, -1.453290911866035, -0.38236364608504075, -0.36772660920930406, 0.12899792194366455, -0.03148643299937248, -0.006509185768663883, -0.9213874936103821, 0.3731144666671753, -0.10876909643411636, -0.04681318998336792, 0.03542435169219971, 0.010609269142150879, -0.2588804129327692, -0.6153018651752472, 0.7445023190864417,-0.010043582282308988,-0.9615936279296875,0.40655517578125,-0.1013336181640625
20220224-0919,2022-02-24 09:19:22Z,u01, 208,40,movements,el-ex, rt, d,218393.56488029167, -1.4535789671957928, -0.3820059311499495, -0.364642684776225, 0.10287736356258392, -0.06790649145841599, 0.005411655642092228, -0.9215512871742249, 0.37278255820274353, -0.1085192859172821, -0.037646710872650146, 0.016133487224578857, 0.016295135021209717, -0.25780764716152144, -0.6158535342878777, 0.7444320621116522,-0.008977782018499322,-0.959197998046875,0.388916015625,-0.09222412109375
20220224-0919,2022-02-24 09:19:22Z,u01, 209,40,movements,el-ex, rt, d,218393.58982729167, -1.4541425123453084, -0.38224844739444047, -0.36160952871070534, 0.13666358590126038, -0.05428116023540497, 0.0339546836912632, -0.9215224981307983, 0.373007595539093, -0.10798940062522888, -0.05305635929107666, 0.01157495379447937, 0.009219229221343994, -0.25696030871032494, -0.616422499966743, 0.7442684460651025,-0.007695465116813601,-0.973907470703125,0.3831329345703125,-0.1018829345703125
20220224-0919,2022-02-24 09:19:22Z,u01, 210,40,movements,el-ex, rt, d,218393.6147732917, -1.4544050369601549, -0.3828161331794363, -0.3577942478427903, 0.12638962268829346, -0.07501579821109772, 0.05102255195379257, -0.9213402271270752, 0.373534232378006, -0.10772285610437393, -0.04042118787765503, 0.006058633327484131, -0.00561939924955368, -0.25598323853242516, -0.6169369133136691, 0.7441939879119234,-0.00605259277324989,-0.961761474609375,0.3795928955078125,-0.11334228515625
20220224-0919,2022-02-24 09:19:22Z,u01, 211,40,movements,el-ex, rt, d,218393.63972029169, -1.4552883461289836, -0.38436342880380736, -0.3541347572293723, 0.14982560276985168, -0.09778869152069092, 0.1025148332118988, -0.9208599328994751, 0.37496909499168396, -0.10684225708246231, -0.04807323217391968, 0.0020145773887634277, 0.0063021183013916016, -0.2553969798025741, -0.6175364386215569, 0.74391173810086,-0.004061731810215366,-0.97406005859375,0.3801422119140625,-0.1010284423828125
20220224-0919,2022-02-24 09:19:22Z,u01, 212,40,movements,el-ex, rt, d,218393.66466729168, -1.455414724535454, -0.3869865115638569, -0.348633609118698, 0.22289608418941498, -0.05428329110145569, 0.14686977863311768, -0.9198932647705078, 0.3773995041847229, -0.10661228001117706, -0.06744199991226196, 0.0001640021800994873, 0.004622519016265869, -0.25461517345598766, -0.6179522406806178, 0.7438447100157796,-0.0011237190504826255,-0.987335205078125,0.3775634765625,-0.10198974609375
20220224-0919,2022-02-24 09:19:22Z,u01, 213,40,movements,el-ex, rt, d,218393.68961429168, -1.4546943967096746, -0.39034104328848795, -0.3434332734002722, 0.09999705851078033, -0.045726288110017776, 0.16728290915489197, -0.9185536503791809, 0.3805038332939148, -0.10712763667106628, -0.05282098054885864, -0.018092244863510132, 0.009410366415977478, -0.2541821535009015, -0.6179220135232529, 0.7440165557693253,0.001838716062175911,-0.9686431884765625,0.36181640625,-0.096954345703125
20220224-0919,2022-02-24 09:19:22Z,u01, 214,40,movements,el-ex, rt, d,218393.71456029167, -1.455481370701102, -0.39452119772575267, -0.34255189177987166, -0.048468343913555145, -0.04575005918741226, 0.18373292684555054, -0.9170495867729187, 0.3843662142753601, -0.1062207743525505, -0.040912508964538574, 0.0008724331855773926, 0.010944902896881104, -0.2553710335160761, -0.6177987111992327, 0.7437049657642874,0.003662034497231851,-0.9579620361328125,0.3852386474609375,-0.09527587890625
20220224-0919,2022-02-24 09:19:22Z,u01, 215,40,movements,el-ex, rt, d,218393.73950729167, -1.4573769978026876, -0.3993970031438813, -0.3437400187038608, -0.05789287015795708, -0.05486445873975754, 0.19946874678134918, -0.9153763055801392, 0.38886287808418274, -0.10426885634660721, -0.03704679012298584, 0.01044437289237976, 0.0022028088569641113, -0.2574369069863511, -0.6177311809465308, 0.7430400847043486,0.005092014543767252,-0.9529571533203125,0.3994598388671875,-0.1062164306640625
20220224-0919,2022-02-24 09:19:22Z,u01, 216,40,movements,el-ex, rt, d,218393.76445429167, -1.458344620654699, -0.4041763221042398, -0.3430985670973152, 0.08230554312467575, -0.03222166746854782, 0.19150249660015106, -0.9136195778846741, 0.393261581659317, -0.10317333787679672, -0.04006999731063843, 0.012515395879745483, -0.010840356349945068, -0.258902488736004, -0.6175620079547367, 0.7426553697950672,0.00705268080728429,-0.9536895751953125,0.4057769775390625,-0.114013671875
20220224-0919,2022-02-24 09:19:22Z,u01, 217,40,movements,el-ex, rt, d,218393.7894002917, -1.4576678095473299, -0.40813969967022246, -0.3384934117812469, 0.180398628115654, -0.037326544523239136, 0.16392426192760468, -0.911993682384491, 0.39690253138542175, -0.10361489653587341, -0.030160248279571533, 0.0005279183387756348, -0.017692506313323975, -0.25886511141792384, -0.6173989042376122, 0.7427701697282973,0.009999980149341612,-0.9402618408203125,0.39862060546875,-0.121429443359375
20220224-0919,2022-02-24 09:19:22Z,u01, 218,40,movements,el-ex, rt, d,218393.81434729169, -1.4582975451866322, -0.4120430140682024, -0.3353483746723866, -0.028037937358021736, -0.09977980703115463, 0.19069543480873108, -0.9105125069618225, 0.400482177734375, -0.10286586731672287, -0.014246523380279541, 0.0032654404640197754, 0.003027603030204773, -0.2592511483838673, -0.6175402065892985, 0.7424793331931093,0.012553794730172547,-0.9247589111328125,0.40374755859375,-0.0998382568359375
20220224-0919,2022-02-24 09:19:22Z,u01, 219,40,movements,el-ex, rt, d,218393.83929429168, -1.4617910661616276, -0.418017677331231, -0.3391468739128887, -0.301064670085907, -0.054222434759140015, 0.22871391475200653, -0.9084714651107788, 0.4059496223926544, -0.09942226111888885, -0.05138278007507324, -0.012242287397384644, 0.01098226010799408, -0.26247971338038617, -0.6175704567879752, 0.7413004277761117,0.01359923257697557,-0.9633026123046875,0.393585205078125,-0.0868682861328125
20220224-0919,2022-02-24 09:19:22Z,u01, 220,40,movements,el-ex, rt, d,218393.86424029167, -1.4675605403492655, -0.4250277280480561, -0.35033580742452886, -0.5633442997932434, -0.06687817722558975, 0.2605595886707306, -0.9061770439147949, 0.4123460352420807, -0.09388366341590881, -0.026394426822662354, -0.02030196785926819, 0.008571743965148926, -0.268323066602148, -0.6173013057370564, 0.7394483242999768,0.01257405324306754,-0.9325714111328125,0.3920440673828125,-0.0853118896484375
20220224-0919,2022-02-24 09:19:22Z,u01, 221,40,movements,el-ex, rt, d,218393.88918729167, -1.474887506007556, -0.43285001085790153, -0.3641235821969748, -0.38863325119018555, -0.03452403470873833, 0.2571682631969452, -0.9036020636558533, 0.41945967078208923, -0.08693011850118637, -0.03771257400512695, 0.0020491182804107666, -0.0020743533968925476, -0.27522362980242066, -0.6170793270720949, 0.7371170427096666,0.01111332966497367,-0.941741943359375,0.434967041015625,-0.09027099609375
20220224-0919,2022-02-24 09:19:22Z,u01, 222,40,movements,el-ex, rt, d,218393.91413429167, -1.4777882995454712, -0.4391251440876297, -0.3684049910429315, 0.05035597085952759, -0.04300380498170853, 0.21582427620887756, -0.9012118577957153, 0.42514777183532715, -0.08406247198581696, -0.03987389802932739, 0.042076319456100464, -0.02931033819913864, -0.2786722910569984, -0.6166932126508808, 0.7361289632312894,0.012056469184942024,-0.9410858154296875,0.46722412109375,-0.113372802734375
20220224-0919,2022-02-24 09:19:22Z,u01, 223,40,movements,el-ex, rt, d,218393.93908129167, -1.4763169146455362, -0.44335545739312965, -0.36256264843471275, 0.2916960120201111, -0.04650932550430298, 0.17152073979377747, -0.8992886543273926, 0.42897292971611023, -0.08521797508001328, -0.04275846481323242, 0.023404419422149658, -0.024096012115478516, -0.2783255173018023, -0.6163813085526811, 0.736458323758421,0.015430894039048357,-0.93768310546875,0.444488525390625,-0.103485107421875
20220224-0919,2022-02-24 09:19:22Z,u01, 224,40,movements,el-ex, rt, d,218393.9640272917, -1.4743719991096085, -0.4466666951549967, -0.35423552573531425, 0.2487933188676834, -0.06655566394329071, 0.16250839829444885, -0.8977025151252747, 0.43196165561676025, -0.08682963252067566, -0.03500622510910034, -0.0002752542495727539, -0.014946460723876953, -0.2769081865450023, -0.6163659949914715, 0.7369129041006935,0.0193450213917728,-0.932708740234375,0.4316864013671875,-0.101776123046875
20220224-0919,2022-02-24 09:19:22Z,u01, 225,40,movements,el-ex, rt, d,218393.9889742917, -1.474438084961159, -0.4501460755263843, -0.35075244378489673, -0.03581806272268295, -0.0681949108839035, 0.15854394435882568, -0.8962068557739258, 0.4350970685482025, -0.08662518858909607, -0.02926921844482422, 0.0017162859439849854, 0.001816876232624054, -0.2770247574376904, -0.6163965373397602, 0.7367747035822617,0.021810144958305126,-0.919403076171875,0.4336700439453125,-0.079742431640625
20220224-0919,2022-02-24 09:19:22Z,u01, 226,40,movements,el-ex, rt, d,218394.01392129168, -1.4774092194998132, -0.4544428469812604, -0.35302934372848704, -0.07584954053163528, -0.060789793729782104, 0.1682244837284088, -0.8945905566215515, 0.43896177411079407, -0.08378694206476212, -0.03047347068786621, 0.004931658506393433, 0.0015115812420845032, -0.2791617979219266, -0.6165835063462214, 0.7357798985583242,0.02283429395768528,-0.9250640869140625,0.4438934326171875,-0.082275390625
20220224-0919,2022-02-24 09:19:22Z,u01, 227,40,movements,el-ex, rt, d,218394.03886729167, -1.4784740040225401, -0.4578570879889943, -0.35244316851631957, 0.08044023811817169, -0.05483569577336311, 0.11282838881015778, -0.8931817412376404, 0.44202691316604614, -0.08269569277763367, -0.021079063415527344, 0.02275577187538147, 0.0001456812024116516, -0.28013300564312577, -0.6165854780313119, 0.7353603470534883,0.02435146465774373,-0.9061126708984375,0.4616546630859375,-0.08380126953125
20220224-0919,2022-02-24 09:19:22Z,u01, 228,40,movements,el-ex, rt, d,218394.06381429167, -1.478425518043937, -0.4603858708567336, -0.34947951645363945, 0.10034783184528351, -0.03398807346820831, 0.10770273953676224, -0.8920620083808899, 0.4442938268184662, -0.08263564854860306, -0.018475830554962158, 0.002269953489303589, 0.003305189311504364, -0.2800819368917132, -0.6166330219889501, 0.7352733674144485,0.026288128849704988,-0.9105377197265625,0.446563720703125,-0.0793304443359375
20220224-0919,2022-02-24 09:19:22Z,u01, 229,40,movements,el-ex, rt, d,218394.08876129167, -1.4770461101643457, -0.46222295315188905, -0.3458357772352634, 0.14575645327568054, 0.004887420684099197, 0.07457993924617767, -0.8911329507827759, 0.4459388852119446, -0.08378952741622925, -0.01769578456878662, 0.00479048490524292, 0.004367530345916748, -0.27960410882304654, -0.6163820070590171, 0.7356002469272074,0.028054994937767024,-0.9024658203125,0.447265625,-0.081085205078125
20220224-0919,2022-02-24 09:19:22Z,u01, 230,40,movements,el-ex, rt, d,218394.1137072917, -1.4756748988565334, -0.46381077581478874, -0.34232072136946406, 0.09217531979084015, -0.006048450246453285, 0.08653634041547775, -0.890311062335968, 0.44735953211784363, -0.08494400978088379, 0.004416346549987793, -0.012224644422531128, 0.002393960952758789, -0.27908297640816004, -0.616149890155071, 0.7359282012944979,0.02969201592495397,-0.885894775390625,0.4351348876953125,-0.082550048828125
20220224-0919,2022-02-24 09:19:22Z,u01, 231,40,movements,el-ex, rt, d,218394.1386542917, -1.4749484293248178, -0.46568674030550844, -0.34065665102994663, 0.009902921505272388, 0.00266454741358757, 0.07722239196300507, -0.8894122838973999, 0.44903650879859924, -0.08551031351089478, -0.0035472512245178223, -0.01336759328842163, -0.011123590171337128, -0.27922240488857547, -0.6158568748857919, 0.736073632845387,0.030835101972603432,-0.8917388916015625,0.4362030029296875,-0.1014556884765625
20220224-0919,2022-02-24 09:19:22Z,u01, 232,40,movements,el-ex, rt, d,218394.1636012917, -1.4762918289450946, -0.46763487717091423, -0.34145525971422735, -0.05335910618305206, -0.03152211755514145, 0.07899053394794464, -0.8886539936065674, 0.4507763385772705, -0.08423271775245667, 0.011960148811340332, -0.015626132488250732, -0.025996752083301544, -0.2801127621988503, -0.6159711705312879, 0.7356164363288248,0.03138559903966745,-0.8766937255859375,0.435150146484375,-0.1102294921875
20220224-0919,2022-02-24 09:19:22Z,u01, 233,40,movements,el-ex, rt, d,218394.18854829168, -1.4782386586549694, -0.46964198099514987, -0.34270920792959314, -0.03080376237630844, -0.07665983587503433, 0.0689692571759224, -0.8879132866859436, 0.45256707072257996, -0.08241867274045944, 0.005940139293670654, 0.0020990073680877686, -0.025155767798423767, -0.2811528061403036, -0.616233528727488, 0.7349783761347756,0.03187476040560655,-0.885528564453125,0.45819091796875,-0.1102752685546875
20220224-0919,2022-02-24 09:19:22Z,u01, 234,40,movements,el-ex, rt, d,218394.21349429167, -1.479769133419218, -0.4706117599662763, -0.342064771534468, 0.02732059173285961, -0.1003490537405014, 0.02919987589120865, -0.8876009583473206, 0.453431636095047, -0.08101972192525864, -0.015078425407409668, -0.005143702030181885, -0.03879230469465256, -0.2812597923383004, -0.616752031517428, 0.7344681782942692,0.032654040614339734,-0.902679443359375,0.4482879638671875,-0.11981201171875
20220224-0919,2022-02-24 09:19:22Z,u01, 235,40,movements,el-ex, rt, d,218394.23844129167, -1.482536785933497, -0.470903603530862, -0.34529463258386883, -0.41858774423599243, -0.11117526888847351, 0.04337461665272713, -0.8876900672912598, 0.4536917209625244, -0.07855118811130524, -0.00449138879776001, -0.022341012954711914, -0.022629857063293457, -0.2823107668797645, -0.6172722554951382, 0.7336582233679187,0.03195712503476955,-0.887176513671875,0.426727294921875,-0.096527099609375
20220224-0919,2022-02-24 09:19:22Z,u01, 236,40,movements,el-ex, rt, d,218394.26338829167, -1.4909261792741346, -0.47425093264344886, -0.3630981591028571, -0.8994072675704956, -0.12216087430715561, 0.12055934220552444, -0.8867989778518677, 0.45667219161987305, -0.0709797590970993, 0.016315579414367676, -0.06366682052612305, -6.514042615890503e-05, -0.28881310433118274, -0.6173306328162346, 0.731244649495617,0.027769644393903156,-0.8704833984375,0.39300537109375,-0.071044921875
20220224-0919,2022-02-24 09:19:22Z,u01, 237,40,movements,el-ex, rt, d,218394.288334, -1.5031895141813743, -0.47914335999250307, -0.38610668642040313, -0.6862135529518127, -0.0515056811273098, 0.11389791965484619, -0.8853630423545837, 0.4610191583633423, -0.05994793400168419, -0.016568779945373535, -0.023351311683654785, -0.007068634033203125, -0.29740027933143265, -0.6177208974086233, 0.7276346599077508,0.022843381829667418,-0.90740966796875,0.4482421875,-0.0719146728515625
20220224-0919,2022-02-24 09:19:22Z,u01, 238,40,movements,el-ex, rt, d,218394.313281, -1.509145581211317, -0.48104170063017626, -0.3964959217659381, -0.011428100988268852, -0.054399073123931885, 0.006850961595773697, -0.8848292231559753, 0.4627029001712799, -0.054619599133729935, 0.023836791515350342, 0.019276469945907593, -0.029090166091918945, -0.3011750773794343, -0.6180483581087803, 0.72586848993989,0.020609965557486627,-0.860992431640625,0.4819793701171875,-0.083709716796875
20220224-0919,2022-02-24 09:19:22Z,u01, 239,40,movements,el-ex, rt, d,218394.338228, -1.5068801738463709, -0.481285550361291, -0.3878063110892225, 0.5855809450149536, -0.051077842712402344, 0.04383428022265434, -0.8845906257629395, 0.46291905641555786, -0.05661674961447716, 0.016243457794189453, 0.014574229717254639, 0.005377769470214844, -0.2985945840485039, -0.6184924416075445, 0.7264679890671856,0.023508982727316247,-0.885040283203125,0.4823760986328125,-0.03900146484375
20220224-0919,2022-02-24 09:19:22Z,u01, 240,40,movements,el-ex, rt, d,218394.36317400003, -1.498038717795348, -0.4800294017550701, -0.3692292012887195, 0.6287238001823425, 0.057092905044555664, -0.08601073175668716, -0.884634792804718, 0.4618052542209625, -0.06447772681713104, -0.014947116374969482, 0.05186665058135986, 0.025155842304229736, -0.2925472877090403, -0.6182048368401135, 0.7289889435836905,0.02853243457224918,-0.8995819091796875,0.513671875,-0.0393218994140625
20220224-0919,2022-02-24 09:19:23Z,u01, 241,40,movements,el-ex, rt, d,218394.38812100003, -1.492624790796937, -0.47711203437260763, -0.3597065993614665, 0.027945302426815033, 0.024705134332180023, -0.06425697356462479, -0.885611891746521, 0.4592156410217285, -0.06937100738286972, 0.03740644454956055, -0.01683288812637329, 0.017491109669208527, -0.2887044478186495, -0.6180325554422775, 0.730596823390823,0.030226997976725234,-0.8487548828125,0.428558349609375,-0.0506744384765625
20220224-0919,2022-02-24 09:19:23Z,u01, 242,40,movements,el-ex, rt, d,218394.41306800002, -1.4943337517231072, -0.47658512012533555, -0.3653779540447505, -0.27445530891418457, 0.08648168295621872, -0.031220991164445877, -0.8859705924987793, 0.4587475061416626, -0.0678759217262268, -0.024368882179260254, -0.004798471927642822, 0.05014520138502121, -0.2902546223248543, -0.617911233400641, 0.7301654162501444,0.028223903112130723,-0.91033935546875,0.453948974609375,-0.017730712890625
20220224-0919,2022-02-24 09:19:23Z,u01, 243,40,movements,el-ex, rt, d,218394.438014, -1.4944577723610768, -0.47552763741131265, -0.37099372423657434, -0.07001271843910217, 0.09932871162891388, -0.061270568519830704, -0.8864622116088867, 0.45780760049819946, -0.06780300289392471, 0.002840876579284668, 0.029115676879882812, -0.003531821072101593, -0.29163203152461215, -0.6172918723783802, 0.7302290098901566,0.02583159585198066,-0.8695220947265625,0.482452392578125,-0.0889892578125
20220224-0919,2022-02-24 09:19:23Z,u01, 244,40,movements,el-ex, rt, d,218394.462961, -1.4930738892992361, -0.4740555581833507, -0.37080390248467293, 0.06129131093621254, 0.019994068890810013, -0.05664612352848053, -0.8870383501052856, 0.4564983546733856, -0.06908194720745087, 0.025832295417785645, -0.00433465838432312, -0.03655463457107544, -0.2910968440453154, -0.617026462663435, 0.7306887828186845,0.02519823919239115,-0.8612060546875,0.4521636962890625,-0.1056365966796875
20220224-0919,2022-02-24 09:19:23Z,u01, 245,40,movements,el-ex, rt, d,218394.487908, -1.4917239560081732, -0.4718851237175911, -0.36887743427587555, 0.12272287905216217, 0.03138900548219681, -0.11154791712760925, -0.8879298567771912, 0.45456621050834656, -0.07035741209983826, -0.003351271152496338, -0.007086962461471558, -0.02877890318632126, -0.28978967084800106, -0.61712497894102, 0.7311328935485673,0.024967936898642077,-0.88409423828125,0.4456329345703125,-0.1022186279296875
20220224-0919,2022-02-24 09:19:23Z,u01, 246,40,movements,el-ex, rt, d,218394.512855, -1.4897756345904878, -0.4685440067300335, -0.364895744562015, 0.16309677064418793, -0.028383582830429077, -0.11846448481082916, -0.8893000483512878, 0.4515876770019531, -0.07220977544784546, 0.060671448707580566, -0.021137237548828125, -0.05007416009902954, -0.28745942313616657, -0.6174643243231179, 0.7317647457574772,0.025007392151879346,-0.8286285400390625,0.430450439453125,-0.122283935546875
20220224-0919,2022-02-24 09:19:23Z,u01, 247,40,movements,el-ex, rt, d,218394.53780100003, -1.489187721502495, -0.46642068908960777, -0.3604267633046685, 0.1649402379989624, -0.09511248022317886, -0.04902994632720947, -0.8902110457420349, 0.4496921896934509, -0.0728105902671814, 0.04034227132797241, -0.020782887935638428, -0.017887592315673828, -0.2853695098153847, -0.6181900579630503, 0.7319411060101515,0.02583739526615998,-0.8710784912109375,0.43475341796875,-0.085906982421875
