SessionID,LoggingTime,UID,RecNo,Hertz,Activity,MoveType,Wrist,Side,TimeStamp,DMRoll,DMPitch,DMYaw,DMRotX,DMRotY,DMRotZ,DMGrvX,DMGrvY,DMGrvZ,DMUAccelX,DMUAccelY,DMUAccelZ,DMQuatX,DMQuatY,DMQuatW,DMQuatZ,AccelroX,AceelroY,AceelroZ
20220209-1444,2022-02-09 14:44:59Z,u01, 1,40,movements,el-ex, lt, d,17767.112242125, 1.0587740322474033, -0.48595057935181835, 0.2880489713870105, -0.08671828359365463, 1.028798222541809, -0.03470727428793907, 0.7708336114883423, 0.46704909205436707, -0.43322139978408813, 0.004053473472595215, 0.016013681888580322, -0.01068723201751709, -0.27586135612588353, 0.45529090229757213, 0.8465286856188224,0.0,0.799224853515625,0.486328125,-0.4437255859375
20220209-1444,2022-02-09 14:44:59Z,u01, 2,40,movements,el-ex, lt, d,17767.137188125, 1.0850707970563593, -0.48736080193017994, 0.28976156898283567, -0.05928199738264084, 0.9934607744216919, -0.020174670964479446, 0.7813748121261597, 0.4682956039905548, -0.41249561309814453, 0.09000885486602783, 0.03886079788208008, -0.04165166616439819, -0.2768040486297184, 0.46597393638543694, 0.8403791430945742,-0.0032779754762157776,0.8713836669921875,0.5071563720703125,-0.4541473388671875
20220209-1444,2022-02-09 14:44:59Z,u01, 3,40,movements,el-ex, lt, d,17767.162133125003, 1.1094375744958906, -0.4886579911049172, 0.29037396969074036, -0.022348016500473022, 0.38925909996032715, 0.35984763503074646, 0.7906484007835388, 0.46944135427474976, -0.3930646777153015, 0.09216409921646118, 0.032527029514312744, -0.05766460299491882, -0.27740680930408074, 0.4759339435797871, 0.834557880605848,-0.006741784858894151,0.707794189453125,0.51275634765625,-0.4304656982421875
20220209-1444,2022-02-09 14:44:59Z,u01, 4,40,movements,el-ex, lt, d,17767.187079125, 1.134421465957476, -0.49180346493629484, 0.29232201467232344, -0.18473823368549347, 0.9073793292045593, -0.05627681687474251, 0.7988787889480591, 0.4722163677215576, -0.3725646734237671, 0.06521117687225342, -0.004259824752807617, -0.025552362203598022, -0.2790177167626968, 0.4856611790087072, 0.8283580914931387,-0.010257368778281928,0.8640899658203125,0.46795654296875,-0.3981170654296875
20220209-1444,2022-02-09 14:44:59Z,u01, 5,40,movements,el-ex, lt, d,17767.212025125, 1.1591426678016608, -0.49572981140476424, 0.2975712751194716, -0.2229970246553421, 0.8786606788635254, -0.06922450661659241, 0.8061386346817017, 0.47567373514175415, -0.3519590497016907, 0.058546483516693115, 0.023548126220703125, -0.054947078227996826, -0.2817063218296435, 0.4946332184921816, 0.822082702492081,-0.012637593597034036,0.866302490234375,0.506744384765625,-0.405975341796875
20220209-1444,2022-02-09 14:44:59Z,u01, 6,40,movements,el-ex, lt, d,17767.236970125003, 1.1833270813032908, -0.4998101544505977, 0.30118069811175696, -0.12943331897258759, 0.9125258326530457, -0.12878917157649994, 0.8126100897789001, 0.4792589247226715, -0.3316258490085602, 0.042584002017974854, 0.04103526473045349, -0.06087586283683777, -0.2840235978655209, 0.5035053798034198, 0.815822080686021,-0.015723247762568116,0.855194091796875,0.520294189453125,-0.3925018310546875
20220209-1444,2022-02-09 14:44:59Z,u01, 7,40,movements,el-ex, lt, d,17767.261915125, 1.2061149489862453, -0.5037721920738809, 0.30162570004066375, -0.03346674516797066, 0.8778971433639526, -0.16312803328037262, 0.8181750774383545, 0.48273253440856934, -0.3123440444469452, 0.04922598600387573, 0.026102304458618164, -0.07136866450309753, -0.28546074154124, 0.5121915153935356, 0.8097995995353334,-0.019914954450905353,0.868377685546875,0.5119171142578125,-0.3785247802734375
20220209-1444,2022-02-09 14:44:59Z,u01, 8,40,movements,el-ex, lt, d,17767.286860125, 1.2271911712624022, -0.5079409750477153, 0.30164828790539183, -0.10941144824028015, 0.8136603832244873, -0.14851179718971252, 0.822674036026001, 0.4863792061805725, -0.29435139894485474, 0.06662344932556152, -0.001897364854812622, -0.0406704843044281, -0.2868269892708858, 0.5201486116268075, 0.8041104771889833,-0.024125832130529656,0.8892974853515625,0.4844818115234375,-0.33502197265625
20220209-1444,2022-02-09 14:44:59Z,u01, 9,40,movements,el-ex, lt, d,17767.311806125002, 1.2488171751213764, -0.5135577183963199, 0.3056499554167984, -0.27281421422958374, 0.7789852619171143, -0.17400383949279785, 0.8262422680854797, 0.49127912521362305, -0.27562397718429565, 0.07498759031295776, -0.002616375684738159, -0.06095430254936218, -0.28972257485482955, 0.5274929791516394, 0.7981650911333877,-0.02728589803226511,0.898223876953125,0.49554443359375,-0.328125
20220209-1444,2022-02-09 14:44:59Z,u01, 10,40,movements,el-ex, lt, d,17767.336751125, 1.2714251294713723, -0.5197848064233805, 0.3114586668709179, -0.24359558522701263, 0.7953888177871704, -0.18246915936470032, 0.8293226957321167, 0.49669337272644043, -0.255968302488327, 0.033729732036590576, -0.004337966442108154, -0.052060842514038086, -0.29327214168896554, 0.5347965050362705, 0.7918818507619829,-0.030123237762979593,0.8630523681640625,0.4923553466796875,-0.3080291748046875
20220209-1444,2022-02-09 14:44:59Z,u01, 11,40,movements,el-ex, lt, d,17767.361697125, 1.2930401282096604, -0.5252364754896396, 0.3155600205188436, -0.1399613618850708, 0.7508600950241089, -0.14252501726150513, 0.8320448398590088, 0.5014176368713379, -0.2372380793094635, 0.029207050800323486, -0.012556493282318115, -0.06546574831008911, -0.29605216960481756, 0.5419723926458657, 0.7858167654430089,-0.033333895239315625,0.8643341064453125,0.4894866943359375,-0.2980499267578125
20220209-1444,2022-02-09 14:45:00Z,u01, 12,40,movements,el-ex, lt, d,17767.386642125002, 1.3131849908778128, -0.5295382040271368, 0.31962965004911204, -0.2895316481590271, 0.6851645112037659, -0.11339529603719711, 0.834561288356781, 0.5051348209381104, -0.21987807750701904, 0.06727898120880127, -0.03516411781311035, -0.012299597263336182, -0.2983889973561033, 0.54865742367989, 0.7801536089006165,-0.03604830490772498,0.9018402099609375,0.469970703125,-0.232177734375
20220209-1444,2022-02-09 14:45:00Z,u01, 13,40,movements,el-ex, lt, d,17767.411588125, 1.3353214894466983, -0.5350700567677557, 0.3316312084989516, -0.5637434720993042, 0.6274014115333557, -0.1177210658788681, 0.8364937901496887, 0.5099012851715088, -0.2006964534521103, 0.0876549482345581, -0.031965434551239014, -0.04631277918815613, -0.30330276429776787, 0.5546703557374458, 0.7739647812532545,-0.0364270328787385,0.917022705078125,0.483001708984375,-0.248199462890625
20220209-1444,2022-02-09 14:45:00Z,u01, 14,40,movements,el-ex, lt, d,17767.436533125, 1.359107045498225, -0.5405258308943888, 0.3455766940686594, -0.37799695134162903, 0.7075818777084351, -0.1003464087843895, 0.8382980823516846, 0.5145869255065918, -0.18015789985656738, 0.019230663776397705, 0.0010228157043457031, -0.06083941459655762, -0.3087090722183337, 0.5609097625987444, 0.767302913246122,-0.03640531158708263,0.8575286865234375,0.5156097412109375,-0.240997314453125
20220209-1444,2022-02-09 14:45:00Z,u01, 15,40,movements,el-ex, lt, d,17767.461479125002, 1.3795891874837451, -0.5434714306627102, 0.34918330671477205, 0.10749460011720657, 0.7538699507713318, -0.0848814994096756, 0.8403202295303345, 0.5171103477478027, -0.16266238689422607, 0.009136617183685303, 0.02749115228652954, -0.11782461404800415, -0.3103795676752567, 0.5677440682353113, 0.7614459237304912,-0.03913369884803991,0.85791015625,0.5500335693359375,-0.2837982177734375
20220209-1444,2022-02-09 14:45:00Z,u01, 16,40,movements,el-ex, lt, d,17767.486425125, 1.3940554290766323, -0.5441708333703446, 0.3436733050483122, 0.11724845319986343, 0.59902423620224, -0.03146854043006897, 0.842228889465332, 0.5177088975906372, -0.15042586624622345, 0.0881451964378357, -0.023461461067199707, -0.13437937200069427, -0.3087521502335038, 0.5739853478611493, 0.7571684799150404,-0.04368933547061213,0.9303741455078125,0.4942474365234375,-0.2848052978515625
20220209-1444,2022-02-09 14:45:00Z,u01, 17,40,movements,el-ex, lt, d,17767.511370125, 1.408431965560892, -0.5459706812866317, 0.34654856174125664, -0.27380701899528503, 0.4631868600845337, -0.08572904765605927, 0.8433836698532104, 0.5192478895187378, -0.13815158605575562, 0.07472246885299683, -0.06598556041717529, -0.17732387781143188, -0.3098863646013109, 0.5787008307155669, 0.753003252155404,-0.04540949202434791,0.908203125,0.4627685546875,-0.324371337890625
20220209-1444,2022-02-09 14:45:00Z,u01, 18,40,movements,el-ex, lt, d,17767.536316125002, 1.422609615314815, -0.5487142217193538, 0.3525350965458421, -0.07478243112564087, 0.40782833099365234, -0.04147736355662346, 0.8438452482223511, 0.5215906500816345, -0.12597008049488068, 0.027874112129211426, -0.0042414069175720215, -0.26228970289230347, -0.312245958512231, 0.5826812347205499, 0.74889584365453,-0.0462613478782721,0.8717193603515625,0.5173492431640625,-0.3882598876953125
20220209-1444,2022-02-09 14:45:00Z,u01, 19,40,movements,el-ex, lt, d,17767.561261125, 1.4311070841560636, -0.5488462231491099, 0.35140542180929235, 0.09801934659481049, 0.2992936670780182, 0.026585377752780914, 0.8448169827461243, 0.5217032432556152, -0.11878547817468643, 0.05255240201950073, -0.013082027435302734, -0.2781718373298645, -0.31176078854509315, 0.5860140540222392, 0.7463804122951356,-0.048052573158981204,0.9136505126953125,0.498046875,-0.4001922607421875
20220209-1444,2022-02-09 14:45:00Z,u01, 20,40,movements,el-ex, lt, d,17767.586207125, 1.4351534896876823, -0.5477030930699701, 0.34950629010303635, 0.02579561062157154, 0.10478012263774872, 0.03449762985110283, 0.8458811640739441, 0.5207276940345764, -0.11544662714004517, 0.10805261135101318, -0.03439950942993164, -0.29316842555999756, -0.31071435339173137, 0.587990883076448, 0.7451986443411034,-0.04901424000597204,0.9539337158203125,0.486328125,-0.4086151123046875
20220209-1444,2022-02-09 14:45:00Z,u01, 21,40,movements,el-ex, lt, d,17767.611152125002, 1.4362789127763103, -0.5466980692638885, 0.35019986510669626, -0.038349319249391556, -0.020391715690493584, 0.048678360879421234, 0.8465287089347839, 0.5198693871498108, -0.11456470191478729, 0.07566672563552856, -0.02977234125137329, -0.32148563861846924, -0.31054756630387176, 0.5884537866389181, 0.7449298643410485,-0.048599478994648754,0.9190826416015625,0.4891204833984375,-0.4468841552734375
20220209-1444,2022-02-09 14:45:00Z,u01, 22,40,movements,el-ex, lt, d,17767.636098125, 1.433778432753822, -0.545263130689615, 0.3501268325972459, 0.06672680377960205, -0.17962683737277985, 0.05691052973270416, 0.8469776511192322, 0.5186430811882019, -0.11678283661603928, 0.08971363306045532, -0.011563003063201904, -0.3617480397224426, -0.31009589730267667, 0.5877491962610163, 0.7457277220273206,-0.047766010514948554,0.9366912841796875,0.507080078125,-0.4785308837890625
20220209-1444,2022-02-09 14:45:00Z,u01, 23,40,movements,el-ex, lt, d,17767.661043125, 1.425343683470079, -0.5427344278069954, 0.3469866292772468, 0.1277123987674713, -0.33954089879989624, 0.08877392113208771, 0.8472573161125183, 0.5164794325828552, -0.1241123154759407, 0.10318201780319214, -0.016601502895355225, -0.3628108501434326, -0.3085070512842057, 0.5854632707932129, 0.7482415871036979,-0.046803788077832476,0.9497222900390625,0.4965057373046875,-0.4808502197265625
20220209-1444,2022-02-09 14:45:00Z,u01, 24,40,movements,el-ex, lt, d,17767.685989125002, 1.4127463299523544, -0.5399888813208423, 0.34321847740876643, 0.1826610267162323, -0.502321183681488, 0.06846018880605698, 0.8470239639282227, 0.5141264796257019, -0.13499808311462402, 0.10704708099365234, -0.018459975719451904, -0.3722345232963562, -0.3067502035509011, 0.5817261132199263, 0.7519571122460855,-0.04538257725389733,0.954071044921875,0.49566650390625,-0.507232666015625
20220209-1444,2022-02-09 14:45:00Z,u01, 25,40,movements,el-ex, lt, d,17767.710934125, 1.3947765941947465, -0.5368188298788991, 0.3355607128407391, 0.40004223585128784, -0.6210281252861023, 0.098513163626194, 0.8460619449615479, 0.5114048719406128, -0.15048092603683472, 0.11699658632278442, -0.005728542804718018, -0.400010347366333, -0.3038323665696091, 0.5765808082863529, 0.7571394802327229,-0.04450192982269119,0.9701080322265625,0.5051422119140625,-0.564300537109375
20220209-1444,2022-02-09 14:45:00Z,u01, 26,40,movements,el-ex, lt, d,17767.735880125, 1.3705736192992644, -0.5315610854541817, 0.32184191974180015, 0.596603512763977, -0.7591660022735596, 0.1327231377363205, 0.844795823097229, 0.5068796277046204, -0.17144447565078735, 0.17067664861679077, 0.007189035415649414, -0.42999589443206787, -0.2985821910589578, 0.5701985964343115, 0.7640364454909422,-0.04439180372028689,1.015472412109375,0.514068603515625,-0.6014404296875
20220209-1444,2022-02-09 14:45:00Z,u01, 27,40,movements,el-ex, lt, d,17767.760826125002, 1.3416476788282994, -0.5247176929281769, 0.3047803907423366, 0.6547515392303467, -0.8580226898193359, 0.1313123255968094, 0.8428423404693604, 0.5009686946868896, -0.19658920168876648, 0.21808606386184692, 0.0064623355865478516, -0.41292303800582886, -0.29193961484496206, 0.5625625867451193, 0.7722128805932508,-0.04451916723491345,1.0751495361328125,0.50579833984375,-0.6114654541015625
20220209-1444,2022-02-09 14:45:00Z,u01, 28,40,movements,el-ex, lt, d,17767.785771125, 1.309403647882026, -0.5178363415103392, 0.2863286455647108, 0.7348477244377136, -0.9889839291572571, 0.0955025926232338, 0.8393769264221191, 0.49500131607055664, -0.22454451024532318, 0.30921316146850586, 0.008080989122390747, -0.4158821105957031, -0.2849993423032366, 0.5536272362832526, 0.7811885878502776,-0.04490823532397464,1.148590087890625,0.503082275390625,-0.6404266357421875
20220209-1444,2022-02-09 14:45:00Z,u01, 29,40,movements,el-ex, lt, d,17767.810717125, 1.2710533622929239, -0.5092672055654657, 0.2639300482977946, 0.9531116485595703, -1.2092136144638062, 0.14734195172786713, 0.8341726064682007, 0.48753756284713745, -0.25780490040779114, 0.3316294550895691, 0.008937686681747437, -0.420921266078949, -0.27653786198590247, 0.5427931037239206, 0.7917133204975264,-0.04574501342832171,1.153717041015625,0.495025634765625,-0.6748504638671875
20220209-1444,2022-02-09 14:45:00Z,u01, 30,40,movements,el-ex, lt, d,17767.835662125002, 1.2262409999235473, -0.4959818248433721, 0.23719910601824448, 1.1563681364059448, -1.3169103860855103, 0.22987417876720428, 0.8278098702430725, 0.47589540481567383, -0.297076553106308, 0.2126259207725525, -0.0018963217735290527, -0.40661293268203735, -0.26534030797837316, 0.5301473737782396, 0.8039787038960164,-0.046439429815329614,1.040435791015625,0.4739990234375,-0.7036895751953125
20220209-1444,2022-02-09 14:45:00Z,u01, 31,40,movements,el-ex, lt, d,17767.860608125, 1.1786520576241453, -0.4787213953135851, 0.20758092819672025, 1.265017032623291, -1.4149397611618042, 0.32199424505233765, 0.8202095627784729, 0.4606446921825409, -0.3392089307308197, 0.20443332195281982, 0.025073111057281494, -0.3918701112270355, -0.25197058260075567, 0.5166298157862363, 0.8169202805834895,-0.04738879072604257,1.0416107177734375,0.48468017578125,-0.734039306640625
20220209-1444,2022-02-09 14:45:00Z,u01, 32,40,movements,el-ex, lt, d,17767.885553125, 1.1274323355527451, -0.45830180816324667, 0.18129857430670945, 1.088582158088684, -1.7581051588058472, 0.4131316840648651, 0.8100963234901428, 0.44242578744888306, -0.38471201062202454, 0.3144001364707947, 0.030322015285491943, -0.3583299219608307, -0.23832254381061685, 0.5008456491053933, 0.8307869656234038,-0.046356869205263274,1.1244964599609375,0.472747802734375,-0.7430419921875
20220209-1444,2022-02-09 14:45:00Z,u01, 33,40,movements,el-ex, lt, d,17767.910499125002, 1.071943652766224, -0.4378610866233544, 0.16297627117606478, 0.8567666411399841, -2.0354931354522705, 0.4382186532020569, 0.7952896356582642, 0.4240033030509949, -0.4332846701145172, 0.30424344539642334, 0.0654987096786499, -0.3127174973487854, -0.22668665970848367, 0.48163349355766294, 0.8454933089550097,-0.04223045043515178,1.092071533203125,0.49639892578125,-0.757354736328125
20220209-1444,2022-02-09 14:45:00Z,u01, 34,40,movements,el-ex, lt, d,17767.935444125, 1.0140949585234063, -0.41788709427717063, 0.14989754487705767, 0.7997249960899353, -2.1625659465789795, 0.4554569125175476, 0.7759446501731873, 0.4058302640914917, -0.4829198718070984, 0.30486583709716797, 0.1405869424343109, -0.29277586936950684, -0.21638962087293342, 0.46012563669565776, 0.8603105329042661,-0.03640933115073308,1.080810546875,0.546417236328125,-0.77569580078125
20220209-1444,2022-02-09 14:45:00Z,u01, 35,40,movements,el-ex, lt, d,17767.960390125, 0.9534827690039713, -0.3964389693605891, 0.13783365607954803, 0.8970474004745483, -2.344276189804077, 0.4910949170589447, 0.7521927952766418, 0.3861359655857086, -0.5339524149894714, 0.39322352409362793, 0.20263969898223877, -0.2512190341949463, -0.20553182194957514, 0.4367842273596811, 0.8752521946374164,-0.03016546342421772,1.1601715087890625,0.58837890625,-0.7841033935546875
20220209-1444,2022-02-09 14:45:00Z,u01, 36,40,movements,el-ex, lt, d,17767.985335125002, 0.8880837012776689, -0.37398869747777386, 0.12633081262241047, 0.8116419315338135, -2.5455806255340576, 0.3907279968261719, 0.7222345471382141, 0.3653313219547272, -0.5872905850410461, 0.4447576403617859, 0.22368848323822021, -0.2236528992652893, -0.19418762542159537, 0.41066514337206694, 0.8905524854469052,-0.023696645103271408,1.1669921875,0.589019775390625,-0.810943603515625
20220209-1444,2022-02-09 14:45:00Z,u01, 37,40,movements,el-ex, lt, d,17768.010281125, 0.8190177981467375, -0.35764936723143276, 0.11853833802126257, 0.4001142382621765, -2.7548272609710693, 0.18863579630851746, 0.6842526197433472, 0.35007330775260925, -0.6397241950035095, 0.4734012484550476, 0.23580318689346313, -0.1628117561340332, -0.18608807112152048, 0.381456574628089, 0.9052985191659749,-0.01722712721613956,1.154449462890625,0.5869140625,-0.7950592041015625
20220209-1444,2022-02-09 14:45:00Z,u01, 38,40,movements,el-ex, lt, d,17768.035227125, 0.7468742196306007, -0.3557238387674291, 0.11994185162725376, -0.3452512323856354, -3.137831211090088, 0.008382538333535194, 0.6368175148963928, 0.348268985748291, -0.6878751516342163, 0.5461506843566895, 0.20828011631965637, -0.1315675973892212, -0.1859559830294784, 0.3485438212982759, 0.9186116122317581,-0.009505731907964832,1.1829681396484375,0.556549072265625,-0.8194427490234375
20220209-1444,2022-02-09 14:45:00Z,u01, 39,40,movements,el-ex, lt, d,17768.060172125002, 0.667487605402927, -0.3686416886989998, 0.12649320564819008, -0.6242508292198181, -3.351735830307007, -0.2746639549732208, 0.5774279236793518, 0.3603487014770508, -0.7326157689094543, 0.5197858214378357, 0.2396269142627716, -0.060749709606170654, -0.19317378179370676, 0.3104448596093253, 0.9307558720549235,-0.001213491714023518,1.0836181640625,0.602020263671875,-0.802764892578125
20220209-1444,2022-02-09 14:45:00Z,u01, 40,40,movements,el-ex, lt, d,17768.085118125, 0.5825241172979149, -0.38472053489438535, 0.12541145411656937, -0.30805471539497375, -3.4568498134613037, -0.5202295780181885, 0.509920597076416, 0.3753001093864441, -0.7740353941917419, 0.5223212242126465, 0.2740529477596283, -0.04653644561767578, -0.20042729023631653, 0.2698354867967943, 0.9418071862656802,0.004127719262959129,1.0322418212890625,0.64935302734375,-0.8205718994140625
20220209-1444,2022-02-09 14:45:00Z,u01, 41,40,movements,el-ex, lt, d,17768.110063125, 0.4906170058829089, -0.39505753851816183, 0.11284419452712931, 0.06521248817443848, -3.506551742553711, -0.7104573249816895, 0.43487805128097534, 0.3848612904548645, -0.8141024708747864, 0.5053685903549194, 0.2559010684490204, 0.03140294551849365, -0.20349751179753914, 0.2270187530673377, 0.9523731377552332,0.006056397564181026,0.9218902587890625,0.629913330078125,-0.7879180908203125
20220209-1444,2022-02-09 14:45:00Z,u01, 42,40,movements,el-ex, lt, d,17768.135009125002, 0.3941032536964474, -0.4004874907212066, 0.09067028972223957, 0.19952872395515442, -3.551339626312256, -0.9381996989250183, 0.35359638929367065, 0.38986730575561523, -0.8502782583236694, 0.45766764879226685, 0.20942166447639465, 0.1565527319908142, -0.20355386166486156, 0.1828297016335209, 0.9618303130951377,0.004652538048952992,0.8112640380859375,0.5992889404296875,-0.6937255859375
20220209-1444,2022-02-09 14:45:00Z,u01, 43,40,movements,el-ex, lt, d,17768.159954125, 0.2949804567868322, -0.40262102814953565, 0.06205313381142655, 0.3630388081073761, -3.4615657329559326, -1.0960171222686768, 0.2674742639064789, 0.3918311297893524, -0.8802987337112427, 0.4086427092552185, 0.15228205919265747, 0.2801400423049927, -0.20215421996508104, 0.13778352248479875, 0.9696127364853041,0.0006948729939695308,0.6489715576171875,0.53326416015625,-0.589874267578125
20220209-1444,2022-02-09 14:45:00Z,u01, 44,40,movements,el-ex, lt, d,17768.184900125, 0.19882630801559914, -0.3969647156259945, 0.02952193693085384, 0.6699685454368591, -3.2366089820861816, -1.0986194610595703, 0.18215958774089813, 0.3866208791732788, -0.9040697813034058, 0.38195785880088806, 0.11220425367355347, 0.41591066122055054, -0.19762295609763186, 0.09439419189565565, 0.9757091445686772,-0.0051688552662390586,0.564117431640625,0.4988250732421875,-0.4881591796875
20220209-1444,2022-02-09 14:45:00Z,u01, 45,40,movements,el-ex, lt, d,17768.209845125002, 0.10732493732029227, -0.37972915506392235, -0.0012396233285805378, 1.0218349695205688, -3.1683504581451416, -0.9434130191802979, 0.09948839992284775, 0.3706689178943634, -0.9234211444854736, 0.40763747692108154, 0.0755743682384491, 0.5039417743682861, -0.18842154018755783, 0.05278964645746713, 0.9806098071986912,-0.010730430895239729,0.476409912109375,0.4317474365234375,-0.3896636962890625
20220209-1444,2022-02-09 14:45:00Z,u01, 46,40,movements,el-ex, lt, d,17768.234791125, 0.02151935637059084, -0.3517103620258581, -0.026600209819120476, 1.3355669975280762, -2.8959248065948486, -0.8072378635406494, 0.020200487226247787, 0.3445039689540863, -0.9385675191879272, 0.22012543678283691, -0.027456820011138916, 0.7657769918441772, -0.17478369770588773, 0.01291924550650167, 0.9844082106735321,-0.014976041560204267,0.240325927734375,0.317047119140625,-0.17279052734375
20220209-1444,2022-02-09 14:45:00Z,u01, 47,40,movements,el-ex, lt, d,17768.259737375, -0.052154465766081674, -0.3143782266893047, -0.043255059986797684, 1.556140661239624, -2.5606284141540527, -0.47616448998451233, -0.04957583174109459, 0.3092252314090729, -0.9496957063674927, 0.1718139946460724, -0.06046116352081299, 0.9650918841362, -0.15700970435011613, -0.022362575826671553, 0.9871927631529192,-0.017271181076690678,0.100372314453125,0.2268218994140625,0.0581512451171875
20220209-1444,2022-02-09 14:45:00Z,u01, 48,40,movements,el-ex, lt, d,17768.284683375, -0.11070376322858527, -0.2836181828886085, -0.0495456783620309, 0.6734656095504761, -1.97219979763031, -0.2414223700761795, -0.10606411099433899, 0.2798311114311218, -0.9541723728179932, 0.07803370803594589, -0.21981826424598694, 1.2055151462554932, -0.14243114160438616, -0.05125594087810536, 0.9883362150089553,-0.016667378992218762,-0.0280303955078125,0.0600128173828125,0.2513427734375
20220209-1444,2022-02-09 14:45:00Z,u01, 49,40,movements,el-ex, lt, d,17768.309629375002, -0.15453254578672448, -0.2805635359733336, -0.05414016239140841, -0.3233110308647156, -1.4263359308242798, -0.19153077900409698, -0.14789995551109314, 0.2768971920013428, -0.9494490623474121, 0.031200751662254333, -0.2774007320404053, 1.234910488128662, -0.1414226258632601, -0.07262991127365742, 0.9871528168502701,-0.015932093046697238,-0.1426239013671875,0.02569580078125,0.291259765625
20220209-1444,2022-02-09 14:45:00Z,u01, 50,40,movements,el-ex, lt, d,17768.334574375, -0.18221818555908978, -0.28684179005305854, -0.059435270539932694, -0.0945214107632637, -0.6517569422721863, -0.039985790848731995, -0.17380757629871368, 0.28292447328567505, -0.9432628154754639, -0.02029949426651001, -0.11490991711616516, 1.1581065654754639, -0.14494969757023698, -0.08577990086965837, 0.9855791371163644,-0.016287772381941124,-0.1941070556640625,0.1680145263671875,0.21484375
20220209-1444,2022-02-09 14:45:00Z,u01, 51,40,movements,el-ex, lt, d,17768.359520375, -0.1898722950222311, -0.28546290012980485, -0.05657888503499717, 0.10807840526103973, -0.07160603255033493, 0.19497206807136536, -0.18109570443630219, 0.2816016376018524, -0.942287027835846, -0.0005144029855728149, -0.13311836123466492, 1.1090961694717407, -0.14420413956833777, -0.08978667379668256, 0.9853610589355287,-0.014393219874971053,-0.1819305419921875,0.1357421875,0.166229248046875
20220209-1444,2022-02-09 14:45:01Z,u01, 52,40,movements,el-ex, lt, d,17768.384465375002, -0.18454253869468695, -0.28949717570955646, -0.05161052661228365, -0.393417090177536, 0.40090152621269226, 0.23033398389816284, -0.17586110532283783, 0.2854703664779663, -0.9421144127845764, -0.031460076570510864, -0.17955905199050903, 1.0510621070861816, -0.14593479695516925, -0.087440447527473, 0.9853476339364946,-0.012137707194956826,-0.2073211669921875,0.1059112548828125,0.10894775390625
20220209-1444,2022-02-09 14:45:01Z,u01, 53,40,movements,el-ex, lt, d,17768.409411375, -0.16709305130294494, -0.3052886375870862, -0.04773968178717524, -0.6966509222984314, 0.8771782517433167, 0.29119113087654114, -0.15862615406513214, 0.30056849122047424, -0.940476655960083, -0.021381795406341553, -0.13093650341033936, 0.9206554889678955, -0.1534472853109353, -0.07883909896997854, 0.9849473248881874,-0.01082272374810933,-0.16162109375,0.193389892578125,-0.0682220458984375
20220209-1444,2022-02-09 14:45:01Z,u01, 54,40,movements,el-ex, lt, d,17768.434356375, -0.13872474804573054, -0.32219207386467064, -0.04156380191887447, -0.5501139163970947, 1.2035964727401733, 0.3846260607242584, -0.1311648190021515, 0.31664660573005676, -0.9394310712814331, 0.05931118130683899, -0.040523529052734375, 0.7141503095626831, -0.16140145580166226, -0.0650694470754135, 0.9846970798758197,-0.009347605982541363,-0.0718536376953125,0.276123046875,-0.22528076171875
20220209-1444,2022-02-09 14:45:01Z,u01, 55,40,movements,el-ex, lt, d,17768.459302375002, -0.10145042810608781, -0.33606636437914034, -0.03334780165036994, -0.5515230298042297, 1.5918002128601074, 0.36118218302726746, -0.09561100602149963, 0.3297760784626007, -0.9392051100730896, 0.002334021031856537, -0.05655217170715332, 0.6037712097167969, -0.1678387020996299, -0.047197501232385156, 0.9846519882141483,-0.007938504734279761,-0.093994140625,0.2744598388671875,-0.3692779541015625
20220209-1444,2022-02-09 14:45:01Z,u01, 56,40,movements,el-ex, lt, d,17768.484247375, -0.053881604645252, -0.3497699175938161, -0.024826086228066275, -0.4576203525066376, 1.9803394079208374, 0.3847980499267578, -0.050594668835401535, 0.3426816761493683, -0.9380881786346436, 0.03799090161919594, -0.009170293807983398, 0.41414719820022583, -0.17424756647273776, -0.024365641616527718, 0.9843716379456405,-0.007532319326179315,-0.012603759765625,0.3335113525390625,-0.5239410400390625
20220209-1444,2022-02-09 14:45:01Z,u01, 57,40,movements,el-ex, lt, d,17768.509193375, 2.2946976567772612e-05, -0.35644983072640596, -0.012898179432682148, -0.04615664482116699, 1.9842883348464966, 0.5373412370681763, 2.1504565665964037e-05, 0.3489494323730469, -0.9371415972709656, 0.12511581182479858, 0.0297890305519104, 0.20824450254440308, -0.1772791086542847, 0.0011545964716418791, 0.9841395579160152,-0.00634892507584095,0.1484832763671875,0.3876800537109375,-0.759765625
20220209-1444,2022-02-09 14:45:01Z,u01, 58,40,movements,el-ex, lt, d,17768.534138375002, 0.053957114983552885, -0.35586400224363757, 0.002523031668884967, -0.06592715531587601, 1.8815350532531738, 0.5956820845603943, 0.05055193975567818, 0.348400354385376, -0.9359816908836365, 0.16810651123523712, 0.015918493270874023, 0.14679712057113647, -0.17696353899086253, 0.02632617170107162, 0.983858957649508,-0.0035333287739564567,0.218658447265625,0.36431884765625,-0.7891845703125
20220209-1444,2022-02-09 14:45:01Z,u01, 59,40,movements,el-ex, lt, d,17768.559084375, 0.10454203276048539, -0.3640452264292322, 0.01838164241521021, -0.6643626689910889, 1.745084285736084, 0.532100260257721, 0.09751293808221817, 0.3560572564601898, -0.929362416267395, 0.15189197659492493, 0.0014409422874450684, 0.08790123462677002, -0.18123651209593314, 0.04972047872449469, 0.9821818148547261,-0.0004308335491773896,0.2551727294921875,0.3622589111328125,-0.8601531982421875
20220209-1444,2022-02-09 14:45:01Z,u01, 60,40,movements,el-ex, lt, d,17768.584030375, 0.1536899029456847, -0.3786681753086067, 0.03375996850416332, -0.49512311816215515, 1.7985074520111084, 0.4676567018032074, 0.14224065840244293, 0.36968332529067993, -0.918205738067627, 0.09100519120693207, 0.09110158681869507, -0.01621192693710327, -0.18889543297800823, 0.07221935030990588, 0.9793357182635947,0.002082314072188729,0.233245849609375,0.460784912109375,-0.934417724609375
20220209-1444,2022-02-09 14:45:01Z,u01, 61,40,movements,el-ex, lt, d,17768.608975375002, 0.2060494450970933, -0.38124143647446374, 0.047239891275172655, 0.10733111202716827, 1.9732550382614136, 0.49949201941490173, 0.1899053305387497, 0.37207305431365967, -0.9085689783096313, 0.0913446694612503, 0.14053073525428772, -0.013077080249786377, -0.19079612739577384, 0.09650050540654395, 0.9768682509030309,0.003587012576465154,0.314483642578125,0.503814697265625,-0.914703369140625
20220209-1444,2022-02-09 14:45:01Z,u01, 62,40,movements,el-ex, lt, d,17768.633921375, 0.25823018278952087, -0.3752418043818712, 0.05916992186271414, -0.042121052742004395, 1.8101176023483276, 0.4668057858943939, 0.23760093748569489, 0.3664975166320801, -0.899569571018219, 0.1852964162826538, 0.04892304539680481, 0.027789175510406494, -0.18863042731857188, 0.12097019484667587, 0.9745571502167227,0.004814178354587473,0.4228973388671875,0.4154205322265625,-0.8717803955078125
20220209-1444,2022-02-09 14:45:01Z,u01, 63,40,movements,el-ex, lt, d,17768.658866375, 0.3070151043900604, -0.38020989469854266, 0.07238205776461029, -0.5393241047859192, 1.770655870437622, 0.3573404550552368, 0.28063255548477173, 0.37111538648605347, -0.8851659297943115, 0.09627485275268555, 0.02782571315765381, 0.0013006329536437988, -0.19205054837161556, 0.14329552885978925, 0.9708471269143225,0.006239075312911124,0.3578338623046875,0.4133148193359375,-0.8829498291015625
20220209-1444,2022-02-09 14:45:01Z,u01, 64,40,movements,el-ex, lt, d,17768.683812375002, 0.35800287536651587, -0.3876559998694949, 0.0855590883722816, -0.21637706458568573, 1.9138380289077759, 0.3930507302284241, 0.3244036138057709, 0.37801939249038696, -0.867100715637207, 0.07330146431922913, 0.1270465850830078, -0.11207103729248047, -0.19683742434302226, 0.1664471924326801, 0.9661785493215855,0.007031685134866517,0.397705078125,0.50506591796875,-0.9791717529296875
20220209-1444,2022-02-09 14:45:01Z,u01, 65,40,movements,el-ex, lt, d,17768.708757375, 0.40875797272019854, -0.3827079095055778, 0.09488368872678923, 0.2332136183977127, 1.7954356670379639, 0.4115718901157379, 0.36871570348739624, 0.3734338581562042, -0.8512319922447205, 0.16225966811180115, 0.14708924293518066, -0.13408905267715454, -0.19546988072222699, 0.19019865012361117, 0.962063716872835,0.00703242049880215,0.5567779541015625,0.504791259765625,-0.97027587890625
20220209-1444,2022-02-09 14:45:01Z,u01, 66,40,movements,el-ex, lt, d,17768.733703375, 0.452695670906916, -0.3785145969352361, 0.10352281748917477, -0.3902406394481659, 1.4967501163482666, 0.2784428298473358, 0.40643033385276794, 0.36954063177108765, -0.8356160521507263, 0.12327852845191956, 0.02550947666168213, 0.0017232298851013184, -0.1944890261643846, 0.2106323886585161, 0.9579948140453689,0.007354845822256095,0.5297088623046875,0.395050048828125,-0.833892822265625
20220209-1444,2022-02-09 14:45:01Z,u01, 67,40,movements,el-ex, lt, d,17768.758648375002, 0.4964661863929737, -0.3904667561827428, 0.11684945764099527, -0.636715292930603, 1.654477596282959, 0.1740424782037735, 0.440469354391098, 0.3806200921535492, -0.8130898475646973, 0.038504064083099365, 0.04551216959953308, -0.06763213872909546, -0.20180203013015507, 0.22963232417828905, 0.9520934475321444,0.007944657767137264,0.483245849609375,0.4686431884765625,-0.8861846923828125
20220209-1444,2022-02-09 14:45:01Z,u01, 68,40,movements,el-ex, lt, d,17768.783594375, 0.5429083622080731, -0.39294978325949836, 0.12426325997234969, 0.1711875945329666, 1.7561815977096558, 0.17867565155029297, 0.4772527813911438, 0.38291504979133606, -0.7909525632858276, 0.11852666735649109, 0.18594789505004883, -0.12256062030792236, -0.2040305341457218, 0.25078929221716173, 0.946274372164108,0.0064251005221333535,0.5957794189453125,0.5688629150390625,-0.91351318359375
20220209-1444,2022-02-09 14:45:01Z,u01, 69,40,movements,el-ex, lt, d,17768.808540375, 0.5830905456137583, -0.38787673397219574, 0.12506737436541593, -0.1067417562007904, 1.4300442934036255, 0.07416494190692902, 0.5097042322158813, 0.378223717212677, -0.7727537751197815, 0.12319988012313843, 0.0649372935295105, -0.04273688793182373, -0.2018570446198287, 0.2699570942142453, 0.941469625896248,0.0034465124010132353,0.62689208984375,0.412567138671875,-0.7968597412109375
20220209-1444,2022-02-09 14:45:01Z,u01, 70,40,movements,el-ex, lt, d,17768.833485375002, 0.6211606934943897, -0.39898811611718216, 0.13365795478280001, -0.9319437146186829, 1.3796387910842896, -0.015129845589399338, 0.5362676382064819, 0.3884861469268799, -0.7493301033973694, 0.11079657077789307, -0.00018045306205749512, 0.00755465030670166, -0.20827463119229694, 0.28628068653833555, 0.9352333909609702,0.001894369555678177,0.647064208984375,0.3883056640625,-0.7417755126953125
20220209-1444,2022-02-09 14:45:01Z,u01, 71,40,movements,el-ex, lt, d,17768.858431375, 0.6610247412068361, -0.4176471857402694, 0.14895682680648384, -0.789695143699646, 1.3512221574783325, 0.017241276800632477, 0.5611565709114075, 0.4056110084056854, -0.7215144038200378, 0.1097419261932373, 0.07000550627708435, -0.04331707954406738, -0.21916858887020485, 0.3020064868386199, 0.9277683602952247,0.0017621590245863739,0.6552276611328125,0.4957733154296875,-0.747650146484375
20220209-1444,2022-02-09 14:45:01Z,u01, 72,40,movements,el-ex, lt, d,17768.883376375, 0.7001703084137364, -0.4295768213195918, 0.1597947958953184, -0.5032543540000916, 1.4755514860153198, -0.01647074706852436, 0.5858038663864136, 0.41648611426353455, -0.6952505111694336, -0.0266759991645813, 0.07834118604660034, 0.0927572250366211, -0.22631849998744863, 0.31804824690246075, 0.9206656606549596,0.00037923873745754344,0.5591278076171875,0.4948272705078125,-0.6024932861328125
20220209-1444,2022-02-09 14:45:01Z,u01, 73,40,movements,el-ex, lt, d,17768.908322375002, 0.7447904598141144, -0.43928582008751, 0.16740279889483556, -0.4231909513473511, 1.8073182106018066, -0.04949627444148064, 0.6134628057479858, 0.4252932071685791, -0.6654239892959595, 0.06230318546295166, 0.0705564022064209, 0.08349961042404175, -0.2319249245343898, 0.336895873627024, 0.9125256211229672,-0.002995479553396796,0.733428955078125,0.5099029541015625,-0.588348388671875
20220209-1444,2022-02-09 14:45:01Z,u01, 74,40,movements,el-ex, lt, d,17768.933267375, 0.7925002871163456, -0.4464516213988477, 0.1741367812649013, -0.3989924490451813, 1.733938455581665, -0.046648092567920685, 0.6423132419586182, 0.43176767230033875, -0.6332538723945618, 0.22965025901794434, 0.08606988191604614, 0.06930428743362427, -0.23617938885760342, 0.3572007310008568, 0.9036479499176271,-0.006889171453234699,0.8719635009765625,0.5178375244140625,-0.5639495849609375
20220209-1444,2022-02-09 14:45:01Z,u01, 75,40,movements,el-ex, lt, d,17768.958213375, 0.8374841901489793, -0.4577174457053898, 0.18348466402641178, -0.7039353251457214, 1.5748807191848755, -0.14632941782474518, 0.6664836406707764, 0.44190165400505066, -0.6004351377487183, 0.13304638862609863, 0.028221607208251953, 0.05430787801742554, -0.2426734591362743, 0.37535585689972867, 0.8944889519055914,-0.010342462212642567,0.7712249755859375,0.463775634765625,-0.5457305908203125
20220209-1444,2022-02-09 14:45:01Z,u01, 76,40,movements,el-ex, lt, d,17768.983158375002, 0.8848075497559644, -0.4721049831176311, 0.19518349831338477, -0.5380925536155701, 1.8249962329864502, -0.1217905730009079, 0.6891502141952515, 0.4547620117664337, -0.5641485452651978, 0.08895647525787354, 0.05724668502807617, -0.021254897117614746, -0.2509025221384458, 0.39366694275174036, 0.8842383697231639,-0.014030569193519915,0.778106689453125,0.5120086669921875,-0.5854034423828125
20220209-1444,2022-02-09 14:45:01Z,u01, 77,40,movements,el-ex, lt, d,17769.008104375, 0.9315425945266523, -0.4769033388181152, 0.19819793171886899, 0.11313986778259277, 1.7721549272537231, -0.07205431163311005, 0.7129942178726196, 0.45903024077415466, -0.5300288796424866, 0.19131791591644287, 0.10494989156723022, -0.11277812719345093, -0.2531785066389448, 0.4133838620831468, 0.8744300482441182,-0.019662663515718437,0.91082763671875,0.5634002685546875,-0.623748779296875
20220209-1444,2022-02-09 14:45:01Z,u01, 78,40,movements,el-ex, lt, d,17769.033049375, 0.9708047414837173, -0.4767697970156606, 0.19190830428491382, 0.09491156041622162, 1.5970441102981567, -0.18245704472064972, 0.7333000302314758, 0.45891159772872925, -0.5016684532165527, 0.08959126472473145, 0.00680193305015564, -0.04883807897567749, -0.2513323508762601, 0.4312746415839722, 0.8660760910565444,-0.02732101015298416,0.8228912353515625,0.4657135009765625,-0.550506591796875
20220209-1444,2022-02-09 14:45:01Z,u01, 79,40,movements,el-ex, lt, d,17769.057995375002, 1.0098976523683054, -0.483017253682639, 0.19157668454650778, -0.3302949368953705, 1.6365084648132324, -0.21222661435604095, 0.7499039769172668, 0.4644533693790436, -0.47109130024909973, -0.001094222068786621, -0.05597558617591858, -0.04836359620094299, -0.25328508729210225, 0.4475500150986246, 0.856969540719784,-0.03389358431808581,0.76666259765625,0.4088134765625,-0.521636962890625
20220209-1444,2022-02-09 14:45:01Z,u01, 80,40,movements,el-ex, lt, d,17769.082941375, 1.0547475867604308, -0.4906667850110949, 0.1981989612792359, -0.32261988520622253, 1.604500412940979, -0.08018554002046585, 0.767158567905426, 0.4712141156196594, -0.4352298080921173, 0.251548707485199, 0.011787593364715576, -0.14262047410011292, -0.2571511855684302, 0.46503587034130756, 0.8462371653975304,-0.03869844394725758,1.018707275390625,0.483001708984375,-0.577850341796875
20220209-1444,2022-02-09 14:45:01Z,u01, 81,40,movements,el-ex, lt, d,17769.107886375, 1.094397595133611, -0.49621902214502334, 0.20481225698455321, -0.3424908518791199, 1.3419933319091797, -0.12328727543354034, 0.7814710140228271, 0.4761039912700653, -0.40327188372612, 0.22568541765213013, 0.02272111177444458, -0.12001293897628784, -0.26017583101314345, 0.48028386230343006, 0.8365596690189905,-0.04247361658540638,0.9765777587890625,0.494659423828125,-0.5150909423828125
20220209-1444,2022-02-09 14:45:01Z,u01, 82,40,movements,el-ex, lt, d,17769.132832375002, 1.1308859984829118, -0.5043428518729725, 0.21323897441020417, -0.4456355571746826, 1.2658768892288208, -0.1976698338985443, 0.7921364903450012, 0.4832322299480438, -0.3728356659412384, 0.021401047706604004, -0.031709372997283936, -0.12884274125099182, -0.26468969778258444, 0.4934790071107041, 0.8272302726644244,-0.04591234302253683,0.81353759765625,0.4515228271484375,-0.501678466796875
20220209-1444,2022-02-09 14:45:01Z,u01, 83,40,movements,el-ex, lt, d,17769.157777375, 1.168774519017647, -0.511698543852057, 0.22224624798457523, -0.33261460065841675, 1.3743568658828735, -0.055182456970214844, 0.8023978471755981, 0.489658921957016, -0.3411622941493988, 0.0790259838104248, -0.02170240879058838, -0.19355139136314392, -0.2689566595465622, 0.5070317236369773, 0.8174064562983614,-0.04927218011722545,0.9357147216796875,0.469207763671875,-0.5469207763671875
20220209-1444,2022-02-09 14:45:01Z,u01, 84,40,movements,el-ex, lt, d,17769.182723375, 1.203660316177525, -0.5160771219929956, 0.2321179261178881, -0.47456955909729004, 0.9979947805404663, -0.02087954431772232, 0.8118000030517578, 0.49347198009490967, -0.3121955096721649, 0.24564921855926514, -0.010775446891784668, -0.1959831416606903, -0.27232285462665157, 0.5193674055377422, 0.8083782136261761,-0.0512086901261547,1.0574493408203125,0.482696533203125,-0.5081787109375
20220209-1444,2022-02-09 14:45:01Z,u01, 85,40,movements,el-ex, lt, d,17769.207668375002, 1.2339014045325987, -0.5224866837534634, 0.24855600057713084, -0.8044640421867371, 0.8246331810951233, -0.06083061918616295, 0.8178665637969971, 0.499036580324173, -0.286455363035202, 0.10908955335617065, -0.02792149782180786, -0.1424081027507782, -0.27832475924274724, 0.5284956380668393, 0.8004168631344427,-0.05060110804953505,0.8911590576171875,0.4618072509765625,-0.4058074951171875
20220209-1444,2022-02-09 14:45:01Z,u01, 86,40,movements,el-ex, lt, d,17769.232614375, 1.2685992380273754, -0.5320569553608318, 0.27466021149402525, -1.0904507637023926, 0.9399247765541077, -0.09056627750396729, 0.8227143883705139, 0.5073070526123047, -0.2564772665500641, -0.0003725290298461914, -0.04070854187011719, -0.06381991505622864, -0.28804437792290083, 0.5373935232150405, 0.791163875385057,-0.04794104435933372,0.8223419189453125,0.4665985107421875,-0.3202972412109375
20220209-1444,2022-02-09 14:45:01Z,u01, 87,40,movements,el-ex, lt, d,17769.257560000002, 1.3061418843233956, -0.5389368078187259, 0.2998051246249807, -0.6389285326004028, 0.9717999696731567, 0.05016879737377167, 0.8283729553222656, 0.5132237672805786, -0.2244986742734909, 0.15221786499023438, 0.04005986452102661, -0.1688271015882492, -0.29653534005931587, 0.5475558930626362, 0.7811327688034064,-0.0456180366725549,1.0096435546875,0.5718536376953125,-0.39471435546875
20220209-1444,2022-02-09 14:45:01Z,u01, 88,40,movements,el-ex, lt, d,17769.282506, 1.3340396078151977, -0.5397303623794001, 0.3121308346172782, -0.26421746611595154, 0.7898721098899841, 0.08523930609226227, 0.8339166045188904, 0.5139046907424927, -0.20120899379253387, 0.13916683197021484, 0.044368624687194824, -0.17879584431648254, -0.29959254184522127, 0.5564528857025283, 0.7736658401820611,-0.04522905041317579,0.97308349609375,0.5582733154296875,-0.3800048828125
20220209-1444,2022-02-09 14:45:01Z,u01, 89,40,movements,el-ex, lt, d,17769.307451, 1.3579046664489953, -0.5396780026034718, 0.3205322432781825, -0.3251178562641144, 0.7758973836898804, 0.05211483687162399, 0.8385069370269775, 0.5138598084449768, -0.18125781416893005, 0.023248493671417236, 0.02210521697998047, -0.13421756029129028, -0.3013862944749287, 0.5643911713142618, 0.7671721457395679,-0.04556187906402112,0.8471221923828125,0.5386199951171875,-0.2999267578125
20220209-1444,2022-02-09 14:45:01Z,u01, 90,40,movements,el-ex, lt, d,17769.332397000002, 1.3842049124996119, -0.5413738005040689, 0.3319867307873031, -0.4811907708644867, 0.8425680994987488, -0.023824533447623253, 0.8421260714530945, 0.5153138041496277, -0.15898285806179047, 0.028494715690612793, 0.01985776424407959, -0.08582913875579834, -0.30464264835759464, 0.5724521201541392, 0.7598696530375287,-0.045712486574277095,0.8706207275390625,0.5351715087890625,-0.24481201171875
20220209-1444,2022-02-09 14:45:01Z,u01, 91,40,movements,el-ex, lt, d,17769.357343, 1.4117459229965137, -0.544790066733736, 0.34644367079980704, -0.504059910774231, 0.7510024309158325, -0.0541122630238533, 0.8444415330886841, 0.5182385444641113, -0.13545288145542145, 0.1027631163597107, 0.03519773483276367, -0.10107356309890747, -0.30937188611377126, 0.5801401523072873, 0.7520965049483436,-0.04557823713420184,0.952850341796875,0.5569000244140625,-0.2392120361328125
20220209-1444,2022-02-09 14:45:02Z,u01, 92,40,movements,el-ex, lt, d,17769.382288, 1.43609065373399, -0.5477238662331271, 0.3581791948134991, -0.3352360725402832, 0.7394444942474365, -0.06149434670805931, 0.8459782600402832, 0.5207453966140747, -0.11465239524841309, 0.04519611597061157, 0.029150843620300293, -0.11168116331100464, -0.31324681099970036, 0.5869840196500615, 0.7451283098641164,-0.04593590394593999,0.89117431640625,0.549896240234375,-0.2263336181640625
20220209-1444,2022-02-09 14:45:02Z,u01, 93,40,movements,el-ex, lt, d,17769.407234000002, 1.457360506156847, -0.5500831005078795, 0.36445719484609546, -0.13246174156665802, 0.70248943567276, -0.07584898918867111, 0.8470024466514587, 0.5227580666542053, -0.096494659781456, -0.001802682876586914, 0.024254322052001953, -0.14529605209827423, -0.31540085235288307, 0.5935275665576186, 0.7388972815077818,-0.047731908980773285,0.840576171875,0.55230712890625,-0.2450103759765625
20220209-1444,2022-02-09 14:45:02Z,u01, 94,40,movements,el-ex, lt, d,17769.432179, 1.475773498079066, -0.5516371508649817, 0.36768928989429367, -0.12868261337280273, 0.5943238139152527, -0.04125006124377251, 0.8478256464004517, 0.5240822434425354, -0.08080614358186722, 0.054441869258880615, 0.005611419677734375, -0.1846051812171936, -0.31643570971641743, 0.5995543087529069, 0.7334207490005074,-0.04997146026656915,0.9022674560546875,0.529693603515625,-0.265411376953125
20220209-1444,2022-02-09 14:45:02Z,u01, 95,40,movements,el-ex, lt, d,17769.457125, 1.4918485834652464, -0.5527488472462263, 0.37397628408032135, -0.29781970381736755, 0.42540958523750305, 0.005042866803705692, 0.8484336733818054, 0.5250287055969238, -0.06712143123149872, 0.08857804536819458, -0.0036205649375915527, -0.1902484893798828, -0.318292267300213, 0.6042593114764838, 0.7286977815482567,-0.05059994245706581,0.934539794921875,0.518768310546875,-0.2578277587890625
20220209-1444,2022-02-09 14:45:02Z,u01, 96,40,movements,el-ex, lt, d,17769.482070000002, 1.5060115961228329, -0.5529521677857759, 0.38202973622355096, -0.20100617408752441, 0.39927926659584045, 0.0235857255756855, 0.8491926193237305, 0.5252017378807068, -0.05509180948138237, 0.04366016387939453, 0.021581709384918213, -0.19676971435546875, -0.32044375467811825, 0.6080870784983885, 0.7246002032574675,-0.05000478190231197,0.892852783203125,0.546783447265625,-0.251861572265625
20220209-1444,2022-02-09 14:45:02Z,u01, 97,40,movements,el-ex, lt, d,17769.507016, 1.5170562261708278, -0.5522199884250857, 0.3839123638946262, 0.06724971532821655, 0.390609472990036, 0.02740722894668579, 0.8501332402229309, 0.5245785117149353, -0.04573027789592743, 0.06165581941604614, 0.03894388675689697, -0.2464144229888916, -0.32050086794435906, 0.6118938262954395, 0.7213046248923428,-0.050842985025206316,0.9184417724609375,0.56549072265625,-0.3015289306640625
20220209-1444,2022-02-09 14:45:02Z,u01, 98,40,movements,el-ex, lt, d,17769.531961, 1.5230095315568843, -0.5511166802145877, 0.37859359140275717, 0.29970064759254456, 0.30001404881477356, 0.0418868362903595, 0.8509678840637207, 0.523638904094696, -0.04069600999355316, 0.10673481225967407, 0.03284919261932373, -0.30599886178970337, -0.3183562096354231, 0.6150620450217603, 0.7193775221690742,-0.053329821057760296,0.95770263671875,0.556488037109375,-0.3466949462890625
20220209-1444,2022-02-09 14:45:02Z,u01, 99,40,movements,el-ex, lt, d,17769.556907000002, 1.5223992135842663, -0.5488205789366025, 0.36735335459049545, 0.4024882912635803, 0.10918951034545898, 0.09271246939897537, 0.8521415591239929, 0.5216813683509827, -0.04127342253923416, 0.13888627290725708, 0.00889730453491211, -0.33282625675201416, -0.3141647303483757, 0.6169795877671123, 0.7193373484454566,-0.05648528202695707,0.9902496337890625,0.518341064453125,-0.36895751953125
20220209-1444,2022-02-09 14:45:02Z,u01, 100,40,movements,el-ex, lt, d,17769.581853, 1.518102761131266, -0.5461949880515657, 0.3596842806560835, 0.08355065435171127, -0.0886031910777092, 0.07542802393436432, 0.8533212542533875, 0.5194395780563354, -0.045006200671195984, 0.11475741863250732, -0.07516461610794067, -0.34809064865112305, -0.3110646708133783, 0.6170378186941902, 0.7205395320430459,-0.05767134538968563,0.96807861328125,0.44427490234375,-0.393096923828125
20220209-1444,2022-02-09 14:45:02Z,u01, 101,40,movements,el-ex, lt, d,17769.606798, 1.5125229302726628, -0.5434525333651676, 0.3592776570289182, 0.0005749436095356941, -0.31157317757606506, 0.15155981481075287, 0.8544756770133972, 0.5170941948890686, -0.04984964057803154, 0.13177615404129028, -0.07611513137817383, -0.3717048764228821, -0.31019935266254167, 0.615509173029099, 0.7223487237623664,-0.05601051891015779,0.9878692626953125,0.43914794921875,-0.4195404052734375
20220209-1444,2022-02-09 14:45:02Z,u01, 102,40,movements,el-ex, lt, d,17769.631744000002, 1.5019167031293892, -0.5383938024984102, 0.35907461799676277, 0.019714249297976494, -0.4909602999687195, 0.24581405520439148, 0.856497585773468, 0.5127576589584351, -0.059088706970214844, 0.13553732633590698, -0.10052627325057983, -0.3592309355735779, -0.3087590715401887, 0.6124732499730143, 0.7257862125086749,-0.05271375140346751,0.992034912109375,0.4122314453125,-0.4183197021484375
20220209-1444,2022-02-09 14:45:02Z,u01, 103,40,movements,el-ex, lt, d,17769.656689, 1.4874681833854217, -0.5315962186527736, 0.3583363847593914, 0.10128467530012131, -0.6242985129356384, 0.284997820854187, 0.859008252620697, 0.5069099068641663, -0.07174569368362427, 0.14369267225265503, -0.07198852300643921, -0.34474289417266846, -0.30664229845205504, 0.6083565173602101, 0.7304283880002496,-0.04844975285696604,1.0057220458984375,0.440765380859375,-0.4129791259765625
20220209-1444,2022-02-09 14:45:02Z,u01, 104,40,movements,el-ex, lt, d,17769.681635, 1.468826570120693, -0.5242215300884635, 0.35387173834698843, 0.22252045571804047, -0.6706414222717285, 0.273851215839386, 0.861217200756073, 0.500539243221283, -0.08812374621629715, 0.16492128372192383, -0.04221087694168091, -0.31060361862182617, -0.30324968359690196, 0.6033056890702557, 0.7362463751414171,-0.044758622846226004,1.0261383056640625,0.4583282470703125,-0.3987274169921875
20220209-1444,2022-02-09 14:45:02Z,u01, 105,40,movements,el-ex, lt, d,17769.706580000002, 1.4477389930157545, -0.5164824753554753, 0.34700198505891766, 0.35453909635543823, -0.768281877040863, 0.2811600863933563, 0.862986147403717, 0.49382448196411133, -0.10673609375953674, 0.230168879032135, -0.027790457010269165, -0.3332052230834961, -0.2990116657353857, 0.5976821705437566, 0.7427264500569042,-0.041541099315985264,1.1068115234375,0.4727783203125,-0.453643798828125
20220209-1444,2022-02-09 14:45:02Z,u01, 106,40,movements,el-ex, lt, d,17769.731526, 1.4194264904279392, -0.5073824388892164, 0.33428092531095244, 0.6441971659660339, -0.9871364831924438, 0.30583319067955017, 0.864025354385376, 0.48589110374450684, -0.1317955106496811, 0.22159171104431152, -0.0022790133953094482, -0.4098304510116577, -0.29266187515267883, 0.5902976098314665, 0.7512445609631124,-0.03910724896841647,1.0856170654296875,0.483612060546875,-0.5416259765625
20220209-1444,2022-02-09 14:45:02Z,u01, 107,40,movements,el-ex, lt, d,17769.756471, 1.3834308901275756, -0.49625676926675644, 0.3132305010836306, 0.9374629259109497, -1.0709537267684937, 0.31478047370910645, 0.8639807105064392, 0.4761371910572052, -0.1638014167547226, 0.17616522312164307, 0.020612716674804688, -0.44412392377853394, -0.2832705647517433, 0.5812547447561698, 0.7618627346189086,-0.038288392193926574,1.0422821044921875,0.496826171875,-0.6206512451171875
20220209-1444,2022-02-09 14:45:02Z,u01, 108,40,movements,el-ex, lt, d,17769.781417000002, 1.3424345979578607, -0.4838797288471347, 0.28841092563066134, 0.9505857825279236, -1.3029816150665283, 0.29643237590789795, 0.8622158765792847, 0.4652169942855835, -0.2003927081823349, 0.23412829637527466, 0.030312269926071167, -0.454560250043869, -0.27243792644498577, 0.5705972512140504, 0.773780773300111,-0.0382078010267663,1.096343994140625,0.4955291748046875,-0.6549530029296875
20220209-1444,2022-02-09 14:45:02Z,u01, 109,40,movements,el-ex, lt, d,17769.806362, 1.2959159614514042, -0.470541299888516, 0.2653596830705018, 0.8940191268920898, -1.5848907232284546, 0.3165806531906128, 0.8578606843948364, 0.45336881279945374, -0.2419334053993225, 0.2700232267379761, 0.04808080196380615, -0.4452918767929077, -0.2618720047522207, 0.5571860978696546, 0.7871507128834858,-0.036884763034005286,1.1341552734375,0.5024871826171875,-0.6968994140625
20220209-1444,2022-02-09 14:45:02Z,u01, 110,40,movements,el-ex, lt, d,17769.831308, 1.2444784661462753, -0.45727267818962564, 0.24787293033701885, 0.5531281232833862, -1.9064327478408813, 0.33361586928367615, 0.8499108552932739, 0.4415026307106018, -0.2876233458518982, 0.32616037130355835, 0.03936290740966797, -0.40460681915283203, -0.25293447306629163, 0.5405668186628412, 0.8016894172058867,-0.03325477399045884,1.1760711669921875,0.480865478515625,-0.692230224609375
20220209-1444,2022-02-09 14:45:02Z,u01, 111,40,movements,el-ex, lt, d,17769.856254000002, 1.1913565728491706, -0.44815917750801343, 0.24486888157221576, -0.10962765663862228, -2.236593723297119, 0.27401259541511536, 0.8371427655220032, 0.4333072304725647, -0.33382177352905273, 0.3705903887748718, 0.03287935256958008, -0.33544397354125977, -0.2493703553510818, 0.52048395154427, 0.8162580569219233,-0.025174754473498373,1.21771240234375,0.4672393798828125,-0.6629638671875
20220209-1444,2022-02-09 14:45:02Z,u01, 112,40,movements,el-ex, lt, d,17769.881199, 1.1368064555263142, -0.44638549337243166, 0.25657135672525644, -0.4765024185180664, -2.5277891159057617, 0.18144099414348602, 0.8183925747871399, 0.43170803785324097, -0.3792913854122162, 0.3970005512237549, 0.10292947292327881, -0.2643700838088989, -0.2521647004238673, 0.49675675486292115, 0.8303470343504614,-0.013024086122246259,1.21539306640625,0.534637451171875,-0.6436614990234375
20220209-1444,2022-02-09 14:45:02Z,u01, 113,40,movements,el-ex, lt, d,17769.906145, 1.075488698653014, -0.44583064109077103, 0.26425133635702897, 0.0916355773806572, -2.6692514419555664, 0.12207800894975662, 0.7938224077224731, 0.43120747804641724, -0.4288429021835327, 0.43360984325408936, 0.21759629249572754, -0.279851496219635, -0.2540262689085218, 0.47015869796038157, 0.8452325180349599,-0.001898243504358077,1.23248291015625,0.6648406982421875,-0.7154998779296875
20220209-1444,2022-02-09 14:45:02Z,u01, 114,40,movements,el-ex, lt, d,17769.931090000002, 1.004057703068226, -0.4391431810569717, 0.25783555057742563, 0.46577244997024536, -2.822725772857666, 0.09708857536315918, 0.7636072635650635, 0.4251641035079956, -0.48594197630882263, 0.4462621808052063, 0.20317760109901428, -0.21085059642791748, -0.24972974234121278, 0.44120751122385277, 0.8619364996908989,0.006049601809846206,1.209869384765625,0.6283416748046875,-0.6967926025390625
20220209-1444,2022-02-09 14:45:02Z,u01, 115,40,movements,el-ex, lt, d,17769.956036, 0.9283170796595173, -0.4322866694881919, 0.24763387658357464, 0.48137983679771423, -2.9219188690185547, -0.07052799314260483, 0.7269644737243652, 0.4189482033252716, -0.5440635085105896, 0.43827301263809204, 0.20895099639892578, -0.19978713989257812, -0.24430677013163837, 0.4102224329919198, 0.8785631895940083,0.012590310276614503,1.1610107421875,0.636810302734375,-0.7762298583984375
20220209-1444,2022-02-09 14:45:02Z,u01, 116,40,movements,el-ex, lt, d,17769.980981, 0.8481319473306557, -0.42500270924020794, 0.23326189798217659, 0.7309844493865967, -3.029576063156128, -0.13324835896492004, 0.6833203434944153, 0.4123232364654541, -0.6025470495223999, 0.4747302532196045, 0.2567441463470459, -0.2670513391494751, -0.23772278011060094, 0.3771132029015421, 0.8949681407606892,0.017481990815975124,1.158050537109375,0.6690673828125,-0.869598388671875
20220209-1444,2022-02-09 14:45:02Z,u01, 117,40,movements,el-ex, lt, d,17770.005927000002, 0.7638398838854977, -0.41103811289446696, 0.21161962772044954, 1.2805196046829224, -3.052546977996826, -0.1368343085050583, 0.6340855360031128, 0.39956119656562805, -0.6620319485664368, 0.5865107774734497, 0.29175353050231934, -0.31103622913360596, -0.22684647120575296, 0.34281875583629345, 0.9113745442122114,0.020306664070288694,1.248077392578125,0.7083282470703125,-1.0413665771484375
20220209-1444,2022-02-09 14:45:02Z,u01, 118,40,movements,el-ex, lt, d,17770.030872, 0.6701885443892361, -0.3813683594428391, 0.17764130415848994, 2.078974723815918, -3.411963939666748, -0.2189512848854065, 0.5765091776847839, 0.3721908628940582, -0.7274003028869629, 0.6310256123542786, 0.37777864933013916, -0.33810561895370483, -0.2069255741316806, 0.3057476878283697, 0.9291359435909115,0.020168768000840276,1.2075347900390625,0.749969482421875,-1.0655059814453125
20220209-1444,2022-02-09 14:45:02Z,u01, 119,40,movements,el-ex, lt, d,17770.055818, 0.5688997604633371, -0.34316634757985837, 0.1402013313057229, 1.8739831447601318, -3.5572221279144287, -0.2810663878917694, 0.5072956681251526, 0.33647051453590393, -0.7933717370033264, 0.5494975447654724, 0.26850998401641846, -0.08954751491546631, -0.1828464522878036, 0.26435070416379236, 0.9467554490824227,0.01844376725041663,1.0375213623046875,0.557342529296875,-0.8473052978515625
20220209-1444,2022-02-09 14:45:02Z,u01, 120,40,movements,el-ex, lt, d,17770.080764000002, 0.4710332486811033, -0.31267590820859065, 0.11289278855891642, 1.358421802520752, -3.6104373931884766, -0.25658926367759705, 0.4318039119243622, 0.30760589241981506, -0.8478938937187195, 0.6138351559638977, 0.20959079265594482, 0.13739889860153198, -0.16416636126180473, 0.22159074456984956, 0.9610547190140827,0.017915490936907752,1.0456390380859375,0.5171966552734375,-0.7104949951171875
20220209-1444,2022-02-09 14:45:02Z,u01, 121,40,movements,el-ex, lt, d,17770.105709, 0.37429998320219143, -0.28176004689166956, 0.09406479980393533, 1.5630433559417725, -3.6758148670196533, -0.05163845792412758, 0.3512037396430969, 0.27804672718048096, -0.8940615057945251, 0.6140214800834656, 0.2803792357444763, 0.27286094427108765, -0.14647098320914997, 0.17752604313959586, 0.9729569233248804,0.01963991296817791,0.923309326171875,0.5586700439453125,-0.582244873046875
20220209-1444,2022-02-09 14:45:02Z,u01, 122,40,movements,el-ex, lt, d,17770.130655, 0.2799602970837184, -0.24085970996272124, 0.08028174277789991, 1.804634928703308, -3.557941198348999, 0.06483622640371323, 0.2683411240577698, 0.23853760957717896, -0.9333235621452332, 0.4172362983226776, 0.27341005206108093, 0.5448805689811707, -0.12442654481821372, 0.13362728083548978, 0.9829275916623053,0.022701055581060947,0.685577392578125,0.5119476318359375,-0.3884429931640625
20220209-1444,2022-02-09 14:45:02Z,u01, 123,40,movements,el-ex, lt, d,17770.155600000002, 0.19372344471857703, -0.20178416849102881, 0.07281415342281618, 1.243553876876831, -3.2565293312072754, 0.07547875493764877, 0.18860802054405212, 0.200417622923851, -0.9613842964172363, 0.31613749265670776, 0.17327016592025757, 0.8232312202453613, -0.10368470556173562, 0.09250580272455941, 0.9899495258381864,0.026309877352107713,0.4707794189453125,0.3465728759765625,-0.0954437255859375
20220209-1444,2022-02-09 14:45:02Z,u01, 124,40,movements,el-ex, lt, d,17770.180546, 0.11457508811886487, -0.18680801401552874, 0.07073727744457618, -0.031551532447338104, -3.0332140922546387, -0.024879876524209976, 0.11233556270599365, 0.18572339415550232, -0.9761595726013184, 0.22804225981235504, 0.08705800771713257, 1.0081267356872559, -0.09507283894819923, 0.05367831007853011, 0.993574863866169,0.029812522053434487,0.3403778076171875,0.2727813720703125,0.0319671630859375
20220209-1444,2022-02-09 14:45:02Z,u01, 125,40,movements,el-ex, lt, d,17770.205491, 0.041612023462295214, -0.19705052818080082, 0.06917733895245644, -0.514449417591095, -2.771061658859253, -0.1340102255344391, 0.0407949835062027, 0.1957777887582779, -0.9797993898391724, 0.2207711786031723, 0.1378404051065445, 1.0545369386672974, -0.09900178837669771, 0.017290298738074868, 0.9944106626197994,0.032361380598311174,0.237457275390625,0.357574462890625,0.0766143798828125
20220209-1444,2022-02-09 14:45:02Z,u01, 126,40,movements,el-ex, lt, d,17770.230437000002, -0.021908307580993002, -0.19867001868881895, 0.06502487051932025, 0.5636293292045593, -2.176877021789551, -0.20770680904388428, -0.02147565223276615, 0.1973656862974167, -0.9800946712493896, 0.0806492269039154, 0.296759694814682, 1.0669476985931396, -0.09875903966090997, -0.014117726232559642, 0.9944495577472243,0.033430263299961904,0.059173583984375,0.4941253662109375,0.08685302734375
20220209-1444,2022-02-09 14:45:02Z,u01, 127,40,movements,el-ex, lt, d,17770.255381500003, -0.06415303075048084, -0.1731044687297282, 0.06001012635656822, 1.183172345161438, -1.1730471849441528, -0.27449509501457214, -0.06315091252326965, 0.1722412407398224, -0.9830284714698792, -0.037343479692935944, 0.1999053955078125, 1.1894798278808594, -0.08540229616865766, -0.034528617896914006, 0.9952129517520558,0.03264398635312454,-0.115264892578125,0.3240814208984375,0.2271881103515625
20220209-1444,2022-02-09 14:45:02Z,u01, 128,40,movements,el-ex, lt, d,17770.2803275, -0.08736157455962172, -0.1501193726046659, 0.05386817684182784, 0.5708879232406616, -0.6668644547462463, -0.3538059592247009, -0.08626920729875565, 0.14955615997314453, -0.9849825501441956, -0.03067415952682495, -0.009999245405197144, 1.2091951370239258, -0.07371784840116552, -0.04554574882344506, 0.9957836702356287,0.0301027469395036,-0.116943359375,0.139556884765625,0.224212646484375
20220209-1444,2022-02-09 14:45:02Z,u01, 129,40,movements,el-ex, lt, d,17770.3052725, -0.09967834776116755, -0.1441265024547474, 0.04470846677894338, -0.14445768296718597, -0.18725720047950745, -0.3884891867637634, -0.09848158806562424, 0.1436280459165573, -0.984719455242157, -0.05921800434589386, -0.04624643921852112, 1.2107326984405518, -0.07078284612637054, -0.051284216218407064, 0.9958370908358065,0.025852755266035032,-0.1604156494140625,0.091522216796875,0.2134246826171875
20220209-1444,2022-02-09 14:45:02Z,u01, 130,40,movements,el-ex, lt, d,17770.3302185, -0.09992711477779702, -0.1545115472793963, 0.03467387077007774, -0.7283375859260559, 0.2673484683036804, -0.3375095725059509, -0.09857242554426193, 0.1538974791765213, -0.9831576943397522, -0.016814544796943665, -0.05248755216598511, 1.0834994316101074, -0.0762078142577993, -0.05112262738808643, 0.9955566846593136,0.02111673703724687,-0.115386962890625,0.101409912109375,0.100341796875
20220209-1444,2022-02-09 14:45:02Z,u01, 131,40,movements,el-ex, lt, d,17770.3551645, -0.09049000536843384, -0.17615316821090699, 0.024397822047266322, -1.017171025276184, 0.6137038469314575, -0.29282456636428833, -0.08896815031766891, 0.1752435714006424, -0.9804970026016235, 0.013192996382713318, -0.06196229159832001, 0.980054497718811, -0.08731659420887315, -0.046122818614045574, 0.9949817986917158,0.01611710906139241,-0.0700225830078125,0.1179962158203125,-0.0224456787109375
20220209-1444,2022-02-09 14:45:03Z,u01, 132,40,movements,el-ex, lt, d,17770.3801095, -0.07356192008890036, -0.20214297716787946, 0.015038504695276234, -1.1430392265319824, 0.8924949169158936, -0.2721829414367676, -0.07199911773204803, 0.20076912641525269, -0.976989209651947, 0.016762293875217438, -0.04599921405315399, 0.817840039730072, -0.10055331285679261, -0.03734213718075017, 0.9941677219291163,0.011185987464982006,-0.05523681640625,0.1547698974609375,-0.159149169921875
20220209-1444,2022-02-09 14:45:03Z,u01, 133,40,movements,el-ex, lt, d,17770.4050555, -0.048772977228444175, -0.23231528721758374, 0.00697744169846008, -1.3163937330245972, 1.2510309219360352, -0.21250537037849426, -0.047443922609090805, 0.23023122549057007, -0.9719787240028381, 0.004734568297863007, -0.056891366839408875, 0.7466064691543579, -0.11577694039336892, -0.024623815178001118, 0.9929501083642434,0.006290187270660774,-0.036712646484375,0.1793212890625,-0.237945556640625
20220209-1444,2022-02-09 14:45:03Z,u01, 134,40,movements,el-ex, lt, d,17770.4300005, -0.01372013174087418, -0.2649818542928645, 0.001592406249070599, -1.2657033205032349, 1.635803461074829, -0.12364520132541656, -0.013240845873951912, 0.26189175248146057, -0.965006411075592, 0.07801440358161926, -0.020055174827575684, 0.5619760155677795, -0.13209507472087825, -0.006905066597179613, 0.9912116032370895,0.0016954386020376355,0.0647735595703125,0.2418365478515625,-0.4030303955078125
20220209-1444,2022-02-09 14:45:03Z,u01, 135,40,movements,el-ex, lt, d,17770.454946500002, 0.028973444198139617, -0.2927718208182484, 0.0003815965152621412, -0.9346683025360107, 1.7929142713546753, 0.001765647903084755, 0.02773667313158512, 0.2886072099208832, -0.9570457339286804, 0.09881971776485443, -0.004519075155258179, 0.4110252857208252, -0.14585107140287568, 0.014303451982020474, 0.9892013587766848,-0.0019242740127433655,0.1321563720703125,0.292388916015625,-0.57177734375
20220209-1444,2022-02-09 14:45:03Z,u01, 136,40,movements,el-ex, lt, d,17770.479891500003, 0.07700129283618015, -0.30799442730137094, 0.0030189957889068895, -0.25143012404441833, 1.9495701789855957, 0.1275860220193863, 0.0733053907752037, 0.3031480610370636, -0.9501197934150696, 0.09638760983943939, 0.007780313491821289, 0.2828834652900696, -0.15333283000528486, 0.037804213751105036, 0.9874413236708357,-0.004413591977870501,0.1696929931640625,0.3109283447265625,-0.667236328125
20220209-1444,2022-02-09 14:45:03Z,u01, 137,40,movements,el-ex, lt, d,17770.5048375, 0.1282813693648943, -0.3083568748131952, 0.007778686598693452, 0.0887172520160675, 2.05079984664917, 0.25254327058792114, 0.12189582735300064, 0.3034934103488922, -0.9450043439865112, 0.16176506876945496, 0.06818020343780518, 0.14094245433807373, -0.1534977169109153, 0.0627398675295185, 0.9861370066042225,-0.006007853892102344,0.30682373046875,0.359649658203125,-0.8263397216796875
20220209-1444,2022-02-09 14:45:03Z,u01, 138,40,movements,el-ex, lt, d,17770.5297825, 0.17880036350140774, -0.3095110526234086, 0.014584819093169955, -0.3638917803764343, 1.795905351638794, 0.23397085070610046, 0.1693982630968094, 0.30459296703338623, -0.9372978806495667, 0.1905108094215393, -0.03440555930137634, 0.055126309394836426, -0.1541622003095031, 0.08709227712187659, 0.9841776202828204,-0.006584878463466115,0.3599090576171875,0.2701873779296875,-0.882171630859375
20220209-1444,2022-02-09 14:45:03Z,u01, 139,40,movements,el-ex, lt, d,17770.5547285, 0.22571741458163558, -0.32416948313547816, 0.025081872401470584, -0.9292898774147034, 1.7367051839828491, 0.33975228667259216, 0.21214886009693146, 0.318521648645401, -0.9238705635070801, 0.15126973390579224, -0.06022083759307861, 0.010097980499267578, -0.16173052106835825, 0.1091235556082471, 0.9807654348974029,-0.005875112132544047,0.37060546875,0.26641845703125,-0.9140167236328125
20220209-1444,2022-02-09 14:45:03Z,u01, 140,40,movements,el-ex, lt, d,17770.5796745, 0.2742581552937369, -0.34559952711589365, 0.041581177956390665, -0.9515003561973572, 1.696433424949646, 0.3944846987724304, 0.25481924414634705, 0.3387608230113983, -0.9057087302207947, 0.22751110792160034, 0.020186960697174072, -0.10964161157608032, -0.17308970667962845, 0.131093814691402, 0.9761374093412226,-0.003211978248798486,0.482330322265625,0.35894775390625,-1.015350341796875
20220209-1444,2022-02-09 14:45:03Z,u01, 142,40,movements,el-ex, lt, d,17770.6046195, 0.32257391386519, -0.3636184478585307, 0.05884029370860543, -0.8282817602157593, 1.723891258239746, 0.42515191435813904, 0.29628148674964905, 0.3556584119796753, -0.8864109516143799, 0.17405545711517334, 0.034341007471084595, -0.06106823682785034, -0.18303137907135222, 0.15262379828882666, 0.9711876664945728,-0.00046774383540981734,0.457855224609375,0.3863372802734375,-0.947418212890625
20220209-1444,2022-02-09 14:45:03Z,u01, 142,40,movements,el-ex, lt, d,17770.6295655, 0.3741210381341112, -0.3769716972162398, 0.0755373605672809, -0.5335562229156494, 1.9247623682022095, 0.42589235305786133, 0.3397936224937439, 0.368106484413147, -0.865469753742218, 0.1248365044593811, 0.06705895066261292, -0.09719192981719971, -0.19086966069881528, 0.17559581295681745, 0.9657806694744736,0.0016229377793410271,0.464630126953125,0.4351654052734375,-0.9626617431640625
20220209-1444,2022-02-09 14:45:03Z,u01, 143,40,movements,el-ex, lt, d,17770.6545105, 0.42948902868888883, -0.37931360269810965, 0.08947099953795533, -0.11522895842790604, 2.093651533126831, 0.4257957339286804, 0.38680773973464966, 0.37028294801712036, -0.8445533514022827, 0.15394851565361023, 0.09010526537895203, -0.10967028141021729, -0.19336637164263296, 0.20083022058596126, 0.9603483887181623,0.0027765186196951896,0.5574188232421875,0.450439453125,-0.934783935546875
20220209-1444,2022-02-09 14:45:03Z,u01, 144,40,movements,el-ex, lt, d,17770.679456500002, 0.4857500375582555, -0.37916370937700683, 0.10162657405525363, -0.33477315306663513, 2.0083749294281006, 0.38395676016807556, 0.433711975812912, 0.37014371156692505, -0.8215154409408569, 0.256046324968338, 0.020893335342407227, -0.13026678562164307, -0.1946774922935685, 0.22658985456314196, 0.9543311045858932,0.00315518594266756,0.68975830078125,0.3910369873046875,-0.9517822265625
20220209-1444,2022-02-09 14:45:03Z,u01, 145,40,movements,el-ex, lt, d,17770.704401500003, 0.5372283348731604, -0.3850838465338999, 0.11642518784025314, -0.5760198831558228, 1.6914558410644531, 0.35568031668663025, 0.4742792248725891, 0.37563684582710266, -0.796213686466217, 0.2353917956352234, 0.0016977787017822266, -0.21812957525253296, -0.19933521338443722, 0.24931634551641052, 0.9476750069883816,0.004358228511401663,0.6903076171875,0.3831329345703125,-1.0221099853515625
20220209-1444,2022-02-09 14:45:03Z,u01, 146,40,movements,el-ex, lt, d,17770.7293475, 0.5855795071883152, -0.393280403776177, 0.13367399433770386, -0.6526736617088318, 1.6978703737258911, 0.38800495862960815, 0.5104889869689941, 0.3832204341888428, -0.769768238067627, 0.08764028549194336, 0.024860680103302002, -0.14446204900741577, -0.20554794593738257, 0.26993686246665594, 0.9406607872155157,0.0064484450128490245,0.5981292724609375,0.4080810546875,-0.9142303466796875
20220209-1444,2022-02-09 14:45:03Z,u01, 147,40,movements,el-ex, lt, d,17770.7542925, 0.6358986687066635, -0.40160015672492955, 0.1526966387012429, -0.6549583673477173, 1.7143892049789429, 0.3748715817928314, 0.5466480851173401, 0.3908916711807251, -0.7405266165733337, 0.1486339569091797, 0.03630867600440979, -0.15287548303604126, -0.21227024507711917, 0.29099492749922445, 0.9328373568636181,0.008824111971493354,0.7265625,0.4405670166015625,-0.903289794921875
20220209-1444,2022-02-09 14:45:03Z,u01, 148,40,movements,el-ex, lt, d,17770.7792385, 0.6826523631407869, -0.4053699218391103, 0.16849907088663857, -0.2698502838611603, 1.54764986038208, 0.3333922028541565, 0.5797267556190491, 0.39435872435569763, -0.7130204439163208, 0.1591954231262207, 0.09122174978256226, -0.2128828763961792, -0.21660603841618764, 0.31075971440199945, 0.9254185272348497,0.01052863734643561,0.738922119140625,0.4855804443359375,-0.9259033203125
20220209-1444,2022-02-09 14:45:03Z,u01, 149,40,movements,el-ex, lt, d,17770.8041835, 0.725765867949282, -0.40458111263369884, 0.17861516377278702, -0.2703090310096741, 1.6173546314239502, 0.28903430700302124, 0.6101255416870117, 0.39363372325897217, -0.6876040101051331, 0.05602741241455078, 0.06112399697303772, -0.11021691560745239, -0.218095028768943, 0.3295945391487349, 0.9185252154573431,0.010646173276268489,0.6791839599609375,0.4442138671875,-0.7676239013671875
20220209-1444,2022-02-09 14:45:03Z,u01, 150,40,movements,el-ex, lt, d,17770.8291295, 0.7698880242617592, -0.40821748694053883, 0.1916472127950464, -0.6024677157402039, 1.5057438611984253, 0.20552250742912292, 0.6388599872589111, 0.3969739079475403, -0.6589914560317993, 0.15497851371765137, 0.052122801542282104, -0.07320153713226318, -0.22218097547085963, 0.3480515439700253, 0.9106994053595425,0.011070556754086858,0.7938385009765625,0.4490966796875,-0.7321929931640625
20220209-1444,2022-02-09 14:45:03Z,u01, 151,40,movements,el-ex, lt, d,17770.8540755, 0.8124094227163555, -0.4160004051665454, 0.20721033749949555, -0.562553346157074, 1.4174858331680298, 0.1405283361673355, 0.6640322804450989, 0.40410521626472473, -0.6290947794914246, 0.13085907697677612, 0.08388617634773254, -0.12163758277893066, -0.22866566181148607, 0.3649172820187296, 0.9024457592723371,0.011799246624773219,0.7798614501953125,0.496429443359375,-0.7520294189453125
20220209-1444,2022-02-09 14:45:03Z,u01, 152,40,movements,el-ex, lt, d,17770.8790205, 0.8518478020820864, -0.42118967545058417, 0.21793984225047874, -0.3196406960487366, 1.4294021129608154, 0.08936387300491333, 0.6867327094078064, 0.4088464379310608, -0.6010348200798035, 0.03679335117340088, 0.1007818877696991, -0.08290982246398926, -0.23317667048140872, 0.38093467369138967, 0.8946488841312294,0.01099407974543587,0.7235260009765625,0.5096282958984375,-0.6839447021484375
20220209-1444,2022-02-09 14:45:03Z,u01, 153,40,movements,el-ex, lt, d,17770.903966500002, 0.8916780407007813, -0.4242147717725504, 0.22482137316298895, -0.2365676611661911, 1.4713091850280762, 0.05015148967504501, 0.7091553807258606, 0.41160526871681213, -0.5724331140518188, 0.1138579249382019, 0.08679255843162537, -0.0831301212310791, -0.23603031094780433, 0.3975841163353768, 0.886645462193473,0.00873416042814168,0.852569580078125,0.502685546875,-0.6591339111328125
20220209-1444,2022-02-09 14:45:03Z,u01, 154,40,movements,el-ex, lt, d,17770.928911500003, 0.9294250097067626, -0.4266057742152029, 0.22929706146378367, -0.12149351090192795, 1.3939955234527588, -0.012116080150008202, 0.7294620871543884, 0.41378316283226013, -0.544672966003418, 0.17138630151748657, 0.09805768728256226, -0.10628223419189453, -0.2381043441947649, 0.4134850034364336, 0.8788083437149388,0.0056991143966809155,0.900848388671875,0.5118408203125,-0.6509552001953125
20220209-1444,2022-02-09 14:45:03Z,u01, 155,40,movements,el-ex, lt, d,17770.9538575, 0.9626817930262899, -0.4298892189240242, 0.2315579200177618, -0.28753119707107544, 1.1605225801467896, -0.08232127130031586, 0.7460504174232483, 0.4167701005935669, -0.5193377137184143, 0.12754583358764648, 0.06075376272201538, -0.09170043468475342, -0.24004366514859518, 0.4274461303531962, 0.8715877759983115,0.0019512924701018397,0.866943359375,0.46307373046875,-0.587005615234375
20220209-1444,2022-02-09 14:45:03Z,u01, 156,40,movements,el-ex, lt, d,17770.9788025, 0.9957602820241557, -0.4415324186682786, 0.2482027462002628, -1.4043246507644653, 0.9563164114952087, -0.017087401822209358, 0.7586943507194519, 0.42732542753219604, -0.49170729517936707, 0.12105119228363037, -0.05681145191192627, 0.16359758377075195, -0.24859276432796312, 0.4385749617778017, 0.863625097051118,0.002344499655799248,0.8797454833984375,0.370513916015625,-0.3281097412109375
20220209-1444,2022-02-09 14:45:03Z,u01, 157,40,movements,el-ex, lt, d,17771.0037485, 1.0365018709044405, -0.46543516346525776, 0.2909559556998026, -1.941192865371704, 0.853782057762146, 0.009689084254205227, 0.7690799832344055, 0.44881170988082886, -0.4550648629665375, 0.18026083707809448, -0.00832095742225647, -0.04827675223350525, -0.2680971836721437, 0.44787438253259343, 0.8529022098770193,0.00950003360156182,0.944549560546875,0.4945220947265625,-0.52740478515625
20220209-1444,2022-02-09 14:45:03Z,u01, 158,40,movements,el-ex, lt, d,17771.0286935, 1.075179535682548, -0.4811052077625321, 0.3257228380923238, -0.6812408566474915, 1.0272915363311768, 0.04910460114479065, 0.7798183560371399, 0.46275919675827026, -0.42158907651901245, 0.03313946723937988, 0.18636497855186462, -0.21456503868103027, -0.2825638773995907, 0.45756215209010836, 0.8429550322642734,0.014881123504245475,0.812957763671875,0.6491241455078125,-0.6361541748046875
20220209-1444,2022-02-09 14:45:03Z,u01, 159,40,movements,el-ex, lt, d,17771.0536395, 1.1043047940289894, -0.48063452407924023, 0.32912105996127455, 0.26564791798591614, 1.1384574174880981, 0.18425044417381287, 0.7919593453407288, 0.46234190464019775, -0.39879903197288513, -0.039853453636169434, 0.0935664176940918, -0.18660444021224976, -0.2833612526146994, 0.4693686097776608, 0.8362105865201808,0.012311705631638414,0.7566680908203125,0.5215301513671875,-0.5240325927734375
20220209-1444,2022-02-09 14:45:03Z,u01, 160,40,movements,el-ex, lt, d,17771.0785855, 1.1313947644621911, -0.47597131412182453, 0.33043813480642875, -0.44308075308799744, 0.9877192974090576, 0.18153215944766998, 0.8044132590293884, 0.4582020044326782, -0.37811416387557983, 0.09020960330963135, -0.032970041036605835, 0.05134725570678711, -0.281980882955792, 0.48107140474166027, 0.8300308364030808,0.010293318494378922,0.894622802734375,0.42523193359375,-0.3267669677734375
20220209-1444,2022-02-09 14:45:03Z,u01, 161,40,movements,el-ex, lt, d,17771.1035305, 1.1668174399138078, -0.4841177341433163, 0.3587702614938153, -1.5027234554290771, 0.8414496779441833, -0.011137966066598892, 0.8138403296470642, 0.4654276669025421, -0.3479096591472626, 0.1561914086341858, -0.05260109901428223, -0.05994248390197754, -0.29226631376077555, 0.4905360114037688, 0.8208169610776843,0.014643813132567962,0.9595794677734375,0.4649810791015625,-0.42340087890625
20220209-1444,2022-02-09 14:45:03Z,u01, 162,40,movements,el-ex, lt, d,17771.128476500002, 1.2036747532819552, -0.49578565892356835, 0.3893976530287793, -0.5730769634246826, 1.0361922979354858, -0.032287195324897766, 0.8209829926490784, 0.4757228493690491, -0.31571343541145325, 0.030228614807128906, 0.1678929328918457, -0.22453922033309937, -0.3046163994625316, 0.49935171445984466, 0.8108769924974926,0.018313744935067378,0.8512115478515625,0.64361572265625,-0.540252685546875
20220209-1444,2022-02-09 14:45:03Z,u01, 163,40,movements,el-ex, lt, d,17771.153421500003, 1.2298089385204156, -0.49413920841884923, 0.3835238027044334, 0.8873903155326843, 1.2296462059020996, 0.038833387196063995, 0.8296895623207092, 0.47427400946617126, -0.29441386461257935, -0.017586231231689453, 0.159042090177536, -0.24347364902496338, -0.30271301839348974, 0.5110361043298193, 0.8043953938449704,0.012453043415384613,0.81500244140625,0.60760498046875,-0.5246429443359375
20220209-1444,2022-02-09 14:45:03Z,u01, 164,40,movements,el-ex, lt, d,17771.1783675, 1.248023011058521, -0.4850028430794129, 0.35711261157185964, 0.8554466366767883, 1.1619582176208496, -0.0029830345883965492, 0.8389884233474731, 0.46621087193489075, -0.2806165814399719, 0.07511979341506958, -0.004128992557525635, -0.1378251016139984, -0.2925180335377636, 0.5235693997796564, 0.800190464983475,0.001842552198579761,0.9141082763671875,0.4620819091796875,-0.4184417724609375
20220209-1444,2022-02-09 14:45:03Z,u01, 165,40,movements,el-ex, lt, d,17771.2033125, 1.2699419704290984, -0.48386344549964183, 0.34883338007007736, -0.26155853271484375, 0.8669816255569458, -0.07054650038480759, 0.8454441428184509, 0.46520256996154785, -0.2623181641101837, 0.11337238550186157, -0.10466790199279785, -0.10848560929298401, -0.28989014119095247, 0.5336708984018955, 0.7944435388117056,-0.004309657882512308,0.9634246826171875,0.3475341796875,-0.378570556640625
20220209-1444,2022-02-09 14:45:03Z,u01, 166,40,movements,el-ex, lt, d,17771.2282585, 1.2951885970437806, -0.4901988975669855, 0.3656132891813494, -0.8682640194892883, 0.557796061038971, -0.03079509176313877, 0.8489435315132141, 0.47080138325691223, -0.24008534848690033, 0.06812494993209839, -0.058234214782714844, -0.14937995374202728, -0.29669086839444725, 0.5403071883763184, 0.7874210103058634,-0.003294538844793249,0.9170684814453125,0.412567138671875,-0.38946533203125
20220209-1444,2022-02-09 14:45:03Z,u01, 167,40,movements,el-ex, lt, d,17771.253203375, 1.3206524156320758, -0.4957961511891413, 0.39279978221028783, -1.1149942874908447, 0.46845853328704834, 0.07388079166412354, 0.8522146940231323, 0.47573208808898926, -0.21773678064346313, -0.013652622699737549, -0.05826684832572937, -0.12026059627532959, -0.30609800605618054, 0.5453765848986799, 0.7802982066338893,0.0018000053846922714,0.8282318115234375,0.4163665771484375,-0.326507568359375
20220209-1444,2022-02-09 14:45:03Z,u01, 168,40,movements,el-ex, lt, d,17771.278149375, 1.3482869330531788, -0.500205278704415, 0.4265155703899068, -1.2158877849578857, 0.47855934500694275, 0.13337847590446472, 0.8558512926101685, 0.47960567474365234, -0.1936413049697876, -0.04287827014923096, -0.040762901306152344, -0.08914975821971893, -0.3169841050593294, 0.5501821728842294, 0.7724868743937696,0.009202809619919983,0.8129730224609375,0.4388427734375,-0.2827911376953125
20220209-1444,2022-02-09 14:45:03Z,u01, 169,40,movements,el-ex, lt, d,17771.303094375002, 1.3764351367176684, -0.5019364827031509, 0.45767929924888523, -0.8842306733131409, 0.5726068615913391, 0.18523746728897095, 0.8601463437080383, 0.48112407326698303, -0.16931650042533875, -0.007088422775268555, 0.014328867197036743, -0.1279398798942566, -0.32638467920921965, 0.5557110676323448, 0.7644600575746566,0.016098329043793935,0.8704376220703125,0.51312255859375,-0.3008575439453125
20220209-1444,2022-02-09 14:45:03Z,u01, 170,40,movements,el-ex, lt, d,17771.328040375, 1.399503076555527, -0.49977126792017834, 0.4757125260615622, -0.3063642680644989, 0.5757409334182739, 0.20685975253582, 0.8648475408554077, 0.4792248010635376, -0.14960865676403046, 0.047933340072631836, 0.08658641576766968, -0.15549075603485107, -0.33088601150923225, 0.5618808770191528, 0.7578981954747049,0.019871674045779025,0.91278076171875,0.5658111572265625,-0.3050994873046875
20220209-1444,2022-02-09 14:45:03Z,u01, 171,40,movements,el-ex, lt, d,17771.352986375, 1.414873531731221, -0.4951554251857131, 0.47701920240914836, 0.2800101041793823, 0.6166402697563171, 0.17098230123519897, 0.8692206144332886, 0.4751684069633484, -0.13664044439792633, 0.0036278963088989258, 0.08635509014129639, -0.1467304825782776, -0.3298350574223461, 0.5682328873931339, 0.7536222298393385,0.019335072434434553,0.860748291015625,0.5511627197265625,-0.2837677001953125
20220209-1444,2022-02-09 14:45:04Z,u01, 172,40,movements,el-ex, lt, d,17771.377931375002, 1.4265294211549524, -0.490554646757917, 0.4648104656787097, 0.5410889387130737, 0.74956876039505, 0.0972239226102829, 0.8729084730148315, 0.47111520171165466, -0.12681281566619873, -0.0006549954414367676, 0.038330018520355225, -0.1355162262916565, -0.3248834064510707, 0.5753645515135024, 0.7504669230156183,0.014350294867340935,0.87225341796875,0.5094451904296875,-0.2623291015625
20220209-1444,2022-02-09 14:45:04Z,u01, 173,40,movements,el-ex, lt, d,17771.402877375, 1.4381292575333173, -0.4869726851295129, 0.45230441868233956, 0.30591636896133423, 0.612913966178894, 0.07058405876159668, 0.8759876489639282, 0.4679526388645172, -0.11690136790275574, 0.07753407955169678, 0.012378782033920288, -0.122432641685009, -0.32011970343572094, 0.5822994867335232, 0.7472415961910023,0.008982388153768395,0.96746826171875,0.4793853759765625,-0.2342987060546875
20220209-1444,2022-02-09 14:45:04Z,u01, 174,40,movements,el-ex, lt, d,17771.427822375, 1.4486062784410467, -0.48483532274304575, 0.4483772882662135, 0.034084100276231766, 0.40566474199295044, 0.03424795717000961, 0.8781551718711853, 0.46606266498565674, -0.10783904790878296, 0.06019937992095947, 0.03428828716278076, -0.10584496706724167, -0.31829110247232845, 0.5871722488299035, 0.7442288658953365,0.006557007050743802,0.9383544921875,0.5003509521484375,-0.21368408203125
20220209-1444,2022-02-09 14:45:04Z,u01, 175,40,movements,el-ex, lt, d,17771.452768375002, 1.458592348628809, -0.4850462655628262, 0.44825861138433326, -0.006899917498230934, 0.4066394865512848, -0.03096693381667137, 0.8790906071662903, 0.4662492871284485, -0.09905350208282471, 0.0005481839179992676, 0.056013405323028564, -0.09674723446369171, -0.3183554773745478, 0.5908663466708679, 0.7412849532312847,0.004853010677630998,0.88006591796875,0.5180511474609375,-0.197906494140625
20220209-1444,2022-02-09 14:45:04Z,u01, 176,40,movements,el-ex, lt, d,17771.477713375, 1.4686120454309257, -0.4866471313134099, 0.44905364432414113, -0.07241424173116684, 0.3301776945590973, -0.04791668802499771, 0.8792952299118042, 0.467664897441864, -0.0901641920208931, 0.06279772520065308, 0.040376514196395874, -0.12216180562973022, -0.31914565235491177, 0.5941918524646431, 0.738290661081906,0.0030121644404437764,0.9420928955078125,0.5080413818359375,-0.2123260498046875
20220209-1444,2022-02-09 14:45:04Z,u01, 177,40,movements,el-ex, lt, d,17771.502659375, 1.4756873744592078, -0.4875281811671106, 0.4514847952659791, -0.06674880534410477, 0.15630969405174255, -0.004396707750856876, 0.8795006275177002, 0.46844348311424255, -0.08390152454376221, 0.0789039134979248, 0.052689969539642334, -0.13468056917190552, -0.3201718419548393, 0.5962711050800108, 0.7361689360000706,0.0024801158003120993,0.9516143798828125,0.5091400146484375,-0.22222900390625
20220209-1444,2022-02-09 14:45:04Z,u01, 178,40,movements,el-ex, lt, d,17771.527604375002, 1.4787130749876316, -0.4883316841305905, 0.451979350764475, -0.03802618011832237, 0.08675144612789154, -0.08535967022180557, 0.8793753981590271, 0.4691532254219055, -0.08120539784431458, 0.0221748948097229, -0.00920751690864563, -0.17424196004867554, -0.32058902325571936, 0.5971766722607578, 0.735254497670585,0.0019054817511854616,0.90155029296875,0.4599456787109375,-0.2554473876953125
20220209-1444,2022-02-09 14:45:04Z,u01, 179,40,movements,el-ex, lt, d,17771.552550375, 1.4794852321150318, -0.4893188097163343, 0.4522961096461805, -0.0009931595996022224, -0.020762957632541656, -0.0022327560000121593, 0.8789762258529663, 0.4700247347354889, -0.08048409223556519, 0.05818814039230347, -0.032189011573791504, -0.25655198097229004, -0.32101103060101416, 0.5972519340141416, 0.7350099943066407,0.0015637363271862603,0.9423065185546875,0.432464599609375,-0.3477325439453125
20220209-1444,2022-02-09 14:45:04Z,u01, 180,40,movements,el-ex, lt, d,17771.577495375, 1.4768674882416115, -0.4897826246461295, 0.45188440537297375, 0.02547067031264305, -0.14109230041503906, -0.02446136251091957, 0.8785454034805298, 0.4704340696334839, -0.08276429027318954, 0.07816547155380249, -0.039632648229599, -0.2838585376739502, -0.3210396393495857, 0.596281312841102, 0.7357849089704687,0.001675521226461446,0.9567108154296875,0.4308013916015625,-0.3666229248046875
20220209-1444,2022-02-09 14:45:04Z,u01, 181,40,movements,el-ex, lt, d,17771.602441375002, 1.46996126315652, -0.4896303153614418, 0.4485902021495022, 0.20307505130767822, -0.24603675305843353, 0.00360123161226511, 0.878024160861969, 0.4702996611595154, -0.0888369157910347, 0.06768512725830078, -0.024010568857192993, -0.2912136912345886, -0.3200028736994155, 0.5942892420345058, 0.7378454719793158,0.0016201468136618213,0.947998046875,0.443389892578125,-0.398101806640625
20220209-1444,2022-02-09 14:45:04Z,u01, 182,40,movements,el-ex, lt, d,17771.627387375, 1.4572126594174393, -0.48882596201594786, 0.43875184982184245, 0.46367600560188293, -0.3387832045555115, -0.028879480436444283, 0.8771958351135254, 0.4695896804332733, -0.10006581991910934, 0.07414394617080688, 0.00575217604637146, -0.3662884831428528, -0.316811927255706, 0.5912675321943035, 0.741642047822087,0.0002811089898017427,0.9513397216796875,0.475341796875,-0.4663543701171875
20220209-1444,2022-02-09 14:45:04Z,u01, 183,40,movements,el-ex, lt, d,17771.652332375, 1.440044330483163, -0.4878793845300029, 0.42493681970092606, 0.40207237005233765, -0.4934128522872925, -0.06049133092164993, 0.8757889866828918, 0.46875375509262085, -0.11516821384429932, 0.08330219984054565, -0.017993837594985962, -0.3565571904182434, -0.31242867396536095, 0.5872003211131204, 0.7467133086213362,-0.0018430209351905646,0.9605865478515625,0.4349365234375,-0.4742431640625
20220209-1444,2022-02-09 14:45:04Z,u01, 184,40,movements,el-ex, lt, d,17771.677278375002, 1.4211262661001185, -0.4889375477044689, 0.4170263904170426, 0.1751234233379364, -0.6974812150001526, -0.07815387845039368, 0.8729625940322876, 0.46968817710876465, -0.13164080679416656, 0.1104053258895874, -0.033332616090774536, -0.37740761041641235, -0.3104986812372673, 0.5811799790152243, 0.7522070838947971,-0.0022106499824015857,0.983367919921875,0.4363555908203125,-0.5090484619140625
20220209-1444,2022-02-09 14:45:04Z,u01, 185,40,movements,el-ex, lt, d,17771.702223375, 1.3983695046815667, -0.48992448254437687, 0.41005659690855445, 0.3988056480884552, -0.8448858261108398, -0.06903894990682602, 0.8692840933799744, 0.4705592691898346, -0.15139122307300568, 0.13482052087783813, 0.02283376455307007, -0.39467501640319824, -0.30884953015720984, 0.5735123012710326, 0.7587443651986676,-0.0016421390530867441,1.0138092041015625,0.5072021484375,-0.5662384033203125
20220209-1444,2022-02-09 14:45:04Z,u01, 186,40,movements,el-ex, lt, d,17771.727169375, 1.3677133479039596, -0.4881224521594643, 0.3924899068007846, 0.8095496296882629, -0.9622147083282471, -0.02581831067800522, 0.8650644421577454, 0.4689684510231018, -0.17813555896282196, 0.17314362525939941, 0.06734752655029297, -0.44651341438293457, -0.3032541887512389, 0.5647735119587871, 0.7675014178862708,-0.0030741507019634573,1.0382080078125,0.53631591796875,-0.6246490478515625
20220209-1444,2022-02-09 14:45:04Z,u01, 187,40,movements,el-ex, lt, d,17771.752114375002, 1.328929826335615, -0.48409271494770917, 0.368167004733176, 0.8360671401023865, -1.2344708442687988, -0.0527627058327198, 0.8593347668647766, 0.46540552377700806, -0.21199434995651245, 0.19800782203674316, 0.03522014617919922, -0.4170796871185303, -0.2950895116258596, 0.5540081279219622, 0.7784394965088456,-0.005403218207442717,1.0613861083984375,0.4989471435546875,-0.62506103515625
20220209-1444,2022-02-09 14:45:04Z,u01, 188,40,movements,el-ex, lt, d,17771.777060375, 1.2873463785266217, -0.48168969999461264, 0.35107576909449845, 0.35853713750839233, -1.4543567895889282, -0.10788601636886597, 0.8508502244949341, 0.46327728033065796, -0.24784694612026215, 0.20817077159881592, -0.000356137752532959, -0.3468948006629944, -0.2896435817838292, 0.540539661706523, 0.7898705856120427,-0.005286734919956293,1.05902099609375,0.462921142578125,-0.5947418212890625
20220209-1444,2022-02-09 14:45:04Z,u01, 189,40,movements,el-ex, lt, d,17771.802005375, 1.244475225575509, -0.481906507944184, 0.3414146822063623, 0.42614802718162537, -1.617814302444458, -0.08748806267976761, 0.8393511176109314, 0.46346938610076904, -0.2840527892112732, 0.2781110405921936, 0.07855334877967834, -0.42786121368408203, -0.2872399891009556, 0.5248493044321754, 0.8012599200976775,-0.0030119280852782815,1.133453369140625,0.5639495849609375,-0.744171142578125
20220209-1444,2022-02-09 14:45:04Z,u01, 190,40,movements,el-ex, lt, d,17771.826951375002, 1.1933713179906047, -0.4779589296708858, 0.32528560839650367, 0.7124212980270386, -1.9079508781433105, -0.041656460613012314, 0.8254397511482239, 0.45996779203414917, -0.3272290825843811, 0.3682705760002136, 0.0966576337814331, -0.4974321126937866, -0.2816253765698357, 0.50702327573244, 0.8146246709662924,-0.0011141859825601896,1.1937103271484375,0.5566253662109375,-0.8246612548828125
20220209-1444,2022-02-09 14:45:04Z,u01, 191,40,movements,el-ex, lt, d,17771.851897375, 1.1323757156225835, -0.4717808887393367, 0.3063350913488373, 0.6677320599555969, -2.298118829727173, -0.04787241294980049, 0.8065152168273926, 0.4544733464717865, -0.37813669443130493, 0.4419131875038147, 0.10010737180709839, -0.49628347158432007, -0.2745045228019839, 0.4853647344905765, 0.8301004542661347,0.0012972799390844059,1.2539215087890625,0.5454559326171875,-0.883941650390625
20220209-1444,2022-02-09 14:45:04Z,u01, 192,40,movements,el-ex, lt, d,17771.876842375, 1.0672197692169214, -0.47118308360314837, 0.29691978994239837, -0.053428806364536285, -2.551473379135132, -0.18931157886981964, 0.7804211974143982, 0.4539407789707184, -0.4299774169921875, 0.3886004090309143, 0.02578034996986389, -0.444915771484375, -0.27191493698403296, 0.45942743116838547, 0.8455457473726006,0.006412622344381835,1.1690216064453125,0.4797210693359375,-0.8748931884765625
20220209-1444,2022-02-09 14:45:04Z,u01, 193,40,movements,el-ex, lt, d,17771.901788375002, 1.0005071580712526, -0.47662049908232446, 0.29547623387796884, 0.07815335690975189, -2.720360040664673, -0.21518729627132416, 0.7479328513145447, 0.4587789475917816, -0.47970661520957947, 0.4073406457901001, 0.11119791865348816, -0.46023476123809814, -0.2734872556544165, 0.43052457953227385, 0.8600410357518322,0.013520228218107444,1.1505889892578125,0.585662841796875,-0.94256591796875
20220209-1444,2022-02-09 14:45:04Z,u01, 194,40,movements,el-ex, lt, d,17771.926733375, 0.9261260567895512, -0.47454858380580306, 0.2833686945114223, 0.7251789569854736, -2.8102219104766846, -0.19054380059242249, 0.7109748125076294, 0.45693695545196533, -0.5345310568809509, 0.4383630156517029, 0.16653719544410706, -0.4128260612487793, -0.2695031926208584, 0.4001281016633254, 0.8757339872018783,0.01885552570919019,1.1493377685546875,0.62347412109375,-0.947357177734375
20220209-1444,2022-02-09 14:45:04Z,u01, 195,40,movements,el-ex, lt, d,17771.951679375, 0.8435790599954783, -0.4624369135476942, 0.2588288435881312, 1.198122262954712, -2.86982798576355, -0.20507802069187164, 0.6685654520988464, 0.4461303949356079, -0.594968855381012, 0.46800076961517334, 0.20236819982528687, -0.32773005962371826, -0.25875857664523566, 0.36818415209757116, 0.8927592017190967,0.021575903640770167,1.12371826171875,0.64801025390625,-0.910430908203125
20220209-1444,2022-02-09 14:45:04Z,u01, 196,40,movements,el-ex, lt, d,17771.976624375002, 0.758697078473504, -0.44439488909483577, 0.2272097485166514, 1.4780839681625366, -2.8343756198883057, -0.3167150020599365, 0.6211540102958679, 0.42991161346435547, -0.6552433371543884, 0.4931038022041321, 0.23636344075202942, -0.24485737085342407, -0.24433393986973292, 0.33567733184918125, 0.9094800222304182,0.02163096935873776,1.1142578125,0.6662750244140625,-0.9001007080078125
20220209-1444,2022-02-09 14:45:04Z,u01, 197,40,movements,el-ex, lt, d,17772.001570375, 0.6721363293735411, -0.41793848954944124, 0.18992328338778758, 1.8470178842544556, -2.885573625564575, -0.3389694392681122, 0.5690653324127197, 0.4058772325515747, -0.7151421904563904, 0.5767934918403625, 0.2586277723312378, -0.17964839935302734, -0.22555309225474418, 0.3025800847961513, 0.9258468302802292,0.019462592045344118,1.1531524658203125,0.647064208984375,-0.8857269287109375
20220209-1444,2022-02-09 14:45:04Z,u01, 198,40,movements,el-ex, lt, d,17772.026515375, 0.5835683245633565, -0.3859411455943817, 0.15505437720467416, 1.6441948413848877, -3.1348092555999756, -0.22070316970348358, 0.5104758143424988, 0.3764312267303467, -0.7731196880340576, 0.6386178731918335, 0.1826203167438507, -0.06057476997375488, -0.20498326059011263, 0.26724897802590303, 0.9414049199354763,0.01779852922979941,1.1490936279296875,0.559051513671875,-0.8336944580078125
20220209-1444,2022-02-09 14:45:04Z,u01, 199,40,movements,el-ex, lt, d,17772.051461375002, 0.49389994381516666, -0.35875198978789447, 0.13196589003196002, 1.1100280284881592, -3.3686091899871826, -0.1438145786523819, 0.44388246536254883, 0.3511059582233429, -0.8244349360466003, 0.6079668998718262, 0.169203519821167, 0.030169248580932617, -0.18848552795899015, 0.2285951271026957, 0.9549039195122299,0.019390589171689565,1.021728515625,0.518035888671875,-0.7715606689453125
20220209-1444,2022-02-09 14:45:04Z,u01, 200,40,movements,el-ex, lt, d,17772.076406375, 0.4051313598151659, -0.343239591536075, 0.1190512059700681, 0.4036337733268738, -3.3731420040130615, -0.19201155006885529, 0.37114909291267395, 0.33653947710990906, -0.8654417991638184, 0.5289211273193359, 0.17330244183540344, 0.26792293787002563, -0.17878313859380485, 0.18792466049512707, 0.9654979866348085,0.023121084323806884,0.9000701904296875,0.5098419189453125,-0.5975189208984375
20220209-1444,2022-02-09 14:45:04Z,u01, 201,40,movements,el-ex, lt, d,17772.101352375, 0.31743125286588064, -0.3412453752778142, 0.11109635446020476, 0.0981435775756836, -3.452916145324707, -0.30542904138565063, 0.29412949085235596, 0.33466091752052307, -0.8952596783638, 0.557249903678894, 0.20037326216697693, 0.3440054655075073, -0.17605073754457246, 0.14620633699080532, 0.9730818725003679,0.027230851532926315,0.827728271484375,0.5479736328125,-0.53607177734375
20220209-1444,2022-02-09 14:45:04Z,u01, 202,40,movements,el-ex, lt, d,17772.126297375, 0.2277658473493113, -0.3373813866283097, 0.10085305652781457, 0.46503567695617676, -3.4293055534362793, -0.3662610650062561, 0.2130720019340515, 0.33101725578308105, -0.9192540049552917, 0.4454973340034485, 0.2713540196418762, 0.40578049421310425, -0.17223876768038476, 0.10347369581581359, 0.9791364517147275,0.030313356514515166,0.6585693359375,0.6023712158203125,-0.5134735107421875
20220209-1444,2022-02-09 14:45:04Z,u01, 203,40,movements,el-ex, lt, d,17772.151243375, 0.14117339720122807, -0.3239863413233405, 0.08760687561912837, 0.7110536098480225, -3.159850835800171, -0.4267151355743408, 0.1333846002817154, 0.3183480203151703, -0.9385430812835693, 0.3823777437210083, 0.2352866530418396, 0.5044610500335693, -0.16377759369527234, 0.06249294329032647, 0.9840039913505894,0.03174425764140221,0.4938812255859375,0.54058837890625,-0.42303466796875
20220209-1444,2022-02-09 14:45:04Z,u01, 204,40,movements,el-ex, lt, d,17772.176189375, 0.06072253196454303, -0.30609705200136916, 0.07273469239020867, 0.8399994373321533, -2.940289258956909, -0.5518262982368469, 0.05786438658833504, 0.30133941769599915, -0.9517595767974854, 0.32923585176467896, 0.19010043144226074, 0.6947863101959229, -0.15337153737189002, 0.024441433588622684, 0.9873706231093133,0.03129290341903035,0.3871002197265625,0.4914398193359375,-0.2569732666015625
20220209-1444,2022-02-09 14:45:04Z,u01, 205,40,movements,el-ex, lt, d,17772.201134375002, -0.014004074354849549, -0.2873259425334499, 0.05780681156302968, 0.596993088722229, -2.6816341876983643, -0.5324000120162964, -0.01342954020947218, 0.28338879346847534, -0.9589110612869263, 0.29808226227760315, 0.12513479590415955, 0.8762084245681763, -0.14290571349306797, -0.011064353489740227, 0.9892317225244763,0.029603011710255367,0.2613677978515625,0.3780059814453125,-0.047393798828125
20220209-1444,2022-02-09 14:45:04Z,u01, 206,40,movements,el-ex, lt, d,17772.226080375, -0.08191643440035602, -0.2778516973323855, 0.04483129352921876, 0.12620197236537933, -2.466782808303833, -0.5008797645568848, -0.07868661731481552, 0.27429038286209106, -0.9584222435951233, 0.20390023291110992, -0.010237008333206177, 1.0187859535217285, -0.13741956481782874, -0.043643311592866565, 0.9891590456232187,0.02784806208208923,0.125213623046875,0.2640533447265625,0.06036376953125
20220209-1444,2022-02-09 14:45:04Z,u01, 207,40,movements,el-ex, lt, d,17772.251025375, -0.13931356024249555, -0.2765298213011512, 0.03314805244985302, -0.0767781063914299, -1.8377816677093506, -0.41080328822135925, -0.13358774781227112, 0.2730189561843872, -0.9526882767677307, 0.10744944214820862, -0.07264050841331482, 1.1137447357177734, -0.13632917673465525, -0.07120543996094658, 0.987760032823297,0.02596664680209232,-0.0538330078125,0.188018798828125,0.1813201904296875
20220209-1444,2022-02-09 14:45:04Z,u01, 208,40,movements,el-ex, lt, d,17772.275971875002, -0.17859951501783508, -0.27707330205971925, 0.024279836866229858, -0.04591399431228638, -1.110780119895935, -0.25730574131011963, -0.1708759367465973, 0.27354174852371216, -0.946560263633728, 0.029091283679008484, -0.14014941453933716, 1.20274019241333, -0.13646128578262576, -0.08998989566751177, 0.9862506572287768,0.024289862916230087,-0.14178466796875,0.133392333984375,0.2561798095703125
20220209-1444,2022-02-09 14:45:04Z,u01, 209,40,movements,el-ex, lt, d,17772.300916875, -0.19904778005572016, -0.2763036469018719, 0.019055260602423397, 0.009737282991409302, -0.432587206363678, -0.16142873466014862, -0.1902359575033188, 0.27280136942863464, -0.9430745840072632, -0.005885273218154907, -0.16866010427474976, 1.2105611562728882, -0.1360874663238499, -0.0997140858225121, 0.9853959074151728,0.02307248625694336,-0.2067108154296875,0.1123504638671875,0.25177001953125
20220209-1444,2022-02-09 14:45:04Z,u01, 210,40,movements,el-ex, lt, d,17772.325862875, -0.20211112465364375, -0.27562941534156987, 0.017087963425422664, -0.0011554793454706669, 0.2097219079732895, -0.01705271378159523, -0.19316089153289795, 0.2721526622772217, -0.9426673650741577, 0.0033720582723617554, -0.1403166651725769, 1.1306862831115723, -0.1358192378587179, -0.10109123806107431, 0.9853108316431912,0.022278468357196435,-0.189788818359375,0.1318359375,0.188018798828125
20220209-1444,2022-02-09 14:45:04Z,u01, 211,40,movements,el-ex, lt, d,17772.350807875002, -0.19208395353183855, -0.27979550541393283, 0.015698142173503155, -0.386834055185318, 0.5848627686500549, -0.03077838011085987, -0.18348100781440735, 0.2761591076850891, -0.9434356689453125, 0.04149797558784485, -0.15166261792182922, 1.023468017578125, -0.13804964713484658, -0.09604403540926168, 0.9855315363672447,0.021107768245645975,-0.1351165771484375,0.132415771484375,0.0498199462890625
20220209-1444,2022-02-09 14:45:05Z,u01, 212,40,movements,el-ex, lt, d,17772.375753875, -0.17511076349520535, -0.2936384816523105, 0.012806749979875064, -0.7053386569023132, 0.8546415567398071, -0.004781600087881088, -0.16676020622253418, 0.28943687677383423, -0.9425589442253113, 0.04801630973815918, -0.08718159794807434, 0.8406912684440613, -0.14517506735199007, -0.08743418428268573, 0.9853499837503575,0.019102236112191417,-0.118743896484375,0.2022552490234375,-0.10186767578125
20220209-1444,2022-02-09 14:45:05Z,u01, 213,40,movements,el-ex, lt, d,17772.400699875, -0.15134613434898245, -0.3136248290035549, 0.009159255977924847, -0.961746871471405, 1.132099986076355, -0.009410507045686245, -0.14341473579406738, 0.30850866436958313, -0.9403481483459473, 0.04081462323665619, -0.07446935772895813, 0.7156319618225098, -0.15537999446604295, -0.07538562435437822, 0.9848389448025853,0.01631698035297796,-0.09625244140625,0.243377685546875,-0.2504730224609375
20220209-1444,2022-02-09 14:45:05Z,u01, 214,40,movements,el-ex, lt, d,17772.425644875002, -0.12147784863165768, -0.3408669516664101, 0.006102749880756594, -1.1498903036117554, 1.3027201890945435, 0.05468445271253586, -0.11420726776123047, 0.3343043029308319, -0.935519814491272, 0.08645152300596237, -0.057387739419937134, 0.5100284814834595, -0.1691134532515265, -0.06033840408529023, 0.9836580929750942,0.013297133244460912,-0.0277557373046875,0.27691650390625,-0.4254913330078125
20220209-1444,2022-02-09 14:45:05Z,u01, 215,40,movements,el-ex, lt, d,17772.450590875, -0.08720576119277054, -0.3656991463364673, 0.005288036999367033, -0.7593358755111694, 1.4805368185043335, 0.12254352122545242, -0.08133600652217865, 0.3576022982597351, -0.9303252696990967, 0.07346246391534805, -0.018750309944152832, 0.3347442150115967, -0.18154557814534225, -0.04334257374972211, 0.9823706053290515,0.01052334132359306,-0.0091705322265625,0.3570404052734375,-0.619049072265625
20220209-1444,2022-02-09 14:45:05Z,u01, 216,40,movements,el-ex, lt, d,17772.475535875, -0.04618115094567591, -0.377384480542599, 0.008623499846252746, -0.2273409366607666, 1.7072099447250366, 0.18472300469875336, -0.042916201055049896, 0.3684902489185333, -0.9286404848098755, 0.0541771799325943, 0.026315689086914062, 0.194707989692688, -0.1874249773195914, -0.023487056463535785, 0.9819607340490843,0.008564854039494585,0.011260986328125,0.394805908203125,-0.7339324951171875
20220209-1444,2022-02-09 14:45:05Z,u01, 217,40,movements,el-ex, lt, d,17772.500481875002, -0.0005043469466612703, -0.38463430289090733, 0.015131642364029656, -0.45265132188796997, 1.723332405090332, 0.28991520404815674, -0.0004674971860367805, 0.3752201795578003, -0.926935613155365, 0.07964535057544708, -0.051627010107040405, 0.139460027217865, -0.1911264815996597, -0.0016935877293055637, 0.9815355351981493,0.007474463699704281,0.094146728515625,0.3134613037109375,-0.810638427734375
20220209-1444,2022-02-09 14:45:05Z,u01, 218,40,movements,el-ex, lt, d,17772.525426875, 0.04587351803272389, -0.40200699262526385, 0.023731949883633984, -0.8385359048843384, 1.7006127834320068, 0.34537050127983093, 0.04220156371593475, 0.3912661075592041, -0.9193094372749329, 0.12727780640125275, -0.016235560178756714, 0.03007298707962036, -0.19985282167734414, 0.020103019241870107, 0.9795943106488259,0.007045080221616429,0.1694793701171875,0.375030517578125,-0.8892364501953125
20220209-1444,2022-02-09 14:45:05Z,u01, 219,40,movements,el-ex, lt, d,17772.550372875, 0.09257227459917398, -0.42008261627297916, 0.03534325898958427, -0.6260970830917358, 1.6951879262924194, 0.397953063249588, 0.08440293371677399, 0.4078359007835388, -0.9091457724571228, 0.10801038891077042, 0.04202374815940857, -0.021945476531982422, -0.20904412044795995, 0.04156524409672166, 0.976992762547375,0.007618117037230365,0.1939849853515625,0.462890625,-0.9358367919921875
20220209-1444,2022-02-09 14:45:05Z,u01, 220,40,movements,el-ex, lt, d,17772.575317875002, 0.14058460252886845, -0.4322619778536968, 0.04804803179633913, -0.48889341950416565, 1.717978835105896, 0.3884753882884979, 0.127233624458313, 0.41892579197883606, -0.8990621566772461, 0.0859469324350357, 0.05304384231567383, -0.01771634817123413, -0.21550880664449412, 0.06344180272185539, 0.974403174259588,0.008347303371944947,0.2131805419921875,0.4719696044921875,-0.916778564453125
20220209-1444,2022-02-09 14:45:05Z,u01, 221,40,movements,el-ex, lt, d,17772.600263875, 0.1899707946126614, -0.44285008227540307, 0.059941591801554055, -0.4888446033000946, 1.8918037414550781, 0.3189069330692291, 0.17061452567577362, 0.42851635813713074, -0.887279212474823, 0.03887338936328888, 0.04554373025894165, 0.021770179271697998, -0.22130461871777443, 0.08593400299540069, 0.9713758344753846,0.008282920626446089,0.2114715576171875,0.484832763671875,-0.845001220703125
20220209-1444,2022-02-09 14:45:05Z,u01, 222,40,movements,el-ex, lt, d,17772.625209875, 0.24490657556994594, -0.44938402713304315, 0.07031955985644389, -0.07404157519340515, 2.117332696914673, 0.29247575998306274, 0.21839246153831482, 0.43441081047058105, -0.8738375306129456, 0.09097951650619507, 0.11685878038406372, -0.03421294689178467, -0.22518690820602727, 0.11122988291754116, 0.9679217691159887,0.00681390854713898,0.3093719482421875,0.55126953125,-0.908050537109375
20220209-1444,2022-02-09 14:45:05Z,u01, 223,40,movements,el-ex, lt, d,17772.650154875002, 0.2994534712831763, -0.4399467845829458, 0.07528142246853008, 0.6704102158546448, 2.011176824569702, 0.30571481585502625, 0.26690664887428284, 0.42589130997657776, -0.8645099401473999, 0.14505013823509216, 0.15229475498199463, -0.1111522912979126, -0.2210877177377333, 0.13735081709846947, 0.9655261462765768,0.0037882063206792216,0.438995361328125,0.56365966796875,-0.989410400390625
20220209-1444,2022-02-09 14:45:05Z,u01, 224,40,movements,el-ex, lt, d,17772.675100875, 0.34661046337184287, -0.4235486842238127, 0.07971215043060632, 0.19531236588954926, 1.650733470916748, 0.36923760175704956, 0.3096935749053955, 0.41099813580513, -0.857420802116394, 0.10766485333442688, -0.03409075736999512, -0.06382858753204346, -0.21359924489041063, 0.16020287773253836, 0.9636938356020239,0.0021547930582395125,0.4173583984375,0.3769073486328125,-0.9212493896484375
20220209-1444,2022-02-09 14:45:05Z,u01, 225,40,movements,el-ex, lt, d,17772.700045875, 0.3939258353380711, -0.42851406673295434, 0.0931976976324717, -0.8030580282211304, 1.7247966527938843, 0.38054683804512024, 0.34911343455314636, 0.41551968455314636, -0.8399185538291931, 0.07268530130386353, -0.08222192525863647, -0.09532308578491211, -0.2171915077408835, 0.18129690608938082, 0.9591401247183463,0.0030736856280199065,0.4510650634765625,0.377471923828125,-0.9480438232421875
20220209-1444,2022-02-09 14:45:05Z,u01, 226,40,movements,el-ex, lt, d,17772.724991875002, 0.44375193227677057, -0.4399162333826032, 0.11142883403268763, -0.41870349645614624, 1.659185767173767, 0.4442852735519409, 0.38845327496528625, 0.42586368322372437, -0.8171561360359192, 0.16243481636047363, 0.1372009515762329, -0.14056169986724854, -0.22446881261882423, 0.2025726291237485, 0.9531801567328864,0.005071663459420339,0.5508880615234375,0.5630645751953125,-0.9577178955078125
20220209-1444,2022-02-09 14:45:05Z,u01, 227,40,movements,el-ex, lt, d,17772.749936875, 0.4895642214168365, -0.4395296181523616, 0.1226164980336765, -0.027505528181791306, 1.6281131505966187, 0.31299030780792236, 0.4255458414554596, 0.4255138337612152, -0.7986543774604797, 0.08945360779762268, 0.13950389623641968, -0.053152263164520264, -0.22559547054601298, 0.22311319087064876, 0.9483140374363727,0.005281767051269537,0.5115966796875,0.5355224609375,-0.826202392578125
20220209-1444,2022-02-09 14:45:05Z,u01, 228,40,movements,el-ex, lt, d,17772.774882875, 0.5337920753233908, -0.4394979277554181, 0.13098207187147426, -0.3082996904850006, 1.6454157829284668, 0.22545160353183746, 0.4604477882385254, 0.42548516392707825, -0.7790701389312744, 0.074555903673172, 0.0008606910705566406, -0.026212453842163086, -0.2266610372548451, 0.2430837665232738, 0.9431421583847098,0.00424133442542346,0.535003662109375,0.4263458251953125,-0.8052825927734375
20220209-1444,2022-02-09 14:45:05Z,u01, 229,40,movements,el-ex, lt, d,17772.799827875002, 0.5798474791890468, -0.4409065564424027, 0.1405945574132533, -0.06472739577293396, 1.6860405206680298, 0.3078571856021881, 0.495498389005661, 0.4267595112323761, -0.7565432786941528, 0.13436919450759888, 0.06518390774726868, -0.10783660411834717, -0.22862227983236197, 0.2635530521124135, 0.9371556691063424,0.0033196976265201794,0.64556884765625,0.5010223388671875,-0.859344482421875
20220209-1444,2022-02-09 14:45:05Z,u01, 230,40,movements,el-ex, lt, d,17772.824773875, 0.6232728994579297, -0.4373433401390395, 0.14617988583903294, -0.059508632868528366, 1.594948410987854, 0.16890709102153778, 0.5287584066390991, 0.4235343337059021, -0.7355496287345886, 0.10631245374679565, 0.022617429494857788, -0.0544893741607666, -0.22779025957916985, 0.28343741899262115, 0.9315431635984324,0.001514568425383056,0.63507080078125,0.4461517333984375,-0.7900390625
20220209-1444,2022-02-09 14:45:05Z,u01, 231,40,movements,el-ex, lt, d,17772.849719875, 0.6638766278194436, -0.43816322143749403, 0.1515096059868007, -0.17260825634002686, 1.5112969875335693, 0.08720404654741287, 0.5579662919044495, 0.4242769181728363, -0.7132060527801514, 0.08973878622055054, 0.018105924129486084, -0.06711316108703613, -0.2289538402986908, 0.3016241478788223, 0.9255282905431442,-0.000779788665587422,0.6519622802734375,0.4545745849609375,-0.7726593017578125
20220209-1444,2022-02-09 14:45:05Z,u01, 232,40,movements,el-ex, lt, d,17772.874664875002, 0.7023962169706371, -0.4396078214144503, 0.15552895540820447, -0.11527955532073975, 1.42882239818573, 0.08209936320781708, 0.5846213698387146, 0.425584614276886, -0.6907210946083069, 0.1141701340675354, 0.01701188087463379, -0.07862704992294312, -0.2301935379708264, 0.31882660163005033, 0.9194278970111565,-0.003594253170951467,0.69879150390625,0.442596435546875,-0.76934814453125
20220209-1444,2022-02-09 14:45:05Z,u01, 233,40,movements,el-ex, lt, d,17772.899610875, 0.7393326601748859, -0.44092777636645064, 0.16114891467910725, -0.31982046365737915, 1.328100323677063, 0.139748215675354, 0.6093506217002869, 0.4267786741256714, -0.6682453751564026, 0.12140810489654541, -0.0193231999874115, -0.04234111309051514, -0.2316248392035976, 0.3350033443893202, 0.9132865911697325,-0.005520794415131147,0.733245849609375,0.4028167724609375,-0.6738433837890625
20220209-1444,2022-02-09 14:45:05Z,u01, 234,40,movements,el-ex, lt, d,17772.924555875, 0.7766200506810472, -0.44923626678528267, 0.17454570903132646, -0.7535643577575684, 1.2259865999221802, 0.07685141265392303, 0.6313313245773315, 0.4342777132987976, -0.6425135731697083, 0.12880057096481323, -0.025220036506652832, -0.012149453163146973, -0.23753972337569904, 0.34974004649900303, 0.9062163314164495,-0.005365345824574208,0.7601318359375,0.4090576171875,-0.6546630859375
20220209-1444,2022-02-09 14:45:05Z,u01, 235,40,movements,el-ex, lt, d,17772.949501875002, 0.8143501290883737, -0.46017129530927314, 0.189290614551285, -0.5019909143447876, 1.2880885601043701, 0.06004286929965019, 0.6516254544258118, 0.44410160183906555, -0.6149455308914185, 0.12757986783981323, 0.04793331027030945, -0.05619698762893677, -0.24491708695523548, 0.3640643683827923, 0.8985785082783401,-0.0054209215290502155,0.783843994140625,0.507293701171875,-0.6806488037109375
20220209-1444,2022-02-09 14:45:05Z,u01, 236,40,movements,el-ex, lt, d,17772.974446875, 0.850174379200459, -0.46547568352538155, 0.19801842314762494, -0.3606189787387848, 1.2502660751342773, 0.06725923717021942, 0.6714531779289246, 0.4488479197025299, -0.5896492600440979, 0.11202466487884521, 0.02966773509979248, -0.007900118827819824, -0.24875250571886798, 0.37854663170865294, 0.8915017357122157,-0.007028652775631472,0.783477783203125,0.478515625,-0.5975494384765625
20220209-1444,2022-02-09 14:45:05Z,u01, 237,40,movements,el-ex, lt, d,17772.999392875, 0.8867643620799501, -0.4722286330508555, 0.20911364111477526, -0.5450834631919861, 1.3284372091293335, 0.0015362827107310295, 0.6902092099189758, 0.45487213134765625, -0.5627633333206177, 0.08389967679977417, -0.00400543212890625, -0.010555088520050049, -0.2536838802803949, 0.3927630627956549, 0.8839203916544404,-0.008146677435248662,0.7722320556640625,0.4616241455078125,-0.5772705078125
20220209-1444,2022-02-09 14:45:05Z,u01, 238,40,movements,el-ex, lt, d,17773.024337875002, 0.9261026365634439, -0.47706333853210814, 0.21649970978586983, 0.03993656113743782, 1.531436800956726, 0.04979369044303894, 0.7100415825843811, 0.45917239785194397, -0.5338554978370667, 0.0933336615562439, 0.10731017589569092, -0.11949527263641357, -0.25704968624127983, 0.40865353970989143, 0.87567507684353,-0.010997551605839817,0.803375244140625,0.5664825439453125,-0.653350830078125
20220209-1444,2022-02-09 14:45:05Z,u01, 239,40,movements,el-ex, lt, d,17773.049283875, 0.9607685633465524, -0.46953986297586686, 0.20751815915539396, 0.6957905292510986, 1.5223824977874756, 0.08129402995109558, 0.7309288382530212, 0.45247599482536316, -0.5108901262283325, 0.07862627506256104, 0.10050255060195923, -0.1595504879951477, -0.2517314664708032, 0.42565972144454933, 0.868985550145818,-0.017589143811374885,0.8078155517578125,0.5279083251953125,-0.6500244140625
20220209-1444,2022-02-09 14:45:05Z,u01, 240,40,movements,el-ex, lt, d,17773.074229875, 0.9916593480897681, -0.46123147416552235, 0.19741606031023534, 0.11491799354553223, 1.3059866428375244, 0.04439759999513626, 0.7494798898696899, 0.4450512230396271, -0.49011164903640747, 0.043641507625579834, -0.03231614828109741, -0.02204960584640503, -0.24571580270000587, 0.44109853906294016, 0.8628371449153729,-0.0238334412515262,0.793121337890625,0.4127349853515625,-0.5121612548828125
20220209-1444,2022-02-09 14:45:05Z,u01, 241,40,movements,el-ex, lt, d,17773.099174875002, 1.0267227059941957, -0.4654899294449506, 0.20425711333130891, -0.5972061157226562, 1.2911436557769775, -0.08020378649234772, 0.7645721435546875, 0.44886064529418945, -0.4625512659549713, 0.09466558694839478, -0.028145283460617065, -0.0417669415473938, -0.2485904182713542, 0.45489248846977454, 0.8547430348745321,-0.02626862457808926,0.887939453125,0.4537353515625,-0.532012939453125
20220209-1444,2022-02-09 14:45:05Z,u01, 242,40,movements,el-ex, lt, d,17773.124120875, 1.0624093861871906, -0.4720787816345465, 0.21364630019506084, -0.07864338159561157, 1.2254672050476074, -0.04217597842216492, 0.7779883146286011, 0.45473867654800415, -0.43352842330932617, 0.16646969318389893, 0.13498300313949585, -0.16415825486183167, -0.25299191147226185, 0.46822096959394893, 0.8461424621242837,-0.02840996589015843,0.9444580078125,0.5897216796875,-0.597686767578125
20220209-1444,2022-02-09 14:45:05Z,u01, 243,40,movements,el-ex, lt, d,17773.149065875, 1.0880897185370264, -0.46971812627789106, 0.20289098348408743, 0.7789592742919922, 1.2144370079040527, -0.13997884094715118, 0.7898123860359192, 0.4526349604129791, -0.4139058291912079, 0.06736540794372559, 0.13902461528778076, -0.18931978940963745, -0.24906391348093276, 0.48063941643443187, 0.8400527142864719,-0.035558178802293006,0.841400146484375,0.572540283203125,-0.589996337890625
20220209-1444,2022-02-09 14:45:05Z,u01, 244,40,movements,el-ex, lt, d,17773.174011875002, 1.1060500328546572, -0.46309388483073577, 0.17909284836316136, 0.7928436398506165, 1.044087290763855, -0.2047717422246933, 0.799781322479248, 0.4467182755470276, -0.4009896516799927, 0.03142601251602173, 0.016813278198242188, -0.10953885316848755, -0.24021320721841333, 0.4917344706376782, 0.8356911914850406,-0.0459904084523603,0.831207275390625,0.463531494140625,-0.510528564453125
20220209-1444,2022-02-09 14:45:05Z,u01, 245,40,movements,el-ex, lt, d,17773.198956875, 1.1246033765564534, -0.46335485404673343, 0.1637498759220588, 0.21277648210525513, 0.9936456084251404, -0.2924705147743225, 0.8069776892662048, 0.4469517171382904, -0.3860325217247009, 0.07430887222290039, -0.025992274284362793, -0.0811305046081543, -0.2360433684724372, 0.5012656660436581, 0.8306795055361726,-0.05466058703472565,0.910400390625,0.4305419921875,-0.482086181640625
20220209-1444,2022-02-09 14:45:05Z,u01, 246,40,movements,el-ex, lt, d,17773.223902875, 1.1438959355293004, -0.46789144728754234, 0.1553427635222346, 0.34397250413894653, 0.8694181442260742, -0.2856958210468292, 0.8124206066131592, 0.45100536942481995, -0.3695496618747711, 0.14712834358215332, 0.03019583225250244, -0.137362539768219, -0.23519061938635732, 0.5098142260841796, 0.8252130097356506,-0.06163092386311281,0.9595489501953125,0.481201171875,-0.5069122314453125
20220209-1444,2022-02-09 14:45:05Z,u01, 247,40,movements,el-ex, lt, d,17773.248847875002, 1.1576465477546227, -0.4705469128296067, 0.13752368044336552, 0.7238240838050842, 0.8937159776687622, -0.3696879744529724, 0.8163254261016846, 0.45337381958961487, -0.3578616678714752, 0.03255152702331543, 0.01977074146270752, -0.1256435513496399, -0.23122627514657074, 0.5173041361699575, 0.820883071634145,-0.07128722992068165,0.8297882080078125,0.4683380126953125,-0.4769744873046875
20220209-1444,2022-02-09 14:45:05Z,u01, 248,40,movements,el-ex, lt, d,17773.27379341667, 1.1695526639729081, -0.470477646473901, 0.11379188800421314, 0.7009481191635132, 0.8951174020767212, -0.30020493268966675, 0.820557177066803, 0.45331209897994995, -0.3481295704841614, -0.02154594659805298, -0.035083889961242676, -0.04652374982833862, -0.2245577577362535, 0.5248895421064287, 0.8168749574600636,-0.08234196304110875,0.79901123046875,0.4182281494140625,-0.3946533203125
20220209-1444,2022-02-09 14:45:05Z,u01, 249,40,movements,el-ex, lt, d,17773.298739416667, 1.186627015025739, -0.4743999157504626, 0.10297029205701519, -0.13764508068561554, 0.8282643556594849, -0.28041872382164, 0.8247265219688416, 0.45680472254753113, -0.33340004086494446, 0.029262125492095947, -0.12047046422958374, -0.032063186168670654, -0.22253117036152886, 0.5327099223275436, 0.8115711336842659,-0.08973454584153795,0.8797149658203125,0.3270721435546875,-0.3777618408203125
20220209-1444,2022-02-09 14:45:05Z,u01, 250,40,movements,el-ex, lt, d,17773.323684416668, 1.2082241440153187, -0.48458922539773613, 0.11126944995425951, -0.5421571731567383, 0.611073911190033, -0.2583928406238556, 0.8273391127586365, 0.46584492921829224, -0.3138447403907776, 0.10358434915542603, -0.03472304344177246, -0.09481608867645264, -0.22782254357066917, 0.5396058950310102, 0.805309040656827,-0.09165004592291787,0.9309234619140625,0.431121826171875,-0.408660888671875
20220209-1444,2022-02-09 14:45:05Z,u01, 251,40,movements,el-ex, lt, d,17773.34863041667, 1.228304952487961, -0.4949782839406236, 0.12179657828724294, -0.4181857407093048, 0.6253833174705505, -0.26117005944252014, 0.8288705945014954, 0.47501254081726074, -0.2955275774002075, 0.017015576362609863, 0.003991365432739258, -0.05499723553657532, -0.23383720504164265, 0.5454872817326349, 0.7994833467147351,-0.09268285672838711,0.8280181884765625,0.476654052734375,-0.3377838134765625
20220209-1444,2022-02-09 14:45:05Z,u01, 252,40,movements,el-ex, lt, d,17773.373575416666, 1.2483814960125048, -0.5034583316000376, 0.12914703760115953, -0.3153569996356964, 0.7030364274978638, -0.215887650847435, 0.8307858109474182, 0.48245763778686523, -0.2775419354438782, 0.014963030815124512, -0.008321285247802734, -0.02023330330848694, -0.23821510109853208, 0.5517994186597165, 0.7936181444676076,-0.09455789596676853,0.8457489013671875,0.4741363525390625,-0.2977752685546875
