SessionID,LoggingTime,UID,RecNo,Hertz,Activity,MoveType,Wrist,Side,TimeStamp,DMRoll,DMPitch,DMYaw,DMRotX,DMRotY,DMRotZ,DMGrvX,DMGrvY,DMGrvZ,DMUAccelX,DMUAccelY,DMUAccelZ,DMQuatX,DMQuatY,DMQuatW,DMQuatZ,AccelroX,AceelroY,AceelroZ
20220209-1454,2022-02-09 14:55:00Z,u01, 1,40,movements,el-ex, lt, d,18367.580712000003, 0.26807521081584573, -0.540279161435068, 0.07464535649443592, -0.28646278381347656, 1.373313069343567, 0.424154132604599, 0.22714833915233612, 0.5143753886222839, -0.8269351124763489, 0.12281200289726257, -0.017289817333221436, -0.1081082820892334, -0.26909373906778616, 0.11883187502311718, 0.9557550699334476,-5.551115123125783e-17,0.3531494140625,0.493377685546875,-0.9404449462890625
20220209-1454,2022-02-09 14:55:00Z,u01, 2,40,movements,el-ex, lt, d,18367.605658, 0.30844317804176763, -0.5467795088146732, 0.09018421941925565, -0.5111516714096069, 1.2100242376327515, 0.45257991552352905, 0.2593153715133667, 0.5199389457702637, -0.8138912916183472, 0.08457198739051819, -0.03722715377807617, -0.10606110095977783, -0.2731882845217, 0.1357295412135382, 0.9523359093137507,0.0014552884937898414,0.3438873291015625,0.4827117919921875,-0.919952392578125
20220209-1454,2022-02-09 14:55:00Z,u01, 3,40,movements,el-ex, lt, d,18367.630604, 0.34778720037895533, -0.5559928472244577, 0.1082877710957977, -0.5786876678466797, 1.6206880807876587, 0.22021523118019104, 0.2894832193851471, 0.5277868509292603, -0.798524022102356, -0.10884964466094971, -0.001434922218322754, -0.06251418590545654, -0.2788984603557248, 0.15150459548808942, 0.9482866082432635,0.0038430794273618396,0.595428466796875,0.50457763671875,-0.896484375
20220209-1454,2022-02-09 14:55:00Z,u01, 4,40,movements,el-ex, lt, d,18367.65555, 0.38778862866942104, -0.5598365410872489, 0.12510487878716486, -0.16213445365428925, 1.257372260093689, 0.4643374979496002, 0.3204157054424286, 0.5310477018356323, -0.7844247221946716, 0.07181146740913391, 0.05191439390182495, -0.10710054636001587, -0.2821458644223145, 0.16787304926287264, 0.944551979292621,0.005823358666970424,0.3922271728515625,0.5829620361328125,-0.8915252685546875
20220209-1454,2022-02-09 14:55:00Z,u01, 5,40,movements,el-ex, lt, d,18367.680496, 0.42495642657756727, -0.5558271618692882, 0.13750318729897618, 0.08401867002248764, 1.172064185142517, 0.42474254965782166, 0.3502180576324463, 0.5276461243629456, -0.7739101648330688, 0.0809343159198761, 0.05722326040267944, -0.12933385372161865, -0.2814777877999898, 0.18388905089154292, 0.9417580032568331,0.006856834851047433,0.4316253662109375,0.581512451171875,-0.8930511474609375
20220209-1454,2022-02-09 14:55:00Z,u01, 6,40,movements,el-ex, lt, d,18367.705441000002, 0.45855233488494945, -0.5505823142372103, 0.14789471838584917, -0.05463894456624985, 1.1025078296661377, 0.3876636028289795, 0.3772355914115906, 0.5231835842132568, -0.7641807794570923, 0.057487308979034424, 0.014368295669555664, -0.05730658769607544, -0.2801489604121373, 0.1985602162575961, 0.9391657519492502,0.007627511525779673,0.434722900390625,0.5375518798828125,-0.8214874267578125
20220209-1454,2022-02-09 14:55:00Z,u01, 7,40,movements,el-ex, lt, d,18367.730387, 0.4925580016123795, -0.5504501969446802, 0.16154889804262626, -0.3579487204551697, 1.0373107194900513, 0.42161792516708374, 0.4030316472053528, 0.5230709910392761, -0.7509742379188538, 0.09651058912277222, 0.016647696495056152, -0.07655566930770874, -0.28163489981948375, 0.21259035951924868, 0.9356288780331135,0.009267849188172583,0.5081787109375,0.543426513671875,-0.82489013671875
20220209-1454,2022-02-09 14:55:00Z,u01, 8,40,movements,el-ex, lt, d,18367.755333, 0.5260125373679175, -0.5545384868578553, 0.17811521368652808, -0.41819852590560913, 0.954059362411499, 0.3856238126754761, 0.4268476665019989, 0.5265510082244873, -0.7352177500724792, 0.06959706544876099, 0.053694963455200195, -0.07244515419006348, -0.28550974154839226, 0.22555554661981422, 0.9313815975287831,0.011717810954803065,0.4964447021484375,0.5802459716796875,-0.8076629638671875
20220209-1454,2022-02-09 14:55:00Z,u01, 9,40,movements,el-ex, lt, d,18367.780279000002, 0.5584504621288029, -0.5578307570389587, 0.19315027047443026, -0.35122960805892944, 1.00126314163208, 0.35172104835510254, 0.4495468735694885, 0.5293470621109009, -0.7195132970809937, 0.02600860595703125, 0.05529344081878662, -0.03410303592681885, -0.2889655894609512, 0.23820632400470076, 0.9271311673165155,0.013582681256210594,0.48382568359375,0.5845947265625,-0.741851806640625
20220209-1454,2022-02-09 14:55:00Z,u01, 10,40,movements,el-ex, lt, d,18367.805224, 0.5907866803437182, -0.5601551752572637, 0.20700982521029193, -0.29588082432746887, 0.977189838886261, 0.3408548831939697, 0.4718875288963318, 0.5313176512718201, -0.703579306602478, 0.0827694833278656, 0.05194956064224243, -0.05285990238189697, -0.2919481655173279, 0.2509514300192112, 0.9228035257304759,0.014950957610466109,0.554656982421875,0.5832672119140625,-0.756439208984375
20220209-1454,2022-02-09 14:55:00Z,u01, 11,40,movements,el-ex, lt, d,18367.83017, 0.6214066726405573, -0.5608579717553718, 0.22011398417041886, -0.27450504899024963, 0.9025583267211914, 0.35353535413742065, 0.49298903346061707, 0.5319129228591919, -0.6884987354278564, 0.06366690993309021, 0.044411540031433105, -0.055031538009643555, -0.294189508383995, 0.26306492238735085, 0.9186843800263106,0.01638699846866193,0.5496673583984375,0.57183837890625,-0.74261474609375
20220209-1454,2022-02-09 14:55:00Z,u01, 12,40,movements,el-ex, lt, d,18367.855116000002, 0.6514321288092568, -0.5622501348499603, 0.2336349818764265, -0.3237045109272003, 0.9428672790527344, 0.31771570444107056, 0.5129867196083069, 0.5330913066864014, -0.6727989315986633, 0.006514072418212891, 0.03668719530105591, -0.01224440336227417, -0.2968892551308701, 0.27469494720104926, 0.9143732950660081,0.017917918092693497,0.519500732421875,0.5697784423828125,-0.6850433349609375
20220209-1454,2022-02-09 14:55:00Z,u01, 13,40,movements,el-ex, lt, d,18367.880062875, 0.6821874768764212, -0.5625232243179095, 0.24502284760847318, -0.1289316862821579, 1.0092403888702393, 0.27414822578430176, 0.5333412289619446, 0.5333223342895508, -0.6565931439399719, 0.034804582595825195, 0.074832022190094, -0.029335200786590576, -0.2988899579269225, 0.2869986466433029, 0.9099203765868609,0.018484071026451,0.579681396484375,0.60577392578125,-0.6921234130859375
20220209-1454,2022-02-09 14:55:00Z,u01, 14,40,movements,el-ex, lt, d,18367.905008875, 0.7108807566658121, -0.5592990107191907, 0.25092653641168516, 0.04272765666246414, 1.0211875438690186, 0.2157794088125229, 0.5530780553817749, 0.530592143535614, -0.6423213481903076, 0.04412049055099487, 0.059724628925323486, -0.05918622016906738, -0.29858725676621967, 0.2994744889147791, 0.9060111123069619,0.01745490003990685,0.597198486328125,0.5903167724609375,-0.701507568359375
20220209-1454,2022-02-09 14:55:00Z,u01, 15,40,movements,el-ex, lt, d,18367.929953875002, 0.7379332089530336, -0.5556663112003208, 0.2547283558413448, -0.020385831594467163, 0.9751355648040771, 0.18947342038154602, 0.5715428590774536, 0.5275095105171204, -0.6285479664802551, 0.028615832328796387, 0.053331613540649414, -0.0478893518447876, -0.2977953826869123, 0.31151874656630696, 0.9022327969872488,0.015812917908399338,0.6011199951171875,0.572998046875,-0.6693267822265625
20220209-1454,2022-02-09 14:55:00Z,u01, 16,40,movements,el-ex, lt, d,18367.954899875, 0.7651627876530943, -0.5547445680512031, 0.26077028608675784, -0.18405428528785706, 0.9548968076705933, 0.14893898367881775, 0.5887805223464966, 0.5267261862754822, -0.6131044626235962, 0.021555781364440918, 0.029700815677642822, -0.002862274646759033, -0.29855825162817434, 0.3229717440259798, 0.897963086525897,0.014648939365534963,0.6103363037109375,0.556427001953125,-0.615966796875
20220209-1454,2022-02-09 14:55:00Z,u01, 17,40,movements,el-ex, lt, d,18367.979845875, 0.7926008643278549, -0.5557324586704067, 0.2681266053864805, -0.19607017934322357, 0.9072915315628052, 0.14364281296730042, 0.6050083637237549, 0.5275656580924988, -0.5963551998138428, 0.03294640779495239, 0.05475550889968872, -0.0077402591705322266, -0.30038950831197014, 0.3340487349532302, 0.8933038507702643,0.013639526685709391,0.6405029296875,0.5854949951171875,-0.6070556640625
20220209-1454,2022-02-09 14:55:00Z,u01, 18,40,movements,el-ex, lt, d,18368.004791875002, 0.8181071295671098, -0.5562976674232212, 0.273719848201798, -0.11157968640327454, 0.899407684803009, 0.07350175082683563, 0.6198029518127441, 0.5280457735061646, -0.5805273652076721, 0.020883142948150635, 0.047622621059417725, -0.035164713859558105, -0.3017466615741293, 0.34450727768497563, 0.8888843871780323,0.01217688118455651,0.64068603515625,0.5756683349609375,-0.615692138671875
20220209-1454,2022-02-09 14:55:00Z,u01, 19,40,movements,el-ex, lt, d,18368.029737875, 0.8431612185256905, -0.5584698399439404, 0.27856888757875714, -0.24431246519088745, 0.8760709166526794, 0.03770586848258972, 0.6332935094833374, 0.5298891663551331, -0.564054012298584, 0.016257941722869873, 0.02841472625732422, -0.0029167532920837402, -0.3036633662212054, 0.3546287393915813, 0.8842655516888765,0.010079509473877313,0.657684326171875,0.5538787841796875,-0.54986572265625
20220209-1454,2022-02-09 14:55:00Z,u01, 20,40,movements,el-ex, lt, d,18368.054682875, 0.8697194380780934, -0.5626426901019526, 0.2870197517414301, -0.4062582552433014, 0.8835649490356445, 0.07678982615470886, 0.6463533639907837, 0.5334233641624451, -0.5456068515777588, 0.036126554012298584, 0.014260292053222656, 0.050611793994903564, -0.3070806258168954, 0.36455186395816885, 0.8790478121067313,0.008851595627352493,0.6824798583984375,0.5476837158203125,-0.4949951171875
20220209-1454,2022-02-09 14:55:00Z,u01, 21,40,movements,el-ex, lt, d,18368.079628875003, 0.898444604925235, -0.5683121815095881, 0.2987124889364337, -0.4455975890159607, 0.901309072971344, 0.07738257944583893, 0.6593804955482483, 0.5382103323936462, -0.5249256491661072, 0.03269714117050171, 0.02493053674697876, 0.03958946466445923, -0.3117494263312437, 0.37463243591338297, 0.8731519480167502,0.008273353361473168,0.6944427490234375,0.5646514892578125,-0.4931182861328125
20220209-1454,2022-02-09 14:55:00Z,u01, 22,40,movements,el-ex, lt, d,18368.104574875, 0.9272658983006559, -0.5729203048366834, 0.30880062589274987, -0.2601698040962219, 0.9760631918907166, 0.04382381960749626, 0.6722424626350403, 0.5420883297920227, -0.5042126178741455, 0.029982328414916992, 0.054484546184539795, -0.004881560802459717, -0.3156946103712436, 0.3850072596353079, 0.8672117122011205,0.007090483825555716,0.7022247314453125,0.5965728759765625,-0.50909423828125
20220209-1454,2022-02-09 14:55:00Z,u01, 23,40,movements,el-ex, lt, d,18368.129520875, 0.9544205674664029, -0.5735588619674062, 0.3125492813109125, -0.012731474824249744, 1.001557469367981, 0.06277893483638763, 0.6854020953178406, 0.542624831199646, -0.48557427525520325, 0.0441511869430542, 0.04634922742843628, 0.017846643924713135, -0.31676712805037854, 0.39607000392148717, 0.8618404877963421,0.0042677277512693235,0.734588623046875,0.58026123046875,-0.4646453857421875
20220209-1454,2022-02-09 14:55:00Z,u01, 24,40,movements,el-ex, lt, d,18368.154465875003, 0.9806318443043597, -0.5737641008770862, 0.3162885573366583, -0.2383798062801361, 0.8899820446968079, 0.06742208451032639, 0.6978002190589905, 0.5427972078323364, -0.4673823118209839, 0.010787487030029297, -0.013012051582336426, -0.015543103218078613, -0.3176404450014342, 0.4067104511498465, 0.8565562056012738,0.001667734441201163,0.708587646484375,0.52978515625,-0.4829254150390625
20220209-1454,2022-02-09 14:55:00Z,u01, 25,40,movements,el-ex, lt, d,18368.179411875, 1.007318166306326, -0.5775420797517047, 0.328035177877517, -0.5624439120292664, 0.7453212141990662, 0.10709220170974731, 0.7082841992378235, 0.5459663271903992, -0.44749781489372253, -0.07077199220657349, -0.01264113187789917, -0.06852385401725769, -0.3216074208393462, 0.4157159662205281, 0.8507330243796589,0.0014887359607541617,0.6260223388671875,0.5402984619140625,-0.513702392578125
20220209-1454,2022-02-09 14:55:00Z,u01, 26,40,movements,el-ex, lt, d,18368.204357875, 1.0369476404467834, -0.5832162658484527, 0.34718448342352287, -0.750577986240387, 0.7281553745269775, 0.15481717884540558, 0.7185520529747009, 0.5507113933563232, -0.4247351586818695, 0.06437647342681885, 0.022713899612426758, -0.0665062665939331, -0.3279361622993248, 0.42437046031359604, 0.8440120650272349,0.0033611801657596474,0.782928466796875,0.57342529296875,-0.491241455078125
20220209-1454,2022-02-09 14:55:00Z,u01, 27,40,movements,el-ex, lt, d,18368.229303875, 1.067076619208648, -0.5904491715353513, 0.37206222596244487, -0.9204273223876953, 0.5591322779655457, 0.13688504695892334, 0.727513313293457, 0.5567342042922974, -0.40096327662467957, 0.16707903146743774, 0.04374492168426514, -0.09642744064331055, -0.3361912206049296, 0.43184931201336096, 0.8369190769889003,0.006941646353936848,0.8913421630859375,0.6053619384765625,-0.496246337890625
20220209-1454,2022-02-09 14:55:00Z,u01, 28,40,movements,el-ex, lt, d,18368.254249875, 1.0949488449949014, -0.5991204270884911, 0.3964987712108733, -0.7852200269699097, 0.5843766331672668, 0.028021421283483505, 0.7340860366821289, 0.5639163255691528, -0.3783069849014282, 0.04423433542251587, 0.06520348787307739, -0.06549486517906189, -0.34498839092257877, 0.43798347580555624, 0.8300915405824261,0.01007752355296393,0.7783203125,0.629119873046875,-0.4438018798828125
20220209-1454,2022-02-09 14:55:00Z,u01, 29,40,movements,el-ex, lt, d,18368.279194875002, 1.1205223432456624, -0.6065844476001789, 0.4126973475361009, -0.42265644669532776, 0.7428687810897827, -0.0698942244052887, 0.7397093772888184, 0.5700645446777344, -0.3575703501701355, -0.02878701686859131, 0.06433486938476562, -0.04025673866271973, -0.3515449316932358, 0.4445570666529553, 0.8238199160462425,0.010296607182163076,0.7043304443359375,0.6334228515625,-0.381622314453125
20220209-1454,2022-02-09 14:55:00Z,u01, 30,40,movements,el-ex, lt, d,18368.304140875, 1.1449629045414362, -0.6095877773840201, 0.41826428298228224, 0.013993513770401478, 0.8887140154838562, 0.0037135500460863113, 0.74666428565979, 0.5725295543670654, -0.33867770433425903, 0.07335835695266724, 0.048335373401641846, -0.07865017652511597, -0.3540360112526728, 0.4531221111348577, 0.8180975884398924,0.007440025437629838,0.8200225830078125,0.6208648681640625,-0.417327880859375
20220209-1454,2022-02-09 14:55:00Z,u01, 31,40,movements,el-ex, lt, d,18368.329086875, 1.1644176152170171, -0.6067622143682148, 0.4145171413564709, 0.23312710225582123, 0.8130238056182861, 0.08778747916221619, 0.7545942664146423, 0.5702106356620789, -0.32472652196884155, 0.12330484390258789, 0.010905086994171143, -0.10877564549446106, -0.35217329054148333, 0.4621803934743207, 0.8138504615843241,0.003269473095162123,0.8682861328125,0.565155029296875,-0.42437744140625
20220209-1454,2022-02-09 14:55:00Z,u01, 32,40,movements,el-ex, lt, d,18368.354032875002, 1.1834934898636638, -0.6034954637013192, 0.4129034168733703, -0.08571068197488785, 0.7647526860237122, 0.09984628111124039, 0.762371838092804, 0.5675239562988281, -0.31097567081451416, 0.009478867053985596, -0.07382583618164062, -0.034101784229278564, -0.3505982250635481, 0.4707367086296577, 0.8096220645310515,0.00019136903865873967,0.7718505859375,0.4936981201171875,-0.3450775146484375
20220209-1454,2022-02-09 14:55:00Z,u01, 33,40,movements,el-ex, lt, d,18368.378977875, 1.208476964652773, -0.6035464026392107, 0.4223988358111522, -0.4443407952785492, 0.8056444525718689, 0.11875278502702713, 0.7698754072189331, 0.56756591796875, -0.29182368516921997, -0.02082139253616333, -0.08505237102508545, -0.0006872415542602539, -0.35287071272951326, 0.47913507004932143, 0.8036864262125524,-0.0003872445224565313,0.762603759765625,0.4882965087890625,-0.2923736572265625
20220209-1454,2022-02-09 14:55:01Z,u01, 34,40,movements,el-ex, lt, d,18368.403923875, 1.2377139460209898, -0.6043785512719827, 0.4383124215672626, -0.46155431866645813, 0.765511155128479, 0.18971411883831024, 0.7776305675506592, 0.568250834941864, -0.2690387964248657, 0.0926545262336731, -0.014188945293426514, -0.054508477449417114, -0.3570218305474671, 0.48786884228481425, 0.7965671385020325,0.000546142995634713,0.8702850341796875,0.5540618896484375,-0.32354736328125
20220209-1454,2022-02-09 14:55:01Z,u01, 35,40,movements,el-ex, lt, d,18368.428869875002, 1.2624237586505207, -0.6024544581159942, 0.4487243200723338, -0.1263599693775177, 0.7469564080238342, 0.17446164786815643, 0.7850807905197144, 0.5666665434837341, -0.25007495284080505, 0.0702354907989502, 0.041564106941223145, -0.05600106716156006, -0.35890185109910944, 0.496137068481442, 0.7905927993805735,0.000830331096688175,0.83868408203125,0.613433837890625,-0.2954254150390625
20220209-1454,2022-02-09 14:55:01Z,u01, 36,40,movements,el-ex, lt, d,18368.453815875, 1.282685853300334, -0.598957490582686, 0.4501672687235755, 0.0976245254278183, 0.8012145757675171, 0.09453433752059937, 0.7918813824653625, 0.56378173828125, -0.23467892408370972, -0.014064490795135498, 0.04547119140625, -0.025346040725708008, -0.3580199825145601, 0.5044623185446494, 0.7857087293573457,-0.0011724319441796527,0.7778167724609375,0.6092529296875,-0.2600250244140625
20220209-1454,2022-02-09 14:55:01Z,u01, 37,40,movements,el-ex, lt, d,18368.478761875, 1.3011112237478268, -0.5969553938354011, 0.44607644572231986, 0.2093666046857834, 0.8117513060569763, 0.000914035364985466, 0.7971571087837219, 0.5621270537376404, -0.2203494906425476, 0.015251398086547852, 0.04723268747329712, -0.0630214661359787, -0.3562437624973479, 0.512752999407963, 0.781117864519145,-0.00545126440194954,0.82965087890625,0.6133270263671875,-0.2898712158203125
20220209-1454,2022-02-09 14:55:01Z,u01, 38,40,movements,el-ex, lt, d,18368.503706875003, 1.3159137683846678, -0.5950817661009791, 0.4386902377358155, 0.2968404293060303, 0.6871188879013062, 0.0045735519379377365, 0.8013492226600647, 0.5605764389038086, -0.20879101753234863, 0.06945472955703735, 0.040558815002441406, -0.07819622755050659, -0.3536212752643929, 0.520150442305667, 0.7773596296898271,-0.01037647865006136,0.8708038330078125,0.60113525390625,-0.2869873046875
20220209-1454,2022-02-09 14:55:01Z,u01, 39,40,movements,el-ex, lt, d,18368.528652875, 1.3281218001919581, -0.5936271798210871, 0.43104208372028285, 0.23898378014564514, 0.6298372149467468, -0.02115897461771965, 0.804628849029541, 0.5593713521957397, -0.1991884857416153, 0.03779357671737671, 0.013489365577697754, -0.06584134697914124, -0.3510347101187827, 0.5264792365823817, 0.7741885832428312,-0.015040667148892461,0.8334197998046875,0.567169189453125,-0.2650299072265625
20220209-1454,2022-02-09 14:55:01Z,u01, 40,40,movements,el-ex, lt, d,18368.553598875, 1.3406038735416106, -0.5932648723127113, 0.4244400253351006, 0.22434772551059723, 0.64565110206604, -0.04903081804513931, 0.8072497844696045, 0.5590709447860718, -0.1891760677099228, -0.016218841075897217, 0.020030617713928223, -0.03834766149520874, -0.349052446443042, 0.5325170006801464, 0.7708447069313777,-0.019661819704035965,0.7910308837890625,0.5791015625,-0.2275238037109375
20220209-1454,2022-02-09 14:55:01Z,u01, 41,40,movements,el-ex, lt, d,18368.578544875, 1.353513338164129, -0.5935060020534825, 0.417424712792769, 0.2147122323513031, 0.6605647206306458, -0.07543905824422836, 0.8094930052757263, 0.5592708587646484, -0.17871037125587463, 0.016038119792938232, 0.018411695957183838, -0.0443120002746582, -0.3471141832449164, 0.5386618248709286, 0.7672979086041705,-0.0246823724433603,0.8417205810546875,0.580841064453125,-0.2275543212890625
20220209-1454,2022-02-09 14:55:01Z,u01, 42,40,movements,el-ex, lt, d,18368.603489875, 1.365981397194908, -0.594134582329068, 0.41122383141558083, 0.21862994134426117, 0.6009920835494995, -0.07837478816509247, 0.8113137483596802, 0.5597918629646301, -0.1685323864221573, 0.06414401531219482, 0.03223389387130737, -0.07248012721538544, -0.34548339137855694, 0.5444033734906636, 0.7638069471142838,-0.02941442229393393,0.875457763671875,0.5920257568359375,-0.2410125732421875
20220209-1454,2022-02-09 14:55:01Z,u01, 43,40,movements,el-ex, lt, d,18368.628435875, 1.376622423537814, -0.5953046060727456, 0.4038192878401497, 0.23610880970954895, 0.5752838253974915, -0.11357726156711578, 0.8124179840087891, 0.5607609748840332, -0.15976332128047943, 0.03368192911148071, 0.017302989959716797, -0.0649069994688034, -0.34369046238744444, 0.5495409062861004, 0.7607203251657622,-0.034443611488093384,0.8408050537109375,0.5726318359375,-0.2219390869140625
20220209-1454,2022-02-09 14:55:01Z,u01, 44,40,movements,el-ex, lt, d,18368.653381875, 1.3864272907420634, -0.5971899065477569, 0.395557457410167, 0.32143694162368774, 0.5359042882919312, -0.14507246017456055, 0.8129047155380249, 0.5623209476470947, -0.1515960395336151, 0.01860785484313965, 0.010112524032592773, -0.08290094137191772, -0.34187387644546324, 0.5543683162700299, 0.7577657627142242,-0.03986549924102001,0.831512451171875,0.5724334716796875,-0.2344970703125
20220209-1454,2022-02-09 14:55:01Z,u01, 45,40,movements,el-ex, lt, d,18368.678327875, 1.3927834164011306, -0.5986496927975576, 0.38487206269572044, 0.31641653180122375, 0.4162892699241638, -0.09263449162244797, 0.8130429983139038, 0.563527524471283, -0.14628057181835175, 0.03888577222824097, -0.016789793968200684, -0.08328789472579956, -0.33926478740582405, 0.558353936288406, 0.7556941914703585,-0.04546098864757636,0.8579559326171875,0.5350799560546875,-0.2298126220703125
20220209-1454,2022-02-09 14:55:01Z,u01, 46,40,movements,el-ex, lt, d,18368.703273875002, 1.3990991364429957, -0.5996952879326563, 0.37984515918320205, -0.01658570021390915, 0.3066149055957794, -0.07078704982995987, 0.8133696913719177, 0.5643909573554993, -0.14104199409484863, 0.02906811237335205, -0.06179690361022949, -0.06708782911300659, -0.3380656407825945, 0.5614184051178004, 0.7537526966727528,-0.04876503885549616,0.842437744140625,0.502593994140625,-0.2081298828125
20220209-1454,2022-02-09 14:55:01Z,u01, 47,40,movements,el-ex, lt, d,18368.728218875, 1.408287127314965, -0.6016654273451484, 0.38320869180590006, -0.15722577273845673, 0.27729374170303345, -0.05672316253185272, 0.8135323524475098, 0.5660161972045898, -0.13338273763656616, 0.007070183753967285, -0.032767295837402344, -0.06780433654785156, -0.33945569282342003, 0.5639844528274068, 0.7511470700887086,-0.04969456847834519,0.81915283203125,0.5442657470703125,-0.2064666748046875
20220209-1454,2022-02-09 14:55:01Z,u01, 48,40,movements,el-ex, lt, d,18368.753164875, 1.4163714172835722, -0.6030113015312757, 0.3847566595446761, 0.10147608816623688, 0.25411733984947205, -0.03674572706222534, 0.8138304948806763, 0.5671252608299255, -0.12668432295322418, 0.03210151195526123, 0.008482038974761963, -0.10804156959056854, -0.3401451075903633, 0.5665325623370574, 0.7488315828305058,-0.05092597424121298,0.8459320068359375,0.5756072998046875,-0.2347259521484375
20220209-1454,2022-02-09 14:55:01Z,u01, 49,40,movements,el-ex, lt, d,18368.778110875002, 1.4183404023954296, -0.602653895179932, 0.3787436801022982, 0.20838506519794464, 0.16623854637145996, -0.005335938185453415, 0.814278781414032, 0.5668308138847351, -0.12511244416236877, 0.04714095592498779, -0.022137820720672607, -0.10318946838378906, -0.3382670790024477, 0.5683477438563352, 0.7481346806814048,-0.053393517427263226,0.8631591796875,0.535614013671875,-0.22381591796875
20220209-1454,2022-02-09 14:55:01Z,u01, 50,40,movements,el-ex, lt, d,18368.803056875, 1.419845440840787, -0.6021999035162842, 0.3759895788390457, -0.016710003837943077, 0.06329932063817978, -0.0005401833914220333, 0.8147205710411072, 0.5664567351341248, -0.12392548471689224, 0.06356018781661987, -0.04552161693572998, -0.11194479465484619, -0.33728974688887603, 0.5694496322279149, 0.7476560185315675,-0.054529270300531896,0.8782806396484375,0.52093505859375,-0.235870361328125
20220209-1454,2022-02-09 14:55:01Z,u01, 51,40,movements,el-ex, lt, d,18368.828002875, 1.421227291199311, -0.602241411075276, 0.3772951542321375, -0.010601544752717018, -0.017226481810212135, -0.003549888264387846, 0.8148676753044128, 0.5664909482002258, -0.12279602885246277, 0.06493896245956421, -0.01686936616897583, -0.14942067861557007, -0.33763800600689375, 0.569739031687351, 0.7472957440407473,-0.05428808331815571,0.880859375,0.5577239990234375,-0.2807464599609375
20220209-1454,2022-02-09 14:55:01Z,u01, 52,40,movements,el-ex, lt, d,18368.852947875002, 1.4156108570165609, -0.6005327749527598, 0.37268687197963163, 0.25405001640319824, -0.11443066596984863, 0.005261844955384731, 0.8151202201843262, 0.5650821328163147, -0.1275201290845871, 0.0994916558265686, 0.017864644527435303, -0.20632682740688324, -0.33590155491754203, 0.5686915526075635, 0.7488584542787763,-0.05450817115692436,0.91461181640625,0.58294677734375,-0.3338470458984375
20220209-1454,2022-02-09 14:55:01Z,u01, 53,40,movements,el-ex, lt, d,18368.877893375, 1.4027652620351974, -0.5980326755207405, 0.36003385220617, 0.537466824054718, -0.27026793360710144, -0.021170560270547867, 0.814805269241333, 0.5630176663398743, -0.13821586966514587, 0.10996896028518677, 0.031052768230438232, -0.26360899209976196, -0.3318156334928653, 0.5663836629736357, 0.7522886742509696,-0.056300522891614524,0.923126220703125,0.5978851318359375,-0.4169158935546875
20220209-1454,2022-02-09 14:55:01Z,u01, 54,40,movements,el-ex, lt, d,18368.902839375, 1.3838534015672876, -0.5948136628718708, 0.34150201976901723, 0.5987480282783508, -0.3727293014526367, -0.0035497555509209633, 0.8138222694396973, 0.5603544116020203, -0.1539357453584671, 0.12264013290405273, -0.02258896827697754, -0.3052927255630493, -0.3260209130275148, 0.5627988034218144, 0.7572775555070488,-0.059148837406673316,0.93646240234375,0.5377655029296875,-0.459228515625
20220209-1454,2022-02-09 14:55:01Z,u01, 55,40,movements,el-ex, lt, d,18368.927785375003, 1.3652317849921338, -0.593049856529616, 0.32858829500656883, 0.2905118763446808, -0.5630521178245544, -0.00972749013453722, 0.8117812275886536, 0.5588926672935486, -0.16926436126232147, 0.1486985683441162, -0.06975686550140381, -0.29467904567718506, -0.32234356719500534, 0.5580882029915483, 0.7622171832987609,-0.060475270096736755,0.9661407470703125,0.4890289306640625,-0.46795654296875
20220209-1454,2022-02-09 14:55:01Z,u01, 56,40,movements,el-ex, lt, d,18368.952730375, 1.3446121308679853, -0.5914267855577456, 0.32120519754381205, 0.24994240701198578, -0.7495741844177246, 0.03146801516413689, 0.8090015649795532, 0.5575460195541382, -0.18616899847984314, 0.15875661373138428, -0.04150909185409546, -0.343875527381897, -0.32034074436294385, 0.5516314936310273, 0.7678196718224377,-0.05947646274324109,0.9677581787109375,0.5160369873046875,-0.5300445556640625
20220209-1454,2022-02-09 14:55:01Z,u01, 57,40,movements,el-ex, lt, d,18368.977676375, 1.3193656825015763, -0.5883418124307257, 0.31295127571994424, 0.36187392473220825, -0.9318179488182068, 0.05790102481842041, 0.8057063221931458, 0.5549824237823486, -0.20695888996124268, 0.1728399395942688, -0.03662610054016113, -0.34301358461380005, -0.3177177164574657, 0.543669027317128, 0.7746954103472805,-0.057676165604365726,0.9814605712890625,0.52008056640625,-0.5586090087890625
20220209-1454,2022-02-09 14:55:01Z,u01, 58,40,movements,el-ex, lt, d,18369.002622375003, 1.287047281058156, -0.5836503696265903, 0.30029553731898306, 0.5842235684394836, -1.085538387298584, 0.08731124550104141, 0.8010889291763306, 0.5510736703872681, -0.23361176252365112, 0.1589788794517517, -0.01730591058731079, -0.3616640567779541, -0.31352568599198477, 0.5337562761039741, 0.7833653512990681,-0.05607742801836357,0.9600677490234375,0.5337677001953125,-0.59527587890625
20220209-1454,2022-02-09 14:55:01Z,u01, 59,40,movements,el-ex, lt, d,18369.027568375, 1.2483463800057226, -0.5762510532649544, 0.28168380253879316, 0.7119834423065186, -1.2059712409973145, 0.09893341362476349, 0.7952960729598999, 0.5448842644691467, -0.2657168507575989, 0.15747803449630737, -0.008751451969146729, -0.36691245436668396, -0.30695194665539177, 0.522419444494, 0.7936058437610853,-0.0552109253027705,0.9510650634765625,0.5276031494140625,-0.6311187744140625
20220209-1454,2022-02-09 14:55:01Z,u01, 60,40,movements,el-ex, lt, d,18369.052514375002, 1.2072260324232191, -0.5691539865597167, 0.26408170862634317, 0.6066426038742065, -1.334345817565918, 0.05031760409474373, 0.7872950434684753, 0.5389195680618286, -0.2995535433292389, 0.17568719387054443, 0.009572863578796387, -0.3540108799934387, -0.3008537746263553, 0.5096177321467181, 0.8042806182164491,-0.053940309563724975,0.962982177734375,0.548492431640625,-0.653564453125
20220209-1454,2022-02-09 14:55:01Z,u01, 61,40,movements,el-ex, lt, d,18369.077459375, 1.162498716983387, -0.5622844423589437, 0.24708471217022648, 0.6798691153526306, -1.5015980005264282, 0.0070115430280566216, 0.7764935493469238, 0.533120334148407, -0.3359178602695465, 0.22153818607330322, 0.03803145885467529, -0.3778577446937561, -0.295126069061126, 0.49491582015549546, 0.8156169330577074,-0.05223178864601363,1.000823974609375,0.5763702392578125,-0.721893310546875
20220209-1454,2022-02-09 14:55:01Z,u01, 62,40,movements,el-ex, lt, d,18369.102405375, 1.111416491224427, -0.5541068823881898, 0.2264601144000989, 0.8672029972076416, -1.716117262840271, 0.010254408232867718, 0.7622107863426208, 0.5261840224266052, -0.3770478367805481, 0.25863271951675415, 0.051239073276519775, -0.37737712264060974, -0.28821023565631826, 0.47792356645857575, 0.828201846705106,-0.051045327848111,1.020843505859375,0.577423095703125,-0.754425048828125
20220209-1454,2022-02-09 14:55:01Z,u01, 63,40,movements,el-ex, lt, d,18369.127351375002, 1.055027574120586, -0.5439676065089548, 0.20480009911746375, 0.7615327835083008, -1.905929446220398, 0.02695196121931076, 0.7443522810935974, 0.5175349712371826, -0.4220157563686371, 0.2778950333595276, 0.03735083341598511, -0.33355364203453064, -0.28047314902843123, 0.45861414620403385, 0.8417619796563443,-0.04944431018980788,1.02972412109375,0.54815673828125,-0.7605743408203125
20220209-1454,2022-02-09 14:55:01Z,u01, 64,40,movements,el-ex, lt, d,18369.152297375, 0.9967880878034849, -0.5352781032955515, 0.19008511904842812, 0.4660147726535797, -2.1595516204833984, 0.025378631427884102, 0.72227543592453, 0.5100802779197693, -0.46705085039138794, 0.316100537776947, 0.04492771625518799, -0.30248039960861206, -0.2749847266154432, 0.4368729573585697, 0.8552539696992996,-0.04545566908240217,1.0383758544921875,0.5550079345703125,-0.76953125
20220209-1454,2022-02-09 14:55:01Z,u01, 65,40,movements,el-ex, lt, d,18369.177242375, 0.9357612261307091, -0.5289252994098966, 0.18034721687279734, 0.4294668734073639, -2.3302271366119385, 0.015369140543043613, 0.6950405836105347, 0.504605770111084, -0.512144148349762, 0.3251010775566101, 0.09175342321395874, -0.27929866313934326, -0.27155094080665426, 0.4125385037125753, 0.868611436187581,-0.03982814270026441,1.0211334228515625,0.6081390380859375,-0.8014678955078125
20220209-1454,2022-02-09 14:55:01Z,u01, 66,40,movements,el-ex, lt, d,18369.202188375002, 0.8690193415278736, -0.5196585342512026, 0.16847713374041012, 0.6941105723381042, -2.537301778793335, 0.05754948779940605, 0.6628798246383667, 0.4965837895870209, -0.560352623462677, 0.3604966998100281, 0.1567365527153015, -0.2890584468841553, -0.26644641645304434, 0.38578492457195784, 0.8826209545861586,-0.034010397779383694,1.02337646484375,0.6533203125,-0.8494110107421875
20220209-1454,2022-02-09 14:55:01Z,u01, 67,40,movements,el-ex, lt, d,18369.227134375, 0.7957968117336357, -0.5052258909185103, 0.15293706500288085, 0.8034828901290894, -2.7253987789154053, 0.03584159165620804, 0.6251652836799622, 0.4840051233768463, -0.6122968792915344, 0.3895900249481201, 0.1649359166622162, -0.2560044527053833, -0.2583977518954006, 0.35648584613052653, 0.8974093805906773,-0.028371377454712743,1.0068206787109375,0.6454315185546875,-0.8638153076171875
20220209-1454,2022-02-09 14:55:01Z,u01, 68,40,movements,el-ex, lt, d,18369.252080375, 0.719273094888955, -0.4936992434817868, 0.13966790789159753, 0.4755154550075531, -2.904369592666626, -0.057526636868715286, 0.5801634192466736, 0.473886638879776, -0.6624513864517212, 0.4135804772377014, 0.2090357542037964, -0.15868502855300903, -0.25197303707730795, 0.32447478640896493, 0.9114393113871235,-0.0224522250975277,0.993743896484375,0.68292236328125,-0.821136474609375
20220209-1454,2022-02-09 14:55:01Z,u01, 69,40,movements,el-ex, lt, d,18369.277026375003, 0.6405038378823187, -0.49021507541348275, 0.1319356058071711, 0.10906413197517395, -3.111391305923462, -0.2093786895275116, 0.5272212028503418, 0.47081565856933594, -0.7073687314987183, 0.4540258049964905, 0.22686201333999634, -0.11392033100128174, -0.2499535809984265, 0.28954937106122597, 0.923820037262207,-0.01552652719048575,0.9675445556640625,0.6987457275390625,-0.818450927734375
20220209-1454,2022-02-09 14:55:01Z,u01, 70,40,movements,el-ex, lt, d,18369.301971375, 0.5573181157407203, -0.49215405481460334, 0.12359216236766812, 0.17129644751548767, -3.2291040420532227, -0.34793877601623535, 0.4661392271518707, 0.47252538800239563, -0.7479532361030579, 0.4316879212856293, 0.2746211886405945, -0.08700770139694214, -0.25023261746999503, 0.25180751977810245, 0.9348210152127239,-0.009292751070389182,0.8978271484375,0.7471466064453125,-0.8349609375
20220209-1454,2022-02-09 14:55:01Z,u01, 71,40,movements,el-ex, lt, d,18369.326917375, 0.46922018427518314, -0.49016408946738443, 0.10957940413378238, 0.44034332036972046, -3.2993128299713135, -0.4601553976535797, 0.39894795417785645, 0.4707706570625305, -0.7869024872779846, 0.41935038566589355, 0.2902156710624695, -0.02092832326889038, -0.24798462444586616, 0.21225544976327937, 0.9452141197448729,-0.004648941532303996,0.7910919189453125,0.7583770751953125,-0.7950592041015625
20220209-1454,2022-02-09 14:55:01Z,u01, 72,40,movements,el-ex, lt, d,18369.351863375003, 0.3782257325033847, -0.4834796025441747, 0.08935721614708465, 0.6036921143531799, -3.2175495624542236, -0.6150555610656738, 0.32694724202156067, 0.46486276388168335, -0.8228050470352173, 0.3429594039916992, 0.28007131814956665, 0.10051500797271729, -0.24304161431814425, 0.17183784770724908, 0.9546711719422991,-0.002365945706050032,0.6699066162109375,0.74493408203125,-0.7222900390625
20220209-1454,2022-02-09 14:55:01Z,u01, 73,40,movements,el-ex, lt, d,18369.376809375, 0.2882199183628471, -0.4730589093433487, 0.06619155379986497, 0.714927077293396, -3.145592212677002, -0.6988009214401245, 0.25302979350090027, 0.45561137795448303, -0.8534601330757141, 0.3982000946998596, 0.26649558544158936, 0.1686151623725891, -0.2363938457953912, 0.13186309768448395, 0.9626665751731269,-0.0017991426087042295,0.646240234375,0.7180633544921875,-0.6689453125
20220209-1454,2022-02-09 14:55:02Z,u01, 74,40,movements,el-ex, lt, d,18369.401755375, 0.19960045149494582, -0.4582437687549965, 0.04103681504795419, 0.9393341541290283, -3.0453901290893555, -0.7844111323356628, 0.1778215765953064, 0.44237375259399414, -0.8790250420570374, 0.4851728081703186, 0.27712395787239075, 0.18569618463516235, -0.22793548361124621, 0.09237369669744139, 0.9692807671021049,-0.0027431343834444233,0.662994384765625,0.7194976806640625,-0.693328857421875
20220209-1454,2022-02-09 14:55:02Z,u01, 75,40,movements,el-ex, lt, d,18369.426700375003, 0.11189128203746745, -0.4319850876304825, 0.012292235824602902, 1.4418585300445557, -3.036144256591797, -0.8644729852676392, 0.10140065848827362, 0.4186743497848511, -0.902457594871521, 0.5014435648918152, 0.2920495271682739, 0.2571786642074585, -0.2143133262630249, 0.05330101063732652, 0.9752912830435552,-0.0059897425895177325,0.5806121826171875,0.6828155517578125,-0.60205078125
20220209-1454,2022-02-09 14:55:02Z,u01, 76,40,movements,el-ex, lt, d,18369.451646375, 0.02424031854454469, -0.3967159674924604, -0.013552151763341696, 1.376913070678711, -3.1614763736724854, -0.8388673067092896, 0.02235550247132778, 0.38639146089553833, -0.922063946723938, 0.42074447870254517, 0.14571303129196167, 0.545354962348938, -0.196960269518264, 0.013217121047107469, 0.9802807647125811,-0.00903095103806728,0.4430999755859375,0.5321044921875,-0.376708984375
20220209-1454,2022-02-09 14:55:02Z,u01, 77,40,movements,el-ex, lt, d,18369.476592375002, -0.06056555822202844, -0.3711995342640844, -0.03527020838548153, 0.5021621584892273, -2.9526655673980713, -0.8329887390136719, -0.056406114250421524, 0.36273354291915894, -0.9301842451095581, 0.35988813638687134, 0.024534523487091064, 0.8041771650314331, -0.1849474885401236, -0.026500865764645914, 0.982320999084372,-0.011736848809783429,0.2732696533203125,0.3524169921875,-0.060546875
20220209-1454,2022-02-09 14:55:02Z,u01, 78,40,movements,el-ex, lt, d,18369.501538375, -0.13905504144717748, -0.3757523521836386, -0.05710659542275183, -0.976554811000824, -2.6176655292510986, -0.7991585731506348, -0.12893696129322052, 0.36697250604629517, -0.9212526679039001, 0.27580276131629944, -0.15472275018692017, 1.0403170585632324, -0.18819410910317022, -0.06290183594063803, 0.9800006632705129,-0.01500916993323248,0.1468658447265625,0.212249755859375,0.1190643310546875
20220209-1454,2022-02-09 14:55:02Z,u01, 79,40,movements,el-ex, lt, d,18369.526483375, -0.20523062795455305, -0.4013575708314698, -0.08645832391540649, -1.079451560974121, -1.7763227224349976, -0.940601646900177, -0.1875978261232376, 0.3906683921813965, -0.9012132287025452, 0.11884170770645142, -0.15302801132202148, 1.1555161476135254, -0.20243869720379315, -0.0917167501623316, 0.9747485050805964,-0.021725836978004398,-0.110443115234375,0.263824462890625,0.2565765380859375
20220209-1454,2022-02-09 14:55:02Z,u01, 80,40,movements,el-ex, lt, d,18369.551429375002, -0.24788880836176108, -0.4077107581728406, -0.11095537214651943, 0.2652509808540344, -0.8780974745750427, -0.6263159513473511, -0.2252461016178131, 0.3965087831020355, -0.8899691104888916, -0.005146384239196777, -0.07941588759422302, 1.134582757949829, -0.20729735159973617, -0.10974174587630935, 0.9716737126272332,-0.028895113950872964,-0.2303924560546875,0.3170928955078125,0.2446136474609375
20220209-1454,2022-02-09 14:55:02Z,u01, 81,40,movements,el-ex, lt, d,18369.576375375, -0.2623564047864292, -0.3874454671259309, -0.11701547389026629, 0.9626646041870117, -0.13419224321842194, -0.25828126072883606, -0.24013277888298035, 0.37782445549964905, -0.8941951394081116, -0.000788271427154541, -0.22194066643714905, 1.1267237663269043, -0.19803825785225443, -0.11697556235010297, 0.9726713829345295,-0.03174947621701646,-0.2423858642578125,0.11138916015625,0.229583740234375
20220209-1454,2022-02-09 14:55:02Z,u01, 82,40,movements,el-ex, lt, d,18369.601321375, -0.2565960274408397, -0.36803570795417384, -0.11413926104417545, 0.4670165777206421, 0.4442349374294281, 0.02191345952451229, -0.23679471015930176, 0.3597833812236786, -0.9024878144264221, -0.013663098216056824, -0.3890649974346161, 1.0436925888061523, -0.1883563609633381, -0.11523013761907437, 0.9747843616033446,-0.03224112192861506,-0.250457763671875,-0.0292816162109375,0.141204833984375
20220209-1454,2022-02-09 14:55:02Z,u01, 83,40,movements,el-ex, lt, d,18369.626267375002, -0.23954776211638346, -0.3679822400693475, -0.11055617232579806, -0.2926187515258789, 0.7733900547027588, 0.2115756720304489, -0.22137975692749023, 0.3597334921360016, -0.9064120650291443, 0.015691250562667847, -0.3483198881149292, 0.9026126265525818, -0.18785683460715538, -0.10725566433771717, 0.9757948605574611,-0.032100789985979816,-0.1866455078125,0.049530029296875,-0.0576171875
20220209-1454,2022-02-09 14:55:02Z,u01, 84,40,movements,el-ex, lt, d,18369.651212375, -0.21619306001436925, -0.3772721068353833, -0.10458866628652695, -0.2543308734893799, 0.8842108845710754, 0.38687849044799805, -0.1994268298149109, 0.36838579177856445, -0.9080312848091125, 0.08959402143955231, -0.13021138310432434, 0.5815390348434448, -0.19170919921851232, -0.09608295139618722, 0.9762502042701642,-0.03084051410190941,-0.109832763671875,0.2381744384765625,-0.3264923095703125
20220209-1454,2022-02-09 14:55:02Z,u01, 85,40,movements,el-ex, lt, d,18369.676158375, -0.19070519414436163, -0.3824344577268093, -0.09414044506801293, -0.036135368049144745, 0.828330397605896, 0.4534432888031006, -0.17585796117782593, 0.3731801509857178, -0.9109393954277039, 0.09541359543800354, -0.08300375938415527, 0.35591620206832886, -0.19337934202825954, -0.08446737394601242, 0.9770827940711901,-0.027910734030301976,-0.0777740478515625,0.29742431640625,-0.602386474609375
20220209-1454,2022-02-09 14:55:02Z,u01, 86,40,movements,el-ex, lt, d,18369.701104375003, -0.1660065670074329, -0.38958738173015206, -0.08107714091467005, -0.461124986410141, 0.7622771263122559, 0.5946694016456604, -0.15286263823509216, 0.3798067569732666, -0.9123485088348389, 0.07983405888080597, -0.1195070743560791, 0.25727349519729614, -0.19603575916634322, -0.07345553743285595, 0.9775570436099457,-0.023589276400390546,-0.073028564453125,0.2602996826171875,-0.6550750732421875
20220209-1454,2022-02-09 14:55:02Z,u01, 87,40,movements,el-ex, lt, d,18369.726050375, -0.14067494884056037, -0.41233508700923216, -0.06778524925314894, -1.143614411354065, 0.8654603958129883, 0.6493432521820068, -0.12845996022224426, 0.4007498025894165, -0.9071370363235474, 0.059902191162109375, -0.147377610206604, 0.32119953632354736, -0.20641772809934486, -0.061831967623927134, 0.9763291296931342,-0.01870784258295949,-0.05499267578125,0.2741241455078125,-0.569122314453125
20220209-1454,2022-02-09 14:55:02Z,u01, 88,40,movements,el-ex, lt, d,18369.750996375, -0.11156561966328854, -0.44601083568168287, -0.05324455513287564, -1.2897790670394897, 0.9951394200325012, 0.7276713848114014, -0.1004430502653122, 0.4313700497150421, -0.8965662717819214, 0.09870351850986481, -0.039417535066604614, 0.2603968381881714, -0.22218671659914246, -0.048476018206800836, 0.9737034685033878,-0.013593339246867508,-0.001739501953125,0.3919525146484375,-0.63616943359375
20220209-1454,2022-02-09 14:55:02Z,u01, 89,40,movements,el-ex, lt, d,18369.775941375003, -0.07482370533086855, -0.47259693459135754, -0.035739901766074195, -0.636132001876831, 1.3341673612594604, 0.7465159893035889, -0.06656006723642349, 0.45520010590553284, -0.8878978490829468, 0.04165772348642349, 0.03494271636009216, 0.21129268407821655, -0.23455417538992604, -0.03217762531168031, 0.9715322745937154,-0.00860540361986023,-0.0172882080078125,0.516387939453125,-0.6783294677734375
20220209-1454,2022-02-09 14:55:02Z,u01, 90,40,movements,el-ex, lt, d,18369.800887375, -0.02835886199989739, -0.47969211283016067, -0.014305579827400345, 0.11187803745269775, 1.6118533611297607, 0.783822774887085, -0.025154825299978256, 0.46150606870651245, -0.8867803812026978, 0.05844949185848236, 0.09519559144973755, 0.13940489292144775, -0.23762163008078163, -0.012073741804606755, 0.9712762379734284,-0.0035791120537855825,0.033294677734375,0.55670166015625,-0.74737548828125
20220209-1454,2022-02-09 14:55:02Z,u01, 91,40,movements,el-ex, lt, d,18369.825833375002, 0.024274194351490287, -0.4718885888585107, 0.006680806534193981, 0.44450217485427856, 1.8160585165023804, 0.6986058354377747, 0.021619178354740143, 0.4545692801475525, -0.8904489874839783, 0.04934944212436676, 0.0820976197719574, 0.08035987615585327, -0.2337821100473583, 0.011019673505564598, 0.9722265103320327,0.00041051193073843306,0.0864105224609375,0.529022216796875,-0.8199310302734375
20220209-1454,2022-02-09 14:55:02Z,u01, 92,40,movements,el-ex, lt, d,18369.850779375, 0.07849862056213724, -0.46168777519842025, 0.02524451148926953, 0.18908999860286713, 1.8120996952056885, 0.6730863451957703, 0.07020781189203262, 0.4454598128795624, -0.8925449252128601, 0.13534332811832428, 0.0037284493446350098, 0.018536746501922607, -0.22908679890817182, 0.03530965477064851, 0.9727598608726635,0.003300459199905126,0.2055511474609375,0.449188232421875,-0.8740081787109375
20220209-1454,2022-02-09 14:55:02Z,u01, 93,40,movements,el-ex, lt, d,18369.875725625003, 0.12899036690142593, -0.4638736450338708, 0.04359586017285322, -0.48927247524261475, 1.5569132566452026, 0.6093601584434509, 0.11503981053829193, 0.4474157691001892, -0.8868962526321411, 0.15757371485233307, -0.02778378129005432, -0.06911265850067139, -0.23069767833222316, 0.05771006805475906, 0.9712917570969445,0.006357208264882119,0.2760009765625,0.425384521484375,-0.9641571044921875
20220209-1454,2022-02-09 14:55:02Z,u01, 94,40,movements,el-ex, lt, d,18369.900670625, 0.1743825681723465, -0.478500045842638, 0.06293397868076542, -0.7546725273132324, 1.4269672632217407, 0.6252357363700867, 0.1540137082338333, 0.4604482054710388, -0.8742237687110901, 0.08080379664897919, 0.03776651620864868, -0.005369067192077637, -0.23861867928117386, 0.07713124561591193, 0.967995582227531,0.009823839233499831,0.2348175048828125,0.4982147216796875,-0.8795928955078125
20220209-1454,2022-02-09 14:55:02Z,u01, 95,40,movements,el-ex, lt, d,18369.925616625, 0.22076276330361838, -0.4919632094482323, 0.08443152931193754, -0.5769850611686707, 1.4967925548553467, 0.6136709451675415, 0.19300521910190582, 0.4723571836948395, -0.8600161075592041, 0.07373368740081787, 0.09385073184967041, -0.0535123348236084, -0.24631994920668324, 0.09653199942282395, 0.964269376334687,0.013883392525413929,0.2797698974609375,0.57708740234375,-0.9253082275390625
20220209-1454,2022-02-09 14:55:02Z,u01, 96,40,movements,el-ex, lt, d,18369.950562625003, 0.26777540161333724, -0.4977586075719135, 0.10234628439607454, -0.17337433993816376, 1.5653846263885498, 0.5134735703468323, 0.2324804812669754, 0.47745731472969055, -0.8473413586616516, 0.08841186761856079, 0.13744139671325684, -0.04468744993209839, -0.2504115834242168, 0.11671919309373537, 0.9609397691215245,0.01629367526187403,0.320892333984375,0.614898681640625,-0.89202880859375
20220209-1454,2022-02-09 14:55:02Z,u01, 97,40,movements,el-ex, lt, d,18369.975508625, 0.31341584176063536, -0.49561527565346053, 0.11605150968539904, -0.03318438678979874, 1.539001703262329, 0.47876662015914917, 0.2712128758430481, 0.47557297348976135, -0.8368237018585205, 0.09899589419364929, 0.10934221744537354, -0.04380679130554199, -0.2506402199413115, 0.13699498760233048, 0.9581816050849317,0.017317100146009734,0.3878326416015625,0.5721435546875,-0.8839263916015625
20220209-1454,2022-02-09 14:55:02Z,u01, 98,40,movements,el-ex, lt, d,18370.000453625, 0.35706263414385364, -0.4955921865926699, 0.12947990946188945, -0.30111220479011536, 1.451141119003296, 0.4037366509437561, 0.30747151374816895, 0.47555267810821533, -0.8242032527923584, 0.10550764203071594, 0.057207971811294556, -0.0194399356842041, -0.25200175815266074, 0.15618415543380104, 0.9548656881035732,0.018257264216268276,0.4129791259765625,0.5327606201171875,-0.8436431884765625
20220209-1454,2022-02-09 14:55:02Z,u01, 99,40,movements,el-ex, lt, d,18370.025399625, 0.40004827795860143, -0.5002663403809042, 0.14323020519840732, -0.3335811495780945, 1.4695004224777222, 0.34487080574035645, 0.3417360484600067, 0.4796592593193054, -0.8081729412078857, 0.055068790912628174, 0.07452470064163208, -0.04438138008117676, -0.2557505764830796, 0.17465729127907537, 0.9506470446680564,0.018887852011698125,0.4015960693359375,0.5651092529296875,-0.8701629638671875
20220209-1454,2022-02-09 14:55:02Z,u01, 100,40,movements,el-ex, lt, d,18370.050345625, 0.44177178474736667, -0.5022915424245185, 0.1535612068073646, -0.11338764429092407, 1.4442170858383179, 0.2806345522403717, 0.3747325837612152, 0.48143529891967773, -0.792335569858551, 0.11899608373641968, 0.10302209854125977, -0.13010400533676147, -0.2580400066305744, 0.19299630356990916, 0.9464864203451718,0.018206122315921835,0.4937286376953125,0.5844573974609375,-0.9224395751953125
20220209-1454,2022-02-09 14:55:02Z,u01, 101,40,movements,el-ex, lt, d,18370.075291625002, 0.4805914290218775, -0.5038307601451109, 0.16331623490620367, -0.4112238585948944, 1.276760458946228, 0.26113224029541016, 0.4048576354980469, 0.48278382420539856, -0.7765372395515442, 0.15190503001213074, 0.04837462306022644, -0.034345269203186035, -0.2600903071391746, 0.20996286076217124, 0.9423157503397306,0.017599695630070133,0.5611572265625,0.51953125,-0.7787017822265625
20220209-1454,2022-02-09 14:55:02Z,u01, 102,40,movements,el-ex, lt, d,18370.100237625, 0.5195829737145116, -0.5160944734447659, 0.17764761440363028, -0.8497250080108643, 1.3288705348968506, 0.12367749959230423, 0.4318482577800751, 0.49348706007003784, -0.7549685835838318, 0.08103016018867493, 0.06251266598701477, 0.07416725158691406, -0.2676898075167623, 0.2255168861419376, 0.9365760144757173,0.017596553616449795,0.51287841796875,0.555999755859375,-0.6808013916015625
20220209-1454,2022-02-09 14:55:02Z,u01, 103,40,movements,el-ex, lt, d,18370.125182625, 0.5591894959761272, -0.5312831071610237, 0.1898330296790664, -0.5073312520980835, 1.3279553651809692, -0.010273771360516548, 0.45737409591674805, 0.5066400170326233, -0.7308384776115417, 0.07926228642463684, 0.11343139410018921, -0.09258675575256348, -0.27643493665188673, 0.24117314218562397, 0.9301453788245757,0.01577571820379431,0.55267333984375,0.63836669921875,-0.8639678955078125
20220209-1454,2022-02-09 14:55:02Z,u01, 104,40,movements,el-ex, lt, d,18370.150128625002, 0.593020383812482, -0.5362595648693966, 0.19284472756360502, -0.01066126674413681, 1.2623591423034668, -0.011042026802897453, 0.48041754961013794, 0.510924220085144, -0.7128502130508423, 0.08762139081954956, 0.14512741565704346, -0.12974005937576294, -0.27931501232880523, 0.2560429810703966, 0.9253580117200666,0.011733518383519104,0.5680389404296875,0.6560516357421875,-0.84259033203125
20220209-1454,2022-02-09 14:55:02Z,u01, 105,40,movements,el-ex, lt, d,18370.175074625, 0.6242858039595183, -0.5383403151513008, 0.1932388212544168, -0.21999861299991608, 1.2068631649017334, -0.10415273159742355, 0.5018441677093506, 0.512711763381958, -0.6966197490692139, 0.11540436744689941, 0.06359744071960449, -0.04994696378707886, -0.28045954438831117, 0.2702453882087751, 0.9210091424091693,0.007215388289906144,0.635040283203125,0.5637969970703125,-0.7373504638671875
20220209-1454,2022-02-09 14:55:02Z,u01, 106,40,movements,el-ex, lt, d,18370.200020625, 0.6539581113013246, -0.5488867971588772, 0.19470302210123253, -0.4822942316532135, 1.112654685974121, -0.2908751368522644, 0.5189721584320068, 0.5217378735542297, -0.6770949363708496, 0.08826673030853271, 0.032781779766082764, -0.08053445816040039, -0.2854870113042145, 0.2827538006253632, 0.9157202525399813,0.001970979046182597,0.60723876953125,0.5545196533203125,-0.75762939453125
20220209-1454,2022-02-09 14:55:02Z,u01, 107,40,movements,el-ex, lt, d,18370.224966625003, 0.6820839421924876, -0.5628889309551489, 0.19696294480529042, -0.4391742944717407, 1.0309962034225464, -0.24829405546188354, 0.5331501960754395, 0.5336316227912903, -0.6564968228340149, 0.05071210861206055, 0.003416717052459717, -0.09867584705352783, -0.2920710534356887, 0.29401713866879314, 0.9100750582216823,-0.003432584753401413,0.58514404296875,0.5387725830078125,-0.7520294189453125
20220209-1454,2022-02-09 14:55:02Z,u01, 108,40,movements,el-ex, lt, d,18370.249911625, 0.7096548958726031, -0.5737070331048639, 0.20147167871511457, -0.4665340185165405, 0.9849423766136169, -0.09700467437505722, 0.5472519397735596, 0.542749285697937, -0.6371331214904785, 0.046223461627960205, -0.01609218120574951, -0.057462215423583984, -0.2974773070504532, 0.3048617816114536, 0.9047168356246792,-0.007353878051595375,0.593475341796875,0.5266571044921875,-0.6945953369140625
20220209-1454,2022-02-09 14:55:02Z,u01, 109,40,movements,el-ex, lt, d,18370.274857625, 0.7400048597575034, -0.5855362868626087, 0.21084134225826964, -0.6167619824409485, 1.0421994924545288, -0.07364235818386078, 0.5619652271270752, 0.5526463985443115, -0.6154487133026123, 0.021912336349487305, -0.0049626827239990234, 0.004181623458862305, -0.30401131138895926, 0.3159948967831083, 0.8986808950267458,-0.009854742860132104,0.5848846435546875,0.5554046630859375,-0.60595703125
20220209-1454,2022-02-09 14:55:02Z,u01, 110,40,movements,el-ex, lt, d,18370.299803625003, 0.7721557361304803, -0.5971218050003776, 0.22056633070980658, -0.4166244864463806, 1.1082905530929565, -0.07798164337873459, 0.5769526958465576, 0.5622646808624268, -0.5924391746520996, 0.048001646995544434, 0.04747653007507324, -0.08308267593383789, -0.3104489615965979, 0.32772223035506065, 0.8922218834693247,-0.0126417219286582,0.6249542236328125,0.6097412109375,-0.6755218505859375
20220209-1454,2022-02-09 14:55:02Z,u01, 111,40,movements,el-ex, lt, d,18370.324749625, 0.8016013306823147, -0.6014133256929112, 0.2226948328760357, 0.04078175127506256, 1.1176114082336426, -0.06355836242437363, 0.5924056768417358, 0.5658083558082581, -0.5735124349594116, 0.056306540966033936, 0.06993383169174194, -0.11262953281402588, -0.3124402769712537, 0.3400365503161489, 0.886827501783223,-0.017126271464540987,0.646392822265625,0.6339569091796875,-0.67376708984375
20220209-1454,2022-02-09 14:55:02Z,u01, 112,40,movements,el-ex, lt, d,18370.349694625, 0.8269230133782314, -0.5994793988461186, 0.22002765974875024, 0.1162392869591713, 1.0379574298858643, 0.021676238626241684, 0.607540488243103, 0.5642127394676208, -0.5590693354606628, 0.018466591835021973, 0.007488250732421875, -0.04763525724411011, -0.3109015982595593, 0.35186009180097505, 0.8826419557471962,-0.021859735044804263,0.626007080078125,0.5717010498046875,-0.6067047119140625
20220209-1454,2022-02-09 14:55:02Z,u01, 113,40,movements,el-ex, lt, d,18370.374640625, 0.8528252539486892, -0.5998041945987865, 0.22121635642250526, -0.2065759152173996, 1.0004527568817139, 0.011613219045102596, 0.6216782331466675, 0.5644808411598206, -0.543026328086853, 0.01499474048614502, -0.017361760139465332, -0.0425601601600647, -0.31094646822636207, 0.36304148444231693, 0.8779900371728323,-0.025431053747815735,0.64111328125,0.54180908203125,-0.5837860107421875
20220209-1454,2022-02-09 14:55:03Z,u01, 114,40,movements,el-ex, lt, d,18370.399586625, 0.8814972931607826, -0.6045588166115541, 0.22957103587541253, -0.41077733039855957, 0.9178903102874756, 0.06047063693404198, 0.6349119544029236, 0.5683991312980652, -0.5232679843902588, 0.05940878391265869, -0.011346518993377686, -0.07505965232849121, -0.31412161515692394, 0.37375609667309007, 0.8722902119321676,-0.027275442891218193,0.6943206787109375,0.5570526123046875,-0.59832763671875
20220209-1454,2022-02-09 14:55:03Z,u01, 115,40,movements,el-ex, lt, d,18370.424532625002, 0.9099370376281589, -0.610351336898913, 0.24074831741465147, -0.42849722504615784, 0.8358438611030579, 0.04822748899459839, 0.6469246745109558, 0.573155403137207, -0.5029727220535278, 0.050325751304626465, 0.012415945529937744, -0.06770598888397217, -0.31827388226042536, 0.3836865537178106, 0.8664246590587912,-0.028193218229049688,0.6923828125,0.5919952392578125,-0.56414794921875
20220209-1454,2022-02-09 14:55:03Z,u01, 116,40,movements,el-ex, lt, d,18370.449478625, 0.9372740743285332, -0.6162009144638534, 0.2522555953507476, -0.46784836053848267, 0.8272900581359863, 0.02458154782652855, 0.6577175855636597, 0.577938973903656, -0.48310890793800354, -0.024828672409057617, 0.009097158908843994, 0.008530080318450928, -0.32254687616129946, 0.39294917515014627, 0.8606493809796065,-0.02893433029004422,0.6328887939453125,0.5870361328125,-0.474578857421875
20220209-1454,2022-02-09 14:55:03Z,u01, 117,40,movements,el-ex, lt, d,18370.474423625, 0.9664030682854017, -0.6225669059828388, 0.2654258764642824, -0.48030388355255127, 0.8931733965873718, 0.07860663533210754, 0.6684680581092834, 0.5831223726272583, -0.4616478979587555, -0.013667583465576172, -0.005882441997528076, -0.0035009682178497314, -0.32735541550430697, 0.40251022668306413, 0.8543729949520384,-0.02950874090957517,0.6741180419921875,0.5847625732421875,-0.482147216796875
20220209-1454,2022-02-09 14:55:03Z,u01, 118,40,movements,el-ex, lt, d,18370.499369625002, 0.9965187810641338, -0.6255712369568263, 0.27799779649034906, -0.28285568952560425, 0.9063205122947693, 0.17282675206661224, 0.6805917620658875, 0.5855604410171509, -0.4403565526008606, 0.06426602602005005, 0.04960191249847412, -0.07674852013587952, -0.3306914073031224, 0.4128739699631778, 0.8481086079874199,-0.029834735424731085,0.7448577880859375,0.635162353515625,-0.5171051025390625
20220209-1454,2022-02-09 14:55:03Z,u01, 119,40,movements,el-ex, lt, d,18370.524315625, 1.023342871354016, -0.6242695025179608, 0.28566357885551735, -0.1387472301721573, 0.8710299134254456, 0.1679961085319519, 0.6928079128265381, 0.5845047235488892, -0.4223404824733734, 0.024065256118774414, 0.05903470516204834, -0.07556900382041931, -0.3313644700779348, 0.42311623403181114, 0.8427496803659728,-0.030712728310268944,0.7023773193359375,0.636932373046875,-0.491607666015625
20220209-1454,2022-02-09 14:55:03Z,u01, 120,40,movements,el-ex, lt, d,18370.549261625, 1.0497246853839395, -0.6240998315061782, 0.2942773886689649, -0.3358699679374695, 0.8492118716239929, 0.1079358235001564, 0.7037937641143799, 0.584367036819458, -0.4039675295352936, -0.029721379280090332, 0.022291898727416992, -0.03789645433425903, -0.3327302612413382, 0.4327895687196627, 0.8372550389870295,-0.031431969260522774,0.674072265625,0.606658935546875,-0.441864013671875
20220209-1454,2022-02-09 14:55:03Z,u01, 121,40,movements,el-ex, lt, d,18370.574206625002, 1.0769390570907864, -0.6248471431023194, 0.30510630199674, -0.24885083734989166, 0.8307312726974487, 0.1698315441608429, 0.7141406536102295, 0.5849732756614685, -0.38445979356765747, 0.06306576728820801, 0.05008220672607422, -0.10179194808006287, -0.33496449486515917, 0.4422317078890412, 0.8314013211510254,-0.03165021544176877,0.79217529296875,0.6452178955078125,-0.498138427734375
20220209-1454,2022-02-09 14:55:03Z,u01, 122,40,movements,el-ex, lt, d,18370.599152625, 1.1007826597076258, -0.623046023534042, 0.3093261257377268, 0.10167166590690613, 0.8715929985046387, 0.10815467685461044, 0.7240419983863831, 0.5835115313529968, -0.36780107021331787, 0.04153728485107422, 0.08294659852981567, -0.09199193120002747, -0.3348169963196789, 0.45166031366627307, 0.8263073451580185,-0.033418994919793055,0.7655792236328125,0.6664581298828125,-0.4597930908203125
20220209-1454,2022-02-09 14:55:03Z,u01, 123,40,movements,el-ex, lt, d,18370.624098625, 1.120570910432132, -0.6190235225026516, 0.3059334357185144, 0.1533263772726059, 0.8431220054626465, 0.06599316745996475, 0.7332851886749268, 0.5802401304244995, -0.3544210195541382, -0.010781466960906982, 0.03623020648956299, -0.050577759742736816, -0.3321359329212023, 0.46095033306902694, 0.8220941024226414,-0.037038878041936285,0.716033935546875,0.604095458984375,-0.3958740234375
20220209-1454,2022-02-09 14:55:03Z,u01, 124,40,movements,el-ex, lt, d,18370.649044625003, 1.141773550194993, -0.618165255286816, 0.30716066490492, -0.20839804410934448, 0.7907042503356934, 0.05076541379094124, 0.7410870790481567, 0.5795409083366394, -0.33900198340415955, 0.02441585063934326, -0.01482844352722168, -0.007341951131820679, -0.3316836272685552, 0.4695582813246652, 0.8172608799721777,-0.039821274071363155,0.7655029296875,0.5647125244140625,-0.346343994140625
20220209-1454,2022-02-09 14:55:03Z,u01, 125,40,movements,el-ex, lt, d,18370.673990625, 1.1671296383324146, -0.6203764377330109, 0.3188157797916555, -0.5368707180023193, 0.7074424028396606, 0.07536210864782333, 0.7482633590698242, 0.5813415050506592, -0.31959980726242065, 0.10993671417236328, -0.00797724723815918, -0.03174903988838196, -0.33478117501495774, 0.47762083603059197, 0.8112995409415757,-0.039912273330833914,0.86328125,0.58087158203125,-0.3529205322265625
20220209-1454,2022-02-09 14:55:03Z,u01, 126,40,movements,el-ex, lt, d,18370.698935625, 1.1926418808677537, -0.6235539618471845, 0.3320130001657414, -0.2144315093755722, 0.7190600633621216, 0.02211126685142517, 0.7544522285461426, 0.5839239954948425, -0.2997244894504547, 0.0764957070350647, 0.07592713832855225, -0.08694839477539062, -0.3386463536860156, 0.4852384962086632, 0.805158815607979,-0.0397699113168008,0.8309478759765625,0.65985107421875,-0.3866729736328125
20220209-1454,2022-02-09 14:55:03Z,u01, 127,40,movements,el-ex, lt, d,18370.723881625003, 1.2105673822349803, -0.6224498266943906, 0.33150144736153436, 0.17338114976882935, 0.7103159427642822, 0.039985205978155136, 0.7603062987327576, 0.5830273032188416, -0.28638020157814026, 0.012475132942199707, 0.029094278812408447, -0.07546666264533997, -0.337740020707135, 0.4926881116189785, 0.8008543543644312,-0.04269043912658815,0.7686309814453125,0.5905609130859375,-0.3464508056640625
20220209-1454,2022-02-09 14:55:03Z,u01, 128,40,movements,el-ex, lt, d,18370.748827625, 1.226292171480658, -0.6208563150295685, 0.33054544071306086, -0.14573882520198822, 0.593117892742157, 0.06892278045415878, 0.7655888795852661, 0.5817318558692932, -0.2747030556201935, 0.06381791830062866, -0.05272495746612549, -0.07522669434547424, -0.3365665229167621, 0.4993710548499878, 0.7970589059833354,-0.04526212947775177,0.82940673828125,0.5290069580078125,-0.3499298095703125
20220209-1454,2022-02-09 14:55:03Z,u01, 129,40,movements,el-ex, lt, d,18370.773773625002, 1.2468885740287496, -0.6224682164483947, 0.3412763885950236, -0.4758126437664032, 0.544258713722229, 0.04962172359228134, 0.7701941132545471, 0.5830422043800354, -0.2585787773132324, 0.07369327545166016, -0.0456581711769104, -0.08607149124145508, -0.3393904462368397, 0.5054945477138606, 0.7920030727170047,-0.0449516859253033,0.8460235595703125,0.5548553466796875,-0.34295654296875
20220209-1454,2022-02-09 14:55:03Z,u01, 130,40,movements,el-ex, lt, d,18370.798719625, 1.2678554881052713, -0.624450722496899, 0.35288210047036467, -0.21328577399253845, 0.5994535684585571, 0.034403420984745026, 0.7743411660194397, 0.58465176820755, -0.24202919006347656, 0.029339253902435303, 0.03921908140182495, -0.09525105357170105, -0.34259294022497055, 0.5114836093924241, 0.7867854110212547,-0.04453464929229145,0.803680419921875,0.623870849609375,-0.3372802734375
20220209-1454,2022-02-09 14:55:03Z,u01, 131,40,movements,el-ex, lt, d,18370.823664625, 1.2841027402550382, -0.6237797549719363, 0.3535846103385594, 0.1602369099855423, 0.6534969806671143, 0.04242825508117676, 0.7785472273826599, 0.5841072797775269, -0.2295277714729309, -0.006589829921722412, 0.035994648933410645, -0.0879923552274704, -0.3421608650306832, 0.5178436635822872, 0.782668552143907,-0.046838621007680326,0.77490234375,0.61358642578125,-0.3162384033203125
20220209-1454,2022-02-09 14:55:03Z,u01, 132,40,movements,el-ex, lt, d,18370.848610625002, 1.2975058253688836, -0.6212278488158702, 0.3486808121551764, 0.1331990659236908, 0.6292708516120911, 0.05835722014307976, 0.7829864025115967, 0.5820340514183044, -0.21947415173053741, 0.03326737880706787, -0.03683745861053467, -0.0796133279800415, -0.3396434647786839, 0.524314065592862, 0.7792372894250519,-0.050264087620642994,0.816253662109375,0.545196533203125,-0.2990875244140625
20220209-1454,2022-02-09 14:55:03Z,u01, 133,40,movements,el-ex, lt, d,18370.87355625, 1.3119351125391543, -0.6196630509046059, 0.34807786845163974, -0.013714347034692764, 0.5427295565605164, 0.05811460688710213, 0.7869511246681213, 0.5807608962059021, -0.2083866447210312, 0.03278160095214844, -0.041911959648132324, -0.08491772413253784, -0.33855593867101674, 0.5302702616944432, 0.7755261155572564,-0.05246659292035838,0.8180084228515625,0.5490875244140625,-0.2963409423828125
20220209-1454,2022-02-09 14:55:03Z,u01, 134,40,movements,el-ex, lt, d,18370.898502250002, 1.325276044621673, -0.6181405063833647, 0.34898422688833747, -0.01593519002199173, 0.4791257381439209, 0.06062749773263931, 0.7905177474021912, 0.5795207619667053, -0.19808441400527954, -0.014211595058441162, -0.025168955326080322, -0.09946189820766449, -0.33790285059206004, 0.5355179313284337, 0.7720989050276554,-0.05390287590231857,0.77630615234375,0.554351806640625,-0.29754638671875
20220209-1454,2022-02-09 14:55:03Z,u01, 135,40,movements,el-ex, lt, d,18370.92344725, 1.3377418648051596, -0.6170508852955234, 0.3502724887746414, -0.047011516988277435, 0.464333713054657, 0.053916800767183304, 0.7935394644737244, 0.5786324143409729, -0.1883605569601059, -0.056448400020599365, -0.0288429856300354, -0.09157709777355194, -0.3375252045689349, 0.5402744299442719, 0.7688538378838488,-0.055173181671373805,0.7310333251953125,0.54815673828125,-0.2720184326171875
20220209-1454,2022-02-09 14:55:03Z,u01, 136,40,movements,el-ex, lt, d,18370.94839325, 1.3511088865096128, -0.6153782303672118, 0.35355677638738353, -0.13083697855472565, 0.4365421533584595, 0.12549737095832825, 0.7969298958778381, 0.5772674083709717, -0.17794747650623322, -0.01929616928100586, -0.030499160289764404, -0.0833592414855957, -0.3374597497983881, 0.5451120781037592, 0.765426317077718,-0.0556456782614258,0.7776336669921875,0.5467681884765625,-0.2613067626953125
20220209-1454,2022-02-09 14:55:03Z,u01, 137,40,movements,el-ex, lt, d,18370.973339250002, 1.3641027049767345, -0.6123060534684881, 0.35937285824186743, -0.20187300443649292, 0.32269933819770813, 0.17841026186943054, 0.800906777381897, 0.5747560858726501, -0.16794076561927795, 0.06638771295547485, -0.011508345603942871, -0.10325361788272858, -0.3376231785251869, 0.5495818456281302, 0.7622231545802561,-0.05464852910217327,0.8788604736328125,0.5676727294921875,-0.269683837890625
20220209-1454,2022-02-09 14:55:03Z,u01, 138,40,movements,el-ex, lt, d,18370.99828525, 1.3752762822508517, -0.6090993210616904, 0.3665285591753594, -0.18133261799812317, 0.2721830904483795, 0.15656614303588867, 0.8045370578765869, 0.5721290111541748, -0.15933872759342194, 0.07041734457015991, 0.016280531883239746, -0.10595054924488068, -0.3381858295288227, 0.5531373995132876, 0.7595276270830301,-0.05279522497794831,0.8749542236328125,0.588409423828125,-0.265289306640625
20220209-1454,2022-02-09 14:55:03Z,u01, 139,40,movements,el-ex, lt, d,18371.02323125, 1.3847263520621111, -0.6063009953940911, 0.3699765501882154, 0.050693005323410034, 0.3143238425254822, 0.11667325347661972, 0.8075771331787109, 0.5698316693305969, -0.15202438831329346, 0.04424488544464111, 0.03612542152404785, -0.08979684114456177, -0.3379309048300068, 0.5565882793049524, 0.7571581970752641,-0.05219060384803653,0.8566131591796875,0.6066741943359375,-0.2432403564453125
20220209-1454,2022-02-09 14:55:03Z,u01, 140,40,movements,el-ex, lt, d,18371.048176250002, 1.3897853606000166, -0.6028199168445754, 0.3658276504662459, 0.21122676134109497, 0.2670023739337921, 0.1055700033903122, 0.8102819919586182, 0.5669676065444946, -0.14829307794570923, 0.06479430198669434, 0.006289780139923096, -0.1022103875875473, -0.3354438376915708, 0.5597596714876745, 0.7558339215164032,-0.05349433300088097,0.8750762939453125,0.5732574462890625,-0.2505035400390625
20220209-1454,2022-02-09 14:55:03Z,u01, 141,40,movements,el-ex, lt, d,18371.07312225, 1.392634551253019, -0.5992547947874627, 0.3610862719678196, 0.13389858603477478, 0.16592510044574738, 0.1184573844075203, 0.8126856088638306, 0.5640272498130798, -0.14634115993976593, 0.07594072818756104, -0.012910246849060059, -0.12164892256259918, -0.3328124489937322, 0.5621968451782337, 0.7551079455492739,-0.0546148769500267,0.8910675048828125,0.5506591796875,-0.2777099609375
20220209-1454,2022-02-09 14:55:03Z,u01, 142,40,movements,el-ex, lt, d,18371.09806825, 1.3945489607777608, -0.595653189598106, 0.3591933153772564, 0.05298515409231186, 0.06616853922605515, 0.11939946562051773, 0.8149588108062744, 0.5610495805740356, -0.14514030516147614, 0.07421672344207764, -0.04362398386001587, -0.16265994310379028, -0.3309897571398199, 0.5638046005768613, 0.7547194043926244,-0.054487661215344374,0.8891754150390625,0.517425537109375,-0.30780029296875
20220209-1454,2022-02-09 14:55:03Z,u01, 143,40,movements,el-ex, lt, d,18371.123014250003, 1.3940510154209889, -0.5925610801670245, 0.3588562826744736, -0.018828783184289932, -0.09460289776325226, 0.12764661014080048, 0.8165901899337769, 0.5584872961044312, -0.14585039019584656, 0.07923805713653564, -0.04595988988876343, -0.18561622500419617, -0.32984487423375924, 0.5641605825871099, 0.7550224862496528,-0.05353680271282324,0.89251708984375,0.5094757080078125,-0.32952880859375
20220209-1454,2022-02-09 14:55:03Z,u01, 144,40,movements,el-ex, lt, d,18371.14796025, 1.3912812995450952, -0.5893826081886024, 0.36100508514044183, -0.057027265429496765, -0.19222791492938995, 0.1302376687526703, 0.8179255723953247, 0.5558478832244873, -0.14842775464057922, 0.05330550670623779, -0.04390031099319458, -0.16048632562160492, -0.329428633722082, 0.5632609492396734, 0.7560341959216523,-0.0512455875009476,0.8712310791015625,0.5119476318359375,-0.3089141845703125
20220209-1454,2022-02-09 14:55:03Z,u01, 145,40,movements,el-ex, lt, d,18371.17290525, 1.3855181076575236, -0.5857486589792166, 0.36193361452958067, 0.025817250832915306, -0.26970335841178894, 0.11198722571134567, 0.8190365433692932, 0.5528233647346497, -0.15351024270057678, 0.08103364706039429, -0.033704161643981934, -0.18856124579906464, -0.3285794784857341, 0.5614983602615361, 0.7578757992365588,-0.04877888137927039,0.9105072021484375,0.525146484375,-0.3545074462890625
20220209-1454,2022-02-09 14:55:03Z,u01, 146,40,movements,el-ex, lt, d,18371.197851250003, 1.3743818930980627, -0.581881406568114, 0.35833702163987186, 0.21578584611415863, -0.3790135681629181, 0.07927268743515015, 0.8193671703338623, 0.5495966672897339, -0.16303753852844238, 0.09588563442230225, -0.0024012327194213867, -0.24968212842941284, -0.32649759399312844, 0.5584626676878013, 0.7611189338277773,-0.047084338880371,0.915252685546875,0.5471954345703125,-0.4127197265625
20220209-1454,2022-02-09 14:55:03Z,u01, 147,40,movements,el-ex, lt, d,18371.22279725, 1.3604241653532156, -0.5795381633330046, 0.3519363221511427, 0.2080329954624176, -0.4551410973072052, 0.003829064778983593, 0.818268895149231, 0.5476375818252563, -0.1747262179851532, 0.07481282949447632, -0.027770698070526123, -0.23971764743328094, -0.32422402005894957, 0.554540957868144, 0.7649835617640679,-0.04651187361203568,0.8960418701171875,0.5179443359375,-0.418060302734375
20220209-1454,2022-02-09 14:55:03Z,u01, 148,40,movements,el-ex, lt, d,18371.24774325, 1.3434293179277363, -0.5781271784160252, 0.34488807773551106, 0.28663870692253113, -0.5958399772644043, 0.002960541285574436, 0.8159334063529968, 0.5464564561843872, -0.18878066539764404, 0.09706097841262817, -0.022545933723449707, -0.2697458565235138, -0.3221743303974762, 0.5493754367597028, 0.7695921224110716,-0.04602569982116311,0.912994384765625,0.5239105224609375,-0.458526611328125
20220209-1454,2022-02-09 14:55:03Z,u01, 149,40,movements,el-ex, lt, d,18371.27268925, 1.3219484397006007, -0.5759815375181843, 0.3355003389998216, 0.3725718855857849, -0.72172611951828, 0.025630567222833633, 0.8128248453140259, 0.5446582436561584, -0.20655103027820587, 0.1067461371421814, -0.029902994632720947, -0.29685163497924805, -0.3193375905263732, 0.5429069812433938, 0.775372010133671,-0.04553944788392378,0.9266204833984375,0.5092315673828125,-0.5136871337890625
20220209-1454,2022-02-09 14:55:03Z,u01, 150,40,movements,el-ex, lt, d,18371.29763425, 1.2959134356797726, -0.5728208760323817, 0.3245072434535159, 0.39098992943763733, -0.8981291055679321, 0.04340530186891556, 0.8088252544403076, 0.5420048236846924, -0.22810666263103485, 0.14568841457366943, -0.03472632169723511, -0.3472411632537842, -0.3158212304609214, 0.5349800187351685, 0.7823386017713885,-0.04471804130744722,0.9545135498046875,0.5072784423828125,-0.575347900390625
20220209-1454,2022-02-09 14:55:03Z,u01, 151,40,movements,el-ex, lt, d,18371.322580250002, 1.2652351004773426, -0.5686368226658925, 0.31375104381665714, 0.4140932261943817, -1.0724074840545654, 0.06001277640461922, 0.8036035299301147, 0.5384838581085205, -0.25348883867263794, 0.14700382947921753, -0.018403291702270508, -0.3674675226211548, -0.31210845072890303, 0.525208427407771, 0.7905102430973084,-0.04287253451140183,0.9457855224609375,0.52606201171875,-0.6226654052734375
20220209-1454,2022-02-09 14:55:03Z,u01, 152,40,movements,el-ex, lt, d,18371.34752625, 1.2300211643996641, -0.5630562794950292, 0.3007409060533155, 0.5799846649169922, -1.1849064826965332, 0.08882318437099457, 0.7970007061958313, 0.5337731838226318, -0.282623827457428, 0.16560006141662598, 0.002084970474243164, -0.32522520422935486, -0.307386468085763, 0.5140054879298378, 0.7997720030154667,-0.040947985845960266,0.9626007080078125,0.535858154296875,-0.60784912109375
20220209-1454,2022-02-09 14:55:03Z,u01, 153,40,movements,el-ex, lt, d,18371.37247225, 1.1898958481899418, -0.5552596894227284, 0.28377732853517484, 0.7400577068328857, -1.3260313272476196, 0.10087811201810837, 0.7888613343238831, 0.5271639823913574, -0.31590524315834045, 0.20959758758544922, 0.016399800777435303, -0.31034591794013977, -0.3009256318655059, 0.5014889327295134, 0.8101836395299105,-0.03943650866512716,1.00732421875,0.541412353515625,-0.638153076171875
20220209-1454,2022-02-09 14:55:04Z,u01, 154,40,movements,el-ex, lt, d,18371.397417250002, 1.1440050899708134, -0.5446689189608617, 0.26285620068800936, 0.8480541110038757, -1.4724220037460327, 0.1057857871055603, 0.778577446937561, 0.5181349515914917, -0.35405266284942627, 0.2605307698249817, 0.0017777681350708008, -0.33204349875450134, -0.29253859007971517, 0.4872318125396543, 0.8219279348065175,-0.03821965881041478,1.0391082763671875,0.5199127197265625,-0.68609619140625
20220209-1454,2022-02-09 14:55:04Z,u01, 155,40,movements,el-ex, lt, d,18371.42236325, 1.0942640686299439, -0.5325384043627401, 0.2421747524572341, 0.8683815002441406, -1.6669903993606567, 0.15408354997634888, 0.7655397653579712, 0.5077218413352966, -0.3951801657676697, 0.3035978078842163, -0.028107643127441406, -0.28401893377304077, -0.2837023691068539, 0.4710869204594886, 0.8344264357846276,-0.03636733322597274,1.0719757080078125,0.4669189453125,-0.6750946044921875
20220209-1454,2022-02-09 14:55:04Z,u01, 156,40,movements,el-ex, lt, d,18371.44730925, 1.0412481326854748, -0.5186746618775394, 0.22380442699465078, 0.8052307367324829, -1.8258000612258911, 0.2126224935054779, 0.7495263814926147, 0.4957295358181, -0.4387054741382599, 0.25322026014328003, -0.030092358589172363, -0.20050039887428284, -0.27476167502974574, 0.4529384959895511, 0.8474995138276216,-0.033126766880505365,1.00274658203125,0.46563720703125,-0.6392059326171875
20220209-1454,2022-02-09 14:55:04Z,u01, 157,40,movements,el-ex, lt, d,18371.472255250002, 0.9856638088178576, -0.5005386403487107, 0.2057634491402074, 1.0217931270599365, -1.9088542461395264, 0.34939712285995483, 0.7313716411590576, 0.4798981845378876, -0.48455485701560974, 0.23170208930969238, 0.023657143115997314, -0.19380509853363037, -0.2641142470878102, 0.4335507279983421, 0.8610706157923251,-0.028896428990727918,0.95635986328125,0.505279541015625,-0.6866912841796875
20220209-1454,2022-02-09 14:55:04Z,u01, 158,40,movements,el-ex, lt, d,18371.49720125, 0.9291562035368877, -0.4778418307983628, 0.18866702087912282, 0.9741267561912537, -2.0042202472686768, 0.4338066577911377, 0.7113819122314453, 0.4598638117313385, -0.531470775604248, 0.27715885639190674, 0.04564464092254639, -0.20285844802856445, -0.2516350533446591, 0.4134542549483078, 0.8747409839836343,-0.02374244299160644,0.9885406494140625,0.5055084228515625,-0.7343292236328125
20220209-1454,2022-02-09 14:55:04Z,u01, 159,40,movements,el-ex, lt, d,18371.52214625, 0.8714646301147642, -0.45614807104245303, 0.17692327015307957, 0.7650171518325806, -2.2001678943634033, 0.41233187913894653, 0.6870279908180237, 0.44049328565597534, -0.5778912901878357, 0.3181295394897461, 0.09953054785728455, -0.1972246766090393, -0.24049672726476293, 0.3914277546765735, 0.8880627325392378,-0.017041369335174528,1.0070648193359375,0.5455474853515625,-0.7934112548828125
20220209-1454,2022-02-09 14:55:04Z,u01, 160,40,movements,el-ex, lt, d,18371.547092250003, 0.8111478499453002, -0.4375138123055255, 0.1692179941692215, 0.7048608660697937, -2.3659310340881348, 0.3261429965496063, 0.6567814946174622, 0.42368876934051514, -0.6237996220588684, 0.3351161479949951, 0.19432270526885986, -0.24238073825836182, -0.23124549929223956, 0.366913760599575, 0.9010046291946219,-0.009514821469218226,0.9918975830078125,0.618011474609375,-0.866180419921875
20220209-1454,2022-02-09 14:55:04Z,u01, 161,40,movements,el-ex, lt, d,18371.57203825, 0.7454405968082448, -0.4192648688100366, 0.1592389345287203, 0.8397145867347717, -2.5843257904052734, 0.18525271117687225, 0.619547426700592, 0.40708911418914795, -0.6711479425430298, 0.37872838973999023, 0.25038161873817444, -0.21724927425384521, -0.2215270210693926, 0.3396348284930488, 0.9140921967117801,-0.0030869333232257934,0.9966583251953125,0.663299560546875,-0.9011077880859375
20220209-1454,2022-02-09 14:55:04Z,u01, 162,40,movements,el-ex, lt, d,18371.59698425, 0.6734885366241086, -0.4021211188590568, 0.1473032754617938, 0.7255329489707947, -2.803511142730713, 0.04544009268283844, 0.573964536190033, 0.39137113094329834, -0.7193006277084351, 0.40613800287246704, 0.26872408390045166, -0.21758902072906494, -0.21180495299814897, 0.30901190861934014, 0.927170611741424,0.002245076936728374,0.9801025390625,0.66009521484375,-0.9368896484375
20220209-1454,2022-02-09 14:55:04Z,u01, 163,40,movements,el-ex, lt, d,18371.62193025, 0.5967597210345083, -0.3921522487164315, 0.1368308284828907, 0.38124406337738037, -3.027865409851074, -0.18622368574142456, 0.5193056464195251, 0.3821781575679779, -0.7643699645996094, 0.4310879707336426, 0.2531520128250122, -0.19920724630355835, -0.2054895688670749, 0.274934622141827, 0.9392213000412751,0.006951093734056557,0.9380340576171875,0.635589599609375,-0.9676971435546875
20220209-1454,2022-02-09 14:55:04Z,u01, 164,40,movements,el-ex, lt, d,18371.64687525, 0.513885070763779, -0.3880867181013511, 0.12553863702554754, 0.39979463815689087, -3.2375800609588623, -0.3504039943218231, 0.45500895380973816, 0.37841811776161194, -0.8060810565948486, 0.39850670099258423, 0.27062976360321045, -0.18577075004577637, -0.20177197223966453, 0.23716565732779968, 0.9502251450998607,0.010624418983812056,0.853515625,0.6490478515625,-0.991851806640625
20220209-1454,2022-02-09 14:55:04Z,u01, 165,40,movements,el-ex, lt, d,18371.67182125, 0.42573809251839717, -0.3818347712787032, 0.1098581972722284, 0.5640210509300232, -3.3556087017059326, -0.45430633425712585, 0.3832503855228424, 0.3726237416267395, -0.8451454043388367, 0.4112290143966675, 0.255901038646698, -0.13414841890335083, -0.19658485158176578, 0.19693068728918675, 0.9604231619474938,0.01265815459110331,0.78216552734375,0.6260833740234375,-0.9659423828125
20220209-1454,2022-02-09 14:55:04Z,u01, 166,40,movements,el-ex, lt, d,18371.69676725, 0.3334574206348318, -0.37378860749265597, 0.09203076991798712, 0.4436284303665161, -3.5116920471191406, -0.5376454591751099, 0.3047112822532654, 0.3651450574398041, -0.8796705007553101, 0.4026098847389221, 0.1933724284172058, 0.005998015403747559, -0.1905385506266573, 0.15446622090088155, 0.9693533448123207,0.013767774123112253,0.7073211669921875,0.5585174560546875,-0.8736724853515625
20220209-1454,2022-02-09 14:55:04Z,u01, 167,40,movements,el-ex, lt, d,18371.72171325, 0.2395421485120089, -0.371860100822062, 0.07507153438787499, 0.11209168285131454, -3.5088911056518555, -0.6422876715660095, 0.22104203701019287, 0.3633490204811096, -0.9050513505935669, 0.41717207431793213, 0.18993467092514038, 0.1315222978591919, -0.18781362926176098, 0.11045529605610324, 0.9758658992118715,0.01454345914310251,0.62841796875,0.56304931640625,-0.7455291748046875
20220209-1454,2022-02-09 14:55:04Z,u01, 168,40,movements,el-ex, lt, d,18371.746659250002, 0.14451642088079175, -0.37386212012982334, 0.056684974455353504, -0.017339110374450684, -3.5567352771759033, -0.7253358960151672, 0.13406597077846527, 0.3652134835720062, -0.921219527721405, 0.39990007877349854, 0.18102064728736877, 0.29039067029953003, -0.18729516233243138, 0.0656563116414523, 0.9800018742720544,0.014360644890878571,0.533966064453125,0.546234130859375,-0.630828857421875
20220209-1454,2022-02-09 14:55:04Z,u01, 169,40,movements,el-ex, lt, d,18371.77160425, 0.04971869372969497, -0.37728024150556266, 0.03693102963473903, -0.07358337193727493, -3.4277448654174805, -0.7683686017990112, 0.04620293900370598, 0.3683933615684509, -0.9285212159156799, 0.36712712049484253, 0.16235309839248657, 0.41230112314224243, -0.1878842275128184, 0.020950219663473976, 0.9818753747418054,0.013470872197926143,0.388763427734375,0.5267791748046875,-0.479949951171875
20220209-1454,2022-02-09 14:55:04Z,u01, 170,40,movements,el-ex, lt, d,18371.79655025, -0.039896749502398215, -0.3716444336106428, 0.016739745194512858, 0.6708523035049438, -3.215792179107666, -0.7309802770614624, -0.03716319426894188, 0.3631480932235718, -0.9309899806976318, 0.3770069181919098, 0.21487009525299072, 0.5735986232757568, -0.1845473427207323, -0.021149016306428486, 0.9825239160558576,0.01190923070224309,0.33984375,0.5780181884765625,-0.357391357421875
20220209-1454,2022-02-09 14:55:04Z,u01, 171,40,movements,el-ex, lt, d,18371.821496250002, -0.12281558077437045, -0.3350931544621796, 0.0028682711491797262, 2.0701115131378174, -3.018977165222168, -0.5593683123588562, -0.11569318175315857, 0.3288571536540985, -0.9372662901878357, 0.3898478150367737, 0.3009036183357239, 0.7333478331565857, -0.16636250141714018, -0.06074848937581256, 0.9841227566766395,0.011645536307000215,0.2392730712890625,0.6318206787109375,-0.148590087890625
20220209-1454,2022-02-09 14:55:04Z,u01, 172,40,movements,el-ex, lt, d,18371.84644225, -0.1929148470194159, -0.28114912005492065, -9.85247037072998e-05, 1.754776954650879, -2.5060837268829346, -0.39708179235458374, -0.18419300019741058, 0.2774598300457001, -0.942915141582489, 0.2008403241634369, 0.05820301175117493, 1.0480177402496338, -0.13946541827420297, -0.09535102715524697, 0.9855338419736248,0.0134453451973362,0.0166473388671875,0.335662841796875,0.1051025390625
20220209-1454,2022-02-09 14:55:04Z,u01, 173,40,movements,el-ex, lt, d,18371.871387375002, -0.24799234027099545, -0.2565074389022893, -0.005034540273351516, 0.026842333376407623, -1.81874418258667, -0.40916481614112854, -0.23742729425430298, 0.2537038028240204, -0.9376900792121887, 0.1266637146472931, -0.14844867587089539, 1.221930742263794, -0.1272287850501824, -0.12234299397335151, 0.9842087977737617,0.013341326387323549,-0.1290130615234375,0.0790863037109375,0.3003997802734375
20220209-1454,2022-02-09 14:55:04Z,u01, 174,40,movements,el-ex, lt, d,18371.896333375, -0.2892453412432133, -0.26668237404414163, -0.02053599180192978, -0.7905820608139038, -1.135866403579712, -0.5235181450843811, -0.2751463055610657, 0.2635325491428375, -0.9245783686637878, 0.0615994930267334, -0.08244124054908752, 1.2144649028778076, -0.1330182006853166, -0.1414813796974032, 0.980921361781637,0.009088666633040365,-0.2135467529296875,0.18109130859375,0.289886474609375
20220209-1454,2022-02-09 14:55:04Z,u01, 175,40,movements,el-ex, lt, d,18371.921279375, -0.31018976014657995, -0.27834656066644486, -0.03700550086311483, -0.42171794176101685, -0.22014011442661285, -0.3479652404785156, -0.293491005897522, 0.2747662365436554, -0.9156236052513123, -0.004879415035247803, -0.061112672090530396, 1.123845100402832, -0.13986623671064194, -0.1504182154630672, 0.9786729998206052,0.0033227550008945728,-0.2963104248046875,0.2021942138671875,0.1904449462890625
20220209-1454,2022-02-09 14:55:04Z,u01, 176,40,movements,el-ex, lt, d,18371.946225375003, -0.3099971427580133, -0.28239965241610043, -0.04541918618199418, -0.12450896948575974, 0.3791591227054596, -0.20142494142055511, -0.29297250509262085, 0.2786610424518585, -0.9146119952201843, 0.04802313446998596, -0.1257680058479309, 1.0001375675201416, -0.1424788113328316, -0.1496455122532721, 0.9784200731101511,-0.0004918567808332996,-0.2449493408203125,0.15289306640625,0.0855255126953125
20220209-1454,2022-02-09 14:55:04Z,u01, 177,40,movements,el-ex, lt, d,18371.971171375, -0.29674038907708195, -0.2860919878747236, -0.04939049115578714, -0.3292064070701599, 0.7284725308418274, -0.015964679419994354, -0.2805195748806, 0.2822052240371704, -0.9174252152442932, 0.0827503502368927, -0.1460815668106079, 0.9122982621192932, -0.14456235565461684, -0.14279046480698046, 0.9791339136688435,-0.0031045062411795277,-0.1909332275390625,0.13201904296875,-0.034912109375
20220209-1454,2022-02-09 14:55:04Z,u01, 178,40,movements,el-ex, lt, d,18371.996116375, -0.2772304326742801, -0.30092396763105345, -0.05281401426045544, -0.9123736619949341, 0.9054399132728577, 0.11543761938810349, -0.2613939642906189, 0.29640278220176697, -0.9185959696769714, 0.09572926163673401, -0.14682090282440186, 0.7043015956878662, -0.15201246754807787, -0.1326431931409388, 0.9794240229169755,-0.005151205211939125,-0.1656646728515625,0.1495819091796875,-0.21429443359375
20220209-1454,2022-02-09 14:55:04Z,u01, 179,40,movements,el-ex, lt, d,18372.021062375003, -0.25382706425216994, -0.32993382575012015, -0.05561618777462717, -1.2968552112579346, 1.0274571180343628, 0.2680659592151642, -0.2375662922859192, 0.3239804208278656, -0.9157505035400391, 0.10103060305118561, -0.1166592538356781, 0.5402774810791016, -0.1663074577379885, -0.12027712238810034, 0.978689938335203,-0.0064286833724854775,-0.1265411376953125,0.2264251708984375,-0.416107177734375
20220209-1454,2022-02-09 14:55:04Z,u01, 180,40,movements,el-ex, lt, d,18372.046008375, -0.22735418741815305, -0.3610099964384326, -0.05471428730420099, -1.0365339517593384, 1.091694712638855, 0.3784417510032654, -0.2108713984489441, 0.35321930050849915, -0.9114655256271362, 0.11728918552398682, 0.0058352649211883545, 0.30057990550994873, -0.18135332061803586, -0.10666872425682819, 0.9775950490693708,-0.006379146509900013,-0.0935821533203125,0.3590545654296875,-0.6108856201171875
20220209-1454,2022-02-09 14:55:04Z,u01, 181,40,movements,el-ex, lt, d,18372.070954375, -0.19624355501908372, -0.38523350027950426, -0.049326920248343606, -0.8085938096046448, 1.2300240993499756, 0.42298245429992676, -0.18069596588611603, 0.375775545835495, -0.9089233875274658, 0.09973281621932983, 0.027209073305130005, 0.23173832893371582, -0.19282039508906434, -0.09142538138867021, 0.976950985095641,-0.005341053230138781,-0.07305908203125,0.391387939453125,-0.6853179931640625
20220209-1454,2022-02-09 14:55:04Z,u01, 182,40,movements,el-ex, lt, d,18372.095900375, -0.1619378983158731, -0.408947224708458, -0.04151615070764494, -1.003604769706726, 1.2714402675628662, 0.4783537685871124, -0.1479359269142151, 0.3976435959339142, -0.9055355191230774, 0.1166248619556427, -0.026153087615966797, 0.1402309536933899, -0.20398675481623388, -0.07497768834761856, 0.9760906906884408,-0.0038382063234211894,-0.03131103515625,0.371490478515625,-0.7653045654296875
20220209-1454,2022-02-09 14:55:04Z,u01, 183,40,movements,el-ex, lt, d,18372.120845375, -0.12581138008138792, -0.4369565841139384, -0.03249592733918235, -1.0568736791610718, 1.3456404209136963, 0.5065395832061768, -0.11369013786315918, 0.42318394780158997, -0.8988825678825378, 0.10722038149833679, -0.014690876007080078, 0.08183544874191284, -0.21728416562090977, -0.05784719056893467, 0.9743903353413474,-0.0022059920121467735,4.57763671875e-05,0.41583251953125,-0.8233795166015625
20220209-1454,2022-02-09 14:55:04Z,u01, 184,40,movements,el-ex, lt, d,18372.145791375002, -0.08630074205563966, -0.46224857358119803, -0.020833381390478595, -0.8476235866546631, 1.4413282871246338, 0.5439087152481079, -0.07714780420064926, 0.4459618330001831, -0.8917209506034851, 0.09075863659381866, 0.022177815437316895, 0.0038730502128601074, -0.22928379849795183, -0.03960375886180205, 0.9725535773802759,-0.0002491431047511594,0.01361083984375,0.4681396484375,-0.887847900390625
20220209-1454,2022-02-09 14:55:04Z,u01, 185,40,movements,el-ex, lt, d,18372.170737375, -0.04156404096404385, -0.48188255036121824, -0.006116874093186047, -0.703826367855072, 1.6018846035003662, 0.6060467958450317, -0.036820292472839355, 0.463448166847229, -0.8853587508201599, 0.08673177659511566, 0.002311140298843384, 0.022245347499847412, -0.2386258792879714, -0.019450522864076628, 0.9709147885701829,0.0019891142255559213,0.0691986083984375,0.4719696044921875,-0.85498046875
20220209-1454,2022-02-09 14:55:04Z,u01, 186,40,movements,el-ex, lt, d,18372.195683375, 0.0072488710706375015, -0.4992071275315491, 0.011754009578175469, -0.6555126905441284, 1.6153126955032349, 0.6334930062294006, 0.0063641807064414024, 0.47872957587242126, -0.8779393434524536, 0.16207759082317352, 0.014190346002578735, -0.02426701784133911, -0.24703456919660355, 0.0020603286961619893, 0.9689926305840437,0.0047995185713649025,0.1684417724609375,0.492919921875,-0.9022064208984375
20220209-1454,2022-02-09 14:55:04Z,u01, 187,40,movements,el-ex, lt, d,18372.220628375002, 0.0564831567539302, -0.5135797321171607, 0.029552007003566295, -0.5052441954612732, 1.664602518081665, 0.6164944171905518, 0.04917018860578537, 0.4912983179092407, -0.869602382183075, 0.09180575609207153, 0.020710378885269165, -0.04153043031692505, -0.25425153981059245, 0.0235577996505571, 0.9668250174158199,0.007114308788106538,0.1412811279296875,0.5175933837890625,-0.9127655029296875
20220209-1454,2022-02-09 14:55:04Z,u01, 188,40,movements,el-ex, lt, d,18372.245574375, 0.10759956667103908, -0.5211855226025283, 0.04779634186667151, -0.23269116878509521, 1.6914745569229126, 0.564978837966919, 0.09313356876373291, 0.4979086220264435, -0.8622141480445862, 0.07980954647064209, 0.032959938049316406, -0.0980215072631836, -0.25844866335420075, 0.0457955022672116, 0.9648950482284181,0.009204651767541261,0.172943115234375,0.5308685302734375,-0.960235595703125
20220209-1454,2022-02-09 14:55:04Z,u01, 189,40,movements,el-ex, lt, d,18372.270520375, 0.15953398108023084, -0.523492498079278, 0.06508087251719703, -0.12999765574932098, 1.7892829179763794, 0.5957964658737183, 0.13758361339569092, 0.4999079704284668, -0.8550806045532227, 0.05778992176055908, 0.02821403741836548, -0.08881282806396484, -0.26031249276640583, 0.06853550330376111, 0.9630293205849293,0.010718298409281402,0.2110443115234375,0.5345001220703125,-0.953582763671875
20220209-1454,2022-02-09 14:55:04Z,u01, 190,40,movements,el-ex, lt, d,18372.295466375002, 0.21279478208170297, -0.5244060251318031, 0.08225203372153017, -0.1844399869441986, 1.7515597343444824, 0.548872172832489, 0.18281275033950806, 0.5006989240646362, -0.8460969924926758, 0.11020180583000183, 0.03995048999786377, -0.08380413055419922, -0.26174212973935623, 0.0918833996312831, 0.9606795132245907,0.011980771125381096,0.2930145263671875,0.5406494140625,-0.929901123046875
20220209-1454,2022-02-09 14:55:04Z,u01, 191,40,movements,el-ex, lt, d,18372.320412375, 0.2642496252567968, -0.5261313088958052, 0.09739386610748513, -0.164649099111557, 1.7839275598526, 0.4577869772911072, 0.22586140036582947, 0.5021916031837463, -0.834739625453949, 0.07047954201698303, 0.06369584798812866, -0.054817259311676025, -0.26366210371123777, 0.11450977701461418, 0.9577143290957597,0.01237587394164763,0.30926513671875,0.5697784423828125,-0.8930206298828125
20220209-1454,2022-02-09 14:55:04Z,u01, 192,40,movements,el-ex, lt, d,18372.345357375, 0.31479804291737806, -0.5252038289511477, 0.11056325870857707, -0.029338380321860313, 1.7169568538665771, 0.444894403219223, 0.26789382100105286, 0.5013893842697144, -0.8227038979530334, 0.11214160919189453, 0.06147688627243042, -0.10797542333602905, -0.264357484334414, 0.13697875098400217, 0.954571361723712,0.012070468046743721,0.380035400390625,0.5628662109375,-0.9306793212890625
20220209-1454,2022-02-09 14:55:04Z,u01, 193,40,movements,el-ex, lt, d,18372.370303375003, 0.36261371099032724, -0.5217375472344953, 0.12341142860295834, -0.020288661122322083, 1.6053515672683716, 0.5092005133628845, 0.3075253963470459, 0.49838727712631226, -0.8105790019035339, 0.07566854357719421, 0.015925496816635132, -0.11070090532302856, -0.26395280551146516, 0.15823852004240227, 0.951389010232555,0.012185190190907191,0.3875274658203125,0.5138092041015625,-0.9232940673828125
20220209-1454,2022-02-09 14:55:05Z,u01, 194,40,movements,el-ex, lt, d,18372.395249375, 0.40996632857880433, -0.5188591158623878, 0.13915130500816753, -0.20196983218193054, 1.5585439205169678, 0.5725284814834595, 0.34611976146698, 0.49588972330093384, -0.7964261174201965, 0.0863143801689148, 0.01625630259513855, -0.08035916090011597, -0.2642281979389566, 0.17880272306953204, 0.9476420900855032,0.013696072062807818,0.43243408203125,0.51214599609375,-0.8767852783203125
20220209-1454,2022-02-09 14:55:05Z,u01, 195,40,movements,el-ex, lt, d,18372.420195375, 0.4569645325440825, -0.5214773553685491, 0.15744172402241438, -0.5090005993843079, 1.4673101902008057, 0.49794164299964905, 0.3825802206993103, 0.4981616735458374, -0.778117835521698, 0.10365641117095947, 0.024116158485412598, -0.07027077674865723, -0.267526732120099, 0.19842004869716914, 0.9427669631813895,0.015797438820158105,0.4996337890625,0.5265045166015625,-0.842010498046875
20220209-1454,2022-02-09 14:55:05Z,u01, 196,40,movements,el-ex, lt, d,18372.445141375, 0.5020915922311501, -0.5288051297675463, 0.1767004418284032, -0.5659726858139038, 1.3786405324935913, 0.42047742009162903, 0.415524959564209, 0.5045020580291748, -0.75684654712677, 0.09105157852172852, 0.059493303298950195, -0.0775039792060852, -0.27331079108025746, 0.21651311995898723, 0.9370727406125214,0.017832974713050564,0.5065765380859375,0.563995361328125,-0.8343505859375
20220209-1454,2022-02-09 14:55:05Z,u01, 197,40,movements,el-ex, lt, d,18372.470086375, 0.5442357703553552, -0.5335048016280228, 0.19270701992533185, -0.318453848361969, 1.3759652376174927, 0.346265971660614, 0.4458107054233551, 0.508554220199585, -0.7366312146186829, 0.026769280433654785, 0.07236319780349731, -0.08389496803283691, -0.27766546204333015, 0.23363710505239893, 0.9316435765227564,0.018867487933126426,0.4615020751953125,0.5789794921875,-0.8032684326171875
20220209-1454,2022-02-09 14:55:05Z,u01, 198,40,movements,el-ex, lt, d,18372.495032375, 0.5840452799498551, -0.5327096035697184, 0.2025174427633845, 0.03178562596440315, 1.4120694398880005, 0.2584517002105713, 0.47499755024909973, 0.5078693628311157, -0.7186419367790222, 0.022057533264160156, 0.08322566747665405, -0.08336007595062256, -0.27885700137025177, 0.25083424452382175, 0.9268209479650058,0.01800326958469073,0.4970550537109375,0.591094970703125,-0.802001953125
20220209-1454,2022-02-09 14:55:05Z,u01, 199,40,movements,el-ex, lt, d,18372.519978375, 0.620906069441408, -0.5250156335310879, 0.20547026448724193, 0.2753053903579712, 1.4183349609375, 0.22568956017494202, 0.5034170150756836, 0.501226544380188, -0.7038063406944275, 0.04863077402114868, 0.08005708456039429, -0.08096843957901001, -0.2760510169948043, 0.2681280803074011, 0.9228567879990157,0.015448917257352923,0.5566864013671875,0.5695037841796875,-0.77081298828125
20220209-1454,2022-02-09 14:55:05Z,u01, 200,40,movements,el-ex, lt, d,18372.544924375, 0.6559896234492056, -0.5194779686698222, 0.2068746890924166, -0.00023046322166919708, 1.3405629396438599, 0.11920946091413498, 0.5294790863990784, 0.4964270293712616, -0.6879041790962219, 0.043000221252441406, 0.05758911371231079, 0.0195997953414917, -0.27398403355511836, 0.28457098749794163, 0.918588036306316,0.012175994163646953,0.572479248046875,0.55401611328125,-0.668304443359375
20220209-1454,2022-02-09 14:55:05Z,u01, 201,40,movements,el-ex, lt, d,18372.569870375002, 0.6911048116781171, -0.5192332434723149, 0.20986355677185037, -0.062025286257267, 1.3656708002090454, 0.06278552860021591, 0.5533810257911682, 0.4962145984172821, -0.6689848303794861, 0.06861305236816406, 0.07533389329910278, -0.000387728214263916, -0.27449502325697434, 0.30026668033403947, 0.9134635481235892,0.008771885613506614,0.64031982421875,0.572479248046875,-0.6794586181640625
20220209-1454,2022-02-09 14:55:05Z,u01, 202,40,movements,el-ex, lt, d,18372.594815375, 0.72558597981181, -0.5189624414402079, 0.2110793330586202, 0.026624521240592003, 1.3134374618530273, 0.03644067049026489, 0.5762040019035339, 0.4959794580936432, -0.649610161781311, 0.13912802934646606, 0.06751236319541931, -0.04622107744216919, -0.2746771352864756, 0.31582809965037406, 0.9081759670832616,0.004640006094610849,0.71533203125,0.5634918212890625,-0.695831298828125
20220209-1454,2022-02-09 14:55:05Z,u01, 203,40,movements,el-ex, lt, d,18372.619761375, 0.7574295054748188, -0.5182401048101682, 0.21287804855591153, -0.11370455473661423, 1.1546125411987305, 0.09468653798103333, 0.5968402624130249, 0.4953520894050598, -0.6311957836151123, 0.1162792444229126, 0.023080557584762573, -0.038176774978637695, -0.27469419400441125, 0.3300685121654756, 0.9031038307639992,0.0012158982186772915,0.700286865234375,0.5047149658203125,-0.6674957275390625
20220209-1454,2022-02-09 14:55:05Z,u01, 204,40,movements,el-ex, lt, d,18372.644707375002, 0.7888574421403488, -0.5212733620846415, 0.2188972721028208, -0.2958339750766754, 1.1534119844436646, 0.014831182546913624, 0.6153104901313782, 0.49798479676246643, -0.611068069934845, -0.0027463436126708984, 0.003174901008605957, -0.043350815773010254, -0.2770428148340645, 0.3430936182124419, 0.8975149821614308,-0.0009977287359065334,0.6125640869140625,0.50115966796875,-0.6544189453125
20220209-1454,2022-02-09 14:55:05Z,u01, 205,40,movements,el-ex, lt, d,18372.669653375, 0.8217025880884709, -0.5246614247333641, 0.22421229918174224, -0.11266622692346573, 1.2581385374069214, 0.03856434300541878, 0.6338064670562744, 0.5009199976921082, -0.5893798470497131, -0.013719677925109863, 0.04166734218597412, -0.09096372127532959, -0.27941019870564576, 0.3567071897714688, 0.8914454478137939,-0.003871661868218357,0.6361541748046875,0.544403076171875,-0.6852874755859375
20220209-1454,2022-02-09 14:55:05Z,u01, 206,40,movements,el-ex, lt, d,18372.694598375, 0.8531248386951417, -0.5244961973249023, 0.22565462802120764, 0.041779469698667526, 1.1717298030853271, 0.05555597320199013, 0.652072548866272, 0.500777006149292, -0.5692310333251953, 0.0764278769493103, 0.03885012865066528, -0.10137748718261719, -0.279510925917292, 0.37048364033156334, 0.8857528788699607,-0.00758707449088758,0.7285003662109375,0.5396270751953125,-0.6706085205078125
20220209-1454,2022-02-09 14:55:05Z,u01, 207,40,movements,el-ex, lt, d,18372.719544375002, 0.8810186331225459, -0.5229031923342417, 0.22437025866250718, 0.11854472756385803, 1.1472132205963135, 0.000165487639605999, 0.6683092713356018, 0.49939748644828796, -0.551330029964447, 0.03754705190658569, 0.037940800189971924, -0.09487956762313843, -0.27845039492703094, 0.38314534449779813, 0.8806406780274532,-0.011703126855280743,0.698486328125,0.5362091064453125,-0.6330718994140625
20220209-1454,2022-02-09 14:55:05Z,u01, 208,40,movements,el-ex, lt, d,18372.744490375, 0.9086147873449747, -0.5213007531467123, 0.22196473841859177, 0.05272902548313141, 1.1245203018188477, -0.014717187732458115, 0.6838977336883545, 0.4980085492134094, -0.5331710577011108, 0.03183102607727051, 0.012062221765518188, -0.06747585535049438, -0.2771055714152287, 0.39576124943259594, 0.8753981235154318,-0.016238503968205642,0.715728759765625,0.51007080078125,-0.60064697265625
20220209-1454,2022-02-09 14:55:05Z,u01, 209,40,movements,el-ex, lt, d,18372.769436375, 0.9357744732504348, -0.5224537565333024, 0.22341714457030656, -0.19926899671554565, 0.9903396964073181, -0.002528965938836336, 0.6976617574691772, 0.49900805950164795, -0.5140613317489624, 0.056336045265197754, 0.0046388208866119385, -0.04683643579483032, -0.27764199699842274, 0.40728892297093483, 0.8698535658038501,-0.019632616721849072,0.7588653564453125,0.5059661865234375,-0.54644775390625
20220209-1454,2022-02-09 14:55:05Z,u01, 210,40,movements,el-ex, lt, d,18372.794382375003, 0.9631553735674987, -0.5275630733893403, 0.2305493932151993, -0.39499229192733765, 0.9561350345611572, -0.04199168458580971, 0.7093715071678162, 0.5034292340278625, -0.49330633878707886, 0.05065357685089111, 0.02631014585494995, -0.027506589889526367, -0.28097691439232836, 0.41761082883474054, 0.8638221849485491,-0.021552434982261948,0.7600250244140625,0.5297393798828125,-0.52081298828125
20220209-1454,2022-02-09 14:55:05Z,u01, 211,40,movements,el-ex, lt, d,18372.819327375, 0.9921697166749499, -0.5339500475119477, 0.23920025224633365, -0.3631286025047302, 0.988418698310852, -0.05376066267490387, 0.7206771373748779, 0.5089375376701355, -0.47075155377388, 0.06965184211730957, 0.043720543384552, -0.05007663369178772, -0.28513571646295705, 0.4281609969985608, 0.8572195546240541,-0.023460443356348393,0.79461669921875,0.55584716796875,-0.5186309814453125
20220209-1454,2022-02-09 14:55:05Z,u01, 212,40,movements,el-ex, lt, d,18372.844273375, 1.0194100998721063, -0.5389185022995594, 0.24536021454307072, -0.18021157383918762, 0.9342775940895081, -0.059182457625865936, 0.7310687899589539, 0.5132080912590027, -0.4496176540851593, 0.06827819347381592, 0.048330605030059814, -0.06861653923988342, -0.2881788304707468, 0.4383424930752898, 0.8509615347761726,-0.025949892852882794,0.799346923828125,0.5615386962890625,-0.5182342529296875
20220209-1454,2022-02-09 14:55:05Z,u01, 213,40,movements,el-ex, lt, d,18372.869219625, 1.0429174127333347, -0.5418630528771053, 0.24617626990542127, 0.011652662418782711, 0.9362422227859497, -0.10275310277938843, 0.7401264309883118, 0.5157330632209778, -0.43154647946357727, 0.014268159866333008, 0.06124758720397949, -0.06462353467941284, -0.2892337769360089, 0.44785107938472246, 0.8455112065816297,-0.02973338333263753,0.74261474609375,0.575103759765625,-0.4923095703125
20220209-1454,2022-02-09 14:55:05Z,u01, 214,40,movements,el-ex, lt, d,18372.894165625003, 1.0658493532469178, -0.5434656072272493, 0.24259334999519905, 0.10524383187294006, 1.0029081106185913, -0.12498471140861511, 0.7491028904914856, 0.5171054005622864, -0.41406163573265076, 0.01475214958190918, 0.0332791805267334, -0.06671226024627686, -0.28870057602149485, 0.4578440392292067, 0.8401240418356191,-0.034964733899374434,0.76385498046875,0.550384521484375,-0.48077392578125
20220209-1454,2022-02-09 14:55:05Z,u01, 215,40,movements,el-ex, lt, d,18372.919111625, 1.0881188583708308, -0.5455074397554808, 0.23953247598171867, -0.02166624739766121, 0.891133189201355, -0.14047804474830627, 0.7572005391120911, 0.5188519358634949, -0.3967873156070709, 0.06834578514099121, 0.005195915699005127, -0.08520728349685669, -0.2883963811105491, 0.4673691011017323, 0.8347423271703291,-0.03998832678991793,0.83428955078125,0.52447509765625,-0.4796905517578125
20220209-1454,2022-02-09 14:55:05Z,u01, 216,40,movements,el-ex, lt, d,18372.944056625, 1.1088462649510313, -0.5497197676223938, 0.2407844837375792, -0.21883147954940796, 0.717555820941925, -0.13978050649166107, 0.7632983922958374, 0.5224483013153076, -0.38003090023994446, 0.08432739973068237, 0.013882875442504883, -0.09921708703041077, -0.28993988133393767, 0.4753098170480783, 0.8295281071353422,-0.04357341260266406,0.847625732421875,0.5363311767578125,-0.479248046875
20220209-1454,2022-02-09 14:55:05Z,u01, 217,40,movements,el-ex, lt, d,18372.969002625003, 1.1283433847246256, -0.5568638358336692, 0.24584978114917433, -0.3261881172657013, 0.6661850810050964, -0.22879739105701447, 0.767169713973999, 0.5285264849662781, -0.3634701371192932, 0.016414880752563477, 0.010291874408721924, -0.0594119131565094, -0.2935424469558968, 0.48176526214875404, 0.8243771350600619,-0.04623319646725649,0.769134521484375,0.540863037109375,-0.4135894775390625
20220209-1454,2022-02-09 14:55:05Z,u01, 218,40,movements,el-ex, lt, d,18372.993948625, 1.1492603940990722, -0.5661264788342794, 0.2525970602181873, -0.3681711256504059, 0.6995958089828491, -0.23451760411262512, 0.7701038122177124, 0.536366879940033, -0.34532690048217773, -0.00017583370208740234, 0.008005678653717041, -0.0564674437046051, -0.2983132098225358, 0.48820669551839097, 0.8186912804373034,-0.04907146940094492,0.769927978515625,0.54437255859375,-0.40179443359375
20220209-1454,2022-02-09 14:55:05Z,u01, 219,40,movements,el-ex, lt, d,18373.018894625002, 1.1693490299239606, -0.5741840263753667, 0.2579033219418849, -0.17811235785484314, 0.6656757593154907, -0.21225349605083466, 0.772881805896759, 0.5431498289108276, -0.32808855175971985, 0.04530978202819824, 0.021043896675109863, -0.08130472898483276, -0.30223801864066285, 0.4945785148031126, 0.8132191784650677,-0.052143737490838726,0.8303680419921875,0.5686798095703125,-0.4199676513671875
20220209-1454,2022-02-09 14:55:05Z,u01, 220,40,movements,el-ex, lt, d,18373.043839625003, 1.1854761907582707, -0.579849529172662, 0.2583765130568248, -0.04962427541613579, 0.6052733659744263, -0.1956430971622467, 0.7752081155776978, 0.5478980541229248, -0.31442034244537354, 0.04855293035507202, 0.01562422513961792, -0.0805990993976593, -0.3041019407781694, 0.5003117346899099, 0.8087500537630339,-0.05597824473224322,0.823760986328125,0.5635223388671875,-0.39501953125
20220209-1454,2022-02-09 14:55:05Z,u01, 221,40,movements,el-ex, lt, d,18373.068785625, 1.2008507986245462, -0.5856462561515572, 0.2587949699638473, -0.17696049809455872, 0.610715925693512, -0.21467559039592743, 0.7769762873649597, 0.5527380704879761, -0.30131179094314575, 0.01596212387084961, -0.013370275497436523, -0.05470624566078186, -0.3059793594688869, 0.5056883809236996, 0.8044136157899413,-0.059789917082213095,0.7917633056640625,0.536224365234375,-0.34588623046875
20220209-1454,2022-02-09 14:55:05Z,u01, 222,40,movements,el-ex, lt, d,18373.093731625002, 1.2182874819028942, -0.5924083228556509, 0.26305998598801633, -0.24235668778419495, 0.5954410433769226, -0.19461852312088013, 0.7785860300064087, 0.5583605766296387, -0.2864217460155487, 0.04177236557006836, -0.008021771907806396, -0.059937477111816406, -0.3090960382742631, 0.5111249978851465, 0.7995504799945612,-0.06268995811979777,0.8203582763671875,0.5503387451171875,-0.3463592529296875
20220209-1454,2022-02-09 14:55:05Z,u01, 223,40,movements,el-ex, lt, d,18373.118677625, 1.2353421610411943, -0.5984831842904833, 0.2677134320828179, -0.20902016758918762, 0.533015787601471, -0.1667429506778717, 0.7801400423049927, 0.5633899569511414, -0.27198052406311035, 0.0692862868309021, -0.004002749919891357, -0.07764402031898499, -0.3120316896052846, 0.5163777289459589, 0.7948172786597927,-0.06523672667498404,0.8526153564453125,0.56146240234375,-0.346923828125
20220209-1454,2022-02-09 14:55:05Z,u01, 224,40,movements,el-ex, lt, d,18373.143623625, 1.2501751073831873, -0.6038723313266766, 0.27194179367953547, -0.19330283999443054, 0.4768320918083191, -0.1626395285129547, 0.7811954617500305, 0.567834198474884, -0.2594186067581177, 0.03382229804992676, -0.006234467029571533, -0.08256131410598755, -0.3146472826410484, 0.5208529414152282, 0.7906699388640812,-0.06745657356460122,0.8150177001953125,0.5615997314453125,-0.34197998046875
20220209-1454,2022-02-09 14:55:05Z,u01, 225,40,movements,el-ex, lt, d,18373.168568625002, 1.2644741647464173, -0.6094500123684712, 0.2752943772584414, -0.13889317214488983, 0.5147165656089783, -0.17805157601833344, 0.7817931175231934, 0.5724166035652161, -0.24726322293281555, -0.005135893821716309, -0.007810831069946289, -0.07788628339767456, -0.31709826111577594, 0.5251829042588197, 0.7865919525469474,-0.07003531140460423,0.7767791748046875,0.56536865234375,-0.3256072998046875
20220209-1454,2022-02-09 14:55:05Z,u01, 226,40,movements,el-ex, lt, d,18373.193514625, 1.2774210071893712, -0.6142438645834309, 0.2754984028657371, 0.010016714222729206, 0.48899343609809875, -0.17587652802467346, 0.782292902469635, 0.5763407945632935, -0.236324742436409, 0.029642581939697266, -0.009705603122711182, -0.09965848922729492, -0.3184509292849854, 0.5295532377551155, 0.7827960966221554,-0.07343593779931062,0.8119354248046875,0.5666351318359375,-0.3359832763671875
20220209-1454,2022-02-09 14:55:05Z,u01, 227,40,movements,el-ex, lt, d,18373.218460625, 1.287311471720261, -0.6174780615692839, 0.2732820388823844, 0.023934727534651756, 0.39774754643440247, -0.12961328029632568, 0.7827982306480408, 0.5789807438850403, -0.2280534952878952, 0.05028599500656128, -0.03439456224441528, -0.10944032669067383, -0.31867370126700745, 0.5333107218127593, 0.7798216818875403,-0.0768439831330674,0.8316192626953125,0.5380096435546875,-0.3324737548828125
20220209-1454,2022-02-09 14:55:05Z,u01, 228,40,movements,el-ex, lt, d,18373.243406625003, 1.2965416722815446, -0.6208272495907707, 0.27395953114521904, -0.1268899142742157, 0.3206552267074585, -0.10214190930128098, 0.7829986810684204, 0.5817082524299622, -0.22029206156730652, 0.04157102108001709, -0.054013609886169434, -0.1080922931432724, -0.3197149707491883, 0.5363173531118555, 0.7771071723912727,-0.07906013854970267,0.8245697021484375,0.5276947021484375,-0.3283843994140625
20220209-1454,2022-02-09 14:55:05Z,u01, 229,40,movements,el-ex, lt, d,18373.268352625, 1.3061635998215388, -0.624096632846972, 0.27739375365603314, -0.10694382339715958, 0.29911333322525024, -0.09236877411603928, 0.783242404460907, 0.5843644142150879, -0.2122495025396347, 0.031043052673339844, -0.043363988399505615, -0.11732509732246399, -0.3214397464596565, 0.5390285109837227, 0.774392340414878,-0.08025872469195328,0.81268310546875,0.539794921875,-0.3288726806640625
20220209-1454,2022-02-09 14:55:05Z,u01, 230,40,movements,el-ex, lt, d,18373.293297625, 1.3143639957273083, -0.6268277799556292, 0.2792828930142854, -0.07377501577138901, 0.25853779911994934, -0.06913548707962036, 0.7834097743034363, 0.5865785479545593, -0.20541395246982574, 0.038260817527770996, -0.0305788516998291, -0.10824565589427948, -0.32260295949847784, 0.5414982476200693, 0.7720334262855877,-0.08167895371343736,0.8216705322265625,0.555999755859375,-0.31365966796875
20220209-1454,2022-02-09 14:55:05Z,u01, 231,40,movements,el-ex, lt, d,18373.318243625003, 1.3207957666760388, -0.6286348456442682, 0.2802336458388776, -0.01628689467906952, 0.20981484651565552, -0.06687512993812561, 0.7836862802505493, 0.5880411267280579, -0.20010842382907867, 0.046483397483825684, -0.03156840801239014, -0.12746718525886536, -0.3232453555644439, 0.5435606955623704, 0.7701826386787611,-0.08290261417991202,0.8336029052734375,0.5586700439453125,-0.3306732177734375
20220209-1454,2022-02-09 14:55:05Z,u01, 232,40,movements,el-ex, lt, d,18373.343189625, 1.3240294373891193, -0.6293072954157938, 0.2785817924695904, 0.07692115008831024, 0.12505030632019043, -0.027386445552110672, 0.7839457392692566, 0.5885848999023438, -0.1974765807390213, 0.060201048851013184, -0.033668577671051025, -0.13664506375789642, -0.32290167161003913, 0.5449735928845795, 0.7691797536964844,-0.08426650117102757,0.844146728515625,0.5549163818359375,-0.3341217041015625
20220209-1454,2022-02-09 14:55:05Z,u01, 233,40,movements,el-ex, lt, d,18373.368135625, 1.3254827058905974, -0.6296229674890886, 0.2777119253458944, -0.0417013093829155, 0.03427472338080406, -0.028441723436117172, 0.7840515375137329, 0.5888400673866272, -0.1962919533252716, 0.04698789119720459, -0.05974161624908447, -0.1339081972837448, -0.32271607174825834, 0.5456265759817994, 0.76872133653537,-0.08493226642813423,0.827728271484375,0.532806396484375,-0.328948974609375
20220209-1454,2022-02-09 14:55:06Z,u01, 234,40,movements,el-ex, lt, d,18373.393081625, 1.3241421168141148, -0.6289802033704497, 0.2776917736220507, -0.01869455724954605, -0.02222616598010063, -0.004720481112599373, 0.7841548323631287, 0.5883204340934753, -0.19743530452251434, 0.030847787857055664, -0.03456360101699829, -0.13116267323493958, -0.3225371448933166, 0.5452083444155194, 0.7691379345124377,-0.08452669708302013,0.81500244140625,0.5537567138671875,-0.3285980224609375
20220209-1454,2022-02-09 14:55:06Z,u01, 235,40,movements,el-ex, lt, d,18373.418026625, 1.3208672499163046, -0.6271192734704734, 0.2754771709917072, 0.07425602525472641, -0.04778692126274109, 0.028054509311914444, 0.784563422203064, 0.5868145823478699, -0.20027266442775726, 0.04644554853439331, -0.03549927473068237, -0.15423476696014404, -0.32140457109266196, 0.5445757733011509, 0.7700863665609721,-0.08428216802178762,0.834991455078125,0.5500030517578125,-0.3571624755859375
20220209-1454,2022-02-09 14:55:06Z,u01, 236,40,movements,el-ex, lt, d,18373.442972625002, 1.3147003554073922, -0.6234475258523929, 0.2715815355129789, 0.09980925172567368, -0.13699816167354584, 0.05169259384274483, 0.7853924632072449, 0.5838375687599182, -0.20565152168273926, 0.05866283178329468, -0.04598045349121094, -0.14482754468917847, -0.31928280228938644, 0.5433532306242641, 0.7718965069306809,-0.08367577878394417,0.84405517578125,0.5378570556640625,-0.3504791259765625
20220209-1454,2022-02-09 14:55:06Z,u01, 237,40,movements,el-ex, lt, d,18373.467918625, 1.3084564106904482, -0.6208139549593295, 0.2699195528783121, -0.004623314365744591, -0.22639600932598114, 0.07686765491962433, 0.785575270652771, 0.581697404384613, -0.21094943583011627, 0.06115025281906128, -0.05319404602050781, -0.16229574382305145, -0.3181401612511444, 0.5415829771263145, 0.7737343137253736,-0.08252245131650288,0.8519439697265625,0.52923583984375,-0.3795013427734375
20220209-1454,2022-02-09 14:55:06Z,u01, 238,40,movements,el-ex, lt, d,18373.492864625, 1.2997032798355377, -0.6172727947743724, 0.269218313837431, 0.06753024458885193, -0.3349749445915222, 0.1128552183508873, 0.785678505897522, 0.578813374042511, -0.2183677703142166, 0.07363545894622803, -0.034288227558135986, -0.1855323165655136, -0.3170227895319655, 0.5388067086745014, 0.7763572955555702,-0.08033259100873252,0.85931396484375,0.544525146484375,-0.403900146484375
20220209-1454,2022-02-09 14:55:06Z,u01, 239,40,movements,el-ex, lt, d,18373.517809625002, 1.2880133037967305, -0.6126392273714493, 0.2661352814327026, 0.13764218986034393, -0.3924873173236847, 0.13367681205272675, 0.7856391668319702, 0.5750287175178528, -0.22828309237957, 0.06751024723052979, -0.03885012865066528, -0.2014806568622589, -0.3149686107467656, 0.5354000666315396, 0.7797512787523195,-0.07829131069027395,0.8556671142578125,0.529083251953125,-0.435089111328125
20220209-1454,2022-02-09 14:55:06Z,u01, 240,40,movements,el-ex, lt, d,18373.542755625, 1.2750283406285952, -0.6076024168812307, 0.2638973471213139, 0.03995410352945328, -0.4946264624595642, 0.14963367581367493, 0.7853695750236511, 0.5709006190299988, -0.2393062710762024, 0.08911174535751343, -0.055809617042541504, -0.21017181873321533, -0.31302234697023157, 0.5313792171698183, 0.7835396786353972,-0.07562375446544545,0.874481201171875,0.5150909423828125,-0.4494781494140625
20220209-1454,2022-02-09 14:55:06Z,u01, 241,40,movements,el-ex, lt, d,18373.567701625, 1.262559800348705, -0.6040517760223554, 0.2659096025662664, -0.08496679365634918, -0.6274058222770691, 0.18180173635482788, 0.78425133228302, 0.5679818987846375, -0.24969321489334106, 0.1113634705543518, -0.057560086250305176, -0.20398107171058655, -0.31270286490123234, 0.5266595774428979, 0.7872020567624789,-0.07183124631077548,0.903564453125,0.5057830810546875,-0.4603271484375
20220209-1454,2022-02-09 14:55:06Z,u01, 242,40,movements,el-ex, lt, d,18373.592647625002, 1.2497696915649248, -0.6015737259077812, 0.27451550163663746, -0.36815541982650757, -0.8242223262786865, 0.20276546478271484, 0.7823267579078674, 0.5659406185150146, -0.26014646887779236, 0.15346431732177734, -0.08412915468215942, -0.24293574690818787, -0.3144763031830046, 0.52060678040918, 0.7910478319504812,-0.06570124766636537,0.935791015625,0.4818115234375,-0.503082275390625
20220209-1454,2022-02-09 14:55:06Z,u01, 243,40,movements,el-ex, lt, d,18373.617593625, 1.2344361152129497, -0.6004575347664634, 0.2878972936316922, -0.36476564407348633, -1.0244688987731934, 0.18941043317317963, 0.7788417339324951, 0.5650200247764587, -0.27231958508491516, 0.17814379930496216, -0.060762882232666016, -0.3250313699245453, -0.3179898355255707, 0.5125647937498718, 0.7955106091115552,-0.057642915821759066,0.961456298828125,0.5106658935546875,-0.6190185546875
20220209-1454,2022-02-09 14:55:06Z,u01, 244,40,movements,el-ex, lt, d,18373.642538625, 1.2115916178214154, -0.598017402169084, 0.29708109144262235, -0.1317608654499054, -1.2196106910705566, 0.19650331139564514, 0.7737066149711609, 0.5630050301551819, -0.29052308201789856, 0.16042137145996094, -0.03747701644897461, -0.36970940232276917, -0.3200184884022969, 0.5023212319073002, 0.801747446593431,-0.049626654323637,0.9341278076171875,0.5255279541015625,-0.6602325439453125
20220209-1454,2022-02-09 14:55:06Z,u01, 245,40,movements,el-ex, lt, d,18373.667484625003, 1.180462535470492, -0.5928370896840939, 0.29915103549614325, 0.20268523693084717, -1.359062910079956, 0.2512010633945465, 0.7669763565063477, 0.5587162375450134, -0.3155687153339386, 0.13693910837173462, -0.007522940635681152, -0.3581525683403015, -0.31928757736413693, 0.49017454365395796, 0.8099329560254007,-0.042345294862721095,0.89923095703125,0.5572967529296875,-0.6746978759765625
20220209-1454,2022-02-09 14:55:06Z,u01, 246,40,movements,el-ex, lt, d,18373.692430625, 1.1413493079512913, -0.5823236130403221, 0.29171616683059226, 0.5218707919120789, -1.4282947778701782, 0.3035065829753876, 0.7593488693237305, 0.5499660968780518, -0.34774523973464966, 0.1237993836402893, -0.007683932781219482, -0.33578741550445557, -0.3142197251268098, 0.47685777480855546, 0.8200961326835816,-0.03626375637941698,0.883148193359375,0.5422821044921875,-0.68353271484375
20220209-1454,2022-02-09 14:55:06Z,u01, 247,40,movements,el-ex, lt, d,18373.717376625, 1.0985677235261238, -0.5686747772818538, 0.28127133067927945, 0.5467129349708557, -1.5458039045333862, 0.3816234767436981, 0.7503969073295593, 0.5385158658027649, -0.38328227400779724, 0.17460620403289795, -0.002947568893432617, -0.31520402431488037, -0.3071366536651549, 0.4626293794086305, 0.8310991916006536,-0.030255125386308424,0.9353485107421875,0.533294677734375,-0.7027130126953125
20220209-1454,2022-02-09 14:55:06Z,u01, 248,40,movements,el-ex, lt, d,18373.742322625, 1.0538728969926203, -0.5544090301282866, 0.27372197457368136, 0.47627347707748413, -1.7216790914535522, 0.3876781463623047, 0.7391263246536255, 0.5264409184455872, -0.42018139362335205, 0.2302951216697693, 0.026980042457580566, -0.31575000286102295, -0.3003252156291722, 0.4468938041730505, 0.8423573489183278,-0.02291219700236219,0.96942138671875,0.5534210205078125,-0.735931396484375
20220209-1454,2022-02-09 14:55:06Z,u01, 249,40,movements,el-ex, lt, d,18373.767267625, 1.0049659234923412, -0.5390706235511871, 0.2664310268054898, 0.6126840710639954, -1.8878728151321411, 0.41836312413215637, 0.7244324684143066, 0.5133386254310608, -0.46008819341659546, 0.26157528162002563, 0.09219115972518921, -0.29590845108032227, -0.2929582832479408, 0.4291052956468387, 0.8542961786552445,-0.014905842273401415,0.991180419921875,0.6102294921875,-0.763397216796875
20220209-1454,2022-02-09 14:55:06Z,u01, 250,40,movements,el-ex, lt, d,18373.792213625, 0.9510954189063697, -0.5211726081786676, 0.25682047022678006, 0.6931096315383911, -2.0445356369018555, 0.3895546495914459, 0.705975353717804, 0.4978974163532257, -0.5036834478378296, 0.31473082304000854, 0.11770319938659668, -0.28299862146377563, -0.2838219112704869, 0.40939392726055723, 0.8670600202090848,-0.006981226694069587,1.0207061767578125,0.6156005859375,-0.78668212890625
20220209-1454,2022-02-09 14:55:06Z,u01, 251,40,movements,el-ex, lt, d,18373.817159625, 0.8943999273169274, -0.5042172069314307, 0.2487262346179386, 0.5493249893188477, -2.1742019653320312, 0.3375042974948883, 0.6827856302261353, 0.48312219977378845, -0.5480846762657166, 0.3447107672691345, 0.12552040815353394, -0.23601871728897095, -0.275124899236118, 0.3876389450573834, 0.8797958869082804,0.0012708963187433309,1.0324249267578125,0.6136322021484375,-0.7816162109375
20220209-1454,2022-02-09 14:55:06Z,u01, 252,40,movements,el-ex, lt, d,18373.842105625, 0.8366871272120266, -0.4900719373740547, 0.243222941799457, 0.5245709419250488, -2.224940299987793, 0.2614404857158661, 0.6550433039665222, 0.4706893563270569, -0.5910751223564148, 0.4186108708381653, 0.18099826574325562, -0.2125442624092102, -0.26784425857262545, 0.36431017106076, 0.8918762197038181,0.009714922215027899,1.0736541748046875,0.6516876220703125,-0.803619384765625
