SessionID,LoggingTime,UID,RecNo,Hertz,Activity,MoveType,Wrist,Side,TimeStamp,DMRoll,DMPitch,DMYaw,DMRotX,DMRotY,DMRotZ,DMGrvX,DMGrvY,DMGrvZ,DMUAccelX,DMUAccelY,DMUAccelZ,DMQuatX,DMQuatY,DMQuatW,DMQuatZ,AccelroX,AceelroY,AceelroZ
20220209-1437,2022-02-09 14:37:10Z,u01, 1,40,movements,el-ex, lt, d,17316.337146416667, 1.467808610157711, -0.41880316171278403, 0.3787747126259085, 0.975787878036499, 0.5107499957084656, 0.2593856155872345, 0.9087356925010681, 0.4066673517227173, -0.09392090141773224, 0.16830593347549438, -0.06455004215240479, -0.36851197481155396, -0.2749358308121187, 0.6143694632677599, 0.739567738903602,2.0816681711721685e-17,1.07513427734375,0.36322021484375,-0.41552734375
20220209-1437,2022-02-09 14:37:10Z,u01, 2,40,movements,el-ex, lt, d,17316.36209341667, 1.4642751572601345, -0.41082660830947837, 0.35031937125073614, 1.1711586713790894, 0.1837853193283081, 0.1761142760515213, 0.9115946292877197, 0.3993673026561737, -0.09747307747602463, 0.071788489818573, 0.050263404846191406, -0.39918529987335205, -0.26342281183501887, 0.6179578336487728, 0.7407308266900157,-0.007376309963522704,0.9883880615234375,0.4467620849609375,-0.4940338134765625
20220209-1437,2022-02-09 14:37:10Z,u01, 3,40,movements,el-ex, lt, d,17316.387040416666, 1.455509908505161, -0.4055351275316472, 0.323078286560366, 0.7620996236801147, -0.027105476707220078, 0.005198062397539616, 0.9127916097640991, 0.39451053738594055, -0.10570117831230164, 0.05727052688598633, -0.038645148277282715, -0.45687514543533325, -0.25320388506359515, 0.6188999935570911, 0.7433961790446687,-0.014581466929509977,0.955169677734375,0.3938140869140625,-0.543487548828125
20220209-1437,2022-02-09 14:37:10Z,u01, 4,40,movements,el-ex, lt, d,17316.411986416668, 1.445428920832862, -0.40470380159798336, 0.3066296739572912, 0.6112521886825562, -0.2612555921077728, -0.06834373623132706, 0.9120047688484192, 0.3937464952468872, -0.11493846774101257, 0.11800920963287354, -0.03481405973434448, -0.5437224507331848, -0.24791316396989682, 0.6173085372907081, 0.7463924770442646,-0.019168263441026068,1.02587890625,0.3560638427734375,-0.6509857177734375
20220209-1437,2022-02-09 14:37:10Z,u01, 5,40,movements,el-ex, lt, d,17316.43693341667, 1.4257669096776475, -0.40374636630905963, 0.2837917881347215, 1.069571852684021, -0.5880550742149353, -0.0895950198173523, 0.9099413156509399, 0.39286622405052185, -0.1329013705253601, 0.13057070970535278, -0.01920902729034424, -0.6363705396652222, -0.24076640303406874, 0.612846519692836, 0.7522135783367929,-0.02500684690105577,1.054351806640625,0.3770904541015625,-0.7587738037109375
20220209-1437,2022-02-09 14:37:10Z,u01, 6,40,movements,el-ex, lt, d,17316.461880416668, 1.3934558187386312, -0.40065641733154894, 0.24925425297590312, 1.4237873554229736, -0.8959426879882812, -0.07195298373699188, 0.9063636064529419, 0.3900228440761566, -0.16244147717952728, 0.1346672773361206, -0.015312790870666504, -0.6669805645942688, -0.2296042281496883, 0.6050298844412787, 0.7616518151583381,-0.03327596332601542,1.0395355224609375,0.3745269775390625,-0.8255462646484375
20220209-1437,2022-02-09 14:37:10Z,u01, 7,40,movements,el-ex, lt, d,17316.48682741667, 1.3525262183786033, -0.39494530353000434, 0.21170461810469168, 1.260953664779663, -1.1749659776687622, -0.07573992758989334, 0.9011176228523254, 0.3847576975822449, -0.1998712420463562, 0.23045885562896729, -0.06677985191345215, -0.7122229337692261, -0.21699918606165483, 0.5941176064529763, 0.7734529587658258,-0.04130527190858822,1.113037109375,0.3297576904296875,-0.90380859375
20220209-1437,2022-02-09 14:37:10Z,u01, 8,40,movements,el-ex, lt, d,17316.511773416667, 1.3067773878549742, -0.3891433767929249, 0.18520223273799175, 0.7528627514839172, -1.7134746313095093, 0.08722829073667526, 0.8931739926338196, 0.379395991563797, -0.24145129323005676, 0.17509371042251587, -0.07019191980361938, -0.6822547912597656, -0.20801409475718474, 0.5796589422828893, 0.7865757237095832,-0.044990510028992896,0.812591552734375,0.34564208984375,-0.8695526123046875
20220209-1437,2022-02-09 14:37:10Z,u01, 9,40,movements,el-ex, lt, d,17316.53672041667, 1.2559580462745346, -0.3836247030855203, 0.16898012891034273, 0.6067037582397461, -1.9386465549468994, 0.05670179799199104, 0.881733238697052, 0.37428414821624756, -0.28715455532073975, 0.30807071924209595, -0.027375638484954834, -0.6681066751480103, -0.20238787436816988, 0.5616599199501499, 0.8009938436051041,-0.044565469596326554,1.17327880859375,0.3334503173828125,-0.95562744140625
20220209-1437,2022-02-09 14:37:10Z,u01, 10,40,movements,el-ex, lt, d,17316.561667416667, 1.1976532843873402, -0.37576189821423206, 0.15247315514191756, 0.7816915512084961, -2.2167184352874756, 0.12095555663108826, 0.8662156462669373, 0.3669813871383667, -0.3391090929508209, 0.3658856749534607, 0.020149320363998413, -0.610704779624939, -0.19600514901751293, 0.5403956235325668, 0.8171233566337003,-0.04317263335145324,1.230072021484375,0.3870391845703125,-0.948974609375
20220209-1437,2022-02-09 14:37:10Z,u01, 11,40,movements,el-ex, lt, d,17316.58661441667, 1.1325100410627906, -0.3639006650700472, 0.13174482388434772, 1.0343912839889526, -2.3911385536193848, 0.12653113901615143, 0.8461854457855225, 0.3559221625328064, -0.3965975344181061, 0.38988327980041504, 0.049595385789871216, -0.5474332571029663, -0.1871042101525912, 0.5164235098921152, 0.8345749941963821,-0.04223004285343322,1.23553466796875,0.395111083984375,-0.935791015625
20220209-1437,2022-02-09 14:37:10Z,u01, 12,40,movements,el-ex, lt, d,17316.611560416666, 1.0617258562998384, -0.3466527811648817, 0.10548130480585181, 1.3476499319076538, -2.5822856426239014, 0.2283521145582199, 0.8212559223175049, 0.33975160121917725, -0.458374947309494, 0.4387996196746826, 0.08851680159568787, -0.5037222504615784, -0.1748066294705622, 0.49015830299158686, 0.8528709338224355,-0.04241142046914964,1.255889892578125,0.429931640625,-0.960479736328125
20220209-1437,2022-02-09 14:37:10Z,u01, 13,40,movements,el-ex, lt, d,17316.636507416668, 0.9846007346130341, -0.3235002461355143, 0.0791515674400234, 1.200879454612732, -2.9143850803375244, 0.3039768934249878, 0.7898396849632263, 0.31788718700408936, -0.5245006680488586, 0.5397500991821289, 0.08541783690452576, -0.41339606046676636, -0.16026676885847863, 0.4605043060516598, 0.872075580277355,-0.04164750800295472,1.31744384765625,0.40130615234375,-0.9396820068359375
20220209-1437,2022-02-09 14:37:10Z,u01, 14,40,movements,el-ex, lt, d,17316.661454416666, 0.9029499837696956, -0.3027016838482827, 0.06313809249680032, 0.8106113076210022, -3.2100744247436523, 0.3181047737598419, 0.7494598031044006, 0.29810014367103577, -0.5911399126052856, 0.6067108511924744, 0.13897258043289185, -0.39282310009002686, -0.14921287539892752, 0.4268085636999617, 0.8911514420486245,-0.03767216351360013,1.3545684814453125,0.4345550537109375,-0.9786224365234375
20220209-1437,2022-02-09 14:37:10Z,u01, 15,40,movements,el-ex, lt, d,17316.686401416668, 0.8169865552853637, -0.28511387065291105, 0.05240547972897673, 0.7938740849494934, -3.4075398445129395, 0.2152417153120041, 0.699653148651123, 0.2812667191028595, -0.6567910313606262, 0.5857624411582947, 0.21139377355575562, -0.38466715812683105, -0.14064165124605998, 0.3896465289751214, 0.9095777184410269,-0.032616359141858564,1.309478759765625,0.479217529296875,-1.043914794921875
20220209-1437,2022-02-09 14:37:10Z,u01, 16,40,movements,el-ex, lt, d,17316.71134741667, 0.7267102375965834, -0.2657103191436069, 0.03985184161809022, 0.950415849685669, -3.571470260620117, 0.1921701431274414, 0.6410977840423584, 0.26259472966194153, -0.7211363911628723, 0.6266939640045166, 0.23969405889511108, -0.27866530418395996, -0.13081047872133977, 0.34974338712312036, 0.927226818866922,-0.02861063041554708,1.2669219970703125,0.502655029296875,-1.0034942626953125
20220209-1437,2022-02-09 14:37:10Z,u01, 17,40,movements,el-ex, lt, d,17316.736294416667, 0.6327083378806445, -0.24599854565595153, 0.030824279772460026, 0.6734157204627991, -3.7664875984191895, 0.25058504939079285, 0.5735287666320801, 0.2435249239206314, -0.7821511030197144, 0.6794466376304626, 0.1922202855348587, -0.07728493213653564, -0.12134553870418899, 0.30691970180727257, 0.943672232043965,-0.023628491936068793,1.2662200927734375,0.448699951171875,-0.8817138671875
20220209-1437,2022-02-09 14:37:10Z,u01, 18,40,movements,el-ex, lt, d,17316.76124141667, 0.536484633499386, -0.23165135020092675, 0.02941187565574072, 0.3563064634799957, -3.9239161014556885, 0.28658753633499146, 0.49746498465538025, 0.22958508133888245, -0.8365520238876343, 0.6983205080032349, 0.22303637862205505, 0.03306996822357178, -0.11529330585137001, 0.26159403862588987, 0.9581244428926485,-0.016541675277245774,1.201171875,0.45086669921875,-0.8074188232421875
20220209-1437,2022-02-09 14:37:10Z,u01, 19,40,movements,el-ex, lt, d,17316.786187416667, 0.438534297646196, -0.22372096942527314, 0.03249266543757742, 0.08172941952943802, -3.9512505531311035, 0.1972302794456482, 0.4140309989452362, 0.2218593955039978, -0.8828118443489075, 0.5999612808227539, 0.2376285195350647, 0.17779475450515747, -0.11245186300102425, 0.21435638314493186, 0.9702233262606658,-0.00851980083121863,1.0457000732421875,0.4503173828125,-0.7297821044921875
20220209-1437,2022-02-09 14:37:10Z,u01, 20,40,movements,el-ex, lt, d,17316.81113354167, 0.3416572009192687, -0.2244757408877899, 0.03643178567850721, -0.27915048599243164, -3.885948657989502, 0.07219460606575012, 0.3266429007053375, 0.22259528934955597, -0.9185617566108704, 0.6135272979736328, 0.24961844086647034, 0.32790929079055786, -0.11343080591872938, 0.16689086122233973, 0.9794281306417401,-0.001200312595314848,0.944366455078125,0.4730682373046875,-0.5978546142578125
20220209-1437,2022-02-09 14:37:10Z,u01, 21,40,movements,el-ex, lt, d,17316.836080541667, 0.24677652638462075, -0.23581542016549764, 0.03970566674184328, -0.627762496471405, -3.7425694465637207, -0.09325241297483444, 0.237518772482872, 0.23363591730594635, -0.9428675174713135, 0.5469508171081543, 0.19873711466789246, 0.5264093279838562, -0.11914362511200612, 0.11987932487781157, 0.9856002964605609,0.005088736714702322,0.816864013671875,0.4417572021484375,-0.4485321044921875
20220209-1437,2022-02-09 14:37:11Z,u01, 22,40,movements,el-ex, lt, d,17316.86102754167, 0.15561161821210204, -0.2523121407409114, 0.03855933244669299, -0.6580517292022705, -3.541490077972412, -0.26782500743865967, 0.1500772088766098, 0.24964356422424316, -0.9566373229026794, 0.5270620584487915, 0.19257140159606934, 0.6897611021995544, -0.12690428068123344, 0.07467697437436087, 0.9890563599047515,0.009289436216641259,0.6848297119140625,0.4389190673828125,-0.2803955078125
20220209-1437,2022-02-09 14:37:11Z,u01, 23,40,movements,el-ex, lt, d,17316.885973541666, 0.0700597521007446, -0.26967540044155813, 0.031012585905458745, -0.7332133650779724, -3.1215553283691406, -0.4783225953578949, 0.06747238337993622, 0.26641857624053955, -0.9614928960800171, 0.3995380699634552, 0.16134628653526306, 0.9153960943222046, -0.13486898184564045, 0.03261750303016201, 0.9902692252182147,0.010647983706751338,0.5112152099609375,0.447479248046875,-0.095703125
20220209-1437,2022-02-09 14:37:11Z,u01, 24,40,movements,el-ex, lt, d,17316.910920541668, -0.0063779560689530106, -0.29868267538013843, 0.015842836619758077, -1.6848292350769043, -2.667118549346924, -0.7499730587005615, -0.006095530465245247, 0.29426145553588867, -0.9557055234909058, 0.3438793122768402, 0.02890440821647644, 1.1430529356002808, -0.14875642197073985, -0.0043319622625480406, 0.9888295312769246,0.00830758735561725,0.3447723388671875,0.3314971923828125,0.175201416015625
20220209-1437,2022-02-09 14:37:11Z,u01, 25,40,movements,el-ex, lt, d,17316.935867541666, -0.07284435700123718, -0.35432514679753674, -0.008025999439219956, -2.682589054107666, -1.9999241828918457, -0.8115974068641663, -0.06825891882181168, 0.3469575047492981, -0.9353936314582825, 0.2630831003189087, -0.21879899501800537, 1.3204796314239502, -0.17626282132794674, -0.03513710570522526, 0.9837126689601192,0.0024699186184218708,0.218719482421875,0.161529541015625,0.356781005859375
20220209-1437,2022-02-09 14:37:11Z,u01, 26,40,movements,el-ex, lt, d,17316.960814541668, -0.1196608408591838, -0.4108630097023627, -0.03300352547421235, -1.4958515167236328, -0.9638635516166687, -0.5532659888267517, -0.1094406321644783, 0.39940065145492554, -0.9102208018302917, 0.23889616131782532, -0.3173846900463104, 1.319354772567749, -0.20456279857898488, -0.05516944451064359, 0.9772896664811558,-0.003929301663452067,0.1321868896484375,0.0809478759765625,0.4156494140625
20220209-1437,2022-02-09 14:37:11Z,u01, 27,40,movements,el-ex, lt, d,17316.98576054167, -0.1360345838693226, -0.4074175657706754, -0.04535874744144173, 1.5635021924972534, 0.08272068947553635, -0.4498556852340698, -0.12451490014791489, 0.39623960852622986, -0.9096649289131165, 0.1322815865278244, -0.18891844153404236, 1.1445281505584717, -0.2032925123867837, -0.06196533133645617, 0.977119132576194,-0.008411231300732028,0.0495452880859375,0.17755126953125,0.22686767578125
20220209-1437,2022-02-09 14:37:11Z,u01, 28,40,movements,el-ex, lt, d,17317.010707541667, -0.12311887627114046, -0.35174627196309594, -0.0489988616608164, 2.269552230834961, 0.9749013781547546, -0.38188526034355164, -0.11528883874416351, 0.3445376753807068, -0.931666374206543, 0.06847482919692993, -0.20691868662834167, 1.2650556564331055, -0.17606785253842153, -0.05627531195426054, 0.9826780158166012,-0.013312515607819833,-0.049346923828125,0.1470794677734375,0.3266754150390625
20220209-1437,2022-02-09 14:37:11Z,u01, 29,40,movements,el-ex, lt, d,17317.03565454167, -0.09667111122617458, -0.311456324315636, -0.05158828582524963, 0.8284268975257874, 1.1461937427520752, -0.18534371256828308, -0.09187684208154678, 0.3064452111721039, -0.9474439024925232, 0.1629827618598938, -0.40245354175567627, 1.120417594909668, -0.15609787685330503, -0.04372062668736595, 0.9866101201684684,-0.017958012136620988,0.0538482666015625,-0.0683135986328125,0.24658203125
20220209-1437,2022-02-09 14:37:11Z,u01, 30,40,movements,el-ex, lt, d,17317.060601541667, -0.06795914116799413, -0.30768668925224535, -0.05441981975520594, -0.38155341148376465, 1.2263437509536743, -0.0662492886185646, -0.06471771746873856, 0.3028547763824463, -0.9508367776870728, 0.13641873002052307, -0.3260176181793213, 0.9552007913589478, -0.1540054286827782, -0.029392714053808153, 0.9873950836173935,-0.02166570228186318,0.07061767578125,-0.0314178466796875,0.0131683349609375
20220209-1437,2022-02-09 14:37:11Z,u01, 31,40,movements,el-ex, lt, d,17317.08554754167, -0.037244089018647265, -0.324037902369193, -0.05550951690484058, -0.8869186639785767, 1.2757724523544312, 0.04308745637536049, -0.03529765084385872, 0.3183968961238861, -0.9473000764846802, 0.12665198743343353, -0.21089878678321838, 0.70856112241745, -0.16173095211685648, -0.013894225243762734, 0.9864357902745275,-0.024380396058096068,0.0946197509765625,0.0913238525390625,-0.189422607421875
20220209-1437,2022-02-09 14:37:11Z,u01, 32,40,movements,el-ex, lt, d,17317.110494541666, -0.001936091704501781, -0.3501765538477818, -0.05392997071855781, -1.1584328413009644, 1.509271502494812, 0.1275281012058258, -0.0018185933586210012, 0.3430636525154114, -0.9393104314804077, 0.09675873816013336, -0.16508516669273376, 0.5864509344100952, -0.17415734429689753, 0.003743695971425506, 0.9843573610300524,-0.026380922299872073,0.0918426513671875,0.173370361328125,-0.34442138671875
20220209-1437,2022-02-09 14:37:11Z,u01, 33,40,movements,el-ex, lt, d,17317.135441541668, 0.03918010260251329, -0.3775419884067288, -0.048692969300617825, -0.9812183380126953, 1.6489510536193848, 0.23248806595802307, 0.03641146793961525, 0.36863669753074646, -0.9288601279258728, 0.14030052721500397, -0.12200888991355896, 0.3752865195274353, -0.18709186590359306, 0.023802450088046788, 0.9816665496558294,-0.027581820541965243,0.1686859130859375,0.23291015625,-0.5133514404296875
20220209-1437,2022-02-09 14:37:11Z,u01, 34,40,movements,el-ex, lt, d,17317.16038754167, 0.08628824750650524, -0.39645765637212205, -0.03872857775606956, -0.5678393840789795, 1.7943845987319946, 0.42170393466949463, 0.07949653267860413, 0.3861531913280487, -0.9190027117729187, 0.1347978562116623, -0.0818624496459961, 0.2738000750541687, -0.19589420298347057, 0.04608785878293713, 0.9791565510347042,-0.02745850086440005,0.2106475830078125,0.3010101318359375,-0.639678955078125
20220209-1437,2022-02-09 14:37:11Z,u01, 35,40,movements,el-ex, lt, d,17317.185334541668, 0.13795240171970963, -0.4038322576606955, -0.024581182525000942, -0.23055484890937805, 1.8870826959609985, 0.5227096080780029, 0.12645378708839417, 0.39294523000717163, -0.9108257293701172, 0.12504154443740845, -0.03248685598373413, 0.06674003601074219, -0.19922504741885694, 0.06997513328391652, 0.9771108073484331,-0.02583291492594883,0.247772216796875,0.342254638671875,-0.8079833984375
20220209-1437,2022-02-09 14:37:11Z,u01, 36,40,movements,el-ex, lt, d,17317.21028154167, 0.19145041682119981, -0.4082292464299984, -0.009544545987604422, -0.36545252799987793, 1.936249852180481, 0.5232229232788086, 0.1746465414762497, 0.39698469638824463, -0.9010558724403381, 0.10837344825267792, -0.014965683221817017, -0.0022796988487243652, -0.20132330513858596, 0.09455678931414378, 0.9746540877284074,-0.024025479001073158,0.2792816162109375,0.3808746337890625,-0.9032440185546875
20220209-1437,2022-02-09 14:37:11Z,u01, 37,40,movements,el-ex, lt, d,17317.235228541667, 0.245936786095601, -0.41846531914906826, 0.008532137586417254, -0.7385136485099792, 1.7833236455917358, 0.6043304800987244, 0.22245731949806213, 0.40635865926742554, -0.8862196803092957, 0.22006279230117798, 0.009016066789627075, -0.044810593128204346, -0.20665091875004707, 0.11910311444289734, 0.9709039650093284,-0.021335632402136068,0.41217041015625,0.4082489013671875,-0.9235992431640625
20220209-1437,2022-02-09 14:37:11Z,u01, 38,40,movements,el-ex, lt, d,17317.26017454167, 0.29779854056767047, -0.43388870044164907, 0.03165898710347582, -0.8742901086807251, 1.6471201181411743, 0.6796636581420898, 0.26622775197029114, 0.4204023480415344, -0.867401123046875, 0.15955346822738647, 0.003822505474090576, -0.082061767578125, -0.21513137047304629, 0.14148475114925904, 0.9661386006492587,-0.01664099696638363,0.4320831298828125,0.421356201171875,-0.9510345458984375
20220209-1437,2022-02-09 14:37:11Z,u01, 39,40,movements,el-ex, lt, d,17317.285121541667, 0.3515526089870347, -0.44773086292398506, 0.057921155012972396, -0.7728105187416077, 1.7686429023742676, 0.7697678804397583, 0.31041333079338074, 0.4329211711883545, -0.8462995290756226, 0.06919479370117188, 0.03910943865776062, -0.028822600841522217, -0.22342514178315379, 0.16410806104182454, 0.9607438248795006,-0.011006551232771028,0.3519439697265625,0.46307373046875,-0.8829498291015625
20220209-1437,2022-02-09 14:37:11Z,u01, 40,40,movements,el-ex, lt, d,17317.31006854167, 0.40583275495895577, -0.4564955631260116, 0.08552900823461448, -0.687341034412384, 1.566482424736023, 0.7852842807769775, 0.3543592095375061, 0.44080522656440735, -0.824694037437439, 0.23693406581878662, 0.08012980222702026, -0.07749706506729126, -0.22981818911315893, 0.18664558312057333, 0.9551566586164545,-0.004769683446999781,0.579498291015625,0.5142059326171875,-0.90576171875
20220209-1437,2022-02-09 14:37:11Z,u01, 41,40,movements,el-ex, lt, d,17317.335015541667, 0.45435687176551465, -0.4664278982280546, 0.1135777025413255, -0.8324835896492004, 1.3963477611541748, 0.7062296867370605, 0.39200305938720703, 0.44969862699508667, -0.8025614023208618, 0.25565624237060547, 0.12111738324165344, -0.020726561546325684, -0.2372421483693336, 0.20599869797427034, 0.9493563333622622,0.0018350652179460192,0.6779327392578125,0.5946044921875,-0.8065032958984375
20220209-1437,2022-02-09 14:37:11Z,u01, 42,40,movements,el-ex, lt, d,17317.359961541668, 0.5039882972309765, -0.47522669814742297, 0.13833161028124003, -0.46378853917121887, 1.692196011543274, 0.5371313095092773, 0.4294087290763855, 0.45754003524780273, -0.7786303758621216, 0.07613015174865723, 0.12735986709594727, -0.09212768077850342, -0.24415216924717836, 0.22599675605914174, 0.943012708700806,0.006498235919795023,0.509368896484375,0.579803466796875,-0.8676300048828125
20220209-1437,2022-02-09 14:37:11Z,u01, 43,40,movements,el-ex, lt, d,17317.384908541666, 0.5548173189014316, -0.4697409995522584, 0.15107283425729923, 0.28565484285354614, 1.811144232749939, 0.5192746520042419, 0.4697292745113373, 0.4526553452014923, -0.757929801940918, 0.18424710631370544, 0.1426357626914978, -0.14281177520751953, -0.24328129108421565, 0.248695246305734, 0.9375048869848955,0.007035608949400196,0.5986328125,0.626495361328125,-0.887115478515625
20220209-1437,2022-02-09 14:37:11Z,u01, 44,40,movements,el-ex, lt, d,17317.409855541668, 0.6009424505314459, -0.457328466222639, 0.16078668573781313, 0.0582226887345314, 1.5637255907058716, 0.5589446425437927, 0.5073148608207703, 0.44155269861221313, -0.7400424480438232, 0.18634963035583496, 0.022207677364349365, -0.16652798652648926, -0.23897137609776242, 0.2699471185733573, 0.9327163332144607,0.007839165473354184,0.6996002197265625,0.468414306640625,-0.9079437255859375
20220209-1437,2022-02-09 14:37:11Z,u01, 45,40,movements,el-ex, lt, d,17317.43480254167, 0.6476398017535824, -0.45085736630924117, 0.17240215368308756, -0.011665111407637596, 1.7842339277267456, 0.45378777384757996, 0.5430197715759277, 0.43573740124702454, -0.7178178429603577, 0.00420612096786499, 0.08516710996627808, -0.19419997930526733, -0.23782142759341046, 0.29074397161386756, 0.9267325585060638,0.00869550783022744,0.5296478271484375,0.4951324462890625,-0.9117889404296875
20220209-1437,2022-02-09 14:37:11Z,u01, 46,40,movements,el-ex, lt, d,17317.459748541667, 0.6952384581295215, -0.44228712819635074, 0.18197971202747368, 0.03922699764370918, 1.6620709896087646, 0.5234670639038086, 0.5789299607276917, 0.4280076324939728, -0.6940098404884338, 0.14575570821762085, 0.11616656184196472, -0.19348716735839844, -0.23557261069989727, 0.3122509239836027, 0.9202853460118431,0.008935779532108258,0.7146453857421875,0.5461578369140625,-0.890655517578125
20220209-1437,2022-02-09 14:37:11Z,u01, 47,40,movements,el-ex, lt, d,17317.48469554167, 0.7387784459516359, -0.4361967085382906, 0.19527218532952714, -0.3481332063674927, 1.412615180015564, 0.46148043870925903, 0.6103329658508301, 0.42249536514282227, -0.6700681447982788, 0.16919279098510742, 0.055089473724365234, -0.1431642770767212, -0.23517899698794553, 0.33114461032346504, 0.9137357397210449,0.011003577976197457,0.806915283203125,0.4803009033203125,-0.8255615234375
20220209-1437,2022-02-09 14:37:11Z,u01, 48,40,movements,el-ex, lt, d,17317.509642541667, 0.7819193173381588, -0.4363226987423418, 0.21055382624089736, -0.2796948552131653, 1.5404353141784668, 0.3555106520652771, 0.6386259198188782, 0.4226095378398895, -0.6430848240852356, 0.06327831745147705, 0.08306670188903809, -0.1658141016960144, -0.23809093082522104, 0.3489559990261697, 0.906299005989524,0.012829124106124253,0.7027130126953125,0.5019683837890625,-0.8087158203125
20220209-1437,2022-02-09 14:37:11Z,u01, 49,40,movements,el-ex, lt, d,17317.53458954167, 0.8231725561266058, -0.43189268056341634, 0.2196104381532514, -0.000706835649907589, 1.4346392154693604, 0.38541412353515625, 0.6659707427024841, 0.4185904264450073, -0.6174665689468384, 0.1067800521850586, 0.06572353839874268, -0.15211045742034912, -0.23801739830907703, 0.3668983824355216, 0.899203522112005,0.012894209508586718,0.7649993896484375,0.5072021484375,-0.77520751953125
20220209-1437,2022-02-09 14:37:11Z,u01, 50,40,movements,el-ex, lt, d,17317.559535541666, 0.8605088849950474, -0.4247799168799051, 0.2274044380121705, -0.10545728355646133, 1.2953650951385498, 0.4064958095550537, 0.6907951235771179, 0.4121202528476715, -0.5941035747528076, 0.0889441967010498, 0.0646405816078186, -0.16228985786437988, -0.23660751778419828, 0.38336027871482725, 0.8926763793616153,0.013443772960472111,0.7794952392578125,0.4758453369140625,-0.75848388671875
20220209-1437,2022-02-09 14:37:11Z,u01, 51,40,movements,el-ex, lt, d,17317.584482541668, 0.8971338094277328, -0.4232297165681405, 0.2395198608749968, -0.45770224928855896, 1.2862179279327393, 0.24410298466682434, 0.7125844359397888, 0.41070735454559326, -0.5688083171844482, -0.013365745544433594, 0.06387150287628174, -0.10457730293273926, -0.2385611418736742, 0.39835211709258933, 0.8855420216614842,0.014816655288578805,0.718658447265625,0.4774017333984375,-0.6961669921875
20220209-1437,2022-02-09 14:37:11Z,u01, 52,40,movements,el-ex, lt, d,17317.609429541666, 0.936242989073882, -0.4252270038211447, 0.2517440351626644, -0.2276580035686493, 1.3979508876800537, 0.2244531214237213, 0.7336174249649048, 0.41252759099006653, -0.5400245189666748, 0.01339179277420044, 0.05909106135368347, -0.1217796802520752, -0.2421933295712237, 0.4139204235571534, 0.877374355924556,0.015052232244089858,0.736968994140625,0.4728240966796875,-0.660491943359375
20220209-1437,2022-02-09 14:37:11Z,u01, 53,40,movements,el-ex, lt, d,17317.634375541667, 0.9714978401885456, -0.42035571679084205, 0.2574617577001891, 0.013815314508974552, 1.2198418378829956, 0.3255027234554291, 0.7538465261459351, 0.4080852270126343, -0.5149582028388977, 0.15342575311660767, 0.04493296146392822, -0.12491917610168457, -0.24158949214787456, 0.4291333360727384, 0.8702132121149899,0.014428508096502729,0.90362548828125,0.464630126953125,-0.650299072265625
20220209-1437,2022-02-09 14:37:11Z,u01, 54,40,movements,el-ex, lt, d,17317.65932254167, 1.0036807618341723, -0.41587315728240715, 0.2664684415652074, -0.40581846237182617, 1.102965235710144, 0.30106306076049805, 0.771561324596405, 0.4039888083934784, -0.4914124608039856, 0.07595759630203247, 0.051302939653396606, -0.0991026759147644, -0.24190789346574149, 0.44246394315367243, 0.8634032546085384,0.01552590692797197,0.8530426025390625,0.4546966552734375,-0.592926025390625
20220209-1437,2022-02-09 14:37:11Z,u01, 55,40,movements,el-ex, lt, d,17317.684269541667, 1.038395159775565, -0.41890907794559795, 0.28274064570571356, -0.662015438079834, 1.170897126197815, 0.1158406212925911, 0.7870917320251465, 0.40676409006118774, -0.46371278166770935, -0.02183300256729126, 0.07246869802474976, -0.07385438680648804, -0.24710865944754648, 0.45506144683168653, 0.8553066804807339,0.01751771416451809,0.7621307373046875,0.4715423583984375,-0.5461578369140625
20220209-1437,2022-02-09 14:37:11Z,u01, 56,40,movements,el-ex, lt, d,17317.70921654167, 1.074230439404129, -0.42206438716159705, 0.29777645906775246, -0.37425824999809265, 1.184205174446106, 0.24052336812019348, 0.8020676970481873, 0.40964454412460327, -0.4346018433570862, 0.10932445526123047, 0.08615928888320923, -0.0752706527709961, -0.2521975882202687, 0.46807633341796584, 0.8467312464343788,0.018632222210457093,0.9008331298828125,0.4957427978515625,-0.5112762451171875
20220209-1437,2022-02-09 14:37:11Z,u01, 57,40,movements,el-ex, lt, d,17317.734163541667, 1.1064048396993578, -0.41531945900955397, 0.30313926984153755, 0.39304864406585693, 1.131730556488037, 0.376065194606781, 0.8180850148200989, 0.40348225831985474, -0.40980350971221924, 0.10545313358306885, 0.058706462383270264, -0.13189882040023804, -0.25103622866284936, 0.4817458501389635, 0.839377614449442,0.018626138185929175,0.944122314453125,0.44805908203125,-0.53363037109375
20220209-1437,2022-02-09 14:37:11Z,u01, 58,40,movements,el-ex, lt, d,17317.75910954167, 1.1295049083464113, -0.39945420667450926, 0.28567645884190646, 1.2311362028121948, 1.2951847314834595, 0.17274750769138336, 0.8330161571502686, 0.3889155685901642, -0.3934828042984009, -0.01345139741897583, 0.17250102758407593, -0.1660265326499939, -0.24056118070733407, 0.4953674587205789, 0.8346129310000225,0.01275353136220591,0.8242950439453125,0.558685302734375,-0.5586090087890625
20220209-1437,2022-02-09 14:37:11Z,u01, 59,40,movements,el-ex, lt, d,17317.784056541666, 1.1515543806057285, -0.3855918651056467, 0.25821150135351406, 0.8618596196174622, 1.2298626899719238, 0.019099563360214233, 0.8463325500488281, 0.3761076033115387, -0.3771796226501465, 0.008556485176086426, 0.05577719211578369, -0.06494390964508057, -0.2281762777389393, 0.509260028442468, 0.8298093254500267,0.0025311191697347177,0.823577880859375,0.4693756103515625,-0.4714508056640625
20220209-1437,2022-02-09 14:37:11Z,u01, 60,40,movements,el-ex, lt, d,17317.809004625, 1.1765368075159406, -0.3825609903809938, 0.250217092755229, -0.2442842423915863, 1.0335912704467773, -0.024684002622961998, 0.8565388321876526, 0.3732975423336029, -0.3563569188117981, 0.07969468832015991, -0.00011333823204040527, -0.004498183727264404, -0.22490356882580861, 0.5208069953789979, 0.8235113349113813,-0.0027613638884946973,0.93310546875,0.3728179931640625,-0.3653411865234375
20220209-1437,2022-02-09 14:37:11Z,u01, 61,40,movements,el-ex, lt, d,17317.833950625, 1.2081223684706728, -0.3899318075779951, 0.26864396021524073, -1.1341661214828491, 0.9518759846687317, -0.006095338147133589, 0.8647693991661072, 0.38012534379959106, -0.3281443119049072, 0.11707264184951782, 0.0074784159660339355, 0.03943270444869995, -0.23263616266454074, 0.5308561588305978, 0.8149057552846488,-0.0009157346569255223,0.9882049560546875,0.3901519775390625,-0.2826995849609375
20220209-1437,2022-02-09 14:37:12Z,u01, 62,40,movements,el-ex, lt, d,17317.858897625, 1.243638753542605, -0.397430201609005, 0.29497422386017985, -0.5812912583351135, 1.0986272096633911, 0.09538234770298004, 0.8731523156166077, 0.3870501220226288, -0.2963060140609741, 0.025330960750579834, 0.029041796922683716, -0.09123677015304565, -0.24263442198366744, 0.5412721388335364, 0.8050725417610507,0.0033499818009897903,0.9035491943359375,0.4100341796875,-0.381500244140625
20220209-1437,2022-02-09 14:37:12Z,u01, 63,40,movements,el-ex, lt, d,17317.883844625, 1.2711048333609343, -0.39436327387585673, 0.29075374391124353, 0.8831251859664917, 1.2071397304534912, 0.01832025684416294, 0.8820903301239014, 0.3842204213142395, -0.2725643813610077, -0.007731199264526367, 0.134990394115448, -0.1602512001991272, -0.2403203191669269, 0.5531400883863734, 0.7976726420832555,-0.000747122621774815,0.869384765625,0.5144500732421875,-0.4522552490234375
20220209-1437,2022-02-09 14:37:12Z,u01, 64,40,movements,el-ex, lt, d,17317.908791625003, 1.2904346870923722, -0.38722993527551797, 0.26338362636768886, 0.9449531435966492, 1.155903697013855, -0.06336848437786102, 0.8898049592971802, 0.37762489914894104, -0.2562156915664673, 0.02758389711380005, 0.07609516382217407, -0.1163581907749176, -0.22988817761008626, 0.5648394261433138, 0.7924453614255266,-0.011753129470680176,0.9131317138671875,0.4582061767578125,-0.3759307861328125
20220209-1437,2022-02-09 14:37:12Z,u01, 65,40,movements,el-ex, lt, d,17317.933737625, 1.3123685262347622, -0.38749770855234966, 0.24962760029941106, 0.058383509516716, 1.0075876712799072, -0.1958460956811905, 0.8951125741004944, 0.3778728246688843, -0.2366129755973816, 0.13261264562606812, 0.018519997596740723, -0.06534326076507568, -0.22589686169248985, 0.5750340191450233, 0.7860763209508704,-0.019762732792379993,1.0088653564453125,0.4049530029296875,-0.303863525390625
20220209-1437,2022-02-09 14:37:12Z,u01, 66,40,movements,el-ex, lt, d,17317.958684625002, 1.3367231686917402, -0.39341713707032694, 0.252832850924033, -0.27590566873550415, 0.8517606258392334, -0.20881915092468262, 0.8984177112579346, 0.3833467364311218, -0.2142222672700882, 0.13365638256072998, 0.005813479423522949, -0.12488910555839539, -0.22879172265473138, 0.5835608085271564, 0.7788308059459431,-0.023105258630054512,1.03466796875,0.3894195556640625,-0.334136962890625
20220209-1437,2022-02-09 14:37:12Z,u01, 67,40,movements,el-ex, lt, d,17317.983631625, 1.3583487910328054, -0.40023137480960613, 0.2569012891407193, -0.1265702247619629, 0.7470815181732178, -0.25671449303627014, 0.9002653956413269, 0.389631450176239, -0.19418950378894806, 0.049258530139923096, 0.0027788281440734863, -0.1843200922012329, -0.2322558004239319, 0.5907304716413041, 0.7722763188205745,-0.026154172271796235,0.9595794677734375,0.387725830078125,-0.380706787109375
20220209-1437,2022-02-09 14:37:12Z,u01, 68,40,movements,el-ex, lt, d,17318.008578625002, 1.3763717077699338, -0.4075344109980415, 0.25931206124007133, -0.2323165237903595, 0.6285998821258545, -0.27420729398727417, 0.9008029103279114, 0.3963468670845032, -0.17737895250320435, 0.05255097150802612, 0.0046998560428619385, -0.18617701530456543, -0.23541071408872605, 0.5965671153718769, 0.766688003523501,-0.029647741189693495,0.9521026611328125,0.400665283203125,-0.365692138671875
20220209-1437,2022-02-09 14:37:12Z,u01, 69,40,movements,el-ex, lt, d,17318.033524625, 1.3936310120547242, -0.415977569134287, 0.2670965426008428, -0.3918440043926239, 0.5150958895683289, -0.29493972659111023, 0.9004037380218506, 0.40408432483673096, -0.16121052205562592, 0.07762348651885986, -0.05708426237106323, -0.21468977630138397, -0.24055912171228638, 0.6012703633087796, 0.7613260113044922,-0.03143053120031647,0.980377197265625,0.3593902587890625,-0.356781005859375
20220209-1437,2022-02-09 14:37:12Z,u01, 70,40,movements,el-ex, lt, d,17318.058471625, 1.4063563844864821, -0.4242723867545153, 0.271740167930636, 0.04181715473532677, 0.35834601521492004, -0.2782646119594574, 0.8990446925163269, 0.41165778040885925, -0.14918597042560577, 0.05075383186340332, -0.04678967595100403, -0.2791587710380554, -0.2447506674821375, 0.6045693698578218, 0.757261146032235,-0.033889780851208876,0.9514312744140625,0.3620758056640625,-0.42584228515625
20220209-1437,2022-02-09 14:37:12Z,u01, 71,40,movements,el-ex, lt, d,17318.083418625, 1.4107553552346057, -0.4294938774452481, 0.26463762479360636, 0.27364230155944824, 0.2409859001636505, -0.21730051934719086, 0.8975580930709839, 0.4164107143878937, -0.14488518238067627, 0.023355603218078613, -0.05900409817695618, -0.28828132152557373, -0.24439942816647442, 0.6064868760705691, 0.7556035036708205,-0.03880757722091351,0.9183807373046875,0.3703155517578125,-0.441375732421875
20220209-1437,2022-02-09 14:37:12Z,u01, 72,40,movements,el-ex, lt, d,17318.108365625, 1.4131862433951707, -0.43348321943649765, 0.25938418829620224, 0.03743378818035126, 0.1459563821554184, -0.16803143918514252, 0.8962598443031311, 0.42003440856933594, -0.1424410045146942, 0.043971478939056396, -0.10910606384277344, -0.29304492473602295, -0.24418939912323545, 0.6075780093227252, 0.7546019659874142,-0.04238368752117038,0.9384765625,0.312255859375,-0.4339447021484375
20220209-1437,2022-02-09 14:37:12Z,u01, 73,40,movements,el-ex, lt, d,17318.133311625003, 1.4140020496332208, -0.4368870032143375, 0.2578643959239922, 0.09159789979457855, -0.020338453352451324, -0.1283760368824005, 0.8949584364891052, 0.42312091588974, -0.14148572087287903, 0.09509289264678955, -0.08652722835540771, -0.39325857162475586, -0.24493236742761126, 0.6076720133064759, 0.7541833991842072,-0.04416285818016365,0.97906494140625,0.3253021240234375,-0.504150390625
20220209-1437,2022-02-09 14:37:12Z,u01, 74,40,movements,el-ex, lt, d,17318.158258625, 1.4070796647227948, -0.4378133978346155, 0.25096874397049934, 0.3559187352657318, -0.28165552020072937, -0.035314008593559265, 0.8935703635215759, 0.4239601194858551, -0.1476135551929474, 0.1028590202331543, -0.08422321081161499, -0.4473876953125, -0.24333014033848877, 0.6057917676980434, 0.7560887919919856,-0.0462219327650711,0.9974212646484375,0.3414764404296875,-0.5923919677734375
20220209-1437,2022-02-09 14:37:12Z,u01, 75,40,movements,el-ex, lt, d,17318.183205625002, 1.3928243146371402, -0.4364594680350987, 0.24050719838503984, 0.35677847266197205, -0.49224698543548584, 0.008174745365977287, 0.8919395804405212, 0.42273348569869995, -0.16043777763843536, 0.10333019495010376, -0.12242528796195984, -0.4757927656173706, -0.24001757011150676, 0.6018078416771864, 0.7602053654949543,-0.04802879482165702,0.9849090576171875,0.3020172119140625,-0.6210784912109375
20220209-1437,2022-02-09 14:37:12Z,u01, 76,40,movements,el-ex, lt, d,17318.208152625, 1.3739787175454297, -0.4338058531491983, 0.231985787240772, 0.2868283689022064, -0.7465675473213196, 0.09109266102313995, 0.8898546695709229, 0.42032715678215027, -0.17743612825870514, 0.16994446516036987, -0.11989691853523254, -0.520500898361206, -0.23694992487308955, 0.5959334404794897, 0.7657650448728173,-0.0481859395269322,1.055206298828125,0.3002471923828125,-0.69586181640625
20220209-1437,2022-02-09 14:37:12Z,u01, 77,40,movements,el-ex, lt, d,17318.233098625, 1.3483682104198984, -0.42962528169144737, 0.22619986861960456, 0.20540344715118408, -1.085086703300476, 0.1246674656867981, 0.8867254853248596, 0.41653016209602356, -0.20055100321769714, 0.18668454885482788, -0.12589603662490845, -0.56574547290802, -0.23429766601210025, 0.5872215075980752, 0.7734030877020587,-0.04607894098837667,1.0888519287109375,0.294952392578125,-0.7479248046875
20220209-1437,2022-02-09 14:37:12Z,u01, 78,40,movements,el-ex, lt, d,17318.258045625, 1.316094272065219, -0.4247765019795402, 0.22083329595062406, 0.3046437203884125, -1.3114264011383057, 0.16492959856987, 0.8817363977432251, 0.4121171534061432, -0.22956590354442596, 0.15915721654891968, -0.09845742583274841, -0.5784175395965576, -0.23163936022808856, 0.5758126922633475, 0.7829061242013295,-0.04290753686083523,1.040802001953125,0.3116912841796875,-0.8060150146484375
20220209-1437,2022-02-09 14:37:12Z,u01, 79,40,movements,el-ex, lt, d,17318.282992625, 1.276913557106087, -0.41746280150774284, 0.21229709934450755, 0.4202835261821747, -1.5649105310440063, 0.22485825419425964, 0.8749290108680725, 0.4054424464702606, -0.2647939622402191, 0.22902923822402954, -0.06186026334762573, -0.5920939445495605, -0.2272343934318674, 0.5621099028554066, 0.7942491012255758,-0.03956613242527125,1.089385986328125,0.3484344482421875,-0.84686279296875
20220209-1437,2022-02-09 14:37:12Z,u01, 80,40,movements,el-ex, lt, d,17318.307939625, 1.2308138417559673, -0.4086357030877274, 0.20369143369544548, 0.4203460216522217, -1.8456395864486694, 0.26045119762420654, 0.8651371598243713, 0.3973577320575714, -0.30601388216018677, 0.2406519651412964, -0.0530431866645813, -0.558366060256958, -0.22228875033837325, 0.5455096488908349, 0.8073199109591245,-0.035234449213028235,1.106170654296875,0.342193603515625,-0.8629150390625
20220209-1437,2022-02-09 14:37:12Z,u01, 81,40,movements,el-ex, lt, d,17318.332885625, 1.17865234767493, -0.3983069433555422, 0.19499215536881023, 0.4606921374797821, -2.068270683288574, 0.28496646881103516, 0.8517529368400574, 0.38785839080810547, -0.35225382447242737, 0.28888726234436035, -2.5779008865356445e-05, -0.53046715259552, -0.21671929967073456, 0.5262184313412307, 0.8217176797574854,-0.03011507621143822,1.12762451171875,0.3826904296875,-0.8845062255859375
20220209-1437,2022-02-09 14:37:12Z,u01, 82,40,movements,el-ex, lt, d,17318.357832625003, 1.1204025418296772, -0.3869912866571586, 0.18620564414934365, 0.5088446140289307, -2.3238000869750977, 0.2592265009880066, 0.8336992859840393, 0.3774039149284363, -0.40312767028808594, 0.3429822325706482, 0.04450160264968872, -0.49079328775405884, -0.21067048801117602, 0.5040378134185567, 0.8372373910295842,-0.024444091433573067,1.1763458251953125,0.417449951171875,-0.8925323486328125
20220209-1437,2022-02-09 14:37:12Z,u01, 83,40,movements,el-ex, lt, d,17318.382779625, 1.0561484445927172, -0.3751467720356452, 0.17590567035048446, 0.6026338934898376, -2.506824493408203, 0.22076217830181122, 0.8099285364151001, 0.3664090931415558, -0.45799580216407776, 0.3950580358505249, 0.10180681943893433, -0.44489729404449463, -0.20393434614947326, 0.47897065346471457, 0.8536011275938721,-0.019053277950991987,1.1923370361328125,0.467041015625,-0.90484619140625
20220209-1437,2022-02-09 14:37:12Z,u01, 84,40,movements,el-ex, lt, d,17318.407726625002, 0.9872404257949042, -0.3628753704056658, 0.16449809680034283, 0.6419151425361633, -2.6789393424987793, 0.181308314204216, 0.780165433883667, 0.3549638092517853, -0.5151140689849854, 0.45958060026168823, 0.12629833817481995, -0.35553717613220215, -0.19665398822715013, 0.451409110876337, 0.8702640889146571,-0.01404714176292031,1.2381134033203125,0.482025146484375,-0.8709869384765625
20220209-1437,2022-02-09 14:37:12Z,u01, 85,40,movements,el-ex, lt, d,17318.432672625, 0.9141308346130156, -0.3480160200199072, 0.15077942893887028, 0.9328080415725708, -2.789431095123291, 0.20911197364330292, 0.7445508241653442, 0.3410334289073944, -0.5738816857337952, 0.4881914258003235, 0.1388249397277832, -0.3217024803161621, -0.1876555329037473, 0.4217162092635071, 0.8870446391450351,-0.009622310044528931,1.2354888916015625,0.475860595703125,-0.884674072265625
20220209-1437,2022-02-09 14:37:12Z,u01, 86,40,movements,el-ex, lt, d,17318.457619625002, 0.8376991371169685, -0.3252744116367506, 0.13232956701405518, 1.2774584293365479, -2.8676202297210693, 0.3019068241119385, 0.704139232635498, 0.31956881284713745, -0.634084939956665, 0.5191731452941895, 0.16344812512397766, -0.33107924461364746, -0.17413599393780832, 0.39068425243479593, 0.9038834153157886,-0.006106653043753241,1.223480224609375,0.48431396484375,-0.9623260498046875
20220209-1437,2022-02-09 14:37:12Z,u01, 87,40,movements,el-ex, lt, d,17318.482566625, 0.7584552582762502, -0.2969960594515591, 0.11413457870753443, 1.2256884574890137, -3.037416458129883, 0.3313996195793152, 0.6576889753341675, 0.2926490902900696, -0.6941194534301758, 0.51417076587677, 0.14163127541542053, -0.2822142243385315, -0.15809982703359143, 0.3576936296353334, 0.9203556787046678,-0.0022826187888077276,1.1869659423828125,0.441558837890625,-0.9662933349609375
20220209-1437,2022-02-09 14:37:12Z,u01, 88,40,movements,el-ex, lt, d,17318.507513625, 0.6779612086617818, -0.27042618377052535, 0.10148199092440531, 1.0104588270187378, -3.130821704864502, 0.3425193727016449, 0.6044119000434875, 0.2671421468257904, -0.7505473494529724, 0.5531502962112427, 0.1693202257156372, -0.26796162128448486, -0.1436783631489642, 0.3226187657098994, 0.9355569047982139,0.002629130170302335,1.15673828125,0.4368438720703125,-1.01629638671875
20220209-1437,2022-02-09 14:37:12Z,u01, 89,40,movements,el-ex, lt, d,17318.532459625, 0.5962868220648416, -0.24669478633390204, 0.09419820794092218, 0.9107743501663208, -3.258115291595459, 0.32135209441185, 0.5445722341537476, 0.24420015513896942, -0.8023760318756104, 0.5691972374916077, 0.1945968121290207, -0.24179810285568237, -0.13120155432227928, 0.28565385006394167, 0.9492705779178567,0.008561760072176794,1.13519287109375,0.42718505859375,-1.0442962646484375
20220209-1437,2022-02-09 14:37:12Z,u01, 90,40,movements,el-ex, lt, d,17318.557406625, 0.5121817759245998, -0.22117295622930802, 0.08780870501881255, 1.0434870719909668, -3.370236873626709, 0.3253328204154968, 0.47814226150512695, 0.2193741649389267, -0.850443959236145, 0.604987621307373, 0.2249159812927246, -0.20798194408416748, -0.117708708552173, 0.2468251720365697, 0.961778758803142,0.014271869998902315,1.0849761962890625,0.4453582763671875,-1.06201171875
20220209-1437,2022-02-09 14:37:12Z,u01, 91,40,movements,el-ex, lt, d,17318.582353625003, 0.42492652202441195, -0.19676050714826726, 0.08400769282654576, 0.7661528587341309, -3.548692464828491, 0.26958101987838745, 0.40429940819740295, 0.19549337029457092, -0.8934899568557739, 0.6367772221565247, 0.2050040364265442, -0.051547884941101074, -0.1047402445855236, 0.20563194771540616, 0.9727994202537094,0.020155241647479213,1.0571441650390625,0.4053497314453125,-0.9715728759765625
20220209-1437,2022-02-09 14:37:12Z,u01, 92,40,movements,el-ex, lt, d,17318.607299625, 0.33429070633231095, -0.1823357627641826, 0.08372815337379735, 0.2849569618701935, -3.6987457275390625, 0.13985568284988403, 0.32266026735305786, 0.18132710456848145, -0.928983747959137, 0.6527577638626099, 0.24654456973075867, 0.05685240030288696, -0.09662810203232089, 0.16177493222849343, 0.9817422028122134,0.02596404444016999,0.9806365966796875,0.4282073974609375,-0.8777618408203125
20220209-1437,2022-02-09 14:37:12Z,u01, 93,40,movements,el-ex, lt, d,17318.632246625002, 0.24123538611108417, -0.18249122280805966, 0.08570383505306836, -0.2912910282611847, -3.7898311614990234, -0.006227230653166771, 0.23493535816669464, 0.18147999048233032, -0.9549190402030945, 0.6200755834579468, 0.2725757956504822, 0.2673580050468445, -0.09550714457538005, 0.11583981804667084, 0.9881668140759431,0.03139677048732089,0.8833465576171875,0.4491729736328125,-0.7264251708984375
20220209-1437,2022-02-09 14:37:12Z,u01, 94,40,movements,el-ex, lt, d,17318.657193625, 0.14716385038952068, -0.1943846199774081, 0.08476491262089342, -0.6248463988304138, -3.7319576740264893, -0.22776614129543304, 0.14387165009975433, 0.19316278398036957, -0.9705612063407898, 0.6029850244522095, 0.28744328022003174, 0.4884445071220398, -0.09979001551478689, 0.0690024769934133, 0.9919982739483093,0.03492820353278968,0.753692626953125,0.4809417724609375,-0.4963226318359375
20220209-1437,2022-02-09 14:37:12Z,u01, 95,40,movements,el-ex, lt, d,17318.682140625002, 0.0549393739188368, -0.21288453297962848, 0.0783162269858749, -0.6955422759056091, -3.492119073867798, -0.4488699734210968, 0.05367213860154152, 0.2112801969051361, -0.9759508371353149, 0.5373159646987915, 0.234627366065979, 0.7947221994400024, -0.10718905067175208, 0.023132267264620636, 0.993317554086674,0.03599604272774745,0.6262664794921875,0.449554443359375,-0.235107421875
20220209-1437,2022-02-09 14:37:12Z,u01, 96,40,movements,el-ex, lt, d,17318.707086625, -0.02910286123525335, -0.22381008125855806, 0.06336909622049848, -0.1224733516573906, -2.9350967407226562, -0.6823321580886841, -0.028372997418045998, 0.22194628417491913, -0.9746460318565369, 0.47385331988334656, 0.17943614721298218, 1.0537323951721191, -0.111145672856915, -0.017989942261194963, 0.9930898409828128,0.03310187146402168,0.455841064453125,0.406494140625,0.0631103515625
20220209-1437,2022-02-09 14:37:12Z,u01, 97,40,movements,el-ex, lt, d,17318.732033625, -0.097308296670438, -0.2219731409011216, 0.04646465915277658, 0.08044204115867615, -2.2360916137695312, -0.6468655467033386, -0.09477110207080841, 0.2201547771692276, -0.9708502888679504, 0.2942492365837097, 0.03344626724720001, 1.3098394870758057, -0.10947507115779316, -0.05089257993542858, 0.9922782877726554,0.028445284835543545,0.2483673095703125,0.2911376953125,0.300323486328125
20220209-1437,2022-02-09 14:37:12Z,u01, 98,40,movements,el-ex, lt, d,17318.756980625, -0.14756938076056011, -0.2205145488390023, 0.030467800431585777, -0.08512521535158157, -1.5405147075653076, -0.588645875453949, -0.14347393810749054, 0.21873174607753754, -0.9651796221733093, 0.21631935238838196, -0.06936347484588623, 1.3867037296295166, -0.10860574282427447, -0.07493324607510018, 0.9909849805907892,0.023210132762347964,0.0784759521484375,0.1568756103515625,0.42071533203125
20220209-1437,2022-02-09 14:37:12Z,u01, 99,40,movements,el-ex, lt, d,17318.781927625, -0.180270367551288, -0.21977060168492868, 0.01771278344505469, -0.03575986251235008, -0.8255277276039124, -0.4034660756587982, -0.17498305439949036, 0.21800574660301208, -0.9601324796676636, 0.09450817108154297, -0.19467508792877197, 1.3431892395019531, -0.10842246179453131, -0.09043405159122468, 0.9898075088468518,0.018637971135710404,-0.046783447265625,0.035491943359375,0.383636474609375
20220209-1437,2022-02-09 14:37:12Z,u01, 100,40,movements,el-ex, lt, d,17318.806874916667, -0.19440386533998627, -0.2190856558850023, 0.010072585657136892, -0.042572394013404846, -0.2124500423669815, -0.1988014131784439, -0.18856395781040192, 0.2173372209072113, -0.9577098488807678, 0.06447947025299072, -0.2493501901626587, 1.294883370399475, -0.1083206132644372, -0.0970140088265059, 0.9892481118034671,0.015592086374746787,-0.12249755859375,-0.029937744140625,0.3412628173828125
20220209-1437,2022-02-09 14:37:12Z,u01, 101,40,movements,el-ex, lt, d,17318.83182091667, -0.19375504764388307, -0.2213228011379906, 0.006656610343373809, -0.21629753708839417, 0.3034842312335968, -0.04030730575323105, -0.18784844875335693, 0.21952034533023834, -0.9573524594306946, 0.08189138770103455, -0.19086435437202454, 1.1577918529510498, -0.10959728133971515, -0.0964997206761045, 0.9891819391831455,0.013974379630394232,-0.1215972900390625,0.012603759765625,0.2449798583984375
20220209-1437,2022-02-09 14:37:13Z,u01, 102,40,movements,el-ex, lt, d,17318.856767916666, -0.18238660654531333, -0.23120734321025366, 0.004926116207772825, -0.6069212555885315, 0.6542275547981262, 0.0480472594499588, -0.1765507459640503, 0.22915290296077728, -0.957245409488678, 0.1093052327632904, -0.16685128211975098, 1.0366520881652832, -0.11464390259873672, -0.09074176312087702, 0.9891690063617792,0.01294065754828265,-0.068511962890625,0.059051513671875,0.0856475830078125
20220209-1437,2022-02-09 14:37:13Z,u01, 103,40,movements,el-ex, lt, d,17318.881714916668, -0.161944760206082, -0.24945566319943335, 0.0035523296391079635, -0.8171647191047668, 0.9993903636932373, 0.10177021473646164, -0.15624701976776123, 0.24687650799751282, -0.956367552280426, 0.14767155051231384, -0.1105697751045227, 0.8631210923194885, -0.12385433420399238, -0.0804756979860937, 0.9889610993311169,0.01181891530418902,-0.0187835693359375,0.1206512451171875,-0.0540008544921875
20220209-1437,2022-02-09 14:37:13Z,u01, 104,40,movements,el-ex, lt, d,17318.90666091667, -0.13317030940671032, -0.27032952530076565, 0.003848406132179512, -0.7827022671699524, 1.2998446226119995, 0.16651399433612823, -0.12795497477054596, 0.26704901456832886, -0.9551504254341125, 0.14016196131706238, -0.07523077726364136, 0.73492032289505, -0.1343278438842101, -0.06618769080949703, 0.9886643648049871,0.010868366756694378,0.0113372802734375,0.18865966796875,-0.2112579345703125
20220209-1437,2022-02-09 14:37:13Z,u01, 105,40,movements,el-ex, lt, d,17318.931607916667, -0.09713773718509124, -0.2874889621527187, 0.006710481331201156, -0.5292302370071411, 1.499136209487915, 0.21649965643882751, -0.09300467371940613, 0.2835451364517212, -0.9544382095336914, 0.13324207067489624, -0.05011621117591858, 0.4931192398071289, -0.14291903143305285, -0.048528861343130864, 0.9884905285875711,0.01027143030121841,0.0363616943359375,0.2326507568359375,-0.4052581787109375
20220209-1437,2022-02-09 14:37:13Z,u01, 106,40,movements,el-ex, lt, d,17318.95655491667, -0.05577992680219896, -0.2985480128516345, 0.012131956161738096, -0.38207122683525085, 1.7011311054229736, 0.2731171250343323, -0.05328483507037163, 0.2941327691078186, -0.9542780518531799, 0.09024158865213394, -0.041142046451568604, 0.34687143564224243, -0.14849239499824535, -0.028477500691467476, 0.9884514473109135,0.010143337918344625,0.0365447998046875,0.251190185546875,-0.6005096435546875
20220209-1437,2022-02-09 14:37:13Z,u01, 107,40,movements,el-ex, lt, d,17318.981501916667, -0.009773948774319311, -0.31151925167498135, 0.01982695042239148, -0.6855739951133728, 1.759940266609192, 0.3374931812286377, -0.009303370490670204, 0.30650511384010315, -0.9518235325813293, 0.12969517707824707, -0.025056779384613037, 0.21937114000320435, -0.1550732400261876, -0.006365395702744663, 0.98782611431978,0.010551264011515168,0.1017303466796875,0.2808837890625,-0.705963134765625
20220209-1437,2022-02-09 14:37:13Z,u01, 108,40,movements,el-ex, lt, d,17319.00644791667, 0.03686705662312221, -0.3315887973013375, 0.028943111774622308, -0.8677416443824768, 1.7550936937332153, 0.34272316098213196, 0.03485087677836418, 0.32554569840431213, -0.9448838233947754, 0.12625138461589813, -0.006118208169937134, 0.10967874526977539, -0.16525364908995774, 0.015789989325369652, 0.9860607785486748,0.011228489589726595,0.15972900390625,0.314605712890625,-0.828582763671875
20220209-1437,2022-02-09 14:37:13Z,u01, 109,40,movements,el-ex, lt, d,17319.031394916667, 0.08478737065211815, -0.351432670069285, 0.039395707945249686, -0.7092796564102173, 1.7875720262527466, 0.3586324155330658, 0.07950986176729202, 0.34424325823783875, -0.9355077743530273, 0.14653380215168, 0.06025195121765137, -0.011223793029785156, -0.17544444056401734, 0.03828015704460209, 0.9836720372461912,0.011968528326552388,0.2088165283203125,0.4077606201171875,-0.9204254150390625
20220209-1437,2022-02-09 14:37:13Z,u01, 110,40,movements,el-ex, lt, d,17319.05634191667, 0.13331432541728516, -0.36523069988772205, 0.051090632142125725, -0.5513401031494141, 1.7946006059646606, 0.3996868431568146, 0.12415257841348648, 0.35716480016708374, -0.9257534146308899, 0.11881308257579803, 0.016904383897781372, -0.04749786853790283, -0.1828126910931268, 0.06085062016970648, 0.9811770567133595,0.012969868884164987,0.2422943115234375,0.375091552734375,-0.974761962890625
20220209-1437,2022-02-09 14:37:13Z,u01, 111,40,movements,el-ex, lt, d,17319.081288916666, 0.1840069123296513, -0.37835363066455585, 0.06525609460421379, -0.6866979598999023, 1.844152569770813, 0.47692885994911194, 0.17002955079078674, 0.3693910539150238, -0.913586437702179, 0.13439850509166718, -0.007132142782211304, -0.007891833782196045, -0.1900991102644734, 0.08407791270670538, 0.9780486273318532,0.014637050291452645,0.2843475341796875,0.364013671875,-0.9203033447265625
20220209-1437,2022-02-09 14:37:13Z,u01, 112,40,movements,el-ex, lt, d,17319.106234916668, 0.2371508207062257, -0.3938043724546109, 0.08263722302998387, -0.7442548274993896, 1.902071475982666, 0.5296870470046997, 0.21695134043693542, 0.38370436429977417, -0.8976096510887146, 0.136655792593956, 0.00019150972366333008, -0.0285835862159729, -0.19888491525939717, 0.10788868524716483, 0.9739159772830696,0.017101141361265802,0.3511962890625,0.3813018798828125,-0.927337646484375
20220209-1437,2022-02-09 14:37:13Z,u01, 113,40,movements,el-ex, lt, d,17319.13118191667, 0.2913932361322885, -0.4064222154797813, 0.1009815930390817, -0.5866309404373169, 1.888789415359497, 0.5191015601158142, 0.26388493180274963, 0.39532551169395447, -0.8798195719718933, 0.14866694808006287, 0.053191304206848145, -0.05140906572341919, -0.20659915798643586, 0.13193559435945043, 0.9692904048708265,0.019644584578469473,0.4027252197265625,0.4373016357421875,-0.9228973388671875
20220209-1437,2022-02-09 14:37:13Z,u01, 114,40,movements,el-ex, lt, d,17319.156128916668, 0.3457541232558355, -0.41399183055723016, 0.11961867237496397, -0.4898553192615509, 1.850981593132019, 0.5742591619491577, 0.3102762699127197, 0.40226712822914124, -0.8613418340682983, 0.15478107333183289, 0.03669768571853638, -0.10286104679107666, -0.21215798157549687, 0.15594250672040086, 0.9644542434358578,0.022335789119596737,0.463348388671875,0.4394683837890625,-0.9640350341796875
20220209-1437,2022-02-09 14:37:13Z,u01, 115,40,movements,el-ex, lt, d,17319.18107591667, 0.3995044123674512, -0.42134817903070976, 0.13936877820843627, -0.5429463982582092, 1.868783712387085, 0.5622413158416748, 0.35494258999824524, 0.40899109840393066, -0.8406795263290405, 0.11183899641036987, 0.049504995346069336, -0.09833109378814697, -0.21797408844820054, 0.1792973394627831, 0.9590086921311439,0.02534059208678415,0.4626922607421875,0.4499359130859375,-0.9387969970703125
20220209-1437,2022-02-09 14:37:13Z,u01, 116,40,movements,el-ex, lt, d,17319.206021916667, 0.45453109009678083, -0.42691379648240807, 0.15847579932421277, -0.4320792257785797, 1.891249656677246, 0.5320358872413635, 0.39963623881340027, 0.41406357288360596, -0.8178277611732483, 0.13477230072021484, 0.06298720836639404, -0.10169738531112671, -0.22317475993107058, 0.20317267671987863, 0.9529647438203489,0.027788646871247533,0.528900146484375,0.4763031005859375,-0.920196533203125
20220209-1437,2022-02-09 14:37:13Z,u01, 117,40,movements,el-ex, lt, d,17319.23096891667, 0.5074145310896911, -0.429247809579278, 0.17599398958071127, -0.3784443438053131, 1.72482168674469, 0.5031027793884277, 0.4418361186981201, 0.41618695855140686, -0.7947133183479309, 0.197430819272995, 0.08785659074783325, -0.1488291621208191, -0.22691663887436186, 0.22616846548620945, 0.9468181540741022,0.029868481074796616,0.632080078125,0.4961395263671875,-0.9485321044921875
20220209-1437,2022-02-09 14:37:13Z,u01, 118,40,movements,el-ex, lt, d,17319.255915916667, 0.5553010006414639, -0.43330834015382663, 0.19304684260896396, -0.5440583825111389, 1.6181327104568481, 0.37021878361701965, 0.4784761965274811, 0.4198756814002991, -0.7712100148200989, 0.10588958859443665, 0.08920326828956604, -0.14585846662521362, -0.23156647335434416, 0.24651969837345983, 0.9405260379347636,0.031869485530429766,0.591064453125,0.50750732421875,-0.9217681884765625
20220209-1437,2022-02-09 14:37:13Z,u01, 119,40,movements,el-ex, lt, d,17319.28086291667, 0.6043977482284484, -0.4397496413202238, 0.2084421287513115, -0.4382970631122589, 1.7663103342056274, 0.3103891909122467, 0.514200747013092, 0.4257129430770874, -0.7445576190948486, 0.13857018947601318, 0.1180492639541626, -0.07978320121765137, -0.23731068467304406, 0.2672168030648083, 0.9333976872409894,0.032366132999105686,0.6060333251953125,0.54254150390625,-0.825836181640625
20220209-1437,2022-02-09 14:37:13Z,u01, 120,40,movements,el-ex, lt, d,17319.305808916666, 0.6529012335713925, -0.44146148034808247, 0.2207108275921621, -0.2324838787317276, 1.649344563484192, 0.3278706669807434, 0.5492519736289978, 0.4272612929344177, -0.7181713581085205, 0.22333097457885742, 0.09571844339370728, -0.15031319856643677, -0.2405785306089832, 0.2881602021724833, 0.9263162067014454,0.032000076957678474,0.7699432373046875,0.52642822265625,-0.8665924072265625
20220209-1437,2022-02-09 14:37:13Z,u01, 121,40,movements,el-ex, lt, d,17319.330755916668, 0.6967176076645566, -0.44294830301628607, 0.23314755982953642, -0.4967813789844513, 1.460771918296814, 0.2792132496833801, 0.5797741413116455, 0.4286050796508789, -0.6929355263710022, 0.09202456474304199, 0.052657097578048706, -0.09153413772583008, -0.24380542398195387, 0.3067428134088087, 0.9194739676263264,0.03217742706432055,0.701171875,0.4861297607421875,-0.8184967041015625
20220209-1437,2022-02-09 14:37:13Z,u01, 122,40,movements,el-ex, lt, d,17319.355702916666, 0.7413739404245436, -0.4515052065919983, 0.2503695415262115, -0.7293602824211121, 1.5793533325195312, 0.259764701128006, 0.6076308488845825, 0.43632039427757263, -0.6636334657669067, 0.03711402416229248, 0.05945292115211487, -0.07531923055648804, -0.25108663295053546, 0.3242511061911228, 0.9114437443273603,0.03297179499333048,0.6400146484375,0.4940185546875,-0.7391204833984375
20220209-1437,2022-02-09 14:37:13Z,u01, 123,40,movements,el-ex, lt, d,17319.380649916668, 0.789603282905438, -0.45702651918129156, 0.26823999886645106, -0.41149550676345825, 1.5903469324111938, 0.347701758146286, 0.6371980905532837, 0.4412817656993866, -0.6318615078926086, 0.20189791917800903, 0.08699274063110352, -0.13367193937301636, -0.2573199362991879, 0.3433011659049725, 0.9026533781065391,0.033876474132897905,0.8131103515625,0.5323333740234375,-0.751617431640625
20220209-1437,2022-02-09 14:37:13Z,u01, 124,40,movements,el-ex, lt, d,17319.40559591667, 0.8315371104820782, -0.4540251561741509, 0.2783660850983278, 0.012845923192799091, 1.3941302299499512, 0.34682852029800415, 0.6641022562980652, 0.43858644366264343, -0.6054832935333252, 0.10443711280822754, 0.06947019696235657, -0.1890418529510498, -0.25849843187917293, 0.36116049392950617, 0.8953269216201265,0.03363431218551095,0.7764892578125,0.5104217529296875,-0.7958526611328125
20220209-1437,2022-02-09 14:37:13Z,u01, 125,40,movements,el-ex, lt, d,17319.430542916667, 0.8682867470088563, -0.44827770380309717, 0.28635220054666927, -0.3518224060535431, 1.3377290964126587, 0.3577962815761566, 0.6878126859664917, 0.4334140419960022, -0.5822936296463013, -0.06423181295394897, 0.0340542197227478, -0.0029114484786987305, -0.2581017870156033, 0.3771427480031408, 0.8888265672452432,0.03367610500561788,0.62994384765625,0.4759674072265625,-0.6509552001953125
20220209-1437,2022-02-09 14:37:13Z,u01, 126,40,movements,el-ex, lt, d,17319.45548991667, 0.9135235017700165, -0.4514850746412247, 0.31066880822587484, -1.0524044036865234, 1.4053919315338135, 0.5530920624732971, 0.7123370170593262, 0.4363022744655609, -0.5497419834136963, 0.08054018020629883, -0.03650674223899841, -0.04014754295349121, -0.26496853178728536, 0.39359964409389075, 0.8794556853328761,0.0377971356746991,0.7765655517578125,0.4003448486328125,-0.58258056640625
20220209-1437,2022-02-09 14:37:13Z,u01, 127,40,movements,el-ex, lt, d,17319.480436916667, 0.9611388887485669, -0.45328161190524424, 0.34157771978298274, -0.6138227581977844, 1.329944133758545, 0.5983356237411499, 0.7370521426200867, 0.437918096780777, -0.5147639513015747, 0.18308335542678833, 0.11948546767234802, -0.21115773916244507, -0.2729150111392761, 0.4100432072858022, 0.8691391361391957,0.04448815236994659,0.937469482421875,0.5344696044921875,-0.69927978515625
20220209-1437,2022-02-09 14:37:13Z,u01, 128,40,movements,el-ex, lt, d,17319.505382916668, 0.9986068007258178, -0.44501576384348834, 0.3524598122170555, 0.2217705100774765, 1.2839359045028687, 0.4657652676105499, 0.7588347792625427, 0.43047210574150085, -0.488736629486084, 0.024841368198394775, 0.13752105832099915, -0.23312616348266602, -0.2726105246648511, 0.4258112099287818, 0.8615355887568227,0.0460946400198798,0.790252685546875,0.5719757080078125,-0.726104736328125
20220209-1437,2022-02-09 14:37:13Z,u01, 129,40,movements,el-ex, lt, d,17319.530329916666, 1.0325005492928465, -0.434214844168226, 0.3563299858442241, -0.25204652547836304, 1.2808709144592285, 0.39411598443984985, 0.7789075374603271, 0.42069822549819946, -0.46509769558906555, 0.0362778902053833, 0.05871760845184326, -0.03546687960624695, -0.26979604899096843, 0.4412043085112683, 0.8546609160212348,0.04586315082863242,0.77154541015625,0.4995574951171875,-0.549163818359375
20220209-1437,2022-02-09 14:37:13Z,u01, 130,40,movements,el-ex, lt, d,17319.555276916668, 1.0735989458799735, -0.436323446049069, 0.3813878244027505, -1.3355225324630737, 1.1968637704849243, 0.3470354378223419, 0.7965778708457947, 0.42261022329330444, -0.4322780966758728, 0.15674549341201782, 0.0036287903785705566, 0.013546347618103027, -0.2772532568807979, 0.45496327056660907, 0.8447511697313601,0.05034450421461571,0.9482574462890625,0.42559814453125,-0.42120361328125
20220209-1437,2022-02-09 14:37:13Z,u01, 131,40,movements,el-ex, lt, d,17319.580223916666, 1.1198665580591505, -0.44480653246409607, 0.41993564494483304, -1.201846718788147, 1.1619577407836914, 0.3393529951572418, 0.8124626874923706, 0.43028324842453003, -0.3933963179588318, 0.18317323923110962, 0.05087211728096008, -0.0988675057888031, -0.2907619270139947, 0.46771716336339436, 0.8326898583381387,0.05766922134966662,1.0054931640625,0.47735595703125,-0.4583892822265625
20220209-1437,2022-02-09 14:37:13Z,u01, 132,40,movements,el-ex, lt, d,17319.605169916667, 1.1564131204975734, -0.44228948460570294, 0.43829342126021337, 0.10152991861104965, 1.1693696975708008, 0.39331915974617004, 0.8272830843925476, 0.4280097484588623, -0.363882452249527, 0.07155114412307739, 0.07116624712944031, -0.1935974359512329, -0.2952161801138691, 0.4805269887195084, 0.8235698569153311,0.06061317456518519,0.9064788818359375,0.495880126953125,-0.5589447021484375
20220209-1437,2022-02-09 14:37:13Z,u01, 133,40,movements,el-ex, lt, d,17319.63011691667, 1.1850594401450056, -0.43040174229829853, 0.43390204701610297, 0.24479231238365173, 1.2696338891983032, 0.3623594641685486, 0.8420209884643555, 0.41723594069480896, -0.34192803502082825, 0.010151803493499756, 0.03144872188568115, -0.04830029606819153, -0.2904262277614297, 0.49466007952666957, 0.8170693302684716,0.057980005285480224,0.83203125,0.4801788330078125,-0.4337005615234375
20220209-1437,2022-02-09 14:37:13Z,u01, 134,40,movements,el-ex, lt, d,17319.655063916667, 1.2211866627848702, -0.425595048477155, 0.4440884117335641, -0.8482357859611511, 1.2643909454345703, 0.24769367277622223, 0.8556961417198181, 0.4128628075122833, -0.31197500228881836, 0.10597372055053711, -0.028356611728668213, -0.0031800270080566406, -0.29220398858584556, 0.5085561134983014, 0.8078335593203575,0.058244856169379994,0.9552764892578125,0.3843841552734375,-0.3174896240234375
20220209-1437,2022-02-09 14:37:13Z,u01, 135,40,movements,el-ex, lt, d,17319.68001091667, 1.2658341460345508, -0.4288071265164256, 0.4765881463101598, -1.2728761434555054, 1.2172483205795288, 0.2981397211551666, 0.8674982786178589, 0.4157862365245819, -0.2730725407600403, 0.1331273317337036, 0.01463368535041809, -0.07212710380554199, -0.30312936223141573, 0.5211298456925416, 0.7952874179009601,0.06367291295340714,1.010345458984375,0.4277801513671875,-0.31622314453125
20220209-1437,2022-02-09 14:37:13Z,u01, 136,40,movements,el-ex, lt, d,17319.704956916667, 1.3043795987634796, -0.4262793202677631, 0.5017833980469808, -0.3369870185852051, 1.0788700580596924, 0.3679591417312622, 0.8783882260322571, 0.41348594427108765, -0.2397158443927765, 0.06310957670211792, -0.018191784620285034, -0.2495419979095459, -0.3101221653982407, 0.5328849056633804, 0.7843264534343596,0.06848390818906308,0.9484405517578125,0.39166259765625,-0.485748291015625
20220209-1437,2022-02-09 14:37:13Z,u01, 137,40,movements,el-ex, lt, d,17319.72990391667, 1.3329679308016327, -0.41740906393876653, 0.5042349932475066, 0.11585832387208939, 1.146599292755127, 0.366836816072464, 0.8884110450744629, 0.4053933322429657, -0.21536529064178467, -0.04154825210571289, 0.029894143342971802, -0.14683258533477783, -0.3085782369123866, 0.5450658932016604, 0.7765882691225298,0.06777450827498174,0.8468780517578125,0.458404541015625,-0.4151611328125
20220209-1437,2022-02-09 14:37:13Z,u01, 138,40,movements,el-ex, lt, d,17319.754850916666, 1.3637092257833652, -0.4107591924713665, 0.5126906415203104, -0.6730992794036865, 1.0066157579421997, 0.2967332899570465, 0.8972293138504028, 0.3993054926395416, -0.1885070651769638, 0.04432964324951172, -0.01241883635520935, -0.07591256499290466, -0.3096007387523543, 0.5566811012840278, 0.7678389499133871,0.06838882066295827,0.9333038330078125,0.3878326416015625,-0.266021728515625
20220209-1437,2022-02-09 14:37:13Z,u01, 139,40,movements,el-ex, lt, d,17319.779797916668, 1.3978750376225155, -0.40837232487880903, 0.5391232768099374, -1.0099833011627197, 0.9111697673797607, 0.2582680881023407, 0.9040812253952026, 0.3971160352230072, -0.1579119861125946, 0.12214863300323486, 0.060205161571502686, -0.12518435716629028, -0.3174053582965875, 0.5659486239712768, 0.7572964708388442,0.07387939992302682,1.0303955078125,0.4373931884765625,-0.282440185546875
20220209-1437,2022-02-09 14:37:13Z,u01, 140,40,movements,el-ex, lt, d,17319.804744, 1.4278044361446085, -0.40509589538720087, 0.5588234927242635, -0.2205207347869873, 0.8678710460662842, 0.20553934574127197, 0.9096847176551819, 0.3941068947315216, -0.13097140192985535, 0.06936490535736084, 0.0907411277294159, -0.22135412693023682, -0.3230396020771639, 0.5745952616876274, 0.7479761530758336,0.07757194273114083,0.983306884765625,0.485992431640625,-0.34765625
20220209-1437,2022-02-09 14:37:13Z,u01, 141,40,movements,el-ex, lt, d,17319.829691000003, 1.4468377532789143, -0.40095048999987054, 0.5522387946614685, 0.6498287320137024, 0.868222713470459, 0.0810398980975151, 0.913625955581665, 0.3902936279773712, -0.1138354241847992, -0.01640915870666504, 0.11812922358512878, -0.2143658995628357, -0.32045669580405556, 0.583429339360544, 0.7426480549838511,0.07342745074339882,0.9039764404296875,0.51556396484375,-0.3411865234375
20220209-1437,2022-02-09 14:37:14Z,u01, 142,40,movements,el-ex, lt, d,17319.854638, 1.4612432885124174, -0.3976283843605867, 0.5349355932295031, 0.5011467337608337, 0.7986862659454346, 0.03923279792070389, 0.9164547324180603, 0.38723284006118774, -0.10080400109291077, 0.023883402347564697, 0.061497628688812256, -0.17834031581878662, -0.31476027039725574, 0.5920506496969388, 0.7389636162757536,0.06583890148604404,0.9354248046875,0.4532318115234375,-0.282073974609375
20220209-1437,2022-02-09 14:37:14Z,u01, 143,40,movements,el-ex, lt, d,17319.879585000002, 1.477567988728512, -0.3971990137955488, 0.5286917071854738, 0.002372477203607559, 0.7038025856018066, -0.06854719668626785, 0.9181435704231262, 0.3868369460105896, -0.08584585785865784, 0.0781790018081665, 0.0437965989112854, -0.14248669147491455, -0.3132757969288111, 0.5991121321924591, 0.7342936884108728,0.06112039628995001,0.9956512451171875,0.421173095703125,-0.2377471923828125
20220209-1437,2022-02-09 14:37:14Z,u01, 144,40,movements,el-ex, lt, d,17319.904531, 1.4950694351201392, -0.3999919175124119, 0.5303154073624883, -0.060695867985486984, 0.6546691060066223, -0.14486414194107056, 0.9184245467185974, 0.3894108831882477, -0.06968268752098083, 0.04854017496109009, 0.05544382333755493, -0.14642757177352905, -0.31520961357566074, 0.604815307733036, 0.7290235986541189,0.05801737729636213,0.9700927734375,0.444305419921875,-0.2157135009765625
20220209-1437,2022-02-09 14:37:14Z,u01, 145,40,movements,el-ex, lt, d,17319.929478000002, 1.5086462884637446, -0.40426226542816013, 0.52566366060229, 0.42752084136009216, 0.5958385467529297, -0.1991446167230606, 0.9176177382469177, 0.3933405876159668, -0.05710352212190628, 0.0215911865234375, 0.08200117945671082, -0.19681799411773682, -0.3155735572270889, 0.6098045336423991, 0.7251011976782031,0.05272585349746133,0.9374237060546875,0.465240478515625,-0.24578857421875
20220209-1437,2022-02-09 14:37:14Z,u01, 146,40,movements,el-ex, lt, d,17319.954425, 1.5145791454750004, -0.4072354810088596, 0.5074305655744775, 0.7595116496086121, 0.4635232985019684, -0.12639304995536804, 0.9167688488960266, 0.3960724174976349, -0.05159252509474754, 0.04876166582107544, 0.057556211948394775, -0.22137200832366943, -0.31110925081087837, 0.6143409252307349, 0.7237716259452953,0.044170658586276695,0.964569091796875,0.4565887451171875,-0.2733154296875
20220209-1437,2022-02-09 14:37:14Z,u01, 147,40,movements,el-ex, lt, d,17319.979372, 1.517450887339424, -0.40910564558589296, 0.4910024030472535, 0.3783283829689026, 0.31642478704452515, -0.11644522100687027, 0.9161718487739563, 0.397788941860199, -0.048920001834630966, 0.0581476092338562, -0.042289674282073975, -0.19810456037521362, -0.30672006438752586, 0.6176267490981683, 0.7232431284991179,0.03714008527749108,0.9777679443359375,0.37127685546875,-0.2502288818359375
20220209-1437,2022-02-09 14:37:14Z,u01, 148,40,movements,el-ex, lt, d,17320.004318, 1.5208282023600685, -0.4115396413706321, 0.4854975033604643, 0.10413216054439545, 0.15721949934959412, -0.10391736775636673, 0.9153621196746826, 0.40002089738845825, -0.045777034014463425, 0.04078412055969238, -0.028148949146270752, -0.21166926622390747, -0.305874734408384, 0.6193158566910955, 0.7223202297347939,0.033793842243120306,0.9572601318359375,0.368743896484375,-0.255645751953125
20220209-1437,2022-02-09 14:37:14Z,u01, 149,40,movements,el-ex, lt, d,17320.029265, 1.5211922401196025, -0.414045993385863, 0.48127397635058716, 0.19021578133106232, 0.003261351026594639, -0.10646308958530426, 0.9143744707107544, 0.40231671929359436, -0.04539394751191139, 0.044533610343933105, 0.008846640586853027, -0.2677927017211914, -0.3053928443327728, 0.6197081866662636, 0.7222979457544763,0.03134743822741842,0.9510040283203125,0.408538818359375,-0.303955078125
20220209-1437,2022-02-09 14:37:14Z,u01, 150,40,movements,el-ex, lt, d,17320.054212000003, 1.516914285784935, -0.416503421782712, 0.4762485903123158, 0.13560283184051514, -0.16823723912239075, -0.12198032438755035, 0.9131817817687988, 0.4045652747154236, -0.049251772463321686, 0.06341111660003662, -0.02068471908569336, -0.303821325302124, -0.3045779392377205, 0.6185518511047474, 0.723716268452757,0.029335244243946665,0.97564697265625,0.3849029541015625,-0.351654052734375
20220209-1437,2022-02-09 14:37:14Z,u01, 151,40,movements,el-ex, lt, d,17320.079159, 1.5094650308600712, -0.4198210179651652, 0.47350485841181117, 0.062269002199172974, -0.3373923897743225, -0.14825128018856049, 0.911444902420044, 0.40759700536727905, -0.055970292538404465, 0.0908743143081665, -0.002827197313308716, -0.3354634642601013, -0.30471516041266444, 0.6157625558718642, 0.7260731500958271,0.02833395150460637,0.997589111328125,0.4007720947265625,-0.3793182373046875
20220209-1437,2022-02-09 14:37:14Z,u01, 152,40,movements,el-ex, lt, d,17320.104105000002, 1.49715261598338, -0.42304032661812513, 0.469188850580428, 0.2405281662940979, -0.48837482929229736, -0.1538483202457428, 0.9093735218048096, 0.41053465008735657, -0.0670909732580185, 0.10428309440612793, -0.020062237977981567, -0.37994587421417236, -0.3042834671647275, 0.611445898128494, 0.729922841182711,0.02753494058013358,1.01434326171875,0.390625,-0.445648193359375
20220209-1437,2022-02-09 14:37:14Z,u01, 153,40,movements,el-ex, lt, d,17320.129052, 1.4785360688410505, -0.4256975907024852, 0.45835426087562675, 0.5495679378509521, -0.6436036825180054, -0.12154696881771088, 0.9068774580955505, 0.41295620799064636, -0.08390695601701736, 0.13709837198257446, -0.00795745849609375, -0.41806143522262573, -0.3016259861235755, 0.6058616068493392, 0.7357337480098335,0.02548157918365024,1.0342254638671875,0.4034576416015625,-0.489776611328125
20220209-1437,2022-02-09 14:37:14Z,u01, 154,40,movements,el-ex, lt, d,17320.153999000002, 1.4517507820428701, -0.4265910784459982, 0.439165564763791, 0.7875670790672302, -0.8512676954269409, -0.0903496965765953, 0.903938353061676, 0.41376978158950806, -0.10812107473611832, 0.15126794576644897, -0.0009585022926330566, -0.45042693614959717, -0.29583116566761336, 0.5986847115268243, 0.7440248383133666,0.022083140404815314,1.055145263671875,0.4115142822265625,-0.5561065673828125
20220209-1437,2022-02-09 14:37:14Z,u01, 155,40,movements,el-ex, lt, d,17320.178946, 1.4196881410624274, -0.42606265418811995, 0.41884208627745134, 0.6100354790687561, -1.0405086278915405, -0.06807781755924225, 0.9002236127853394, 0.4132886826992035, -0.13707606494426727, 0.18482881784439087, -0.008930802345275879, -0.4814847707748413, -0.28927831398423687, 0.5897287722925542, 0.7537665638717915,0.01933768086075764,1.074920654296875,0.4165191650390625,-0.6123199462890625
20220209-1437,2022-02-09 14:37:14Z,u01, 156,40,movements,el-ex, lt, d,17320.203892, 1.3857780891089968, -0.4257879484247026, 0.40663303653760813, 0.3580739498138428, -1.3061109781265259, -0.06458394974470139, 0.8951702117919922, 0.4130384922027588, -0.16753891110420227, 0.20091426372528076, -0.011457741260528564, -0.4763514995574951, -0.28528462401491544, 0.5786563994909893, 0.7637948672467013,0.019665692687138393,1.0958251953125,0.399993896484375,-0.6399993896484375
20220209-1437,2022-02-09 14:37:14Z,u01, 157,40,movements,el-ex, lt, d,17320.228839, 1.3442980979636054, -0.4258489391987519, 0.392643684329298, 0.6700549721717834, -1.5458298921585083, -0.13779011368751526, 0.8874282240867615, 0.41309404373168945, -0.2045101523399353, 0.18317413330078125, 0.05355021357536316, -0.5477328896522522, -0.2808947316650961, 0.5646619085375376, 0.7757897216618275,0.020132792280231022,1.0692901611328125,0.4530792236328125,-0.7503204345703125
20220209-1437,2022-02-09 14:37:14Z,u01, 158,40,movements,el-ex, lt, d,17320.253786, 1.2939331305078776, -0.4238072996192951, 0.3716271913526852, 0.776430606842041, -1.80482816696167, -0.07723583281040192, 0.8768165707588196, 0.41123390197753906, -0.24915724992752075, 0.24937355518341064, 0.03130149841308594, -0.4824254512786865, -0.27379834856486035, 0.5481385213210989, 0.7900617144959349,0.0195217924547575,1.12322998046875,0.4442138671875,-0.7335357666015625
20220209-1437,2022-02-09 14:37:14Z,u01, 159,40,movements,el-ex, lt, d,17320.278733000003, 1.238548527529839, -0.41956955850697536, 0.3524504641808617, 0.6703625917434692, -1.9661518335342407, -0.02570698969066143, 0.8633193969726562, 0.40736737847328186, -0.2978782653808594, 0.30986785888671875, 0.02561601996421814, -0.4280891418457031, -0.26648044191025044, 0.5291965950166087, 0.8053035554457383,0.020623631113306597,1.1735992431640625,0.4218292236328125,-0.721343994140625
20220209-1437,2022-02-09 14:37:14Z,u01, 160,40,movements,el-ex, lt, d,17320.303679, 1.1791773657329732, -0.41283528022201305, 0.3336969456479777, 0.8423458933830261, -2.1890621185302734, 0.05952901393175125, 0.8466398119926453, 0.4012080132961273, -0.3496187925338745, 0.344720721244812, 0.07050225138664246, -0.4011899530887604, -0.2583674210325575, 0.5083668725686755, 0.821153362322697,0.022730175174131208,1.1901702880859375,0.4691009521484375,-0.7484588623046875
20220209-1437,2022-02-09 14:37:14Z,u01, 161,40,movements,el-ex, lt, d,17320.328626000002, 1.1123378746994819, -0.40011846414285857, 0.3110795919287141, 1.0543397665023804, -2.4415805339813232, 0.15919680893421173, 0.8259069919586182, 0.38952744007110596, -0.40761011838912964, 0.38182610273361206, 0.11241039633750916, -0.37487587332725525, -0.24689173260117805, 0.4850148639609166, 0.8385495422108054,0.025292468584641167,1.2082061767578125,0.4978179931640625,-0.77325439453125
20220209-1437,2022-02-09 14:37:14Z,u01, 162,40,movements,el-ex, lt, d,17320.353573, 1.040500590805142, -0.38520076327866287, 0.28909609295631666, 0.8989143371582031, -2.63132905960083, 0.10456971824169159, 0.7994446754455566, 0.3757452070713043, -0.46872586011886597, 0.40110158920288086, 0.15124759078025818, -0.3250058889389038, -0.23463543874971815, 0.458893535580622, 0.8564752084626559,0.02851824479182903,1.1999664306640625,0.52569580078125,-0.792510986328125
20220209-1437,2022-02-09 14:37:14Z,u01, 163,40,movements,el-ex, lt, d,17320.378520000002, 0.9664560060686637, -0.37351906357613424, 0.27214666464097764, 0.6825812458992004, -2.809220314025879, 0.012086461298167706, 0.7661389112472534, 0.3648940920829773, -0.5290400385856628, 0.4631853699684143, 0.17885279655456543, -0.2894108295440674, -0.22483017624882234, 0.4300364657993901, 0.8737619417072539,0.03255770105990741,1.2240447998046875,0.5452880859375,-0.8123779296875
20220209-1437,2022-02-09 14:37:14Z,u01, 164,40,movements,el-ex, lt, d,17320.403466, 0.8894911999896546, -0.3637461802602861, 0.2573025222603693, 0.7664309144020081, -2.914717435836792, -0.04206119477748871, 0.7259289622306824, 0.3557778000831604, -0.5885993242263794, 0.5029070377349854, 0.2039450705051422, -0.27884751558303833, -0.21621401477700614, 0.39868762883388975, 0.8904775373405787,0.03673258626156075,1.2283172607421875,0.55755615234375,-0.8635406494140625
20220209-1437,2022-02-09 14:37:14Z,u01, 165,40,movements,el-ex, lt, d,17320.428413, 0.8080880066393595, -0.34847179364269437, 0.2370217623142233, 1.1775456666946411, -3.049191474914551, -0.07672090828418732, 0.6795140504837036, 0.3414618670940399, -0.64935702085495, 0.5149897336959839, 0.22363212704658508, -0.24129855632781982, -0.2040573727934029, 0.36562561513141134, 0.907263361135746,0.03939234883944227,1.2121734619140625,0.5770263671875,-0.90576171875
20220209-1437,2022-02-09 14:37:14Z,u01, 166,40,movements,el-ex, lt, d,17320.45336, 0.7227221195317168, -0.329008027324487, 0.2128951368525478, 1.1239553689956665, -3.1402134895324707, -0.13721048831939697, 0.625951886177063, 0.3231044113636017, -0.7097800374031067, 0.5336244702339172, 0.21951332688331604, -0.15917742252349854, -0.18937575736621814, 0.33052502334720824, 0.9237163538487336,0.040472801376753784,1.1590576171875,0.5485382080078125,-0.8680419921875
20220209-1437,2022-02-09 14:37:14Z,u01, 167,40,movements,el-ex, lt, d,17320.478307, 0.6363916830679409, -0.313186299840442, 0.19468578637747974, 0.7543603777885437, -3.3386495113372803, -0.13180120289325714, 0.5653887987136841, 0.30809149146080017, -0.7651242613792419, 0.6096752882003784, 0.19102346897125244, -0.11611658334732056, -0.1774579977190703, 0.2931663700601655, 0.9384804630005973,0.042621233572700146,1.1813812255859375,0.50347900390625,-0.8753814697265625
20220209-1437,2022-02-09 14:37:14Z,u01, 168,40,movements,el-ex, lt, d,17320.503253000003, 0.5471904347540726, -0.30008391598919754, 0.18060875038310514, 0.7998936176300049, -3.453836441040039, -0.1901625692844391, 0.4970390796661377, 0.29560038447380066, -0.8158262968063354, 0.5908210277557373, 0.18201497197151184, -0.13566601276397705, -0.1674262514200229, 0.2530914619163495, 0.9517516893454944,0.04562789565769321,1.093780517578125,0.4774169921875,-0.947113037109375
20220209-1437,2022-02-09 14:37:14Z,u01, 169,40,movements,el-ex, lt, d,17320.5282, 0.45501960695823973, -0.28051041900305296, 0.16352779117563193, 1.1820486783981323, -3.514676570892334, -0.20755288004875183, 0.4223025143146515, 0.27684614062309265, -0.8631435632705688, 0.5619503259658813, 0.22188737988471985, -0.12162816524505615, -0.15397903059343895, 0.2114679244611896, 0.9640169782372898,0.04736095584671044,1.0101470947265625,0.49749755859375,-1.0094757080078125
20220209-1437,2022-02-09 14:37:14Z,u01, 170,40,movements,el-ex, lt, d,17320.553147000002, 0.3620935483465966, -0.25499774930352437, 0.14593889413124084, 1.1030211448669434, -3.549520492553711, -0.23842798173427582, 0.3427782952785492, 0.2522432208061218, -0.9049178957939148, 0.5912426710128784, 0.2046048939228058, 0.004008471965789795, -0.13776326484139723, 0.16900393787597626, 0.9747442995358037,0.04829675469987038,0.93719482421875,0.456634521484375,-0.907379150390625
20220209-1437,2022-02-09 14:37:14Z,u01, 171,40,movements,el-ex, lt, d,17320.578094, 0.2690558608741653, -0.2373533538993011, 0.13341248264496422, 0.5065767765045166, -3.682673454284668, -0.24788206815719604, 0.25836873054504395, 0.23513101041316986, -0.9369946718215942, 0.620323896408081, 0.17142415046691895, 0.16804325580596924, -0.1259448864216916, 0.1250621893419145, 0.9828645673843595,0.049745345241652666,0.8973236083984375,0.421783447265625,-0.8016510009765625
20220209-1437,2022-02-09 14:37:14Z,u01, 172,40,movements,el-ex, lt, d,17320.60304, 0.17498079860215945, -0.23451547484889476, 0.1253632022627935, -0.09616361558437347, -3.716374158859253, -0.30753248929977417, 0.1693238914012909, 0.2323717474937439, -0.9577749371528625, 0.6285276412963867, 0.15495730936527252, 0.29024869203567505, -0.12174875944461441, 0.07930815087382775, 0.9880320133736331,0.051770172473523224,0.8015594482421875,0.3888092041015625,-0.672576904296875
20220209-1437,2022-02-09 14:37:14Z,u01, 173,40,movements,el-ex, lt, d,17320.627987, 0.07900492073671488, -0.24466419564627295, 0.1169286194641255, -0.6325843930244446, -3.79007625579834, -0.42883187532424927, 0.07657233625650406, 0.24223053455352783, -0.9671923518180847, 0.5625115036964417, 0.15225492417812347, 0.4883257746696472, -0.12401400758753665, 0.03200547230567176, 0.9903395858229834,0.05313821035222078,0.682769775390625,0.39593505859375,-0.533477783203125
20220209-1437,2022-02-09 14:37:14Z,u01, 174,40,movements,el-ex, lt, d,17320.652934, -0.0165592607510025, -0.26548714349402963, 0.10445117502913605, -0.8965994119644165, -3.5515027046203613, -0.5994486808776855, -0.0159783735871315, 0.26237937808036804, -0.9648324847221375, 0.514955997467041, 0.12252354621887207, 0.6946451663970947, -0.131740684694885, -0.015104398874460346, 0.989759880414541,0.05283516880658733,0.5086517333984375,0.3847198486328125,-0.2854766845703125
20220209-1437,2022-02-09 14:37:14Z,u01, 175,40,movements,el-ex, lt, d,17320.677881, -0.10552261418400379, -0.2859213705597442, 0.08554389380741056, -0.8517980575561523, -3.096813678741455, -0.7634410262107849, -0.10105084627866745, 0.2820415496826172, -0.9540656805038452, 0.44077247381210327, 0.04152107238769531, 1.0820564031600952, -0.13991386760238725, -0.058234661421663655, 0.9871958921413589,0.04977057460945452,0.3804473876953125,0.3418426513671875,0.0459747314453125
20220209-1437,2022-02-09 14:37:14Z,u01, 176,40,movements,el-ex, lt, d,17320.702827, -0.18058544321526762, -0.3044833931374834, 0.061550752027936494, -0.8587474822998047, -2.3654279708862305, -0.8065363764762878, -0.17134402692317963, 0.2998003661632538, -0.9384886622428894, 0.38373106718063354, -0.07335996627807617, 1.2597167491912842, -0.14822249409144755, -0.09373240901266122, 0.9835201524404859,0.04395892198397628,0.2197113037109375,0.2329864501953125,0.3158721923828125
20220209-1437,2022-02-09 14:37:14Z,u01, 177,40,movements,el-ex, lt, d,17320.727774000003, -0.23704342769661027, -0.31903410692829753, 0.03726073182592966, -0.6299733519554138, -1.5184890031814575, -0.7403635382652283, -0.22297997772693634, 0.31364956498146057, -0.9229863882064819, 0.22546711564064026, -0.21158355474472046, 1.366040587425232, -0.1555248506932341, -0.11966129034504609, 0.9798576370163624,0.03704259199802188,0.0503692626953125,0.1146240234375,0.416229248046875
20220209-1437,2022-02-09 14:37:14Z,u01, 178,40,movements,el-ex, lt, d,17320.752721, -0.27024134135133765, -0.32640232175692985, 0.017789661237971315, -0.2981225252151489, -0.6791868805885315, -0.5486254692077637, -0.2528688609600067, 0.32063737511634827, -0.9128247499465942, 0.14959734678268433, -0.27489155530929565, 1.3775311708450317, -0.15980803314493797, -0.13434664767885723, 0.9774850744695406,0.030583004766792404,-0.0978851318359375,0.0509796142578125,0.46246337890625
20220209-1437,2022-02-09 14:37:14Z,u01, 179,40,movements,el-ex, lt, d,17320.777668000002, -0.2820173015096126, -0.32517732567385393, 0.005694914551742684, 0.1221020370721817, 0.022668201476335526, -0.3481650650501251, -0.26370957493782043, 0.31947681307792664, -0.9101603031158447, 0.07483625411987305, -0.3432652950286865, 1.2893412113189697, -0.159871076007558, -0.13914408661905517, 0.9769484584091641,0.025531883217504145,-0.1849365234375,-0.028411865234375,0.41168212890625
20220209-1437,2022-02-09 14:37:14Z,u01, 180,40,movements,el-ex, lt, d,17320.802614, -0.2750736264687417, -0.31844910247081587, 0.001471995629781078, 0.16891135275363922, 0.6273080110549927, -0.1325259804725647, -0.2579614222049713, 0.31309401988983154, -0.9140174984931946, 0.08819210529327393, -0.30982866883277893, 1.2146767377853394, -0.15695568562927617, -0.13548487713348636, 0.9780104108162986,0.022457956176670207,-0.1714019775390625,0.0024261474609375,0.30291748046875
20220209-1437,2022-02-09 14:37:14Z,u01, 181,40,movements,el-ex, lt, d,17320.827561000002, -0.2558774557500075, -0.3220375526500766, -0.001132434169234733, -0.5464099049568176, 0.9490299820899963, 0.01215064525604248, -0.24008344113826752, 0.3165000379085541, -0.9177078604698181, 0.14340372383594513, -0.30827558040618896, 1.080946445465088, -0.1590848346272277, -0.12584948095970508, 0.9790086673146898,0.019901391424979806,-0.10968017578125,-0.0002288818359375,0.1924896240234375
20220209-1437,2022-02-09 14:37:15Z,u01, 182,40,movements,el-ex, lt, d,17320.852508, -0.22951000063588511, -0.3409388341940868, -0.004398383491397712, -0.8571645617485046, 1.2471165657043457, 0.1005721241235733, -0.21440574526786804, 0.33437204360961914, -0.9177284836769104, 0.14612261950969696, -0.25992441177368164, 0.9236488938331604, -0.16877694594692014, -0.1124726957614834, 0.9790638810314359,0.017271800399705557,-0.0693359375,0.0680084228515625,0.0153656005859375
20220209-1437,2022-02-09 14:37:15Z,u01, 183,40,movements,el-ex, lt, d,17320.877455, -0.19445111003004398, -0.3604349978442712, -0.004782088223201243, -0.6425875425338745, 1.5621123313903809, 0.21029335260391235, -0.18081186711788177, 0.35268130898475647, -0.918108344078064, 0.1551618129014969, -0.13287848234176636, 0.6794304251670837, -0.17862486539743597, -0.09507350214439138, 0.9791974157030106,0.015058348615960636,-0.0402374267578125,0.1979522705078125,-0.1876983642578125
20220209-1437,2022-02-09 14:37:15Z,u01, 184,40,movements,el-ex, lt, d,17320.902401, -0.15155600563169447, -0.37485238382249303, -0.0006894135949727059, -0.5199378132820129, 1.7597360610961914, 0.29701972007751465, -0.14049293100833893, 0.3661351799964905, -0.9198949933052063, 0.15216585993766785, -0.11497551202774048, 0.5257909893989563, -0.18582167596654492, -0.07431562311080266, 0.9796723828722871,0.013768564838889961,0.0098724365234375,0.2503204345703125,-0.3849334716796875
20220209-1437,2022-02-09 14:37:15Z,u01, 185,40,movements,el-ex, lt, d,17320.927348, -0.10251274475800233, -0.3907970805494121, 0.007018809099608005, -0.7025788426399231, 1.910898208618164, 0.41558000445365906, -0.09461794793605804, 0.3809255361557007, -0.9197517037391663, 0.16370970010757446, -0.12543237209320068, 0.36805492639541626, -0.19372493612166472, -0.05093913852505304, 0.9796411316163076,0.013385483570856609,0.054595947265625,0.247833251953125,-0.5211181640625
20220209-1437,2022-02-09 14:37:15Z,u01, 186,40,movements,el-ex, lt, d,17320.952295000003, -0.05031964251669378, -0.4097188335544046, 0.01778823642112976, -0.7233002781867981, 1.9551581144332886, 0.5001510977745056, -0.04613535478711128, 0.3983514606952667, -0.9160718321800232, 0.1523669958114624, -0.06851747632026672, 0.2282513976097107, -0.20313803295107033, -0.026438877442432788, 0.9786954354122737,0.013822777004308458,0.104522705078125,0.323211669921875,-0.6796875
20220209-1437,2022-02-09 14:37:15Z,u01, 187,40,movements,el-ex, lt, d,17320.977242, 0.005116768782220347, -0.42794239235095993, 0.031262167685923666, -0.7575209736824036, 2.039177656173706, 0.5135838389396667, 0.004655326250940561, 0.4149996340274811, -0.9098096489906311, 0.1881546974182129, 0.04103979468345642, 0.0928540825843811, -0.21235463616677444, -0.000819259308126586, 0.9770813043351645,0.014730764508297772,0.167510986328125,0.441436767578125,-0.7976226806640625
20220209-1437,2022-02-09 14:37:15Z,u01, 188,40,movements,el-ex, lt, d,17321.002188000002, 0.06221705435512968, -0.44713382939162305, 0.04696282254118225, -0.7661439776420593, 2.006356954574585, 0.5779925584793091, 0.056064315140247345, 0.4323829114437103, -0.8999454379081726, 0.20450998842716217, 0.026769280433654785, 0.012265443801879883, -0.22225291998930619, 0.025118023321500933, 0.9745342850235077,0.01598981181285647,0.257720947265625,0.459442138671875,-0.8815765380859375
20220209-1437,2022-02-09 14:37:15Z,u01, 189,40,movements,el-ex, lt, d,17321.027135, 0.11946382466507766, -0.4625071089441715, 0.06478053131614275, -0.5416519641876221, 1.968130350112915, 0.5874959230422974, 0.106658436357975, 0.44619321823120117, -0.8885581493377686, 0.1514439582824707, 0.06532716751098633, -0.07295918464660645, -0.23055089219067224, 0.05066754595069629, 0.9715774210079464,0.017791190127791866,0.2684326171875,0.502166748046875,-0.952392578125
20220209-1437,2022-02-09 14:37:15Z,u01, 190,40,movements,el-ex, lt, d,17321.052082000002, 0.1790536311858414, -0.4699999608636049, 0.08343672828824282, -0.26328110694885254, 2.1274478435516357, 0.652485191822052, 0.15878689289093018, 0.4528862535953522, -0.8773145079612732, 0.10752470791339874, 0.06200632452964783, -0.05045038461685181, -0.23533505184804251, 0.07720208319633962, 0.9686449658432948,0.019597761527752493,0.26123046875,0.515869140625,-0.92822265625
20220209-1437,2022-02-09 14:37:15Z,u01, 191,40,movements,el-ex, lt, d,17321.077029, 0.24072371165764136, -0.47188168697811556, 0.10301998544127576, -0.20426085591316223, 2.0650734901428223, 0.6758207082748413, 0.2123512625694275, 0.4545631408691406, -0.865031361579895, 0.20461037755012512, 0.033733367919921875, -0.10606849193572998, -0.23776976177946063, 0.10464154495600558, 0.9654253568361869,0.021668158539871855,0.3936767578125,0.4974822998046875,-0.958831787109375
20220209-1437,2022-02-09 14:37:15Z,u01, 192,40,movements,el-ex, lt, d,17321.101975, 0.30118969637553333, -0.4734331906986834, 0.12296400631240367, -0.2937743067741394, 2.0813944339752197, 0.6792048215866089, 0.2640267610549927, 0.4559445381164551, -0.8499438166618347, 0.16215115785598755, 0.053683727979660034, -0.10353213548660278, -0.24038079974605547, 0.1313208535011665, 0.9614567181236634,0.023937307734196514,0.425628662109375,0.5076141357421875,-0.9563446044921875
20220209-1437,2022-02-09 14:37:15Z,u01, 193,40,movements,el-ex, lt, d,17321.126922, 0.3628603103751495, -0.47509842990097034, 0.14443491961009788, -0.32199162244796753, 2.036494255065918, 0.7237184643745422, 0.3156382441520691, 0.457425981760025, -0.8313446640968323, 0.21446728706359863, 0.043077558279037476, -0.12422174215316772, -0.24350936855164074, 0.15821138887866648, 0.9565371787811218,0.02662751052293539,0.5057220458984375,0.5081329345703125,-0.947265625
20220209-1437,2022-02-09 14:37:15Z,u01, 194,40,movements,el-ex, lt, d,17321.151869, 0.42158886972181675, -0.4728767238593308, 0.16651882732471177, -0.06793338060379028, 1.8780134916305542, 0.7647476196289062, 0.36430466175079346, 0.4554491937160492, -0.8123103976249695, 0.19593700766563416, 0.018259912729263306, -0.2010258436203003, -0.24517986167113398, 0.18366177767090108, 0.9514421102461392,0.030217736174717555,0.5612030029296875,0.4716033935546875,-1.0117645263671875
20220209-1437,2022-02-09 14:37:15Z,u01, 195,40,movements,el-ex, lt, d,17321.176816, 0.4756940838282949, -0.46292661908591026, 0.18358643944781436, 0.21264052391052246, 1.8691431283950806, 0.6834169030189514, 0.40975549817085266, 0.4465686082839966, -0.7954099178314209, 0.11369723081588745, 0.06713378429412842, -0.1854403018951416, -0.2430263562075568, 0.20792601189087065, 0.9469020813642804,0.03288602176195859,0.5228271484375,0.51611328125,-0.9977874755859375
20220209-1437,2022-02-09 14:37:15Z,u01, 196,40,movements,el-ex, lt, d,17321.201762, 0.5296993927788297, -0.4517928914136013, 0.19843166760248937, -0.00506653031334281, 1.8774148225784302, 0.6937775611877441, 0.4545776844024658, 0.43657922744750977, -0.7763746976852417, 0.1444823145866394, 0.07068392634391785, -0.1182175874710083, -0.24037708039513014, 0.232446791455851, 0.9417931063248948,0.03482886628100339,0.591156005859375,0.5115814208984375,-0.8964080810546875
20220209-1437,2022-02-09 14:37:15Z,u01, 197,40,movements,el-ex, lt, d,17321.226709000002, 0.5830138932508738, -0.44836358392406905, 0.21757993999068778, -0.4254809021949768, 1.7074233293533325, 0.6223148107528687, 0.49612554907798767, 0.43349143862724304, -0.7522928714752197, 0.21113455295562744, 0.04363563656806946, -0.14107871055603027, -0.24209443180024473, 0.2554287382073117, 0.935260165744865,0.037879665951675405,0.700439453125,0.4774627685546875,-0.8875579833984375
20220209-1437,2022-02-09 14:37:15Z,u01, 198,40,movements,el-ex, lt, d,17321.251656, 0.6328446930917495, -0.4476535953991552, 0.23653712689879436, -0.21351996064186096, 1.6617792844772339, 0.5225577354431152, 0.5331634879112244, 0.43285152316093445, -0.7268949747085571, 0.13137197494506836, 0.09220337867736816, -0.19539201259613037, -0.24526946952230966, 0.2763971700876791, 0.9283247301296833,0.04075277389619079,0.667999267578125,0.52203369140625,-0.9215850830078125
20220209-1437,2022-02-09 14:37:15Z,u01, 199,40,movements,el-ex, lt, d,17321.276603000002, 0.6799581366381495, -0.4413551022502018, 0.24689418912218106, 0.09570422768592834, 1.7250757217407227, 0.3981356918811798, 0.5685086250305176, 0.42716509103775024, -0.7030845880508423, 0.11549705266952515, 0.10262003540992737, -0.13173907995224, -0.24485678954259182, 0.29749432488387123, 0.9218866179528468,0.040833200043633,0.6536407470703125,0.5465087890625,-0.8580169677734375
20220209-1437,2022-02-09 14:37:15Z,u01, 200,40,movements,el-ex, lt, d,17321.301549, 0.7242254403778162, -0.43565965606827955, 0.25428186279472276, -0.16711574792861938, 1.5458121299743652, 0.31249842047691345, 0.600667417049408, 0.42200854420661926, -0.6790489554405212, 0.18374115228652954, 0.07464978098869324, -0.11242449283599854, -0.24432235189112522, 0.31746199994143426, 0.9153893662661707,0.039834112062173896,0.7816162109375,0.497894287109375,-0.79437255859375
20220209-1437,2022-02-09 14:37:15Z,u01, 201,40,movements,el-ex, lt, d,17321.326496, 0.7661680653409654, -0.4357520383810504, 0.26551100223864776, -0.2970621585845947, 1.4976853132247925, 0.2786632180213928, 0.6285848617553711, 0.4220922887325287, -0.6532374620437622, 0.12066739797592163, 0.07282653450965881, -0.1336582899093628, -0.24703083184293226, 0.3351970168166382, 0.908314866785932,0.039784469554881165,0.76617431640625,0.48162841796875,-0.7924346923828125
20220209-1437,2022-02-09 14:37:15Z,u01, 202,40,movements,el-ex, lt, d,17321.351443, 0.8079990200730865, -0.43476490273650303, 0.27367003666030226, -0.08542069047689438, 1.5394281148910522, 0.18294481933116913, 0.6556534171104431, 0.42119717597961426, -0.6266669631004333, 0.10490554571151733, 0.09621307253837585, -0.11481863260269165, -0.24881815550404812, 0.3532082211618741, 0.9010284371946014,0.03848619442093962,0.756622314453125,0.517852783203125,-0.743927001953125
20220209-1437,2022-02-09 14:37:15Z,u01, 203,40,movements,el-ex, lt, d,17321.37639, 0.8473668750466689, -0.43497919677035096, 0.2793700255629526, -0.29326117038726807, 1.4129538536071777, 0.1104009747505188, 0.6797419786453247, 0.4213915467262268, -0.6003167033195496, 0.1463230848312378, 0.05730718374252319, -0.060236334800720215, -0.25067653999095657, 0.37013907039325067, 0.893787688957507,0.03608329597666219,0.817230224609375,0.4900054931640625,-0.6836395263671875
20220209-1437,2022-02-09 14:37:15Z,u01, 204,40,movements,el-ex, lt, d,17321.401336000003, 0.8847621399607718, -0.43746373317566745, 0.2882261480809261, -0.2441900670528412, 1.3212058544158936, 0.12799134850502014, 0.7008981704711914, 0.42364341020584106, -0.5738187432289124, 0.14189046621322632, 0.022294670343399048, -0.15375089645385742, -0.25408580894341287, 0.3853972355508092, 0.8863975091357218,0.0347675695318211,0.8434295654296875,0.443511962890625,-0.7229461669921875
20220209-1437,2022-02-09 14:37:15Z,u01, 205,40,movements,el-ex, lt, d,17321.426283, 0.9199291649798575, -0.4365270226622347, 0.292156354259029, 0.019592277705669403, 1.3677756786346436, 0.09130226075649261, 0.7209555506706238, 0.42279472947120667, -0.5490607023239136, 0.047232866287231445, 0.06045109033584595, -0.14457327127456665, -0.25504642828919477, 0.4005258622677482, 0.8794833936272947,0.03223696443663988,0.7834930419921875,0.48760986328125,-0.7158966064453125
20220209-1437,2022-02-09 14:37:15Z,u01, 206,40,movements,el-ex, lt, d,17321.451230000002, 0.9546191054133802, -0.4364957715974197, 0.29419554895174327, -0.1976701319217682, 1.3632279634475708, 0.030910549685359, 0.7395756244659424, 0.42276638746261597, -0.5237331390380859, 0.026430726051330566, 0.033089905977249146, -0.08088111877441406, -0.2559777339651701, 0.41546219045900884, 0.8723775197936079,0.02870542977253606,0.7630462646484375,0.4575042724609375,-0.6112060546875
20220209-1437,2022-02-09 14:37:15Z,u01, 207,40,movements,el-ex, lt, d,17321.476176, 0.9911128709986519, -0.439378368095671, 0.30280329094401887, -0.40739792585372925, 1.2329012155532837, 0.11031242460012436, 0.7571693658828735, 0.4253769516944885, -0.4957309663295746, 0.16682660579681396, 0.005104005336761475, -0.0597195029258728, -0.25951379876206965, 0.42986870084072354, 0.8643691606752596,0.027048362078901766,0.9043426513671875,0.428253173828125,-0.535247802734375
20220209-1437,2022-02-09 14:37:15Z,u01, 208,40,movements,el-ex, lt, d,17321.501123000002, 1.0254357271195542, -0.4407992060110056, 0.3118897394929341, -0.1161528006196022, 1.2725598812103271, 0.1380968689918518, 0.7732173800468445, 0.426662415266037, -0.4691418409347534, 0.09055215120315552, 0.05287554860115051, -0.14153015613555908, -0.2625421764511068, 0.44328397114551016, 0.8566728160413347,0.02612668271490947,0.8702850341796875,0.47686767578125,-0.6090850830078125
20220209-1437,2022-02-09 14:37:15Z,u01, 209,40,movements,el-ex, lt, d,17321.52607, 1.0581348679815028, -0.43766971863177606, 0.3107241085607346, 0.23724228143692017, 1.3494442701339722, 0.05096115916967392, 0.7893015742301941, 0.42382997274398804, -0.44426479935646057, 0.024403810501098633, 0.07205015420913696, -0.12235510349273682, -0.2613918330271806, 0.45775747882342915, 0.8494952249686601,0.022142995343925498,0.79986572265625,0.50811767578125,-0.5855560302734375
20220209-1437,2022-02-09 14:37:15Z,u01, 210,40,movements,el-ex, lt, d,17321.551017, 1.0898511626123846, -0.4353695723020664, 0.30886075018607606, -0.12320113182067871, 1.237525224685669, 0.0361555814743042, 0.8038548231124878, 0.42174553871154785, -0.419461727142334, 0.08272659778594971, 0.02188849449157715, -0.02658325433731079, -0.2603421220549088, 0.47168964369101596, 0.8422668073651777,0.017818420996968724,0.8815765380859375,0.4460906982421875,-0.454437255859375
20220209-1437,2022-02-09 14:37:15Z,u01, 211,40,movements,el-ex, lt, d,17321.575963, 1.1227039373789547, -0.437172489027311, 0.31592232142313986, -0.2726351320743561, 1.222673773765564, 0.06389546394348145, 0.8165125250816345, 0.4233795702457428, -0.39250123500823975, 0.11390739679336548, 0.0356200635433197, -0.11103886365890503, -0.2630315138785698, 0.4843178790908638, 0.8342630453684049,0.01599711026078581,0.9395751953125,0.4278411865234375,-0.4907989501953125
20220209-1437,2022-02-09 14:37:15Z,u01, 212,40,movements,el-ex, lt, d,17321.60091, 1.153699105251221, -0.43470934042587256, 0.31636746176234726, 0.3433589041233063, 1.2284835577011108, 0.07451501488685608, 0.8292348980903625, 0.42114678025245667, -0.3674301505088806, 0.08848971128463745, 0.07506904006004333, -0.21534883975982666, -0.26238610167193915, 0.4974318655711569, 0.8267718147761506,0.012785744816549906,0.919952392578125,0.4943084716796875,-0.5797271728515625
20220209-1437,2022-02-09 14:37:15Z,u01, 213,40,movements,el-ex, lt, d,17321.625857000003, 1.1783045884794838, -0.428236720429165, 0.30486350751741836, 0.47490495443344116, 1.1173224449157715, 0.0896032303571701, 0.8405247926712036, 0.4152674078941345, -0.34795260429382324, 0.03294926881790161, 0.03001457452774048, -0.17437100410461426, -0.2570603094367013, 0.5098467307019434, 0.8209335824559515,0.006660322202982245,0.875335693359375,0.463623046875,-0.5569305419921875
20220209-1437,2022-02-09 14:37:15Z,u01, 214,40,movements,el-ex, lt, d,17321.650804, 1.2033161249860376, -0.4266208340001715, 0.30271962056424495, -0.37693122029304504, 0.974056601524353, -0.029131479561328888, 0.8495890498161316, 0.41379687190055847, -0.3270638585090637, 0.061910033226013184, 0.025305360555648804, -0.07090070843696594, -0.2559369977608452, 0.5205423434070514, 0.8145691081943004,0.003035163261634624,0.906005859375,0.4381866455078125,-0.406158447265625
20220209-1437,2022-02-09 14:37:15Z,u01, 215,40,movements,el-ex, lt, d,17321.675750000002, 1.2342388198555414, -0.43475178250336105, 0.32302123810459354, -1.101847529411316, 0.8655587434768677, -0.08373041450977325, 0.8560906648635864, 0.42118528485298157, -0.29951900243759155, 0.1132391095161438, -0.012936443090438843, -0.07813599705696106, -0.2644672287187828, 0.529431379253944, 0.8060617753034234,0.004881237312784968,0.980438232421875,0.4039459228515625,-0.350311279296875
20220209-1437,2022-02-09 14:37:15Z,u01, 216,40,movements,el-ex, lt, d,17321.700697, 1.2660416673450292, -0.4433678989907224, 0.34580144988230394, -0.44773051142692566, 0.9078561067581177, -0.034686438739299774, 0.8616878390312195, 0.4289841651916504, -0.2710469961166382, 0.07845181226730347, 0.05505511164665222, -0.21502169966697693, -0.27391358250320696, 0.53800357575461, 0.7971648772478536,0.0071787802472805945,0.940338134765625,0.4796295166015625,-0.47955322265625
20220209-1437,2022-02-09 14:37:15Z,u01, 217,40,movements,el-ex, lt, d,17321.725644000002, 1.2858677521873279, -0.443307114905337, 0.34031741940853755, 0.6889342665672302, 0.864063560962677, -0.0615314319729805, 0.8669170141220093, 0.42892923951148987, -0.253918319940567, 0.026744425296783447, 0.07174211740493774, -0.24322828650474548, -0.27245072830465566, 0.5466364855930674, 0.7918041286908397,0.0023104705469789225,0.9031982421875,0.517364501953125,-0.5144500732421875
20220209-1437,2022-02-09 14:37:15Z,u01, 218,40,movements,el-ex, lt, d,17321.750591, 1.2984603375983805, -0.43947301831103164, 0.32196135513728424, 0.475920706987381, 0.7856798768043518, -0.04898654669523239, 0.8716233372688293, 0.42546260356903076, -0.24342232942581177, 0.030720412731170654, 0.007734417915344238, -0.1732189655303955, -0.2659556971427511, 0.5545776794135739, 0.7884676964432278,-0.005470529058209279,0.9007568359375,0.437530517578125,-0.4237213134765625
20220209-1437,2022-02-09 14:37:15Z,u01, 219,40,movements,el-ex, lt, d,17321.775537, 1.3165701921538837, -0.4417167353057826, 0.32071794702898065, -0.4100242257118225, 0.6954873204231262, -0.13820551335811615, 0.874962329864502, 0.42749205231666565, -0.2273576408624649, 0.09897571802139282, -0.04373347759246826, -0.06275776028633118, -0.26637694087648073, 0.5615732422623738, 0.7833241971151583,-0.00905763337402548,0.957061767578125,0.38763427734375,-0.297576904296875
20220209-1437,2022-02-09 14:37:15Z,u01, 220,40,movements,el-ex, lt, d,17321.800483666666, 1.3385332104252896, -0.4486280906136197, 0.3352739188485088, -0.5604677796363831, 0.5877401232719421, -0.1346226930618286, 0.8768482208251953, 0.43372979760169983, -0.20740251243114471, 0.06545829772949219, -0.02969232201576233, -0.12578845024108887, -0.2729311168419758, 0.5672806631151429, 0.7769358530053305,-0.008487732625702467,0.9465789794921875,0.4004058837890625,-0.3288726806640625
20220209-1437,2022-02-09 14:37:15Z,u01, 221,40,movements,el-ex, lt, d,17321.825430666668, 1.3550883341734983, -0.4529965875393466, 0.3399070093103085, 0.21474957466125488, 0.5896813869476318, -0.150994673371315, 0.8783021569252014, 0.4376618564128876, -0.19245100021362305, -0.07483541965484619, 0.012121468782424927, -0.21294449269771576, -0.27576285170281445, 0.5724765042173996, 0.7720871690688237,-0.010337478174543224,0.8262939453125,0.437347412109375,-0.4043426513671875
20220209-1437,2022-02-09 14:37:16Z,u01, 222,40,movements,el-ex, lt, d,17321.85037766667, 1.364897359462717, -0.45390426688798974, 0.3262257694532866, 0.5300641059875488, 0.6855445504188538, -0.14448271691799164, 0.8797585368156433, 0.4384777843952179, -0.183745339512825, -0.07740557193756104, 0.016905546188354492, -0.16389568150043488, -0.27208861541067586, 0.5780096167754082, 0.7691395216851261,-0.017239834970473406,0.798614501953125,0.4568023681640625,-0.35504150390625
20220209-1437,2022-02-09 14:37:16Z,u01, 223,40,movements,el-ex, lt, d,17321.875323666667, 1.3778326419455824, -0.45631483019405, 0.3177175787523385, 0.0006310362368822098, 0.624652624130249, -0.15650129318237305, 0.8810216188430786, 0.44064298272132874, -0.17214712500572205, 0.09813481569290161, -0.04547092318534851, -0.08014170825481415, -0.27035663406023586, 0.5838096656824294, 0.7652080535855914,-0.023025352657799744,0.9395904541015625,0.3979949951171875,-0.25408935546875
20220209-1437,2022-02-09 14:37:16Z,u01, 224,40,movements,el-ex, lt, d,17321.90027066667, 1.3913103296711657, -0.45899750205760986, 0.3188000349422688, 0.017486415803432465, 0.4022085964679718, -0.04277186095714569, 0.8820952773094177, 0.4430495798587799, -0.16004608571529388, 0.16294854879379272, -0.05330970883369446, -0.1652255356311798, -0.2714732159613214, 0.5884549663818326, 0.7611720495373201,-0.02529840563169935,1.045989990234375,0.3877105712890625,-0.31854248046875
20220209-1437,2022-02-09 14:37:16Z,u01, 225,40,movements,el-ex, lt, d,17321.925217666667, 1.3955990377659675, -0.4567747255558116, 0.31033590836550345, 0.5530369281768799, 0.30010300874710083, 0.06716156005859375, 0.8837411403656006, 0.4410557746887207, -0.1564328521490097, 0.03631794452667236, -0.009277909994125366, -0.299789696931839, -0.26812425595357836, 0.5915175024315991, 0.7598756091606963,-0.028379230462575546,0.949859619140625,0.434783935546875,-0.447906494140625
20220209-1437,2022-02-09 14:37:16Z,u01, 226,40,movements,el-ex, lt, d,17321.95016466667, 1.395841483108289, -0.4525607871795848, 0.2957269854747372, 0.4340335726737976, 0.20876218378543854, 0.0758621096611023, 0.8856014013290405, 0.4372699558734894, -0.15654072165489197, 0.029315471649169922, -0.04563796520233154, -0.3195030689239502, -0.2622816471990829, 0.5940858352045487, 0.7597416208023007,-0.03260252056247757,0.9118499755859375,0.39483642578125,-0.4736480712890625
20220209-1437,2022-02-09 14:37:16Z,u01, 227,40,movements,el-ex, lt, d,17321.975110666666, 1.3948267565542511, -0.44946350344719843, 0.289164032764032, 0.08748356997966766, -0.0742964893579483, 0.07922641932964325, 0.8867713212966919, 0.4344823956489563, -0.157675638794899, 0.12395554780960083, -0.0631445050239563, -0.4017878770828247, -0.2592356472299332, 0.5949445878744328, 0.7600553436358557,-0.033965774055224496,1.00408935546875,0.36102294921875,-0.541748046875
20220209-1437,2022-02-09 14:37:16Z,u01, 228,40,movements,el-ex, lt, d,17322.000057666668, 1.389049464783424, -0.44746156416194227, 0.28774454692488455, 0.09879598766565323, -0.32273006439208984, 0.06691242009401321, 0.8866992592811584, 0.4326784014701843, -0.1629529893398285, 0.11078298091888428, -0.0424044132232666, -0.4520525336265564, -0.2581902505639954, 0.5931789796670588, 0.7618266204965065,-0.03311479104081642,0.998291015625,0.3900299072265625,-0.61065673828125
20220209-1437,2022-02-09 14:37:16Z,u01, 229,40,movements,el-ex, lt, d,17322.025004666666, 1.3760306717525224, -0.44489724581853396, 0.2826960971066649, 0.31588035821914673, -0.5349973440170288, 0.0725836306810379, 0.8855884671211243, 0.4303651452064514, -0.17469678819179535, 0.11937063932418823, -0.012167513370513916, -0.5061809420585632, -0.2559838074841336, 0.5891722124290893, 0.7656951012716305,-0.03254908786298414,0.9959869384765625,0.4152069091796875,-0.6599273681640625
20220209-1437,2022-02-09 14:37:16Z,u01, 230,40,movements,el-ex, lt, d,17322.049951666668, 1.3547497357287175, -0.44043050218965846, 0.27078583111356547, 0.585063099861145, -0.7798960208892822, 0.09700135141611099, 0.8835394382476807, 0.4263289272785187, -0.19391213357448578, 0.1494501233100891, -0.013441294431686401, -0.5388760566711426, -0.2512104074837956, 0.5830413891482764, 0.7719237097569803,-0.03301513796754495,1.0330963134765625,0.4130096435546875,-0.7306976318359375
20220209-1437,2022-02-09 14:37:16Z,u01, 231,40,movements,el-ex, lt, d,17322.07489766667, 1.32479919388902, -0.43353169786017354, 0.2532063678602312, 0.7553758025169373, -1.0045102834701538, 0.14135250449180603, 0.8801679015159607, 0.4200783967971802, -0.22099466621875763, 0.1253710389137268, -0.023899197578430176, -0.5529158711433411, -0.24406844984615345, 0.5743981701387572, 0.7806040407233914,-0.03398056789108564,1.0063323974609375,0.398101806640625,-0.767669677734375
20220209-1437,2022-02-09 14:37:16Z,u01, 232,40,movements,el-ex, lt, d,17322.099844666667, 1.2882606167938562, -0.424218396717988, 0.23312779098856093, 0.8005138039588928, -1.2641563415527344, 0.18836542963981628, 0.8752266764640808, 0.41160857677459717, -0.25407978892326355, 0.17415070533752441, -0.019320428371429443, -0.5422153472900391, -0.2354694566477127, 0.563484013195148, 0.7911000234073581,-0.034649429941414664,1.0468597412109375,0.392059326171875,-0.794647216796875
20220209-1437,2022-02-09 14:37:16Z,u01, 233,40,movements,el-ex, lt, d,17322.12479166667, 1.2465603677636665, -0.4149125301145823, 0.21695946345854328, 0.5187747478485107, -1.534831166267395, 0.1599113494157791, 0.8674671649932861, 0.4031098783016205, -0.2915532886981964, 0.18543505668640137, -0.013156294822692871, -0.510113000869751, -0.22809975860978485, 0.549721619504862, 0.802904040563088,-0.03349463322752188,1.056365966796875,0.3899078369140625,-0.8031463623046875
20220209-1437,2022-02-09 14:37:16Z,u01, 234,40,movements,el-ex, lt, d,17322.149738666667, 1.201096975719177, -0.4075474912198176, 0.2070636383697514, 0.46404170989990234, -1.752274990081787, 0.15668465197086334, 0.8560655117034912, 0.3963588774204254, -0.33174020051956177, 0.2049849033355713, 0.016635477542877197, -0.47572439908981323, -0.22325606196204484, 0.5331853602277262, 0.8154479891528736,-0.03024414529288913,1.0601806640625,0.411773681640625,-0.80596923828125
20220209-1437,2022-02-09 14:37:16Z,u01, 235,40,movements,el-ex, lt, d,17322.17468466667, 1.150646902902448, -0.39807416813606217, 0.19267541856169104, 0.8438059091567993, -1.8289417028427124, 0.14309847354888916, 0.8416377305984497, 0.38764381408691406, -0.3760031461715698, 0.2147282361984253, 0.08426475524902344, -0.4316903352737427, -0.21642932853957816, 0.5149337513644782, 0.8289868250804572,-0.027974170205946988,1.05926513671875,0.463287353515625,-0.8163299560546875
20220209-1437,2022-02-09 14:37:16Z,u01, 236,40,movements,el-ex, lt, d,17322.199631666666, 1.095242305462142, -0.3830235391435331, 0.16861647349422096, 1.2619365453720093, -1.8914380073547363, 0.17558550834655762, 0.8246184587478638, 0.37372663617134094, -0.42465612292289734, 0.24845588207244873, 0.10083696246147156, -0.36838895082473755, -0.20497347123414972, 0.49563879064625693, 0.8435250108785969,-0.028171851150981392,1.071319580078125,0.475250244140625,-0.792449951171875
20220209-1437,2022-02-09 14:37:16Z,u01, 237,40,movements,el-ex, lt, d,17322.224578666668, 1.0355453800925072, -0.3617636743619164, 0.1389351981152534, 1.4262499809265137, -2.038649320602417, 0.23451240360736847, 0.8044673204421997, 0.35392430424690247, -0.4770430326461792, 0.3035496473312378, 0.10231345891952515, -0.3295823931694031, -0.18973440042174744, 0.47484665411089433, 0.8588664895757432,-0.029495063978586894,1.1057891845703125,0.455963134765625,-0.8161773681640625
20220209-1437,2022-02-09 14:37:16Z,u01, 238,40,movements,el-ex, lt, d,17322.249525666666, 0.973892689889065, -0.33745442732319425, 0.11319384490610992, 1.183713436126709, -2.209684133529663, 0.3679523766040802, 0.7804331183433533, 0.3310861587524414, -0.5303829312324524, 0.35349327325820923, 0.0812215805053711, -0.2507907748222351, -0.174264555286553, 0.4521508442192102, 0.8742656804456073,-0.029170711560595516,1.1324920654296875,0.415130615234375,-0.7817230224609375
20220209-1437,2022-02-09 14:37:16Z,u01, 239,40,movements,el-ex, lt, d,17322.274471666668, 0.9114573010556105, -0.31508449139483574, 0.09910338598914084, 0.7704514861106873, -2.421572208404541, 0.46079379320144653, 0.7514862418174744, 0.3098967969417572, -0.5824366807937622, 0.41184383630752563, 0.11133730411529541, -0.19141286611557007, -0.16223583632413363, 0.42715477979071154, 0.8891520384199509,-0.025040285279789742,1.15728759765625,0.420440673828125,-0.7572021484375
20220209-1437,2022-02-09 14:37:16Z,u01, 240,40,movements,el-ex, lt, d,17322.29941866667, 0.8474255768919347, -0.29600576214594027, 0.09421140658945347, 0.5260747075080872, -2.587151527404785, 0.4628567695617676, 0.7169790863990784, 0.2917020320892334, -0.6331278681755066, 0.44679343700408936, 0.1460878849029541, -0.1508381962776184, -0.15342226435064, 0.39987206406329495, 0.9034578446897427,-0.018106943486916147,1.1639862060546875,0.4385223388671875,-0.7833404541015625
20220209-1437,2022-02-09 14:37:16Z,u01, 241,40,movements,el-ex, lt, d,17322.324365666667, 0.7812176901634657, -0.27966784583892673, 0.09203835463234383, 0.5389236807823181, -2.6784958839416504, 0.3691266179084778, 0.6767866015434265, 0.27603641152381897, -0.6824689507484436, 0.4768083691596985, 0.18838009238243103, -0.16320371627807617, -0.14608856042457244, 0.3707069575027125, 0.9171237963009715,-0.010889766611612492,1.1543121337890625,0.4580078125,-0.833984375
20220209-1437,2022-02-09 14:37:16Z,u01, 242,40,movements,el-ex, lt, d,17322.34931266667, 0.7113878992649854, -0.26331031394235876, 0.0869100110325943, 0.7019525170326233, -2.8103790283203125, 0.22717420756816864, 0.6303831338882446, 0.26027819514274597, -0.731349766254425, 0.47833573818206787, 0.19197705388069153, -0.14007973670959473, -0.1379389483070785, 0.3395555542303812, 0.9304014572400082,-0.0053025118083422085,1.113067626953125,0.4522705078125,-0.869384765625
20220209-1437,2022-02-09 14:37:16Z,u01, 243,40,movements,el-ex, lt, d,17322.374258666667, 0.6378836695849067, -0.2454221113718304, 0.07761846592786086, 0.8491459488868713, -2.879948139190674, 0.11635447293519974, 0.5776524543762207, 0.24296580255031586, -0.7792850732803345, 0.466796338558197, 0.15400683879852295, -0.12528645992279053, -0.12821729411522872, 0.30646009185126627, 0.9432069102522113,-0.0017864210494029364,1.053863525390625,0.4187469482421875,-0.905517578125
20220209-1437,2022-02-09 14:37:16Z,u01, 244,40,movements,el-ex, lt, d,17322.39920566667, 0.5629277362875706, -0.22686202894336582, 0.0679155199590119, 0.7874013185501099, -2.932828903198242, 0.10190562903881073, 0.5199903845787048, 0.2249210625886917, -0.8240270614624023, 0.48501449823379517, 0.1119166761636734, -0.07825571298599243, -0.11804103959127762, 0.27212643195227065, 0.9549935312548068,0.0009844492288354906,1.009918212890625,0.3394012451171875,-0.9033355712890625
20220209-1437,2022-02-09 14:37:16Z,u01, 245,40,movements,el-ex, lt, d,17322.424152666666, 0.48731337511417744, -0.20844480019678227, 0.05974618967453878, 0.8040744662284851, -2.9889652729034424, 0.08126705884933472, 0.45811784267425537, 0.20693860948085785, -0.8644677400588989, 0.42373332381248474, 0.10286056995391846, 0.0002251267433166504, -0.10808265273779052, 0.2368211954495349, 0.9655153144490356,0.0037418483765537386,0.908447265625,0.30194091796875,-0.8745269775390625
20220209-1437,2022-02-09 14:37:16Z,u01, 246,40,movements,el-ex, lt, d,17322.44909966667, 0.4110352767755005, -0.19021332574762118, 0.05430741857003636, 0.6081349849700928, -3.0341246128082275, 0.17456218600273132, 0.3923521339893341, 0.18906837701797485, -0.9001738429069519, 0.436123788356781, 0.11220113933086395, 0.0839812159538269, -0.09844626073015546, 0.20055274637191514, 0.974698309009081,0.007086490487086872,0.8317108154296875,0.3003997802734375,-0.8242950439453125
20220209-1437,2022-02-09 14:37:16Z,u01, 247,40,movements,el-ex, lt, d,17322.474045666666, 0.3347964890447201, -0.1793786544758296, 0.05543597880531332, 0.17085424065589905, -3.0629963874816895, 0.2021843045949936, 0.3233048617839813, 0.17841823399066925, -0.9293228387832642, 0.4274885654449463, 0.13257113099098206, 0.27182161808013916, -0.09288232199330504, 0.16343642280089896, 0.9820947866161264,0.012299144513773383,0.77069091796875,0.2987518310546875,-0.69354248046875
20220209-1437,2022-02-09 14:37:16Z,u01, 248,40,movements,el-ex, lt, d,17322.498992666668, 0.2591697157674014, -0.17675837774017175, 0.05994012317386728, -0.06875623017549515, -3.0684165954589844, 0.17733806371688843, 0.252284973859787, 0.1758393943309784, -0.951542317867279, 0.43590161204338074, 0.1532926708459854, 0.36044734716415405, -0.0913419562453347, 0.12603764352821584, 0.9876435920606416,0.01819776477017348,0.69342041015625,0.3295440673828125,-0.5969085693359375
20220209-1437,2022-02-09 14:37:16Z,u01, 249,40,movements,el-ex, lt, d,17322.52393966667, 0.18439959123850544, -0.1796767255506478, 0.06437535580024155, -0.16009129583835602, -2.9603960514068604, 0.10925841331481934, 0.18040457367897034, 0.17871151864528656, -0.9672209620475769, 0.3236389756202698, 0.15121401846408844, 0.5254942774772644, -0.0922412511433844, 0.08877538805206284, 0.9914891988232738,0.023660250509373544,0.54315185546875,0.3382568359375,-0.462615966796875
20220209-1437,2022-02-09 14:37:16Z,u01, 250,40,movements,el-ex, lt, d,17322.548885666667, 0.11393658489106251, -0.17830928393522857, 0.06522977520747579, 0.2793365716934204, -2.692936658859253, -0.035009145736694336, 0.11188767105340958, 0.17736591398715973, -0.9777640104293823, 0.26723217964172363, 0.15880045294761658, 0.6532553434371948, -0.09069416529074201, 0.05378249108717661, 0.9940490874449369,0.02736007970562076,0.3861846923828125,0.3358306884765625,-0.3379669189453125
20220209-1437,2022-02-09 14:37:16Z,u01, 251,40,movements,el-ex, lt, d,17322.57383266667, 0.0512374849064007, -0.17098788709999432, 0.06306089258217387, 0.12255391478538513, -2.286691427230835, -0.07808230817317963, 0.05046820640563965, 0.17015591263771057, -0.984123945236206, 0.15190906822681427, 0.06978853046894073, 1.0280539989471436, -0.08612397912741711, 0.022818644422224782, 0.9955946087352409,0.029213518296198657,0.2376556396484375,0.2792205810546875,-0.032989501953125
20220209-1437,2022-02-09 14:37:16Z,u01, 252,40,movements,el-ex, lt, d,17322.598779666667, 0.00045742625610604624, -0.1836464391900741, 0.06006628774415108, -1.2299003601074219, -1.713706374168396, -0.16549716889858246, 0.0004497343034017831, 0.18261590600013733, -0.9831842184066772, 0.1181415319442749, -0.05460993945598602, 1.2512048482894897, -0.09165972828915818, -0.0025258055870265965, 0.9953387208877653,0.02988116274706637,0.122039794921875,0.134124755859375,0.2562103271484375
