SessionID,LoggingTime,UID,RecNo,Hertz,Activity,MoveType,Wrist,Side,TimeStamp,DMRoll,DMPitch,DMYaw,DMRotX,DMRotY,DMRotZ,DMGrvX,DMGrvY,DMGrvZ,DMUAccelX,DMUAccelY,DMUAccelZ,DMQuatX,DMQuatY,DMQuatW,DMQuatZ,AccelroX,AceelroY,AceelroZ
20220209-1457,2022-02-09 14:57:30Z,u01, 1,40,movements,el-ex, lt, d,18518.211127375, -0.15352639651907043, -0.4345833385430405, -0.033958623179800126, -0.41865646839141846, 1.3834879398345947, 0.8419162631034851, -0.13870902359485626, 0.42103251814842224, -0.8963768482208252, 0.10289664566516876, -0.049435198307037354, 0.2127373218536377, -0.21619134263029632, -0.07122417123606564, 0.9737496929389831,0.0,-0.0487823486328125,0.3511810302734375,-0.664154052734375
20220209-1457,2022-02-09 14:57:30Z,u01, 2,40,movements,el-ex, lt, d,18518.236073375003, -0.10702542280371928, -0.44955449939156067, -0.01154058812055803, -0.5867722034454346, 1.5736877918243408, 0.8799763321876526, -0.09620755165815353, 0.43456435203552246, -0.8954875469207764, 0.08964627236127853, -0.015771597623825073, 0.09276849031448364, -0.22286732263863046, -0.05085648245389125, 0.9735009386050058,0.006304463575084129,-0.006561279296875,0.418792724609375,-0.8027191162109375
20220209-1457,2022-02-09 14:57:30Z,u01, 3,40,movements,el-ex, lt, d,18518.261018375, -0.05636271968093012, -0.4690956748858865, 0.011299244335836204, -0.7779725193977356, 2.188612222671509, 0.5931598544120789, -0.050247661769390106, 0.4520798325538635, -0.890561044216156, 0.3288273811340332, 0.006950318813323975, 0.022671639919281006, -0.2321524121620986, -0.028718138374218938, 0.9721807914602965,0.012041189954264009,-0.18927001953125,0.4930572509765625,-0.785430908203125
20220209-1457,2022-02-09 14:57:30Z,u01, 4,40,movements,el-ex, lt, d,18518.285964375, -0.0008633468424761164, -0.48607596323117286, 0.03648367934591119, -0.4922165274620056, 1.7357145547866821, 0.9520508646965027, -0.0007633477216586471, 0.4671599566936493, -0.8841724991798401, 0.14172403514385223, 0.1256440281867981, -0.05480760335922241, -0.24060472417779805, -0.004808616414465283, 0.9704478976453207,0.01780861887492291,0.140960693359375,0.592803955078125,-0.9389801025390625
20220209-1457,2022-02-09 14:57:30Z,u01, 5,40,movements,el-ex, lt, d,18518.310910375, 0.05364889745729818, -0.49420415135802304, 0.0637652909363068, -0.2703079879283905, 1.6329623460769653, 0.939327597618103, 0.04720696434378624, 0.47433117032051086, -0.8790798783302307, 0.09714117646217346, 0.11192676424980164, -0.144281268119812, -0.24521185386392583, 0.01819911618484124, 0.9689930067416781,0.02434085573260658,0.15252685546875,0.603302001953125,-1.008453369140625
20220209-1457,2022-02-09 14:57:30Z,u01, 6,40,movements,el-ex, lt, d,18518.335856375, 0.10874559378672222, -0.5021330466763048, 0.0895347530534182, -0.5590648651123047, 1.7698006629943848, 0.8326502442359924, 0.09513404965400696, 0.4812963604927063, -0.8713801503181458, 0.03877708315849304, 0.0903283953666687, -0.11606186628341675, -0.250177356740901, 0.04148767618995919, 0.9668517047020229,0.029797241337424896,0.1339111328125,0.571624755859375,-0.9874420166015625
20220209-1457,2022-02-09 14:57:30Z,u01, 7,40,movements,el-ex, lt, d,18518.360802375002, 0.1654033493707498, -0.5132315047091139, 0.11550704476360979, -0.4504428505897522, 1.765182375907898, 0.8261206150054932, 0.14343705773353577, 0.49099496006965637, -0.859272837638855, 0.13891158998012543, 0.13186880946159363, -0.13839256763458252, -0.2571314546992453, 0.06516906764111924, 0.9635516453673947,0.0347089626149471,0.2637481689453125,0.613372802734375,-0.9945831298828125
20220209-1457,2022-02-09 14:57:31Z,u01, 8,40,movements,el-ex, lt, d,18518.385748375, 0.22096520868834954, -0.5166594523664289, 0.13988560711945905, -0.19996124505996704, 1.708604335784912, 0.8007676005363464, 0.19056393206119537, 0.4939783811569214, -0.8483340740203857, 0.14110109210014343, 0.1282597780227661, -0.12680929899215698, -0.2607374771232302, 0.08859417083020946, 0.9605422981293754,0.039056584535229644,0.3316650390625,0.6222381591796875,-0.9751434326171875
20220209-1457,2022-02-09 14:57:31Z,u01, 9,40,movements,el-ex, lt, d,18518.410693375, 0.27404487126140464, -0.5190528867172473, 0.16313072969741083, -0.37103980779647827, 1.6444708108901978, 0.6967574954032898, 0.23498305678367615, 0.49605798721313477, -0.8358884453773499, 0.08140793442726135, 0.07896944880485535, -0.07985252141952515, -0.2641287068782045, 0.11086847203983431, 0.95712541659505,0.043071781352137406,0.31927490234375,0.5713653564453125,-0.9273529052734375
20220209-1457,2022-02-09 14:57:31Z,u01, 10,40,movements,el-ex, lt, d,18518.435639375002, 0.3257972764576406, -0.5219390516205702, 0.18378349235245542, -0.24937397241592407, 1.6719064712524414, 0.6158530116081238, 0.27744898200035095, 0.49856194853782654, -0.8212539553642273, 0.09243932366371155, 0.11464303731918335, -0.0895126461982727, -0.26790543231175057, 0.132663856393274, 0.9531674499003953,0.04581325664507441,0.3698883056640625,0.6132049560546875,-0.9107666015625
20220209-1457,2022-02-09 14:57:31Z,u01, 11,40,movements,el-ex, lt, d,18518.460585375, 0.37567818515904494, -0.5220045567059148, 0.20121687314902106, -0.20907677710056305, 1.628943681716919, 0.5081677436828613, 0.31803980469703674, 0.4986187219619751, -0.8063684105873108, 0.11596593260765076, 0.11254158616065979, -0.07294976711273193, -0.2703483603098971, 0.1540374763028009, 0.9491779491771248,0.047386758124064066,0.4314727783203125,0.6161041259765625,-0.90032958984375
20220209-1457,2022-02-09 14:57:31Z,u01, 12,40,movements,el-ex, lt, d,18518.485531375, 0.4227685871318347, -0.5216211965130922, 0.2169478084383812, -0.1604350507259369, 1.5176857709884644, 0.497000128030777, 0.3557238280773163, 0.4982863962650299, -0.7906777262687683, 0.12570622563362122, 0.07545936107635498, -0.06634742021560669, -0.27258878056041, 0.1742311863427343, 0.9449803717367469,0.04848645365696014,0.4814300537109375,0.5737457275390625,-0.857025146484375
20220209-1457,2022-02-09 14:57:31Z,u01, 13,40,movements,el-ex, lt, d,18518.510477375003, 0.46677025035132863, -0.5201940124283274, 0.2318684058910824, -0.18952086567878723, 1.4478247165679932, 0.49170026183128357, 0.39047905802726746, 0.4970484972000122, -0.7748993039131165, 0.07477667927742004, 0.05313768982887268, -0.06764519214630127, -0.2743749938674157, 0.19305103395291584, 0.9407349083729011,0.04967539629558465,0.4716796875,0.55487060546875,-0.8484039306640625
20220209-1457,2022-02-09 14:57:31Z,u01, 14,40,movements,el-ex, lt, d,18518.535423375, 0.510592596327706, -0.5202110727269005, 0.24611319183641334, -0.2479536086320877, 1.5057564973831177, 0.38251906633377075, 0.4240470826625824, 0.4970633089542389, -0.7570417523384094, 0.02906268835067749, 0.071280837059021, -0.027336299419403076, -0.2769198167058367, 0.21164723589087844, 0.9359428813741953,0.05031712909038366,0.4531097412109375,0.5683441162109375,-0.7843780517578125
20220209-1457,2022-02-09 14:57:31Z,u01, 15,40,movements,el-ex, lt, d,18518.560368375, 0.5543895952676657, -0.5203634586817115, 0.2574936220072953, -0.09243116527795792, 1.5136454105377197, 0.3506862223148346, 0.45674610137939453, 0.4971955120563507, -0.7376853227615356, 0.10456374287605286, 0.09191581606864929, -0.045151591300964355, -0.2793408886649053, 0.23049081314830952, 0.9308011573999867,0.04951634126489629,0.5342254638671875,0.59344482421875,-0.7695159912109375
20220209-1457,2022-02-09 14:57:31Z,u01, 16,40,movements,el-ex, lt, d,18518.585314375003, 0.5952212652920927, -0.5159540972590609, 0.265655759027019, 0.0237105879932642, 1.421094298362732, 0.32267582416534424, 0.48770245909690857, 0.49336495995521545, -0.720234215259552, 0.10224813222885132, 0.08076223731040955, -0.05402719974517822, -0.2793116493704773, 0.24873256878058492, 0.9261678420232544,0.04827266204643482,0.5899505615234375,0.574127197265625,-0.774261474609375
20220209-1457,2022-02-09 14:57:31Z,u01, 17,40,movements,el-ex, lt, d,18518.610260375, 0.6335490756947689, -0.5130972643369497, 0.27331907265629257, -0.1946479231119156, 1.3664889335632324, 0.23636238276958466, 0.5157747864723206, 0.49087801575660706, -0.702150285243988, 0.05333220958709717, 0.024701207876205444, 0.012788832187652588, -0.2799192318790538, 0.2656502725250987, 0.9213436371856717,0.04691428461595343,0.57012939453125,0.524017333984375,-0.7154083251953125
20220209-1457,2022-02-09 14:57:31Z,u01, 18,40,movements,el-ex, lt, d,18518.635206375002, 0.6737817542902137, -0.5164493221627392, 0.2844208712877576, -0.4155767261981964, 1.4029438495635986, 0.21163219213485718, 0.5425694584846497, 0.4937956631183624, -0.6795470118522644, 0.05996960401535034, 0.020318716764450073, -0.0035736560821533203, -0.28387338385999944, 0.2822098245206879, 0.9152478307770973,0.04576972435044541,0.6025390625,0.5141143798828125,-0.6831207275390625
20220209-1457,2022-02-09 14:57:31Z,u01, 19,40,movements,el-ex, lt, d,18518.660152375, 0.7129085943482872, -0.5198031938745167, 0.2951044571694059, -0.24153845012187958, 1.292930006980896, 0.21676844358444214, 0.5676496028900146, 0.49670934677124023, -0.6565468311309814, 0.10244005918502808, 0.06743863224983215, -0.05243748426437378, -0.28779372636484657, 0.2981632811621923, 0.9090093081288897,0.044447149861062185,0.667449951171875,0.5639190673828125,-0.7090911865234375
20220209-1457,2022-02-09 14:57:31Z,u01, 20,40,movements,el-ex, lt, d,18518.685097375, 0.7486399709863463, -0.5207700849457183, 0.30402630866165054, -0.27579864859580994, 1.2333887815475464, 0.16861961781978607, 0.5904144048690796, 0.49754828214645386, -0.6354970335960388, 0.06362301111221313, 0.04918938875198364, -0.022812843322753906, -0.2903642269338366, 0.31295384521549285, 0.9032647118734656,0.04314251932256308,0.6540374755859375,0.5467376708984375,-0.6583099365234375
20220209-1457,2022-02-09 14:57:31Z,u01, 21,40,movements,el-ex, lt, d,18518.710043375002, 0.7835720704002112, -0.5232238987266026, 0.31337656626497923, -0.29767119884490967, 1.2033014297485352, 0.16349542140960693, 0.6113854050636292, 0.49967530369758606, -0.6136223673820496, 0.08375924825668335, 0.06761592626571655, -0.038538217544555664, -0.29367013020852356, 0.32702702028719727, 0.8972549737738469,0.04176819694068945,0.6931304931640625,0.568878173828125,-0.6446990966796875
20220209-1457,2022-02-09 14:57:31Z,u01, 22,40,movements,el-ex, lt, d,18518.734989375, 0.818144457150769, -0.5272127410021434, 0.32359868654980856, -0.4643406867980957, 1.1298246383666992, 0.10019248723983765, 0.6307705044746399, 0.5031265020370483, -0.5907557606697083, 0.03703039884567261, 0.04211580753326416, -0.06459397077560425, -0.2978056904201568, 0.3404906745727415, 0.8909237124882858,0.04040901971947619,0.6678009033203125,0.5452423095703125,-0.6553497314453125
20220209-1457,2022-02-09 14:57:31Z,u01, 23,40,movements,el-ex, lt, d,18518.759935375, 0.8538998449072538, -0.5353540582443688, 0.3393046061370222, -0.7806808948516846, 1.11309814453125, 0.15692134201526642, 0.6483761668205261, 0.5101456046104431, -0.5651193857192993, -0.003799140453338623, 0.013383448123931885, -0.019444823265075684, -0.3047189831027178, 0.35296832779096815, 0.8837076091526288,0.04025768480891878,0.6332244873046875,0.52276611328125,-0.600067138671875
20220209-1457,2022-02-09 14:57:31Z,u01, 24,40,movements,el-ex, lt, d,18518.784881375002, 0.8939276138824849, -0.5450861684742487, 0.3622523675955254, -0.8440289497375488, 1.11404287815094, 0.2717563211917877, 0.6665692925453186, 0.5184917449951172, -0.5355854034423828, 0.08417844772338867, 0.04358100891113281, -0.0071392059326171875, -0.31375410046704205, 0.36573988180316297, 0.8752306473409206,0.04200066338141023,0.7507476806640625,0.56207275390625,-0.542724609375
20220209-1457,2022-02-09 14:57:31Z,u01, 25,40,movements,el-ex, lt, d,18518.809827375, 0.9323846930640611, -0.5511281570547794, 0.38411434630406466, -0.6124765872955322, 1.0271947383880615, 0.23901009559631348, 0.684140145778656, 0.5236486792564392, -0.5076852440834045, 0.109713613986969, 0.09413391351699829, -0.12506616115570068, -0.3211459041381341, 0.37818340102536446, 0.8671242653324027,0.044023791937621404,0.8044281005859375,0.612579345703125,-0.613922119140625
20220209-1457,2022-02-09 14:57:31Z,u01, 26,40,movements,el-ex, lt, d,18518.834773375, 0.9652675819365018, -0.5533236021944995, 0.3980205470031144, -0.32322439551353455, 1.0968683958053589, 0.17378874123096466, 0.6995145082473755, 0.5255177617073059, -0.4842628240585327, -0.006139934062957764, 0.09658300876617432, -0.1578575074672699, -0.32543637558529004, 0.38982016396821567, 0.860336385019262,0.04418924908602467,0.6933746337890625,0.622100830078125,-0.642120361328125
20220209-1457,2022-02-09 14:57:31Z,u01, 27,40,movements,el-ex, lt, d,18518.859718375003, 1.0008671958968418, -0.5528111272270498, 0.40932516618561093, -0.2983115613460541, 1.2381172180175781, 0.3061351180076599, 0.716533899307251, 0.5250816941261292, -0.4592040479183197, 0.024387121200561523, 0.05632394552230835, -0.02985537052154541, -0.32825076193598246, 0.40329816183721884, 0.8530672028072387,0.04334039489404673,0.698822021484375,0.59698486328125,-0.486114501953125
20220209-1457,2022-02-09 14:57:31Z,u01, 28,40,movements,el-ex, lt, d,18518.884664375, 1.0389578477625065, -0.5512743114930636, 0.42299017849945336, -0.4064362347126007, 1.1890441179275513, 0.25954511761665344, 0.7341959476470947, 0.523773193359375, -0.4319930374622345, 0.10639548301696777, 0.011444091796875, -0.05564728379249573, -0.3312692887461154, 0.41744956912267567, 0.8450596038334457,0.043252412322017986,0.8405914306640625,0.53521728515625,-0.487640380859375
20220209-1457,2022-02-09 14:57:31Z,u01, 29,40,movements,el-ex, lt, d,18518.909610375, 1.0738047898434255, -0.5498842164986573, 0.434058642311549, -0.1347089260816574, 1.1845148801803589, 0.23434217274188995, 0.74944007396698, 0.5225884914398193, -0.4064982235431671, 0.016367971897125244, 0.08295655250549316, -0.0938679575920105, -0.3338183951276366, 0.4304836419434819, 0.8375229591785458,0.04247852823482462,0.7922210693359375,0.608489990234375,-0.5087890625
20220209-1457,2022-02-09 14:57:31Z,u01, 30,40,movements,el-ex, lt, d,18518.934556375, 1.1074711810986728, -0.5466910326615091, 0.43920181140094605, -0.13907156884670258, 1.2583374977111816, 0.17052777111530304, 0.7641870379447937, 0.5198633670806885, -0.3817855417728424, -0.028774499893188477, 0.04759567975997925, -0.04419401288032532, -0.33440175412046896, 0.4441651689813814, 0.8302434307906952,0.03985715778435939,0.73541259765625,0.5674591064453125,-0.4259796142578125
20220209-1457,2022-02-09 14:57:31Z,u01, 31,40,movements,el-ex, lt, d,18518.959502375, 1.1425841428456467, -0.544838647333443, 0.4472374912152147, -0.27527186274528503, 1.2005113363265991, 0.18326973915100098, 0.7779935598373413, 0.5182800889015198, -0.3551221191883087, 0.10932028293609619, 0.03340137004852295, -0.02349415421485901, -0.33618842544476607, 0.4576202427938983, 0.8222725268111617,0.03780089059322028,0.8660430908203125,0.548248291015625,-0.3863372802734375
20220209-1457,2022-02-09 14:57:31Z,u01, 32,40,movements,el-ex, lt, d,18518.984447375, 1.1762391537945522, -0.544060235677108, 0.4568119511208974, -0.2555735409259796, 1.0682528018951416, 0.13512477278709412, 0.7898746132850647, 0.5176142454147339, -0.3288975656032562, 0.1352199912071228, 0.05713850259780884, -0.043111652135849, -0.3387390364131092, 0.46990114156146845, 0.8143304122496344,0.036259493475894244,0.9250946044921875,0.5747528076171875,-0.37200927734375
20220209-1457,2022-02-09 14:57:31Z,u01, 33,40,movements,el-ex, lt, d,18519.009393375, 1.204689908467908, -0.5434522342101045, 0.46413559256725506, -0.214970663189888, 0.9130582809448242, 0.08430086821317673, 0.7992047071456909, 0.5170939564704895, -0.3064075708389282, 0.10171985626220703, 0.0381428599357605, -0.08559069037437439, -0.3407570248469663, 0.4802924844698342, 0.8074704751353792,0.03457116369807334,0.91278076171875,0.5599517822265625,-0.389801025390625
20220209-1457,2022-02-09 14:57:31Z,u01, 34,40,movements,el-ex, lt, d,18519.034341375, 1.2302333627252828, -0.5431792452044332, 0.46931899556043166, -0.06341619044542313, 0.9295344352722168, 0.059764835983514786, 0.8069029450416565, 0.5168602466583252, -0.28594252467155457, 0.047100961208343506, 0.049286603927612305, -0.09764814376831055, -0.34234146212466354, 0.489725490247232, 0.8012011247174478,0.032373722301268226,0.85400390625,0.5661468505859375,-0.3835906982421875
20220209-1457,2022-02-09 14:57:31Z,u01, 35,40,movements,el-ex, lt, d,18519.059287375003, 1.2541752589137896, -0.5417902741631664, 0.46908922696070743, 0.077249675989151, 0.9896700382232666, 0.04054340347647667, 0.8141985535621643, 0.5156707167625427, -0.2667669355869293, 0.016566216945648193, 0.03347790241241455, -0.06047302484512329, -0.3421455052246619, 0.4995527852874168, 0.7953399864246433,0.028598882041943108,0.8275909423828125,0.5569000244140625,-0.3347015380859375
20220209-1457,2022-02-09 14:57:31Z,u01, 36,40,movements,el-ex, lt, d,18519.084233375, 1.2783004330231786, -0.5417934759511748, 0.4676533923958556, 0.0008343346416950226, 0.9721199870109558, -0.05482053384184837, 0.8203951716423035, 0.5156734585762024, -0.2470480352640152, 0.04779940843582153, 0.011151492595672607, -0.0781320184469223, -0.342101155592966, 0.5093552614315303, 0.7892735545251972,0.02390212505848016,0.868194580078125,0.526824951171875,-0.3251800537109375
20220209-1457,2022-02-09 14:57:31Z,u01, 37,40,movements,el-ex, lt, d,18519.109179375002, 1.302409210845244, -0.5444235947071072, 0.46952786307309685, -0.18257270753383636, 0.8832467198371887, -0.10148484259843826, 0.8248016238212585, 0.5179250836372375, -0.22683899104595184, 0.06644898653030396, -0.015575230121612549, -0.09911918640136719, -0.3437807700446919, 0.5180688028494559, 0.782963291674306,0.01969848602142804,0.892974853515625,0.510406494140625,-0.326324462890625
20220209-1457,2022-02-09 14:57:31Z,u01, 38,40,movements,el-ex, lt, d,18519.134124375, 1.325815772553973, -0.5480586027087451, 0.47394285008967735, -0.13544365763664246, 0.8045868873596191, -0.08671887964010239, 0.8280527591705322, 0.5210311412811279, -0.20701484382152557, 0.04761862754821777, -0.01234889030456543, -0.12312430143356323, -0.34642080332354186, 0.5258186014728786, 0.7766873944494742,0.01625102841783954,0.87567138671875,0.5086822509765625,-0.33013916015625
20220209-1457,2022-02-09 14:57:31Z,u01, 39,40,movements,el-ex, lt, d,18519.159070375, 1.3464728143503195, -0.5507207599745365, 0.476474462735793, -0.06906002759933472, 0.7394415736198425, -0.07936576008796692, 0.8307969570159912, 0.5233015418052673, -0.18955759704113007, 0.010893106460571289, -0.005814969539642334, -0.10806506872177124, -0.34816577943532945, 0.53291818608318, 0.7711128047722318,0.012805551682237959,0.843963623046875,0.5223388671875,-0.310791015625
20220209-1457,2022-02-09 14:57:31Z,u01, 40,40,movements,el-ex, lt, d,18519.184016375002, 1.3652675137662857, -0.5528034489939275, 0.47705776832462105, -0.04985756799578667, 0.7210097908973694, -0.058921732008457184, 0.8331437706947327, 0.5250751972198486, -0.17368760704994202, 0.02041757106781006, -0.017964601516723633, -0.0794404000043869, -0.349141452933671, 0.5396817975802121, 0.7660033178263415,0.009090395386226136,0.8535614013671875,0.507110595703125,-0.2531280517578125
20220209-1457,2022-02-09 14:57:31Z,u01, 41,40,movements,el-ex, lt, d,18519.208962375, 1.3845290119425757, -0.5543589600793746, 0.4799145698317147, -0.16982261836528778, 0.703571617603302, -0.03654219210147858, 0.8355309963226318, 0.5263983607292175, -0.1574573665857315, 0.056452035903930664, -0.04759281873703003, -0.06214714050292969, -0.35052099049769553, 0.5462658259052791, 0.760716063846454,0.006311510061642267,0.8884124755859375,0.4791259765625,-0.2210845947265625
20220209-1457,2022-02-09 14:57:31Z,u01, 42,40,movements,el-ex, lt, d,18519.233908375, 1.4044841590782382, -0.5560162223650745, 0.48527784931100587, -0.16847659647464752, 0.6568590998649597, -0.01414620690047741, 0.8376448750495911, 0.5278066992759705, -0.14060933887958527, 0.06965786218643188, -0.012196958065032959, -0.09362833201885223, -0.3526057476948083, 0.5525979709767783, 0.755172904967397,0.004297787938380038,0.9073028564453125,0.5156097412109375,-0.2342376708984375
20220209-1457,2022-02-09 14:57:31Z,u01, 43,40,movements,el-ex, lt, d,18519.258854375003, 1.4217842430677519, -0.5566133760119862, 0.4875431826996044, 0.022658374160528183, 0.636479914188385, -0.011085635982453823, 0.839640200138092, 0.5283138155937195, -0.1260508894920349, 0.01735442876815796, 0.009161829948425293, -0.11479377746582031, -0.35346098628174655, 0.5586053027795154, 0.7503478217078584,0.0019007512463549703,0.867431640625,0.5333709716796875,-0.2427215576171875
20220209-1457,2022-02-09 14:57:31Z,u01, 44,40,movements,el-ex, lt, d,18519.283799375, 1.434996222120476, -0.5553282785221463, 0.4837845551611064, 0.19426178932189941, 0.5708701610565186, 0.06639523804187775, 0.8419042229652405, 0.5272222757339478, -0.11503872275352478, 0.014800488948822021, 0.0031121373176574707, -0.10291778296232224, -0.3519819096963653, 0.5644372199911035, 0.7466708339740851,-0.0014111611489519005,0.8567047119140625,0.53033447265625,-0.21795654296875
20220209-1457,2022-02-09 14:57:31Z,u01, 45,40,movements,el-ex, lt, d,18519.308745375, 1.4468867714876554, -0.553274302646407, 0.4804495686425912, 0.04569411650300026, 0.5275481939315796, 0.06724445521831512, 0.8442854881286621, 0.5254758596420288, -0.10515375435352325, 0.04647684097290039, -0.027444183826446533, -0.11458802223205566, -0.35034333736855483, 0.5698093263756404, 0.7433441434034835,-0.004057944581880968,0.878204345703125,0.4956207275390625,-0.21417236328125
20220209-1457,2022-02-09 14:57:31Z,u01, 46,40,movements,el-ex, lt, d,18519.333691375003, 1.4587343574393992, -0.5517419056484844, 0.4798731883703913, 0.02032621204853058, 0.45418405532836914, 0.028122685849666595, 0.8462710380554199, 0.5241714715957642, -0.09523377567529678, 0.07375752925872803, -0.00494539737701416, -0.13023005425930023, -0.3496469202941511, 0.5745695285008428, 0.739988360358348,-0.005832322847127647,0.9200286865234375,0.51922607421875,-0.2254638671875
20220209-1457,2022-02-09 14:57:31Z,u01, 47,40,movements,el-ex, lt, d,18519.358637375, 1.469250970430478, -0.5512079698532422, 0.4800567189533619, 0.0025862958282232285, 0.38685309886932373, 0.0037077581509947777, 0.8475040793418884, 0.5237166881561279, -0.08635713160037994, 0.02831977605819702, 0.00901341438293457, -0.12635040283203125, -0.3494909102704541, 0.5785132128312879, 0.7369690694608597,-0.007423071078734189,0.885345458984375,0.5254058837890625,-0.209991455078125
20220209-1457,2022-02-09 14:57:32Z,u01, 48,40,movements,el-ex, lt, d,18519.383583375, 1.4771413703835752, -0.5509181633838632, 0.4776401264934335, 0.1667344570159912, 0.3495229482650757, 0.017440013587474823, 0.848310112953186, 0.5234697461128235, -0.07968155294656754, 0.014284372329711914, 0.01717960834503174, -0.14303570985794067, -0.3486622368415848, 0.5818881924430945, 0.7346758946595291,-0.009591433436483832,0.8625946044921875,0.5406494140625,-0.22271728515625
20220209-1457,2022-02-09 14:57:32Z,u01, 49,40,movements,el-ex, lt, d,18519.408529375, 1.4822859377909912, -0.5502843491726949, 0.47307504727422833, 0.10666336119174957, 0.2315853387117386, 0.003439977765083313, 0.8490391373634338, 0.5229296088218689, -0.07534564286470413, 0.05537968873977661, -0.015330791473388672, -0.1693595051765442, -0.3470979222249748, 0.5846795791536424, 0.733164388828115,-0.011946672086790955,0.8973388671875,0.5114898681640625,-0.23541259765625
20220209-1457,2022-02-09 14:57:32Z,u01, 50,40,movements,el-ex, lt, d,18519.433474375, 1.4859977855854145, -0.5503088461885614, 0.4720063559573296, -0.009485447779297829, 0.10348042845726013, -0.018870854750275612, 0.8493003249168396, 0.5229505300521851, -0.07219255715608597, 0.0540199875831604, -0.006348907947540283, -0.21876204013824463, -0.3467698498430895, 0.5862204316389386, 0.7320707356692233,-0.012990322377197827,0.9033203125,0.5166015625,-0.29095458984375
20220209-1457,2022-02-09 14:57:32Z,u01, 51,40,movements,el-ex, lt, d,18519.458420375002, 1.4876814885912986, -0.550788089511513, 0.47295846316607404, -0.059662364423274994, -0.012365279719233513, -0.029362179338932037, 0.8491708636283875, 0.523358941078186, -0.070741668343544, 0.057628512382507324, -0.010053277015686035, -0.1910228133201599, -0.3471927505569724, 0.5865887476698709, 0.7315732102558018,-0.013096996860804622,0.902587890625,0.5176849365234375,-0.2718353271484375
20220209-1457,2022-02-09 14:57:32Z,u01, 52,40,movements,el-ex, lt, d,18519.483366375, 1.4865079456485202, -0.5515227372195597, 0.4756863766032059, -0.11088253557682037, -0.18672722578048706, -0.003240295685827732, 0.8487037420272827, 0.5239847898483276, -0.07170575857162476, 0.08488994836807251, 0.005220472812652588, -0.18172746896743774, -0.3482365610886955, 0.5855582119561974, 0.7319188988134167,-0.012144781113872793,0.93359375,0.529205322265625,-0.2534332275390625
20220209-1457,2022-02-09 14:57:32Z,u01, 53,40,movements,el-ex, lt, d,18519.508312375, 1.4792148530813762, -0.551049593550016, 0.47658919399194827, -0.05858881399035454, -0.27078771591186523, -0.022637097164988518, 0.8484050631523132, 0.5235817432403564, -0.07791613787412643, 0.07145565748214722, 0.006127119064331055, -0.20307445526123047, -0.3483884328753883, 0.5828099428975088, 0.7340641835000172,-0.010383148233926665,0.9208831787109375,0.5341949462890625,-0.2711639404296875
20220209-1457,2022-02-09 14:57:32Z,u01, 54,40,movements,el-ex, lt, d,18519.533258375002, 1.4705788383483855, -0.5514327448316734, 0.4778685230880147, -0.10219421237707138, -0.3713183104991913, -0.03756038472056389, 0.8475010395050049, 0.5239081382751465, -0.08521991968154907, 0.08713042736053467, -0.008511960506439209, -0.21931493282318115, -0.34892524777030365, 0.579345501612283, 0.7365712509784093,-0.008536814057250985,0.93463134765625,0.5153961181640625,-0.304534912109375
20220209-1457,2022-02-09 14:57:32Z,u01, 55,40,movements,el-ex, lt, d,18519.558204375, 1.4589771827047433, -0.552028583045589, 0.47832074168232647, 0.022409670054912567, -0.4589535593986511, -0.043400101363658905, 0.8461448550224304, 0.5244155526161194, -0.09501151740550995, 0.1172034740447998, 0.01231229305267334, -0.25623053312301636, -0.34929374616804937, 0.5748809610470414, 0.739907381926193,-0.006545291179794743,0.953887939453125,0.535858154296875,-0.349822998046875
20220209-1457,2022-02-09 14:57:32Z,u01, 56,40,movements,el-ex, lt, d,18519.583149375, 1.4441247104496715, -0.5528851268247625, 0.4757166227572406, 0.1297229528427124, -0.6086292862892151, -0.06564388424158096, 0.8441946506500244, 0.5251446962356567, -0.10751114785671234, 0.12794291973114014, 0.010301530361175537, -0.2780020833015442, -0.34887336403717834, 0.5696769264770785, 0.7441294349461745,-0.005205417931716638,0.972137451171875,0.5354461669921875,-0.3855133056640625
20220209-1457,2022-02-09 14:57:32Z,u01, 57,40,movements,el-ex, lt, d,18519.608095375002, 1.423862859768384, -0.5537811462928162, 0.4687655987261513, 0.3891814053058624, -0.7316798567771912, -0.04908008873462677, 0.8413772583007812, 0.5259069800376892, -0.12452390044927597, 0.11235809326171875, 0.013369143009185791, -0.33900755643844604, -0.3472512976092329, 0.5631647944197702, 0.7498273578600695,-0.004572337257454817,0.9507904052734375,0.5346527099609375,-0.4444427490234375
20220209-1457,2022-02-09 14:57:32Z,u01, 58,40,movements,el-ex, lt, d,18519.633041375, 1.3971637631621807, -0.5528608895262194, 0.4550242990721312, 0.46294882893562317, -0.8489013314247131, -0.024124139919877052, 0.8382293581962585, 0.5251240730285645, -0.14702440798282623, 0.15221858024597168, 0.0002970099449157715, -0.38065505027770996, -0.34316106483311404, 0.5556332262725214, 0.7572903897950132,-0.004840344053131607,0.990447998046875,0.525421142578125,-0.527679443359375
20220209-1457,2022-02-09 14:57:32Z,u01, 59,40,movements,el-ex, lt, d,18519.657987375, 1.3671437715718138, -0.5516727350552364, 0.44364955397041944, 0.35064712166786194, -1.0785222053527832, -0.02756853774189949, 0.8340491056442261, 0.5241125226020813, -0.1722440868616104, 0.18458175659179688, -0.0032995939254760742, -0.3855257034301758, -0.33968464549134403, 0.5463444876778338, 0.7655772886533705,-0.003663297584341696,1.019134521484375,0.5128021240234375,-0.5443115234375
20220209-1457,2022-02-09 14:57:32Z,u01, 60,40,movements,el-ex, lt, d,18519.682933375003, 1.3310165857425253, -0.5500797987474394, 0.43086567996112335, 0.5757642984390259, -1.274342656135559, -0.04637804627418518, 0.8280935883522034, 0.5227552652359009, -0.20245502889156342, 0.18608182668685913, 0.04531419277191162, -0.4112534523010254, -0.33572485990685547, 0.5348469907952659, 0.7753861325992493,-0.001984171371194998,1.0141754150390625,0.5680694580078125,-0.61370849609375
20220209-1457,2022-02-09 14:57:32Z,u01, 61,40,movements,el-ex, lt, d,18519.707879375, 1.284961442823306, -0.546289953016292, 0.4089130023053178, 0.914823591709137, -1.5062921047210693, -0.0497419536113739, 0.819789469242096, 0.5195207595825195, -0.24092166125774384, 0.22745168209075928, 0.1016950011253357, -0.4322197437286377, -0.3286206844110827, 0.5211023056089324, 0.7876913378795838,-0.0017438032527041791,1.0439910888671875,0.620208740234375,-0.670166015625
20220209-1457,2022-02-09 14:57:32Z,u01, 62,40,movements,el-ex, lt, d,18519.732824375, 1.2320315553344428, -0.541330917583905, 0.3834918115239142, 0.7579183578491211, -1.6843633651733398, -0.1256820559501648, 0.8083155751228333, 0.515277087688446, -0.28480812907218933, 0.24792832136154175, 0.06916505098342896, -0.39661890268325806, -0.32032872391041417, 0.5049608369715453, 0.801499249297565,-0.0017730207081783078,1.056243896484375,0.584442138671875,-0.681427001953125
20220209-1457,2022-02-09 14:57:32Z,u01, 63,40,movements,el-ex, lt, d,18519.757770375, 1.177331733795375, -0.5402626593531753, 0.3657732009412565, 0.45637083053588867, -1.956885814666748, -0.21423494815826416, 0.7920432686805725, 0.5143612623214722, -0.32878562808036804, 0.2988991141319275, 0.08283722400665283, -0.35309910774230957, -0.3155606339063683, 0.4858278210364031, 0.8151029497803332,6.951839464752751e-05,1.0888214111328125,0.5830535888671875,-0.6732940673828125
20220209-1457,2022-02-09 14:57:32Z,u01, 64,40,movements,el-ex, lt, d,18519.782716375, 1.1172443167118913, -0.5402963940469923, 0.3491385725507992, 0.6521758437156677, -2.1638782024383545, -0.24369098246097565, 0.7708542346954346, 0.5143901705741882, -0.3757478594779968, 0.31946253776550293, 0.145491361618042, -0.3494870960712433, -0.31158313476209415, 0.46372624052331557, 0.8293774187203427,0.002641475750291944,1.0903167724609375,0.659881591796875,-0.7252349853515625
20220209-1457,2022-02-09 14:57:32Z,u01, 65,40,movements,el-ex, lt, d,18519.807662375002, 1.0478481275275884, -0.5366603705670561, 0.32479572342402163, 0.874308168888092, -2.409022331237793, -0.28968796133995056, 0.7445597648620605, 0.511268675327301, -0.4292261600494385, 0.34154558181762695, 0.17270654439926147, -0.31766098737716675, -0.3045320384457147, 0.4389158824544048, 0.8453380058947686,0.004096811773702802,1.0910186767578125,0.69049072265625,-0.7482757568359375
20220209-1457,2022-02-09 14:57:32Z,u01, 66,40,movements,el-ex, lt, d,18519.832608375, 0.9720595673587145, -0.533700927329297, 0.30158777909771856, 0.5415548086166382, -2.7349183559417725, -0.37063661217689514, 0.7111698985099792, 0.5087230801582336, -0.485219806432724, 0.35308486223220825, 0.14014166593551636, -0.2297612428665161, -0.2981999223122045, 0.4104472030606325, 0.8617248318299677,0.006346124053813629,1.0642547607421875,0.64886474609375,-0.7149810791015625
20220209-1457,2022-02-09 14:57:32Z,u01, 67,40,movements,el-ex, lt, d,18519.857554375, 0.8920385237427488, -0.5373418733487136, 0.28669831554686104, 0.12892353534698486, -3.034935474395752, -0.49070635437965393, 0.6686616539955139, 0.5118542909622192, -0.5393484234809875, 0.3303923010826111, 0.15188777446746826, -0.2142372727394104, -0.29644053942045806, 0.37742388224483137, 0.8772427188515646,0.010924493998888063,1.0082855224609375,0.6488800048828125,-0.7437896728515625
20220209-1457,2022-02-09 14:57:32Z,u01, 68,40,movements,el-ex, lt, d,18519.882499375002, 0.8084738948129246, -0.546216607537305, 0.27476840085734844, 0.06957288086414337, -3.1474456787109375, -0.5826801657676697, 0.6180005669593811, 0.5194580554962158, -0.5901173949241638, 0.3903917670249939, 0.2052580714225769, -0.1518411636352539, -0.2975194290318521, 0.34120886694945923, 0.8915141333529516,0.016159443723486877,1.008392333984375,0.7247161865234375,-0.7419586181640625
20220209-1457,2022-02-09 14:57:32Z,u01, 69,40,movements,el-ex, lt, d,18519.907445375, 0.7212592428377045, -0.5552914535755393, 0.2585823210870253, 0.21546168625354767, -3.1610560417175293, -0.718436598777771, 0.5611140727996826, 0.5271909832954407, -0.638138473033905, 0.4831211566925049, 0.24833697080612183, -0.1133110523223877, -0.2980735229484433, 0.3034517003959576, 0.9048010755910292,0.02010781943333778,1.0430450439453125,0.7718048095703125,-0.740264892578125
20220209-1457,2022-02-09 14:57:32Z,u01, 70,40,movements,el-ex, lt, d,18519.932391375, 0.6287387652476425, -0.5591616811964482, 0.23321905578426524, 0.633632242679596, -3.161189556121826, -0.8083128929138184, 0.4985537827014923, 0.5304757356643677, -0.685594379901886, 0.4978756606578827, 0.2503927946090698, -0.07736033201217651, -0.2952256223527878, 0.2646594931311538, 0.917785806383196,0.02159761993948317,0.996429443359375,0.7808685302734375,-0.7629547119140625
20220209-1457,2022-02-09 14:57:32Z,u01, 71,40,movements,el-ex, lt, d,18519.957337375003, 0.5323331210533743, -0.5548433151998, 0.2002817434609434, 0.8460100293159485, -3.1621272563934326, -0.8509464263916016, 0.43140462040901184, 0.5268101096153259, -0.7323668003082275, 0.44953104853630066, 0.2093043327331543, -0.011590659618377686, -0.2881999022120789, 0.2252940578691115, 0.9304508195074674,0.021086981222139922,0.900543212890625,0.7451171875,-0.750885009765625
20220209-1457,2022-02-09 14:57:32Z,u01, 72,40,movements,el-ex, lt, d,18519.982283375, 0.43607910991722737, -0.5454608325486252, 0.1668626761877473, 0.8519428372383118, -3.136171579360962, -0.8395861387252808, 0.3610951900482178, 0.5188121199607849, -0.7748833298683167, 0.43834325671195984, 0.1655445694923401, 0.0304834246635437, -0.27942994844016183, 0.1856804600205393, 0.9418226260954763,0.020289667976948422,0.7994384765625,0.684356689453125,-0.7444000244140625
20220209-1457,2022-02-09 14:57:32Z,u01, 73,40,movements,el-ex, lt, d,18520.007229375, 0.3419346759689383, -0.5336000654824172, 0.13516572656290943, 0.8678514957427979, -3.1089792251586914, -0.8210342526435852, 0.2886960506439209, 0.5086362361907959, -0.811137318611145, 0.4088594615459442, 0.1407167911529541, 0.029917895793914795, -0.27029217167145086, 0.14619671036260035, 0.951415116327804,0.019439204262266196,0.7144927978515625,0.6495513916015625,-0.7758026123046875
20220209-1457,2022-02-09 14:57:32Z,u01, 74,40,movements,el-ex, lt, d,18520.032172416668, 0.24926683234573313, -0.517722193147814, 0.10570614148530691, 0.9798508286476135, -3.1237640380859375, -0.759693443775177, 0.21436402201652527, 0.4949021339416504, -0.8420926332473755, 0.41051390767097473, 0.161195307970047, 0.06737339496612549, -0.25998787329305373, 0.10658329387363785, 0.9595255727398574,0.018895550302658215,0.6248779296875,0.656097412109375,-0.77471923828125
20220209-1457,2022-02-09 14:57:32Z,u01, 75,40,movements,el-ex, lt, d,18520.05711841667, 0.1592275362466367, -0.49520699603224416, 0.07944918734496001, 1.1482919454574585, -3.0883896350860596, -0.6792822480201721, 0.13950833678245544, 0.47521379590034485, -0.8687400221824646, 0.39735692739486694, 0.17568039894104004, 0.17673873901367188, -0.24717435270399082, 0.06734104732651428, 0.9664432633566018,0.01890514825301004,0.5453643798828125,0.659332275390625,-0.6992340087890625
20220209-1457,2022-02-09 14:57:32Z,u01, 76,40,movements,el-ex, lt, d,18520.082064416667, 0.07299375890500547, -0.46769682294568915, 0.056142651911439745, 1.2695627212524414, -2.9535112380981445, -0.7044395804405212, 0.06509704142808914, 0.45083165168762207, -0.8902320861816406, 0.41512757539749146, 0.18285062909126282, 0.23225784301757812, -0.2324736413003452, 0.028982053078712974, 0.97198829495778,0.018833553334804243,0.480224609375,0.6336822509765625,-0.6579742431640625
20220209-1457,2022-02-09 14:57:32Z,u01, 77,40,movements,el-ex, lt, d,18520.10701041667, -0.008911146618745988, -0.4341006862961571, 0.035027124559607, 1.4303544759750366, -2.8612728118896484, -0.7344194650650024, -0.00808451883494854, 0.4205946624279022, -0.9072126150131226, 0.3794224262237549, 0.18820050358772278, 0.36204665899276733, -0.21523875110738938, -0.008121667292747686, 0.9763606649274547,0.018060953473062025,0.401519775390625,0.6230926513671875,-0.5937957763671875
20220209-1457,2022-02-09 14:57:32Z,u01, 78,40,movements,el-ex, lt, d,18520.131956416666, -0.0856897821039916, -0.3988744186103479, 0.01686835653889094, 1.3124417066574097, -2.6791422367095947, -0.71467125415802, -0.07886642962694168, 0.38838136196136475, -0.9181176424026489, 0.3540586829185486, 0.14929258823394775, 0.5141564607620239, -0.19757478180462223, -0.043650694610525606, 0.9791723508175856,0.016744746213950057,0.2751922607421875,0.5376739501953125,-0.403961181640625
20220209-1457,2022-02-09 14:57:32Z,u01, 79,40,movements,el-ex, lt, d,18520.156902416667, -0.15581851576761335, -0.3672267663733874, 0.0016022884393465714, 1.0812594890594482, -2.4741928577423096, -0.702018141746521, -0.14484179019927979, 0.35902848839759827, -0.9220191836357117, 0.2610374689102173, 0.12319505214691162, 0.7302772998809814, -0.1819681862277468, -0.07666796962008336, 0.9801962924804261,0.014995833367425937,0.1439056396484375,0.4891815185546875,-0.2286224365234375
20220209-1457,2022-02-09 14:57:32Z,u01, 80,40,movements,el-ex, lt, d,18520.18184741667, -0.2186083729243691, -0.3393384233950594, -0.0117275335761166, 0.9363138675689697, -2.177565097808838, -0.700132429599762, -0.20450425148010254, 0.33286330103874207, -0.9205324649810791, 0.22411179542541504, 0.12515977025032043, 0.8291018009185791, -0.168476218113863, -0.10653419194818475, 0.9798497338308254,0.012674615415556423,0.0196075439453125,0.4580230712890625,-0.0914306640625
20220209-1457,2022-02-09 14:57:32Z,u01, 81,40,movements,el-ex, lt, d,18520.206793416666, -0.27207354807400824, -0.3181653132784756, -0.025713580940760098, 0.41450339555740356, -1.7241274118423462, -0.7032374143600464, -0.2552420198917389, 0.3128244876861572, -0.9148728847503662, 0.12065950036048889, 0.05321863293647766, 1.0578477382659912, -0.1586575424510145, -0.13187625900395783, 0.9784463511186405,0.008904921891221829,-0.1170501708984375,0.384124755859375,0.107147216796875
20220209-1457,2022-02-09 14:57:32Z,u01, 82,40,movements,el-ex, lt, d,18520.231739416668, -0.312739823803343, -0.3094137200647335, -0.04129029570439629, -0.05229981988668442, -1.1356145143508911, -0.6366932392120361, -0.29305630922317505, 0.3045002520084381, -0.9063099026679993, 0.09691983461380005, -0.006023049354553223, 1.159529447555542, -0.15535450347068439, -0.15069850181345318, 0.9762889905436922,0.0038436587960433144,-0.196136474609375,0.2984771728515625,0.2532196044921875
20220209-1457,2022-02-09 14:57:32Z,u01, 83,40,movements,el-ex, lt, d,18520.25668541667, -0.3368133298485037, -0.3073788240222649, -0.0576200765184834, -0.07971436530351639, -0.3635656535625458, -0.6083296537399292, -0.31499147415161133, 0.30256134271621704, -0.8995760083198547, -0.008479595184326172, -0.10415130853652954, 1.1038758754730225, -0.15562809243629883, -0.1612199921891344, 0.9745677528912935,-0.002415591237495518,-0.300994873046875,0.2012786865234375,0.2157745361328125
20220209-1457,2022-02-09 14:57:32Z,u01, 84,40,movements,el-ex, lt, d,18520.281631416667, -0.3395809361448855, -0.29787551981205096, -0.07004419545709761, 0.5225082635879517, 0.4264014959335327, -0.471102774143219, -0.318423330783844, 0.293489933013916, -0.9013713002204895, -0.04562082886695862, -0.0630364716053009, 1.0714763402938843, -0.15201544765548275, -0.1618816083463674, 0.9749888664020363,-0.009070796117321478,-0.364044189453125,0.2304534912109375,0.17010498046875
20220209-1457,2022-02-09 14:57:32Z,u01, 85,40,movements,el-ex, lt, d,18520.306577416668, -0.3224929870786903, -0.28166259436402025, -0.07297348169438891, 0.5275305509567261, 0.9424221515655518, -0.25459983944892883, -0.3044431805610657, 0.2779531180858612, -0.9110743403434753, 0.030059635639190674, -0.18781942129135132, 0.9684931635856628, -0.14425179070270483, -0.1537994191250095, 0.9774276627368618,-0.013128365691724875,-0.292144775390625,0.114837646484375,0.084564208984375
20220209-1457,2022-02-09 14:57:32Z,u01, 86,40,movements,el-ex, lt, d,18520.33152241667, -0.2967829608014909, -0.27520997757271637, -0.07620271870069537, -0.108303502202034, 1.171610951423645, -0.14787410199642181, -0.2814400792121887, 0.27174901962280273, -0.9202955961227417, 0.07858970761299133, -0.20598360896110535, 0.8425978422164917, -0.14114377670027337, -0.14117592108500512, 0.9797229742921159,-0.017051713603176533,-0.202850341796875,0.065765380859375,-0.07769775390625
20220209-1457,2022-02-09 14:57:32Z,u01, 87,40,movements,el-ex, lt, d,18520.356468416667, -0.26661985150015877, -0.2802209451436272, -0.08085763988960655, -0.2862791419029236, 1.3313493728637695, -0.06624136865139008, -0.25319531559944153, 0.2765679955482483, -0.9270395040512085, 0.08679825067520142, -0.08305603265762329, 0.6117166876792908, -0.1436198301484573, -0.12591101857437995, 0.9813631643746725,-0.021119833967906843,-0.1689453125,0.179351806640625,-0.287261962890625
20220209-1457,2022-02-09 14:57:33Z,u01, 88,40,movements,el-ex, lt, d,18520.381414416668, -0.2320076940219989, -0.28674606144353465, -0.08264604726786091, -0.2778937816619873, 1.4959588050842285, 0.05801233649253845, -0.22054359316825867, 0.28283265233039856, -0.9334700107574463, 0.06609413027763367, -0.06843137741088867, 0.5110762119293213, -0.14653335657463576, -0.10859550650367168, 0.9829316785831396,-0.024088962762993937,-0.154449462890625,0.2144012451171875,-0.422393798828125
20220209-1457,2022-02-09 14:57:33Z,u01, 89,40,movements,el-ex, lt, d,18520.40636041667, -0.19200946668578622, -0.2965581240567202, -0.08158766448502255, -0.5148292183876038, 1.7038908004760742, 0.1613476574420929, -0.18250161409378052, 0.2922303080558777, -0.9387729167938232, 0.07936745882034302, -0.0707489550113678, 0.42381930351257324, -0.15080005233007526, -0.08872927613636722, 0.9842308785336276,-0.025999439769789245,-0.112335205078125,0.2129669189453125,-0.494873046875
20220209-1457,2022-02-09 14:57:33Z,u01, 90,40,movements,el-ex, lt, d,18520.431306416667, -0.14669369951222383, -0.3104168541104049, -0.0796090031172866, -0.48679816722869873, 1.8950434923171997, 0.17255988717079163, -0.13918223977088928, 0.30545559525489807, -0.9419794082641602, 0.07445445656776428, -0.053258299827575684, 0.32051944732666016, -0.15692935683783324, -0.06620780788029984, 0.9849933781680849,-0.02789067240488141,-0.064727783203125,0.252197265625,-0.6214599609375
20220209-1457,2022-02-09 14:57:33Z,u01, 91,40,movements,el-ex, lt, d,18520.45625241667, -0.09470931947708237, -0.3207251664513069, -0.07448205578926217, -0.30783340334892273, 2.146570920944214, 0.3078223168849945, -0.08974550664424896, 0.3152548372745514, -0.9447540044784546, 0.10662171989679337, -0.015785813331604004, 0.2638610601425171, -0.1611264066859281, -0.040758737194574124, 0.9856605778265591,-0.029160161385806627,0.0003509521484375,0.308013916015625,-0.6702117919921875
20220209-1457,2022-02-09 14:57:33Z,u01, 92,40,movements,el-ex, lt, d,18520.481198416666, -0.036539146326029594, -0.33038370296946423, -0.06696658606184859, -0.39654526114463806, 2.282846450805664, 0.3191767632961273, -0.0345553420484066, 0.3244059979915619, -0.9452865719795227, 0.1330050528049469, -0.052631676197052, 0.1946914792060852, -0.16492522618370267, -0.012505665493511703, 0.9857699930648817,-0.030013370929401872,0.09844970703125,0.2717742919921875,-0.7505950927734375
20220209-1457,2022-02-09 14:57:33Z,u01, 93,40,movements,el-ex, lt, d,18520.506143416667, 0.02378617609633344, -0.33895571057588375, -0.057954896064651255, -0.25805461406707764, 2.280749559402466, 0.3972896635532379, 0.02243068441748619, 0.3325023949146271, -0.9428356289863586, 0.154220312833786, -0.03152275085449219, 0.014933407306671143, -0.16824532572309392, 0.016604026206519948, 0.9851314356786318,-0.03056135867911386,0.173004150390625,0.3077239990234375,-0.90106201171875
20220209-1457,2022-02-09 14:57:33Z,u01, 94,40,movements,el-ex, lt, d,18520.53108941667, 0.08474874630504126, -0.3450819381001058, -0.04573228524201811, -0.3388032615184784, 2.3264989852905273, 0.5348864197731018, 0.079657182097435, 0.3382737934589386, -0.9376702904701233, 0.0819944217801094, -0.0561998188495636, 0.039538025856018066, -0.1705329850582536, 0.04564371324849241, 0.9838438645831702,-0.029775447004235733,0.161651611328125,0.282073974609375,-0.89813232421875
20220209-1457,2022-02-09 14:57:33Z,u01, 95,40,movements,el-ex, lt, d,18520.556035416666, 0.14950842833731023, -0.3540447276149937, -0.028551107021126395, -0.4835027754306793, 2.3310701847076416, 0.6102920174598694, 0.13971377909183502, 0.3466944992542267, -0.9275144338607788, 0.20687435567378998, -0.0521845817565918, -0.05193197727203369, -0.174540082460858, 0.07601678574297241, 0.9813355197695399,-0.027163302508280196,0.3119354248046875,0.282470703125,-0.9514312744140625
20220209-1457,2022-02-09 14:57:33Z,u01, 96,40,movements,el-ex, lt, d,18520.580981416668, 0.21104640583948656, -0.36016926779569325, -0.011104025990247075, -0.1676625907421112, 2.118478298187256, 0.6073580980300903, 0.19604216516017914, 0.35243263840675354, -0.915073037147522, 0.22984586656093597, 0.03144797682762146, -0.11883193254470825, -0.1775384830329826, 0.10461148427410988, 0.9782362170776452,-0.024297032967090793,0.4258880615234375,0.383880615234375,-1.033905029296875
20220209-1457,2022-02-09 14:57:33Z,u01, 97,40,movements,el-ex, lt, d,18520.60592741667, 0.2675660748063693, -0.3574752245407929, 0.005354523484293307, 0.007255649194121361, 1.9934717416763306, 0.6255831122398376, 0.24767135083675385, 0.349910169839859, -0.9034499526023865, 0.13149431347846985, 0.012226700782775879, -0.15349584817886353, -0.1765495748286107, 0.13078715829898227, 0.9753356994166825,-0.021102903550588692,0.391571044921875,0.3708953857421875,-1.0593414306640625
20220209-1457,2022-02-09 14:57:33Z,u01, 98,40,movements,el-ex, lt, d,18520.630873416667, 0.3223678749600656, -0.35612655122996245, 0.02207922066160462, -0.32759687304496765, 1.934791088104248, 0.6199069023132324, 0.29693466424942017, 0.34864646196365356, -0.8889743685722351, 0.11374038457870483, -0.01611161231994629, -0.10277062654495239, -0.1765609397069982, 0.15600977314408807, 0.9716860569318313,-0.017700316190591925,0.410675048828125,0.3325347900390625,-0.9917449951171875
20220209-1457,2022-02-09 14:57:33Z,u01, 99,40,movements,el-ex, lt, d,18520.655818416668, 0.3759612088503659, -0.36391026943249294, 0.042618361884207534, -0.7381258606910706, 1.7454910278320312, 0.5901030898094177, 0.34312182664871216, 0.3559311330318451, -0.8692412972450256, 0.22415417432785034, 0.031138598918914795, -0.10172116756439209, -0.1816407980953396, 0.17996099586343178, 0.9666674774962087,-0.013221296336584198,0.5469970703125,0.3638153076171875,-0.96844482421875
20220209-1457,2022-02-09 14:57:33Z,u01, 100,40,movements,el-ex, lt, d,18520.68076441667, 0.42418903479360937, -0.3752067700307806, 0.06392352566627449, -0.632930338382721, 1.5478929281234741, 0.49143514037132263, 0.3829488456249237, 0.36646491289138794, -0.8479703068733215, 0.1805887222290039, 0.08641594648361206, -0.11493551731109619, -0.18884159899791092, 0.2008822908645343, 0.9612034680689847,-0.008548594763558681,0.56353759765625,0.452880859375,-0.9629058837890625
20220209-1457,2022-02-09 14:57:33Z,u01, 101,40,movements,el-ex, lt, d,18520.705710416667, 0.46935997228699566, -0.38018851515476343, 0.08139161317227295, -0.2877797782421112, 1.542511224746704, 0.5452303290367126, 0.4200178384780884, 0.37109553813934326, -0.8281745910644531, 0.09312000870704651, 0.07205024361610413, -0.09611129760742188, -0.19290994884562093, 0.22067727679595922, 0.9560658393536774,-0.005044257128243246,0.5003662109375,0.457061767578125,-0.9217376708984375
20220209-1457,2022-02-09 14:57:33Z,u01, 102,40,movements,el-ex, lt, d,18520.73065641667, 0.5130820006663345, -0.3806167231532731, 0.09834538582496474, -0.39481768012046814, 1.4495611190795898, 0.55624920129776, 0.45573633909225464, 0.3714931309223175, -0.8088864088058472, 0.13339024782180786, 0.044400423765182495, -0.05054956674575806, -0.19499663162748124, 0.23986060076040597, 0.9510213241672398,-0.0012532658152163423,0.5891265869140625,0.4158935546875,-0.85943603515625
20220209-1457,2022-02-09 14:57:33Z,u01, 103,40,movements,el-ex, lt, d,18520.755602416666, 0.5549162627015192, -0.3845731526773831, 0.1163835570083037, -0.5260745286941528, 1.3696924448013306, 0.42089560627937317, 0.48838868737220764, 0.3751634955406189, -0.7878634929656982, 0.14079222083091736, 0.07263621687889099, -0.011300325393676758, -0.19912074090210283, 0.2577192169121526, 0.9454759382082447,0.0026467516506475386,0.6412200927734375,0.4353485107421875,-0.8146209716796875
20220209-1457,2022-02-09 14:57:33Z,u01, 104,40,movements,el-ex, lt, d,18520.780548416667, 0.5959097089740749, -0.38825295964921325, 0.1307488158424556, -0.22261856496334076, 1.50541353225708, 0.30590471625328064, 0.5194882154464722, 0.3785719871520996, -0.766038715839386, 0.04908478260040283, 0.09333661198616028, -0.047178447246551514, -0.2028335335365847, 0.2753891825129783, 0.9396791060079576,0.004765772931539125,0.568572998046875,0.4719085693359375,-0.8132171630859375
20220209-1457,2022-02-09 14:57:33Z,u01, 105,40,movements,el-ex, lt, d,18520.80549341667, 0.6368257522252211, -0.38347961564193733, 0.13665123821023745, 0.22222401201725006, 1.5464602708816528, 0.2812132239341736, 0.5514562129974365, 0.3741496205329895, -0.7455924153327942, 0.08419442176818848, 0.10381671786308289, -0.09412920475006104, -0.20154733424714683, 0.294248968522375, 0.9342264844802675,0.004132727613948672,0.6179656982421875,0.4869537353515625,-0.8439788818359375
20220209-1457,2022-02-09 14:57:33Z,u01, 106,40,movements,el-ex, lt, d,18520.830439416666, 0.6756550289391633, -0.37624367411923926, 0.1399383836343775, -0.0021295305341482162, 1.45344877243042, 0.25143522024154663, 0.581662118434906, 0.3674294948577881, -0.725716769695282, 0.108737051486969, 0.0429404079914093, -0.03876382112503052, -0.19877457705374255, 0.31245846682859474, 0.9288970221822177,0.0029647646724326737,0.690399169921875,0.410369873046875,-0.7644805908203125
20220209-1457,2022-02-09 14:57:33Z,u01, 107,40,movements,el-ex, lt, d,18520.855385416668, 0.7150941786119982, -0.37650051090624415, 0.14631942130099707, -0.19953134655952454, 1.5254020690917969, 0.1291794627904892, 0.6097621321678162, 0.36766836047172546, -0.7021468281745911, 0.09139448404312134, 0.06781747937202454, -0.033235251903533936, -0.19996577951634734, 0.33006103268177167, 0.9225343457565799,0.0019424378718003177,0.6910552978515625,0.42779541015625,-0.7352142333984375
20220209-1457,2022-02-09 14:57:33Z,u01, 108,40,movements,el-ex, lt, d,18520.88033141667, 0.7548075953265198, -0.377914399874574, 0.14987863296728485, -0.05036091059446335, 1.5235726833343506, 0.02089373581111431, 0.6368018984794617, 0.36898285150527954, -0.6770045161247253, 0.0839012861251831, 0.08734652400016785, -0.06951647996902466, -0.20122452262535673, 0.34785978995371164, 0.915697533459777,-0.0006629725098916128,0.720703125,0.456329345703125,-0.74652099609375
20220209-1457,2022-02-09 14:57:33Z,u01, 109,40,movements,el-ex, lt, d,18520.905277416667, 0.7916108167858149, -0.37627515661377303, 0.14960160197556305, 0.12512695789337158, 1.4101723432540894, 0.04047982394695282, 0.6617104411125183, 0.3674587607383728, -0.6535391211509705, 0.10569989681243896, 0.0788913369178772, -0.06902551651000977, -0.2003914067045462, 0.36479270535427755, 0.9092591604410355,-0.004171313522075226,0.7603302001953125,0.452911376953125,-0.7218017578125
20220209-1457,2022-02-09 14:57:33Z,u01, 110,40,movements,el-ex, lt, d,18520.930223416668, 0.8248808640370521, -0.3757101567709183, 0.1497220252417198, -0.16018381714820862, 1.2563227415084839, 0.0015234993770718575, 0.6832359433174133, 0.36693325638771057, -0.6313072443008423, 0.11066365242004395, 0.041834503412246704, -0.06095355749130249, -0.2000651986513863, 0.3798951278758588, 0.9031057354411395,-0.007335164130061467,0.7938995361328125,0.4087677001953125,-0.6922607421875
20220209-1457,2022-02-09 14:57:33Z,u01, 111,40,movements,el-ex, lt, d,18520.95516941667, 0.8573587865935095, -0.38248501611206276, 0.15638256412718513, -0.5247175097465515, 1.209150791168213, -0.10395438969135284, 0.7014797925949097, 0.373227059841156, -0.6071472764015198, 0.06477081775665283, 0.022280782461166382, 0.014923155307769775, -0.2042281943796288, 0.3933410877556701, 0.896377383576748,-0.009020160245957476,0.7772369384765625,0.3885650634765625,-0.60174560546875
20220209-1457,2022-02-09 14:57:33Z,u01, 112,40,movements,el-ex, lt, d,18520.980114416667, 0.8922513914987438, -0.3925547132634483, 0.16339054023344254, -0.25198662281036377, 1.366634488105774, -0.15894007682800293, 0.7192710041999817, 0.38255006074905396, -0.5799177289009094, 0.047681450843811035, 0.08543702960014343, -0.040657103061676025, -0.20987943155716918, 0.4074208488001456, 0.8887197771844562,-0.011661217221551445,0.7669525146484375,0.467987060546875,-0.620574951171875
20220209-1457,2022-02-09 14:57:33Z,u01, 113,40,movements,el-ex, lt, d,18521.005060416668, 0.9251970395942574, -0.3950824565809762, 0.1585252653576632, 0.3341132700443268, 1.3632644414901733, -0.1939256191253662, 0.7372083067893982, 0.3848842978477478, -0.5553269386291504, 0.06950855255126953, 0.12251627445220947, -0.09037923812866211, -0.209728618292355, 0.422315576474136, 0.8816720136846512,-0.017830964621806333,0.802581787109375,0.520111083984375,-0.6581573486328125
20220209-1457,2022-02-09 14:57:33Z,u01, 114,40,movements,el-ex, lt, d,18521.03000529167, 0.9555716390432261, -0.3963730963543335, 0.15248442965448825, -0.16087380051612854, 1.265912652015686, -0.1709510087966919, 0.7533271908760071, 0.3860751986503601, -0.5323946475982666, 0.04984968900680542, -0.011044681072235107, 0.03462249040603638, -0.20867262407635392, 0.4361862155238977, 0.8749990796650071,-0.023955916177810455,0.8031768798828125,0.375030517578125,-0.497772216796875
20220209-1457,2022-02-09 14:57:33Z,u01, 115,40,movements,el-ex, lt, d,18521.05495129167, 0.9889419536480397, -0.4086309633957408, 0.1613246121188538, -0.8222994804382324, 1.1432238817214966, -0.27484291791915894, 0.766659140586853, 0.3973533809185028, -0.504325270652771, 0.1378665566444397, -0.004103869199752808, -0.02202659845352173, -0.21545597266101374, 0.44879402825989057, 0.8668673301971375,-0.026526528607881017,0.9024658203125,0.3748016357421875,-0.52020263671875
20220209-1457,2022-02-09 14:57:33Z,u01, 116,40,movements,el-ex, lt, d,18521.079897291667, 1.0222855760644314, -0.42418957782548344, 0.17413582520923515, -0.5419096946716309, 1.0940301418304443, -0.2733907401561737, 0.7776761054992676, 0.4115823209285736, -0.4752052426338196, 0.11052274703979492, 0.06211155652999878, -0.06947249174118042, -0.22449123319566106, 0.46043574032948864, 0.8583669764709114,-0.02844110043112874,0.8881988525390625,0.47369384765625,-0.544677734375
20220209-1457,2022-02-09 14:57:33Z,u01, 117,40,movements,el-ex, lt, d,18521.10484329167, 1.0518428339405335, -0.43496022226701164, 0.18051466417644585, -0.3548547029495239, 1.0732841491699219, -0.21843163669109344, 0.787484884262085, 0.4213743209838867, -0.4497901499271393, 0.03157639503479004, 0.013226479291915894, -0.05905988812446594, -0.2300341837419751, 0.4713694870111224, 0.8508151042923626,-0.03175981110513326,0.819427490234375,0.4519195556640625,-0.4963531494140625
20220209-1457,2022-02-09 14:57:33Z,u01, 118,40,movements,el-ex, lt, d,18521.129788291666, 1.0800982235998076, -0.44420624929300884, 0.1849732005183776, -0.2572755515575409, 1.0064142942428589, -0.24739724397659302, 0.7964074611663818, 0.4297412931919098, -0.4255087077617645, 0.05658942461013794, 0.03186759352684021, -0.10819792747497559, -0.23444475411530913, 0.48195570692879497, 0.8435005227098914,-0.03551441672088945,0.852996826171875,0.46160888671875,-0.5337066650390625
20220209-1457,2022-02-09 14:57:33Z,u01, 119,40,movements,el-ex, lt, d,18521.154734291667, 1.1053960055619727, -0.45352860827055813, 0.18817457082479774, -0.39156919717788696, 0.9125931859016418, -0.3047351539134979, 0.8033007383346558, 0.4381401538848877, -0.403411865234375, 0.02783024311065674, -0.015227556228637695, -0.065826416015625, -0.23856438827864804, 0.49130551082443985, 0.8367425947951774,-0.0395946852959847,0.8438568115234375,0.4371185302734375,-0.4955596923828125
20220209-1457,2022-02-09 14:57:33Z,u01, 120,40,movements,el-ex, lt, d,18521.17968029167, 1.1327683602886178, -0.46707259341956253, 0.2014226376019611, -0.9085984826087952, 0.8177149295806885, -0.25297975540161133, 0.8085923790931702, 0.45027437806129456, -0.3787233531475067, -0.004622042179107666, -0.08485689759254456, -0.01164218783378601, -0.2467771882741845, 0.4997392730122099, 0.8292647135531489,-0.04100852104762304,0.8039703369140625,0.36541748046875,-0.3903656005859375
20220209-1457,2022-02-09 14:57:33Z,u01, 121,40,movements,el-ex, lt, d,18521.204626291667, 1.1648902975662696, -0.4811018524491557, 0.22357661996374545, -0.816596508026123, 0.9130258560180664, -0.11031222343444824, 0.814454197883606, 0.4627562463283539, -0.35003000497817993, 0.06608474254608154, 0.021771371364593506, -0.11714828014373779, -0.2573115702102854, 0.5087000617957159, 0.8206308622770833,-0.03974896419298252,0.8553009033203125,0.4573211669921875,-0.4409027099609375
20220209-1457,2022-02-09 14:57:33Z,u01, 122,40,movements,el-ex, lt, d,18521.229572291668, 1.1935823993487191, -0.4886496305784023, 0.23759906851078835, -0.3466423749923706, 0.8416049480438232, -0.06801403313875198, 0.8208900094032288, 0.46943399310112, -0.32522493600845337, 0.09636157751083374, 0.08922082185745239, -0.16267478466033936, -0.26330586877426676, 0.5177427425372724, 0.8130332766805122,-0.039866437730256665,0.9172515869140625,0.55865478515625,-0.4878997802734375
20220209-1457,2022-02-09 14:57:33Z,u01, 123,40,movements,el-ex, lt, d,18521.25451829167, 1.2169944133973924, -0.4929442261512442, 0.24552053699215334, -0.4412148892879486, 0.738104522228241, -0.049092937260866165, 0.8263797163963318, 0.47322162985801697, -0.30521756410598755, 0.04456144571304321, 0.009276539087295532, -0.08348473906517029, -0.2665670104881506, 0.5256740890948339, 0.806801727640535,-0.04098374239811414,0.8778839111328125,0.495452880859375,-0.41009521484375
20220209-1457,2022-02-09 14:57:33Z,u01, 124,40,movements,el-ex, lt, d,18521.279463291667, 1.2430802570634814, -0.4996169444434046, 0.26252742450812266, -0.828430712223053, 0.6973593831062317, -0.06429066509008408, 0.8310512900352478, 0.4790893495082855, -0.28253665566444397, 0.062457501888275146, -0.017724603414535522, -0.09653744101524353, -0.2731035283068558, 0.5330536006677036, 0.7998121108019265,-0.03960795089300573,0.8935089111328125,0.46136474609375,-0.3790740966796875
20220209-1457,2022-02-09 14:57:33Z,u01, 125,40,movements,el-ex, lt, d,18521.304409291668, 1.270034740680903, -0.5073291910961703, 0.28433522744692447, -0.7362380027770996, 0.6316803693771362, -0.04720921814441681, 0.8348103165626526, 0.48584458231925964, -0.2589338719844818, 0.10075175762176514, 0.059000998735427856, -0.1496659815311432, -0.2813534786308659, 0.5397900366051241, 0.792528938318576,-0.0369430932285712,0.9391937255859375,0.5374298095703125,-0.405975341796875
20220209-1457,2022-02-09 14:57:33Z,u01, 126,40,movements,el-ex, lt, d,18521.32935529167, 1.2934746899094933, -0.513102972106993, 0.30150150371013007, -0.5756286382675171, 0.5529548525810242, -0.02884732186794281, 0.8379380106925964, 0.4908829927444458, -0.2385246753692627, 0.05962979793548584, 0.036979615688323975, -0.13380497694015503, -0.2877413808940039, 0.545841146104416, 0.7861428634768943,-0.03524040671176759,0.8975677490234375,0.527862548828125,-0.3723297119140625
20220209-1457,2022-02-09 14:57:33Z,u01, 127,40,movements,el-ex, lt, d,18521.354301291667, 1.3150669597892772, -0.5171885929105501, 0.3170140580817073, -0.5891788005828857, 0.5462583303451538, -0.033079151064157486, 0.8409451842308044, 0.49443838000297546, -0.21986836194992065, 0.04011267423629761, -0.005058407783508301, -0.07987526059150696, -0.2931284945478094, 0.551490257883184, 0.7802619998721422,-0.03354939920740363,0.876708984375,0.486114501953125,-0.313262939453125
20220209-1457,2022-02-09 14:57:34Z,u01, 128,40,movements,el-ex, lt, d,18521.37924729167, 1.3358265018885476, -0.5218793206393112, 0.333388485932246, -0.5756909251213074, 0.46668359637260437, -0.04839152842760086, 0.8430629968643188, 0.4985101819038391, -0.20182237029075623, 0.07539397478103638, 0.01812189817428589, -0.12100778520107269, -0.2990289058063969, 0.5564804835772408, 0.7745356879879907,-0.031710951592111514,0.91845703125,0.516632080078125,-0.3228302001953125
20220209-1457,2022-02-09 14:57:34Z,u01, 129,40,movements,el-ex, lt, d,18521.404193291666, 1.354422577242732, -0.525961076852143, 0.34713090513587175, -0.4177280366420746, 0.462784081697464, -0.05468577519059181, 0.8446757197380066, 0.5020444393157959, -0.1856723129749298, 0.03389471769332886, 0.0195009708404541, -0.1356624811887741, -0.3040430280370886, 0.5610006040890854, 0.7693545469665173,-0.030490736945146035,0.886505126953125,0.5287628173828125,-0.3266754150390625
20220209-1457,2022-02-09 14:57:34Z,u01, 130,40,movements,el-ex, lt, d,18521.429138291667, 1.3701670028922621, -0.5290794732995195, 0.35672499375036865, -0.2939101755619049, 0.40791982412338257, -0.03819488361477852, 0.8459559679031372, 0.5047388672828674, -0.17203809320926666, 0.015524685382843018, 0.005835413932800293, -0.12605760991573334, -0.3076116916931784, 0.5651159174344418, 0.7649225994229738,-0.03020674120614092,0.861480712890625,0.5105743408203125,-0.298095703125
20220209-1457,2022-02-09 14:57:34Z,u01, 131,40,movements,el-ex, lt, d,18521.45408429167, 1.38409869539067, -0.5316942609127637, 0.3645757896287485, -0.3050272464752197, 0.39775246381759644, -0.059782132506370544, 0.8469709157943726, 0.5069944262504578, -0.15999066829681396, 0.02323782444000244, -0.014898478984832764, -0.07768015563488007, -0.31054628907618836, 0.5688283267303766, 0.7609752208625116,-0.03020100422091543,0.8654022216796875,0.492950439453125,-0.241363525390625
20220209-1457,2022-02-09 14:57:34Z,u01, 132,40,movements,el-ex, lt, d,18521.479030291666, 1.3980410942374464, -0.5340223604637803, 0.37229878291057705, -0.21471436321735382, 0.39875760674476624, -0.02524726092815399, 0.8479540944099426, 0.508999764919281, -0.14796340465545654, 0.05573242902755737, 1.817941665649414e-05, -0.08422952890396118, -0.3133511064697518, 0.5725638665279162, 0.7570138774558371,-0.030195313645479227,0.9036865234375,0.5090179443359375,-0.2321929931640625
20220209-1457,2022-02-09 14:57:34Z,u01, 133,40,movements,el-ex, lt, d,18521.503976291668, 1.4103947851189782, -0.5351676221809708, 0.376339463203074, -0.06661494821310043, 0.4213339686393738, 0.014912341721355915, 0.8491412401199341, 0.5099852085113525, -0.137383833527565, 0.029475092887878418, -0.011007547378540039, -0.05478537082672119, -0.3147189765119869, 0.5764200311225984, 0.7534800335456417,-0.030981142640346904,0.884552001953125,0.5044097900390625,-0.197265625
20220209-1457,2022-02-09 14:57:34Z,u01, 134,40,movements,el-ex, lt, d,18521.52892229167, 1.4220457586917257, -0.5346980961618972, 0.3765568678303114, 0.028397750109434128, 0.49492889642715454, -0.0025573954917490482, 0.8509209156036377, 0.5095813274383545, -0.12751686573028564, 0.008728742599487305, -0.025419950485229492, -0.03428727388381958, -0.31443535431007813, 0.5808373037365157, 0.7501313869953804,-0.03257852126166039,0.859649658203125,0.484161376953125,-0.16180419921875
20220209-1457,2022-02-09 14:57:34Z,u01, 135,40,movements,el-ex, lt, d,18521.553868291667, 1.4334365025979012, -0.534413351465245, 0.3740152926256253, 0.15983889997005463, 0.4927885830402374, 0.004276076331734657, 0.8524619936943054, 0.5093362927436829, -0.11783606559038162, 0.06164640188217163, -0.0060250163078308105, -0.07390590012073517, -0.31340376333802494, 0.5855425247946121, 0.746778053326278,-0.03522389072194321,0.90484619140625,0.497528076171875,-0.175811767578125
20220209-1457,2022-02-09 14:57:34Z,u01, 136,40,movements,el-ex, lt, d,18521.578814291668, 1.4420422004014972, -0.5334097902145372, 0.3689676328353334, 0.17615678906440735, 0.39896681904792786, 0.03368862718343735, 0.8539509177207947, 0.5084723830223083, -0.11056133359670639, 0.05908936262130737, -0.008396029472351074, -0.09750749170780182, -0.31142104959494055, 0.5896916683689957, 0.7441960710818973,-0.03811800901069662,0.9130401611328125,0.5000762939453125,-0.20806884765625
20220209-1457,2022-02-09 14:57:34Z,u01, 137,40,movements,el-ex, lt, d,18521.60375929167, 1.4498514385041306, -0.532469690048875, 0.3650316483583447, 0.08504775166511536, 0.3790875971317291, 0.009241539053618908, 0.8552625179290771, 0.5076626539230347, -0.10394695401191711, -0.004630684852600098, -0.04629784822463989, -0.08953447639942169, -0.3097841092675343, 0.5933467178401447, 0.741845616507423,-0.04048113427319372,0.8533935546875,0.463653564453125,-0.2001495361328125
20220209-1457,2022-02-09 14:57:34Z,u01, 138,40,movements,el-ex, lt, d,18521.628705291667, 1.4581274051413013, -0.5318189189658455, 0.3634999974216701, 0.03020753711462021, 0.35603711009025574, 0.02408759668469429, 0.8564214110374451, 0.5071018934249878, -0.09690245985984802, -0.0026617050170898438, -0.04431807994842529, -0.07440793514251709, -0.3089371545891109, 0.5967466831937389, 0.7393766735959811,-0.042111695137162786,0.853759765625,0.4627838134765625,-0.1713104248046875
20220209-1457,2022-02-09 14:57:34Z,u01, 139,40,movements,el-ex, lt, d,18521.65365129167, 1.4663613783324336, -0.5301968101408122, 0.362964125219101, 0.017105184495449066, 0.28758668899536133, 0.10100075602531433, 0.8580071330070496, 0.5057031512260437, -0.0899331271648407, 0.06411194801330566, -0.0273553729057312, -0.07658600062131882, -0.30805417993527384, 0.6001133716219313, 0.7369629070714162,-0.043036978573950724,0.9084320068359375,0.4781646728515625,-0.16650390625
20220209-1457,2022-02-09 14:57:34Z,u01, 140,40,movements,el-ex, lt, d,18521.67859729167, 1.4720216150025398, -0.5271689434334944, 0.3643907648378841, -0.11158148944377899, 0.12430654466152191, 0.16044478118419647, 0.8600223064422607, 0.503088653087616, -0.08522580564022064, 0.07091635465621948, -0.018301665782928467, -0.08106445521116257, -0.3073435771761517, 0.6024342482005883, 0.7354033086020624,-0.04236619684078702,0.930938720703125,0.4847869873046875,-0.166290283203125
20220209-1457,2022-02-09 14:57:34Z,u01, 141,40,movements,el-ex, lt, d,18521.703543291667, 1.4779688417328705, -0.5239820892710577, 0.37012551829843277, -0.23152537643909454, 0.12693767249584198, 0.13862143456935883, 0.8621060848236084, 0.5003319382667542, -0.08025779575109482, 0.005447745323181152, -0.0170401930809021, -0.0672641471028328, -0.3078819917550131, 0.6042183210261471, 0.7338398624133484,-0.040101205154920716,0.86932373046875,0.4788055419921875,-0.1529083251953125
20220209-1457,2022-02-09 14:57:34Z,u01, 142,40,movements,el-ex, lt, d,18521.72848929167, 1.484254646923884, -0.5210697522874983, 0.3762066688240821, -0.15222235023975372, 0.0990942046046257, 0.12723734974861145, 0.8640413880348206, 0.49780821800231934, -0.07496283203363419, 0.03265655040740967, 0.008280068635940552, -0.09053396433591843, -0.3086262109234825, 0.6060267697142929, 0.7321531614028725,-0.0378571501839286,0.896697998046875,0.5060882568359375,-0.165496826171875
20220209-1457,2022-02-09 14:57:34Z,u01, 143,40,movements,el-ex, lt, d,18521.753434291666, 1.4866107491707032, -0.5181232082483689, 0.3812096611939597, -0.21649308502674103, -0.1100401058793068, 0.13697387278079987, 0.8656734824180603, 0.49525055289268494, -0.0730498731136322, 0.1024203896522522, 0.008472621440887451, -0.1420532464981079, -0.309117797864957, 0.6065651237736966, 0.7316230628864938,-0.035392018114331625,0.965362548828125,0.508514404296875,-0.210845947265625
20220209-1457,2022-02-09 14:57:34Z,u01, 144,40,movements,el-ex, lt, d,18521.778380291667, 1.485978945839048, -0.5158619913859154, 0.39147015788868245, -0.4703640341758728, -0.32264092564582825, 0.10252122581005096, 0.866740882396698, 0.49328485131263733, -0.0736914873123169, 0.0858500599861145, 0.0028699636459350586, -0.1476830244064331, -0.31148393180531486, 0.6050884362208464, 0.7320511341526785,-0.030772790771665393,0.9525909423828125,0.49615478515625,-0.22137451171875
20220209-1457,2022-02-09 14:57:34Z,u01, 145,40,movements,el-ex, lt, d,18521.80332629167, 1.484605683607824, -0.5155238803642221, 0.40731168783764987, -0.6015299558639526, -0.41046351194381714, 0.008343522436916828, 0.8668048977851868, 0.4929907023906708, -0.07489603012800217, 0.07611197233200073, -0.003793954849243164, -0.19423848390579224, -0.31617188096931037, 0.6021522463208284, 0.7326942101918494,-0.024641689583741244,0.9389801025390625,0.4909820556640625,-0.26312255859375
20220209-1457,2022-02-09 14:57:34Z,u01, 146,40,movements,el-ex, lt, d,18521.828272291667, 1.4815758138695618, -0.5172536220847908, 0.424500643800028, -0.568781852722168, -0.5084566473960876, -0.027456551790237427, 0.8657233119010925, 0.4944949150085449, -0.07744588702917099, 0.0904381275177002, 0.018398821353912354, -0.22780615091323853, -0.3219345700076691, 0.5980260772759385, 0.7337457270549927,-0.01844290583550412,0.9561614990234375,0.5128936767578125,-0.3052520751953125
20220209-1457,2022-02-09 14:57:34Z,u01, 147,40,movements,el-ex, lt, d,18521.853218291668, 1.4741017288100693, -0.5192809534234665, 0.4374140935542168, -0.3121316730976105, -0.5894665122032166, -0.05613952875137329, 0.8641208410263062, 0.4962559938430786, -0.08381720632314682, 0.09544336795806885, 0.03836619853973389, -0.29583674669265747, -0.3265083980898303, 0.592860576026039, 0.7360266327540856,-0.013171944673368352,0.9579010009765625,0.53515625,-0.3643646240234375
20220209-1457,2022-02-09 14:57:34Z,u01, 148,40,movements,el-ex, lt, d,18521.87816429167, 1.4592199874051208, -0.5206121350698815, 0.43957070266662596, 0.14070086181163788, -0.6857409477233887, -0.04221399128437042, 0.8621206283569336, 0.4974112808704376, -0.09659343212842941, 0.09948831796646118, 0.04232266545295715, -0.3477882742881775, -0.32767362195317373, 0.5867991825144688, 0.7403977813618956,-0.010389944486461355,0.96160888671875,0.53973388671875,-0.4443817138671875
20220209-1457,2022-02-09 14:57:34Z,u01, 149,40,movements,el-ex, lt, d,18521.903109291667, 1.4368159033511092, -0.5199279944621451, 0.4312901272422686, 0.35789692401885986, -0.7545381784439087, -0.002517780289053917, 0.8600772619247437, 0.4968176484107971, -0.11592800915241241, 0.10440021753311157, -0.01073366403579712, -0.376656174659729, -0.32514093642454533, 0.5799304848758376, 0.7469083604556643,-0.009584494672247479,0.962890625,0.4964447021484375,-0.486175537109375
20220209-1457,2022-02-09 14:57:34Z,u01, 150,40,movements,el-ex, lt, d,18521.928055291668, 1.4122445295822152, -0.518654978204792, 0.42184189484918033, 0.32810133695602417, -0.8622337579727173, 0.01984851062297821, 0.8575932383537292, 0.4957124590873718, -0.13712391257286072, 0.13680678606033325, -0.019516170024871826, -0.3753272294998169, -0.32209892067128115, 0.5724424226267845, 0.753979864874605,-0.008734722718530263,0.9944000244140625,0.4761962890625,-0.512451171875
20220209-1457,2022-02-09 14:57:34Z,u01, 151,40,movements,el-ex, lt, d,18521.95300129167, 1.3817176249461824, -0.5155837531362393, 0.40921257201384026, 0.586280107498169, -1.0644029378890991, 0.056706059724092484, 0.8544996380805969, 0.49304279685020447, -0.16352100670337677, 0.1645127534866333, -0.01504594087600708, -0.41515326499938965, -0.31757716786969803, 0.5633686497546818, 0.7626939447417478,-0.0076454692253482,1.0244140625,0.4817352294921875,-0.5775604248046875
20220209-1457,2022-02-09 14:57:34Z,u01, 152,40,movements,el-ex, lt, d,18521.977947291667, 1.342954238662169, -0.5098139061620409, 0.3898261149468789, 0.8129774928092957, -1.265442967414856, 0.1327899694442749, 0.850277841091156, 0.488014817237854, -0.19715246558189392, 0.1780882477760315, -0.0013357698917388916, -0.4335542917251587, -0.310279006532697, 0.5524044762142449, 0.7736438112073624,-0.007172244337131262,1.0283660888671875,0.4866790771484375,-0.630706787109375
20220209-1457,2022-02-09 14:57:34Z,u01, 153,40,movements,el-ex, lt, d,18522.00289329167, 1.2981932801338871, -0.5008872789604463, 0.3689010664843421, 0.6697328090667725, -1.5175427198410034, 0.17614483833312988, 0.8447664380073547, 0.4802040159702301, -0.2361650913953781, 0.22936075925827026, -0.010141730308532715, -0.4174298644065857, -0.3014873329354481, 0.5394653304398234, 0.7861615380663547,-0.0057172530317239345,1.0718231201171875,0.4794158935546875,-0.654571533203125
20220209-1457,2022-02-09 14:57:34Z,u01, 154,40,movements,el-ex, lt, d,18522.02784075, 1.2518132321129123, -0.49373349960320434, 0.3573916764890901, 0.31767234206199646, -1.7519843578338623, 0.13180847465991974, 0.8361490964889526, 0.47391679883003235, -0.27614760398864746, 0.2500019669532776, -0.0027406811714172363, -0.37898847460746765, -0.2958619057824072, 0.5238243323460382, 0.7987942877223025,-0.0011942832771964507,1.086151123046875,0.4711761474609375,-0.6551361083984375
20220209-1457,2022-02-09 14:57:34Z,u01, 155,40,movements,el-ex, lt, d,18522.052786750002, 1.2012261427043862, -0.4876209231132242, 0.34837076492391467, 0.49071475863456726, -1.9526008367538452, 0.11416569352149963, 0.8238018155097961, 0.46852540969848633, -0.3191151022911072, 0.3013659715652466, 0.09569883346557617, -0.41056016087532043, -0.2911874718528812, 0.5056207127180398, 0.8121196495047172,0.0043834384968955975,1.120819091796875,0.5536956787109375,-0.7304534912109375
20220209-1457,2022-02-09 14:57:34Z,u01, 156,40,movements,el-ex, lt, d,18522.07773175, 1.1426040700724596, -0.4797120543511769, 0.3335928780808787, 0.6919928789138794, -2.1886730194091797, 0.06617613136768341, 0.8070360422134399, 0.46152374148368835, -0.36835938692092896, 0.32512032985687256, 0.12700778245925903, -0.35570061206817627, -0.284267663415282, 0.4847805710705314, 0.8271027278557911,0.008986921249659385,1.1321563720703125,0.588531494140625,-0.72406005859375
20220209-1457,2022-02-09 14:57:34Z,u01, 157,40,movements,el-ex, lt, d,18522.10267775, 1.0789935100878143, -0.47116704864791087, 0.31764647269670965, 0.5928775072097778, -2.304246425628662, 0.012443059124052525, 0.7854359149932861, 0.4539264738559723, -0.4207628071308136, 0.31408190727233887, 0.1260448694229126, -0.302564799785614, -0.27673952785595674, 0.46155588502417855, 0.8427323971523442,0.013550093832116639,1.1114349365234375,0.5820770263671875,-0.7275543212890625
20220209-1457,2022-02-09 14:57:34Z,u01, 158,40,movements,el-ex, lt, d,18522.127623750002, 1.014575520309236, -0.46421358694825554, 0.30165408056250104, 0.7769440412521362, -2.272028684616089, -0.07841480523347855, 0.7593830823898315, 0.4477197527885437, -0.472106397151947, 0.30473434925079346, 0.16513431072235107, -0.2584080696105957, -0.2698152615886552, 0.4372030645732348, 0.8577604365740201,0.017330577558494376,1.064117431640625,0.61285400390625,-0.7305145263671875
20220209-1457,2022-02-09 14:57:34Z,u01, 159,40,movements,el-ex, lt, d,18522.15256975, 0.9462885687322568, -0.4513177168463973, 0.27576442164274245, 1.3222256898880005, -2.303015947341919, -0.07171110063791275, 0.7300229668617249, 0.4361516833305359, -0.5261540412902832, 0.35832536220550537, 0.23245790600776672, -0.2772364020347595, -0.25832165828100107, 0.4125444339331348, 0.8733520366993505,0.01825233971915713,1.08245849609375,0.6716156005859375,-0.7924652099609375
20220209-1457,2022-02-09 14:57:34Z,u01, 160,40,movements,el-ex, lt, d,18522.17751575, 0.8735096272472428, -0.43085826968586727, 0.2451764291351786, 1.3177980184555054, -2.5227439403533936, -0.009031472727656364, 0.6965271234512329, 0.4176507890224457, -0.5834534168243408, 0.4207671880722046, 0.18090572953224182, -0.22315669059753418, -0.24277609081281026, 0.38643636797765757, 0.8895980632256871,0.018496568919232848,1.1172943115234375,0.5985565185546875,-0.806610107421875
20220209-1457,2022-02-09 14:57:34Z,u01, 161,40,movements,el-ex, lt, d,18522.202461750003, 0.7979565744673218, -0.4134218766731717, 0.22408899927372278, 0.7185994982719421, -2.8171658515930176, 0.015631794929504395, 0.6556148529052734, 0.4017452597618103, -0.6393512487411499, 0.47556501626968384, 0.11883887648582458, -0.1091076135635376, -0.23044705732864415, 0.3566770539345919, 0.905101700045378,0.02160327394353806,1.1307220458984375,0.532623291015625,-0.7539825439453125
20220209-1457,2022-02-09 14:57:34Z,u01, 162,40,movements,el-ex, lt, d,18522.22740675, 0.7209297833218763, -0.4073348305204055, 0.21556619481061035, 0.1778583824634552, -3.0857093334198, -0.14023689925670624, 0.6060753464698792, 0.3961636424064636, -0.6897296905517578, 0.5202674269676208, 0.17474395036697388, -0.07734483480453491, -0.22532352784499085, 0.3230548873555612, 0.9187491574483322,0.027654696856238503,1.1263427734375,0.5709075927734375,-0.7670745849609375
20220209-1457,2022-02-09 14:57:34Z,u01, 163,40,movements,el-ex, lt, d,18522.25235275, 0.6381596421461556, -0.407187068384842, 0.20676632323996866, 0.28955695033073425, -3.28922176361084, -0.3823017477989197, 0.5470114350318909, 0.39602795243263245, -0.7375231385231018, 0.6042641997337341, 0.30114614963531494, -0.1318921446800232, -0.2226634515649363, 0.28576113815093407, 0.9314937101345202,0.03287930109306808,1.1371612548828125,0.6844482421875,-0.85211181640625
20220209-1457,2022-02-09 14:57:34Z,u01, 164,40,movements,el-ex, lt, d,18522.27729875, 0.5446108497802334, -0.40703164345431014, 0.18879010629386597, 0.4040323793888092, -3.6507019996643066, -0.7581149935722351, 0.4757577180862427, 0.3958852291107178, -0.7854486107826233, 0.7074545621871948, 0.3361399173736572, -0.11367553472518921, -0.21862691703858286, 0.24388105377003094, 0.9442001656297814,0.03479136245121156,1.1832122802734375,0.732025146484375,-0.8991241455078125
20220209-1457,2022-02-09 14:57:34Z,u01, 165,40,movements,el-ex, lt, d,18522.30224475, 0.43702562195081435, -0.4116146596645223, 0.16044257318678018, 0.2802501320838928, -4.0089521408081055, -1.2163712978363037, 0.38789525628089905, 0.40008965134620667, -0.8303406238555908, 0.6699050068855286, 0.32137641310691833, 0.040316879749298096, -0.2158614742784047, 0.19553395308188398, 0.9560957416385087,0.03242103674096636,1.0870513916015625,0.7229766845703125,-0.8229827880859375
20220209-1457,2022-02-09 14:57:34Z,u01, 166,40,movements,el-ex, lt, d,18522.327190750002, 0.3179085661957439, -0.41890386117924755, 0.12346917023306268, 0.20329280197620392, -4.3033647537231445, -1.5009816884994507, 0.2855534255504608, 0.4067593216896057, -0.8677592277526855, 0.6916956901550293, 0.2723025679588318, 0.09241437911987305, -0.21446360503433282, 0.14186526907653896, 0.9660044637432891,0.02673756422962348,0.9772491455078125,0.6790618896484375,-0.7753448486328125
20220209-1457,2022-02-09 14:57:34Z,u01, 167,40,movements,el-ex, lt, d,18522.35213675, 0.19129448240286392, -0.4230613159005144, 0.08046886397547713, 0.27737873792648315, -4.393950939178467, -1.5802732706069946, 0.17336738109588623, 0.41055378317832947, -0.8952035307884216, 0.5912963151931763, 0.19003215432167053, 0.2052927017211914, -0.212583680762376, 0.0848906342078257, 0.9732607528230793,0.01911232429946702,0.8013458251953125,0.61328125,-0.7178955078125
20220209-1457,2022-02-09 14:57:34Z,u01, 168,40,movements,el-ex, lt, d,18522.37708275, 0.06447878498623258, -0.4188460406205534, 0.037548393142009556, 0.45695629715919495, -4.366217136383057, -1.5020393133163452, 0.05886435881257057, 0.4067065119743347, -0.9116604924201965, 0.5794107913970947, 0.13760504126548767, 0.36126071214675903, -0.20834280223569163, 0.0276231597323994, 0.9775963256231304,0.011653294236687928,0.638275146484375,0.5443115234375,-0.5503997802734375
20220209-1457,2022-02-09 14:57:35Z,u01, 169,40,movements,el-ex, lt, d,18522.402027750002, -0.05753655901195583, -0.40669785665902, -0.0026183190602713713, 0.5848114490509033, -4.0876007080078125, -1.436893105506897, -0.05281427130103111, 0.39557868242263794, -0.916912317276001, 0.4188878834247589, 0.07718437910079956, 0.6677210330963135, -0.20190352078712503, -0.02790734352224579, 0.9789973058463148,0.004527303736714172,0.40753173828125,0.464752197265625,-0.28778076171875
20220209-1457,2022-02-09 14:57:35Z,u01, 170,40,movements,el-ex, lt, d,18522.42697375, -0.16519485836947198, -0.3851071848552183, -0.03686316922577869, 0.7745651006698608, -3.428868293762207, -1.2656052112579346, -0.15240031480789185, 0.37565848231315613, -0.9141415953636169, 0.36805278062820435, 0.08936840295791626, 0.8513364195823669, -0.1921735868332245, -0.07745006567730611, 0.9782974166633918,-0.0022425659094971184,0.2156524658203125,0.46502685546875,-0.06280517578125
20220209-1457,2022-02-09 14:57:35Z,u01, 171,40,movements,el-ex, lt, d,18522.45191975, -0.2539430807869141, -0.3679022717122147, -0.06661473425270463, -0.01171704288572073, -2.848435640335083, -1.1593860387802124, -0.23441168665885925, 0.3596588671207428, -0.9031592607498169, 0.30505985021591187, -0.1006256639957428, 1.0712653398513794, -0.18548816106380725, -0.11838289869909613, 0.9754448337981608,-0.009325960884746687,0.0880279541015625,0.29541015625,0.143951416015625
20220209-1457,2022-02-09 14:57:35Z,u01, 172,40,movements,el-ex, lt, d,18522.476865750003, -0.32848708387147524, -0.36940265057006394, -0.09930948791759726, -0.6406117081642151, -2.129495859146118, -1.1382650136947632, -0.300849050283432, 0.36105844378471375, -0.8826814889907837, 0.21105104684829712, -0.20183295011520386, 1.1644656658172607, -0.18893556948339446, -0.15153412598401317, 0.970057553257428,-0.01814215182322515,-0.0897979736328125,0.1592254638671875,0.2817840576171875
20220209-1457,2022-02-09 14:57:35Z,u01, 173,40,movements,el-ex, lt, d,18522.50181175, -0.3804236113328543, -0.3654824279713364, -0.12610518042916788, 0.44464311003685, -1.224680781364441, -0.8447137475013733, -0.34678909182548523, 0.35739991068840027, -0.8671808838844299, 0.022066771984100342, -0.12615293264389038, 1.1767511367797852, -0.189808529437408, -0.17430514594234417, 0.9658599624479154,-0.026554057903663775,-0.2906341552734375,0.2106781005859375,0.3046112060546875
20220209-1457,2022-02-09 14:57:35Z,u01, 174,40,movements,el-ex, lt, d,18522.52675775, -0.40014024885047234, -0.3368031671868595, -0.13066797555984058, 1.1735649108886719, -0.24994787573814392, -0.3382040560245514, -0.36766114830970764, 0.33047157526016235, -0.8692604899406433, -0.01821836829185486, -0.19390538334846497, 1.1962411403656006, -0.1767045506257385, -0.1847843258374254, 0.9663021380767017,-0.02984129188067186,-0.3858795166015625,0.136566162109375,0.3269805908203125
20220209-1457,2022-02-09 14:57:35Z,u01, 175,40,movements,el-ex, lt, d,18522.551702750003, -0.39734384324724104, -0.3175519442715728, -0.12723685760597725, 0.3011370897293091, 0.32478097081184387, -0.0684979259967804, -0.3676230013370514, 0.3122418522834778, -0.8759899735450745, 0.057976365089416504, -0.468766450881958, 1.1754589080810547, -0.1670759532262753, -0.1846365389528024, 0.9680242767451921,-0.03039842083992439,-0.3243255615234375,-0.124969482421875,0.32818603515625
20220209-1457,2022-02-09 14:57:35Z,u01, 176,40,movements,el-ex, lt, d,18522.57664875, -0.3839850387775535, -0.3206389306574093, -0.12815283780891681, -0.3491622805595398, 0.769166886806488, 0.1332729458808899, -0.35552558302879333, 0.3151730000972748, -0.8799247145652771, 0.07941779494285583, -0.3564632534980774, 1.0625114440917969, -0.16844059804134276, -0.17794772869840164, 0.9689997500659135,-0.03165199947194308,-0.2761077880859375,-0.041290283203125,0.182586669921875
20220209-1457,2022-02-09 14:57:35Z,u01, 177,40,movements,el-ex, lt, d,18522.601594750002, -0.35969987793633595, -0.3306454880335676, -0.12403388454854646, -0.3073105216026306, 1.048992395401001, 0.4130399227142334, -0.3329268991947174, 0.32465362548828125, -0.8853020668029785, 0.1399795114994049, -0.19448086619377136, 0.840212345123291, -0.17254040046751815, -0.16606860789157976, 0.9704147216935366,-0.030764000714716244,-0.19927978515625,0.1233978271484375,-0.0132904052734375
20220209-1457,2022-02-09 14:57:35Z,u01, 178,40,movements,el-ex, lt, d,18522.62654075, -0.32844732151343486, -0.3446298702463132, -0.1150969089374206, -0.607280433177948, 1.1936296224594116, 0.5707884430885315, -0.3036065995693207, 0.33784833550453186, -0.8908880949020386, 0.12108093500137329, -0.23602640628814697, 0.7515600919723511, -0.17814042419413992, -0.15106936573217333, 0.9719386514290592,-0.02791695459617799,-0.182525634765625,0.1018218994140625,-0.1393280029296875
20220209-1457,2022-02-09 14:57:35Z,u01, 179,40,movements,el-ex, lt, d,18522.65148675, -0.2925666261342869, -0.3699336454350596, -0.10403521539256502, -1.0470094680786133, 1.3600577116012573, 0.8436110019683838, -0.2689001262187958, 0.3615535795688629, -0.8927327394485474, 0.18853208422660828, -0.22279012203216553, 0.5970479249954224, -0.18915306850419267, -0.13362168907359018, 0.9725226362761514,-0.02378998025468837,-0.1055450439453125,0.1288909912109375,-0.27294921875
20220209-1457,2022-02-09 14:57:35Z,u01, 180,40,movements,el-ex, lt, d,18522.676432750002, -0.2522107419016571, -0.4042789468035704, -0.08846390554070567, -1.2122266292572021, 1.424560308456421, 0.9877445697784424, -0.22942858934402466, 0.39335593581199646, -0.8902997374534607, 0.25175219774246216, -0.15965229272842407, 0.44925975799560547, -0.20442472446304344, -0.11428322363218604, 0.9720262349584432,-0.01774737401217802,0.0223236083984375,0.23370361328125,-0.4410400390625
20220209-1457,2022-02-09 14:57:35Z,u01, 181,40,movements,el-ex, lt, d,18522.70137875, -0.20769822212240044, -0.4363572021377983, -0.06873340443197025, -0.9131990075111389, 1.5003188848495483, 0.9952979683876038, -0.18688587844371796, 0.4226408302783966, -0.8868192434310913, 0.25780871510505676, 0.02004721760749817, 0.3210996985435486, -0.21863590661941226, -0.09374809104628673, 0.9712311814121264,-0.010939961106364693,0.07769775390625,0.4111785888671875,-0.54534912109375
20220209-1457,2022-02-09 14:57:35Z,u01, 182,40,movements,el-ex, lt, d,18522.72632375, -0.15819359730103877, -0.4583289141894683, -0.04590583071089133, -0.5495346784591675, 1.713484764099121, 0.9361979961395264, -0.14127595722675323, 0.4424501061439514, -0.8855952620506287, 0.16065461933612823, 0.07184737920761108, 0.21758079528808594, -0.22816007376756875, -0.07173105904935743, 0.9709679403804166,-0.004336521966684104,0.019378662109375,0.5142974853515625,-0.6680145263671875
20220209-1457,2022-02-09 14:57:35Z,u01, 183,40,movements,el-ex, lt, d,18522.751269750002, -0.10191525550991316, -0.47232983481570245, -0.02217971018642316, -0.35262277722358704, 1.9015191793441772, 0.9050818681716919, -0.09059959650039673, 0.45496225357055664, -0.885890007019043, 0.14133507013320923, 0.07178640365600586, 0.06038951873779297, -0.23420681134846108, -0.04692734733403259, 0.9710529041498078,0.0011491435046439014,0.0289764404296875,0.521759033203125,-0.7924346923828125
20220209-1457,2022-02-09 14:57:35Z,u01, 184,40,movements,el-ex, lt, d,18522.77621575, -0.04243538441064923, -0.48064659136588656, 0.0027293620643377616, -0.21417661011219025, 1.9441133737564087, 0.9055372476577759, -0.037615999579429626, 0.46235260367393494, -0.8858979344367981, 0.17206119000911713, 0.07234591245651245, 0.012149155139923096, -0.23793471694514115, -0.02093109589699496, 0.9710347003999438,0.006374942428710562,0.1344451904296875,0.534698486328125,-0.873748779296875
20220209-1457,2022-02-09 14:57:35Z,u01, 185,40,movements,el-ex, lt, d,18522.80116175, 0.0175829106691012, -0.4874348623560676, 0.02711358169580736, -0.31839460134506226, 1.9699852466583252, 0.8051597476005554, 0.01553435530513525, 0.4683610498905182, -0.8834006190299988, 0.13926605880260468, 0.0763014554977417, -0.04379969835281372, -0.24139599846633236, 0.005259565374465411, 0.9703497737573865,0.011033983439572126,0.15838623046875,0.536956787109375,-0.9178466796875
20220209-1457,2022-02-09 14:57:35Z,u01, 186,40,movements,el-ex, lt, d,18522.826107750003, 0.07727725013118243, -0.4944692072616107, 0.04889203383368212, -0.2762129306793213, 1.9672049283981323, 0.717294454574585, 0.06795335561037064, 0.47456449270248413, -0.8775938153266907, 0.11278700828552246, 0.10267549753189087, -0.10990923643112183, -0.24538338940644921, 0.0314657676311184, 0.9688107819790244,0.014232028085038706,0.1807403564453125,0.577239990234375,-0.9875030517578125
20220209-1457,2022-02-09 14:57:35Z,u01, 187,40,movements,el-ex, lt, d,18522.85105375, 0.13611861995204338, -0.4988281646115452, 0.06960181409199281, -0.2573776841163635, 1.9621715545654297, 0.6741272807121277, 0.11916293948888779, 0.47839683294296265, -0.8700211048126221, 0.1403890699148178, 0.10149818658828735, -0.15953516960144043, -0.2484086232987741, 0.057294046634259466, 0.9668124657142052,0.016862832542636874,0.2453460693359375,0.580108642578125,-1.033203125
20220209-1457,2022-02-09 14:57:35Z,u01, 188,40,movements,el-ex, lt, d,18522.87599875, 0.1927013822622708, -0.5025579652864101, 0.08830419649282577, -0.23016808927059174, 1.8266268968582153, 0.5672681331634521, 0.16783127188682556, 0.4816688001155853, -0.8601324558258057, 0.15827955305576324, 0.10967034101486206, -0.19569945335388184, -0.2513613254142868, 0.08216603816119332, 0.9642189345740153,0.01865676766104729,0.32611083984375,0.591339111328125,-1.0558319091796875
20220209-1457,2022-02-09 14:57:35Z,u01, 189,40,movements,el-ex, lt, d,18522.90094475, 0.2441453533449585, -0.5041095181231453, 0.10389823323511674, -0.11976947635412216, 1.7133545875549316, 0.49688786268234253, 0.21165746450424194, 0.48302793502807617, -0.8496382832527161, 0.10563381016254425, 0.0981488823890686, -0.22000283002853394, -0.253327646140004, 0.10490933455950537, 0.9614758374254508,0.019583099298491224,0.3155670166015625,0.5857696533203125,-1.0660552978515625
20220209-1457,2022-02-09 14:57:35Z,u01, 190,40,movements,el-ex, lt, d,18522.92589075, 0.293324910112954, -0.5041886625779528, 0.11818681830541443, -0.23355112969875336, 1.65237557888031, 0.4877524673938751, 0.25315847992897034, 0.48309722542762756, -0.8381693363189697, 0.11279302835464478, 0.08674225211143494, -0.1765705943107605, -0.2546820207428352, 0.12669803494198384, 0.9584764126574615,0.02019052568520119,0.3659515380859375,0.5698394775390625,-1.014739990234375
20220209-1457,2022-02-09 14:57:35Z,u01, 191,40,movements,el-ex, lt, d,18522.950836750002, 0.3402438835447983, -0.511657914524885, 0.13454433454205872, -0.6701005101203918, 1.490486741065979, 0.3666939437389374, 0.29097917675971985, 0.4896235167980194, -0.8219488263130188, 0.12795087695121765, 0.02606254816055298, -0.09041988849639893, -0.25984077242055525, 0.14665724923324452, 0.9542109462449885,0.021350146642430567,0.425689697265625,0.509033203125,-0.917694091796875
20220209-1457,2022-02-09 14:57:35Z,u01, 192,40,movements,el-ex, lt, d,18522.97578275, 0.38537566727080924, -0.5230994551690431, 0.15012663991330885, -0.4408307671546936, 1.5271180868148804, 0.37812569737434387, 0.3256390690803528, 0.49956750869750977, -0.8027399778366089, 0.08093136548995972, 0.08353188633918762, -0.14809614419937134, -0.2669502823496477, 0.16543139626425146, 0.9491565107245417,0.02172406119628356,0.4065704345703125,0.583099365234375,-0.950836181640625
20220209-1457,2022-02-09 14:57:35Z,u01, 193,40,movements,el-ex, lt, d,18523.00072875, 0.42948663261009756, -0.5275607719032049, 0.16496417901238014, -0.40333959460258484, 1.3836981058120728, 0.42828068137168884, 0.35978880524635315, 0.503427267074585, -0.7855653762817383, 0.05817991495132446, 0.014990031719207764, -0.08835119009017944, -0.270826731544116, 0.18403854184251575, 0.9446076343455447,0.022339723506053344,0.41107177734375,0.533050537109375,-0.87750244140625
20220209-1457,2022-02-09 14:57:35Z,u01, 194,40,movements,el-ex, lt, d,18523.0256745, 0.4718271433355086, -0.534660054774287, 0.1827120655718142, -0.6030412912368774, 1.3270490169525146, 0.42057234048843384, 0.39108335971832275, 0.509548544883728, -0.7664294242858887, 0.050246596336364746, 0.019641518592834473, -0.11537599563598633, -0.2763350427280635, 0.20105777213455783, 0.9394868454313405,0.024066986530893897,0.4413299560546875,0.5291900634765625,-0.881805419921875
20220209-1457,2022-02-09 14:57:35Z,u01, 195,40,movements,el-ex, lt, d,18523.0506195, 0.5148788207674425, -0.541466635633363, 0.20109418199814208, -0.47466981410980225, 1.3473299741744995, 0.40489232540130615, 0.42198920249938965, 0.5153933763504028, -0.7458516955375671, 0.06659725308418274, 0.07506072521209717, -0.10505461692810059, -0.28194429961604073, 0.21813195922402132, 0.9339490936113984,0.02578682608380156,0.48443603515625,0.5849456787109375,-0.85693359375
20220209-1457,2022-02-09 14:57:35Z,u01, 196,40,movements,el-ex, lt, d,18523.0755655, 0.5556869514816126, -0.5459669911725489, 0.21818647038736616, -0.46753814816474915, 1.2003933191299438, 0.40861836075782776, 0.4508380889892578, 0.5192447304725647, -0.7260371446609497, 0.04495048522949219, 0.0492367148399353, -0.10300338268280029, -0.28648200191971457, 0.23432773589967693, 0.9285862858998664,0.02731594638651108,0.49578857421875,0.5684814453125,-0.82904052734375
20220209-1457,2022-02-09 14:57:35Z,u01, 197,40,movements,el-ex, lt, d,18523.1005115, 0.5948794308857746, -0.5491901926444941, 0.23675502330706302, -0.4138772189617157, 1.154456377029419, 0.542411744594574, 0.47799938917160034, 0.5219966769218445, -0.7064248323440552, -0.009066253900527954, 0.04639321565628052, -0.14304721355438232, -0.2907519289285439, 0.2495012985293734, 0.9232150355700519,0.029772245498926597,0.4588623046875,0.56591796875,-0.83831787109375
20220209-1457,2022-02-09 14:57:35Z,u01, 198,40,movements,el-ex, lt, d,18523.125457500002, 0.6346601746121494, -0.5498091283700755, 0.25935019667145204, -0.6280383467674255, 1.0740443468093872, 0.6954271197319031, 0.5055242776870728, 0.5225244760513306, -0.6865954995155334, 0.014388442039489746, 0.049435973167419434, -0.15367543697357178, -0.29457076491210216, 0.26444339013524565, 0.9176735039794102,0.034251329441429834,0.5199127197265625,0.57196044921875,-0.84027099609375
20220209-1457,2022-02-09 14:57:35Z,u01, 199,40,movements,el-ex, lt, d,18523.1504035, 0.6778911944823323, -0.5574710110765451, 0.2921574705503043, -1.1393126249313354, 1.0237610340118408, 0.6401587128639221, 0.532198429107666, 0.5290418267250061, -0.6609687209129333, 0.08343267440795898, 0.07998228073120117, -0.04255300760269165, -0.3032522502687111, 0.2784846932740245, 0.9103650070683473,0.041472066038515276,0.5984954833984375,0.5922698974609375,-0.73065185546875
20220209-1457,2022-02-09 14:57:35Z,u01, 200,40,movements,el-ex, lt, d,18523.1753495, 0.7209745904909284, -0.5687345895074405, 0.3238621472869268, -0.7860772013664246, 1.1382194757461548, 0.4489611089229584, 0.5562035441398621, 0.5385662913322449, -0.6329171061515808, 0.10553956031799316, 0.16962462663650513, -0.10141211748123169, -0.31366835074115473, 0.29181093732629887, 0.9023505365457735,0.04713898455181276,0.6617431640625,0.70819091796875,-0.7343292236328125
20220209-1457,2022-02-09 14:57:35Z,u01, 201,40,movements,el-ex, lt, d,18523.200295500003, 0.7606139775303885, -0.5691301234131599, 0.34023444425393784, -0.010065683163702488, 1.2608685493469238, 0.32610103487968445, 0.5807015895843506, 0.5388994812965393, -0.6102237105369568, 0.039552927017211914, 0.13827025890350342, -0.07927507162094116, -0.3172353644078471, 0.3070013979242855, 0.8959862339444616,0.04817167665319383,0.6164398193359375,0.6754913330078125,-0.696868896484375
20220209-1457,2022-02-09 14:57:35Z,u01, 202,40,movements,el-ex, lt, d,18523.2252405, 0.7931765972881182, -0.5599704140500447, 0.3436785112563552, 0.2329159379005432, 1.209908127784729, 0.4021899700164795, 0.6037529110908508, 0.5311611294746399, -0.5944327116012573, 0.05928725004196167, 0.13297760486602783, -0.0705605149269104, -0.31461765019974514, 0.3221791158523948, 0.8916627265951718,0.04640979398048567,0.6630401611328125,0.6641387939453125,-0.6649932861328125
20220209-1457,2022-02-09 14:57:35Z,u01, 203,40,movements,el-ex, lt, d,18523.2501865, 0.8275205547025267, -0.5537640640211883, 0.35133025019356623, -0.255247563123703, 1.2075483798980713, 0.3213076889514923, 0.6262231469154358, 0.5258924961090088, -0.5755707621574402, 0.04972594976425171, -0.031461894512176514, -0.03485703468322754, -0.31402693311684154, 0.3370485152137446, 0.8863950910733889,0.045707646070340946,0.663238525390625,0.5054168701171875,-0.60821533203125
20220209-1457,2022-02-09 14:57:35Z,u01, 204,40,movements,el-ex, lt, d,18523.275132500003, 0.8637467512443741, -0.5545528137409232, 0.3641935553159907, -0.31521689891815186, 1.1747007369995117, 0.24984043836593628, 0.6463428735733032, 0.5265631675720215, -0.5522427558898926, 0.0495036244392395, 0.04303210973739624, -0.06770652532577515, -0.31739807439623124, 0.3509089227123162, 0.8798018527086726,0.04549847838509907,0.6958465576171875,0.5695953369140625,-0.6199493408203125
20220209-1457,2022-02-09 14:57:35Z,u01, 205,40,movements,el-ex, lt, d,18523.3000785, 0.8979346985042089, -0.5529898662428415, 0.3726919250088151, -0.04981788992881775, 1.209255337715149, 0.22743652760982513, 0.6654843688011169, 0.525233805179596, -0.5303395390510559, -0.009585320949554443, 0.04346126317977905, -0.07152813673019409, -0.3190329880448291, 0.3647577238627975, 0.873625724400119,0.044134812335094975,0.6559906005859375,0.5793304443359375,-0.6201171875
20220209-1457,2022-02-09 14:57:35Z,u01, 206,40,movements,el-ex, lt, d,18523.3250245, 0.9305368066360128, -0.5483879947770537, 0.3768248091541671, -0.004140682518482208, 1.2035272121429443, 0.2540833353996277, 0.6843489408493042, 0.5213122963905334, -0.5098038911819458, 0.025047361850738525, 0.015720784664154053, -0.009406864643096924, -0.31860112444752614, 0.3789345358729887, 0.8678447435487135,0.04180187190056672,0.7093963623046875,0.5370330810546875,-0.5192108154296875
20220209-1457,2022-02-09 14:57:35Z,u01, 207,40,movements,el-ex, lt, d,18523.3499705, 0.9626404859197826, -0.5443132560121676, 0.3839267186360823, -0.20715194940567017, 1.0877362489700317, 0.2597138285636902, 0.7020975947380066, 0.5178307294845581, -0.48878446221351624, 0.05779004096984863, -0.015694499015808105, -0.05482509732246399, -0.3189654692875238, 0.3922611337069332, 0.861819885387977,0.040726509517799825,0.771820068359375,0.505767822265625,-0.5431060791015625
20220209-1457,2022-02-09 14:57:35Z,u01, 208,40,movements,el-ex, lt, d,18523.3749165, 0.9951330923356291, -0.5429393089397495, 0.3932989790240696, -0.19085198640823364, 1.143713355064392, 0.1969904750585556, 0.7182022333145142, 0.5166548490524292, -0.4661043882369995, -0.02395784854888916, 0.005989134311676025, -0.0884304940700531, -0.32093193092734645, 0.4049080184234528, 0.8552549595561691,0.03988858193763023,0.694244384765625,0.52264404296875,-0.554534912109375
20220209-1457,2022-02-09 14:57:36Z,u01, 209,40,movements,el-ex, lt, d,18523.399861500002, 1.0260395614783624, -0.5390447713215584, 0.3970648086378397, 0.1541237235069275, 1.1483274698257446, 0.24176739156246185, 0.7339780330657959, 0.5133164525032043, -0.4447276294231415, 0.04728728532791138, 0.047825634479522705, -0.09215289354324341, -0.3207441726432855, 0.4180422941328901, 0.8490916146506843,0.03751525388265031,0.746490478515625,0.5611572265625,-0.530975341796875
20220209-1457,2022-02-09 14:57:36Z,u01, 210,40,movements,el-ex, lt, d,18523.4248075, 1.0522918205832044, -0.5317391358939926, 0.39733485521536926, 0.03342756628990173, 0.8917564749717712, 0.2453954964876175, 0.7486360669136047, 0.507033109664917, -0.42715510725975037, 0.12164896726608276, -0.0014941692352294922, -0.12718141078948975, -0.3183763503398885, 0.430184788462544, 0.8439966796749256,0.0353151149047955,0.8702850341796875,0.5055389404296875,-0.5543365478515625
20220209-1457,2022-02-09 14:57:36Z,u01, 211,40,movements,el-ex, lt, d,18523.4497535, 1.074118372872094, -0.5281112128877026, 0.4035603456497752, -0.21518301963806152, 0.6728436350822449, 0.21146635711193085, 0.7593926191329956, 0.503902792930603, -0.4115883708000183, 0.030478596687316895, 0.020068764686584473, -0.1357596516609192, -0.31868389174813166, 0.43891501906986613, 0.8393690762182453,0.035410073413338516,0.815643310546875,0.5212249755859375,-0.559234619140625
20220209-1457,2022-02-09 14:57:36Z,u01, 212,40,movements,el-ex, lt, d,18523.474699500002, 1.0967620403351408, -0.5279963114461897, 0.4121971319651852, -0.2798478603363037, 0.7598161697387695, 0.08667440712451935, 0.7685684561729431, 0.503803551197052, -0.39431527256965637, 0.024491846561431885, 0.06205344200134277, -0.11752551794052124, -0.3209530005389444, 0.44702520035098936, 0.8342074963007278,0.0354334242047028,0.793060302734375,0.56585693359375,-0.5118408203125
20220209-1457,2022-02-09 14:57:36Z,u01, 213,40,movements,el-ex, lt, d,18523.4996455, 1.1184259101137526, -0.5315309854507222, 0.42019723395197917, -0.3037658929824829, 0.6467549800872803, -0.09150771051645279, 0.7753232717514038, 0.5068536996841431, -0.37679311633110046, 0.11501175165176392, 0.09824883937835693, -0.11400577425956726, -0.3245024783059747, 0.4542043429243404, 0.828987098312256,0.03430509082614558,0.8949127197265625,0.6034393310546875,-0.497161865234375
20220209-1457,2022-02-09 14:57:36Z,u01, 214,40,movements,el-ex, lt, d,18523.5245915, 1.1360025970171583, -0.5371699452617297, 0.42304597458338394, -0.05453837662935257, 0.6940867900848389, -0.22337546944618225, 0.7792214155197144, 0.5117065906524658, -0.36189836263656616, 0.031386494636535645, 0.09759211540222168, -0.09436991810798645, -0.3276056522911719, 0.4601362379119002, 0.8246115199293547,0.03106494764555634,0.81060791015625,0.6092987060546875,-0.456268310546875
20220209-1457,2022-02-09 14:57:36Z,u01, 215,40,movements,el-ex, lt, d,18523.549537500003, 1.152407305540006, -0.5419994549428029, 0.41895940395770104, 0.16888269782066345, 0.7540948987007141, -0.21909582614898682, 0.7827858328819275, 0.5158498883247375, -0.34805920720100403, 0.003301262855529785, 0.018344998359680176, -0.055276334285736084, -0.32873081066482923, 0.46680451522674216, 0.8206016654291004,0.02534700070940371,0.7747039794921875,0.5583343505859375,-0.4044189453125
20220209-1457,2022-02-09 14:57:36Z,u01, 216,40,movements,el-ex, lt, d,18523.5744825, 1.1667916048335423, -0.5459577138875659, 0.41286209772251076, 0.01799907349050045, 0.6408441066741943, -0.18126128613948822, 0.78582763671875, 0.5192368030548096, -0.33595848083496094, 0.0223846435546875, -0.02344822883605957, -0.03946870565414429, -0.32895922549641304, 0.4730820130438714, 0.817070384155988,0.019371759103023967,0.8082122802734375,0.49578857421875,-0.37542724609375
20220209-1457,2022-02-09 14:57:36Z,u01, 217,40,movements,el-ex, lt, d,18523.5994285, 1.1841313110207228, -0.5505564508596744, 0.416492194961247, -0.41001826524734497, 0.6184520125389099, -0.09999273717403412, 0.7893146872520447, 0.5231615304946899, -0.3213787376880646, -0.0012288093566894531, -0.06739681959152222, 0.01380738615989685, -0.33171102428302396, 0.47883026578870125, 0.812656837997804,0.01667911303792141,0.790313720703125,0.452117919921875,-0.325164794921875
20220209-1457,2022-02-09 14:57:36Z,u01, 218,40,movements,el-ex, lt, d,18523.624374500003, 1.2084792645358022, -0.5579508766515088, 0.4318294355437803, -0.7234970331192017, 0.6914392709732056, -0.07832513004541397, 0.7932657599449158, 0.529448926448822, -0.3006877899169922, -0.004600048065185547, -0.0527033805847168, 0.05573853850364685, -0.3383626665833659, 0.4849400115207505, 0.8062665630770598,0.016674283859617,0.788665771484375,0.47674560546875,-0.2449493408203125
20220209-1457,2022-02-09 14:57:36Z,u01, 219,40,movements,el-ex, lt, d,18523.6493205, 1.2360367829029972, -0.565378002821429, 0.4490660704681726, -0.451776921749115, 0.7722380757331848, -0.06288617849349976, 0.7975137829780579, 0.535735011100769, -0.2774163782596588, 0.018709421157836914, 0.031235814094543457, -0.010394871234893799, -0.34552465731641796, 0.4918378952796832, 0.7990177874081955,0.016698245397295086,0.8077392578125,0.5482177734375,-0.2742156982421875
20220209-1457,2022-02-09 14:57:36Z,u01, 220,40,movements,el-ex, lt, d,18523.674266500002, 1.2575661825582884, -0.5669665923188962, 0.452435961965613, 0.18694958090782166, 0.7868547439575195, 0.014878053218126297, 0.8024904131889343, 0.5370757579803467, -0.2599208652973175, 0.0318448543548584, 0.0859559178352356, -0.027493655681610107, -0.347098884267728, 0.49956173624457056, 0.7935798857198071,0.013837773972186829,0.8343353271484375,0.6230316162109375,-0.28741455078125
20220209-1457,2022-02-09 14:57:36Z,u01, 221,40,movements,el-ex, lt, d,18523.6992125, 1.2727582310952263, -0.5636857231676773, 0.4426624506205967, 0.4080091714859009, 0.8648045063018799, 0.008642329834401608, 0.8080263733863831, 0.5343053340911865, -0.2482159435749054, -0.015561223030090332, 0.018688440322875977, -0.001417800784111023, -0.34354287124843136, 0.5078093396869691, 0.7899610612588628,0.0083354627168023,0.8038330078125,0.5654144287109375,-0.2577362060546875
20220209-1457,2022-02-09 14:57:36Z,u01, 222,40,movements,el-ex, lt, d,18523.7241585, 1.2903115589837526, -0.5616959857894754, 0.4331292357861289, 0.2589084804058075, 0.9116494655609131, -0.03210270404815674, 0.8132786154747009, 0.5326223373413086, -0.23428869247436523, -0.003464221954345703, -0.02613741159439087, -0.015802785754203796, -0.34043530699902996, 0.5166811916698122, 0.7855822712654041,0.002184632904924988,0.809814453125,0.5064849853515625,-0.250091552734375
20220209-1457,2022-02-09 14:57:36Z,u01, 223,40,movements,el-ex, lt, d,18523.749103500002, 1.3084834354025159, -0.561132729900928, 0.4273586848400083, 0.11746332049369812, 0.750058114528656, -0.02506989613175392, 0.8176913857460022, 0.5321455597877502, -0.21954984962940216, 0.07261329889297485, -0.02253246307373047, -0.08268097043037415, -0.33872857045494925, 0.5248695389117815, 0.7808752554039278,-0.002987456855006565,0.8870391845703125,0.505279541015625,-0.301483154296875
20220209-1457,2022-02-09 14:57:36Z,u01, 224,40,movements,el-ex, lt, d,18523.7740495, 1.3243884708403393, -0.5610066876447221, 0.42688900269545527, -0.04245171695947647, 0.5761591196060181, 0.01583053357899189, 0.821144700050354, 0.5320388674736023, -0.2065335363149643, 0.039313673973083496, -0.012110888957977295, -0.07608972489833832, -0.3385250027324188, 0.5311629255115349, 0.776680668319757,-0.005824200865849005,0.8604583740234375,0.519927978515625,-0.282623291015625
20220209-1457,2022-02-09 14:57:36Z,u01, 225,40,movements,el-ex, lt, d,18523.7989955, 1.3409300937493391, -0.5611972394288499, 0.42890585068277226, -0.09792490303516388, 0.685124933719635, 0.01639685593545437, 0.8243498206138611, 0.5322001576423645, -0.19289973378181458, -0.025781095027923584, -0.008106589317321777, -0.04155153036117554, -0.33907378132662236, 0.5371955926740727, 0.7722612139287929,-0.007905057641706792,0.798370361328125,0.5251617431640625,-0.241729736328125
20220209-1457,2022-02-09 14:57:36Z,u01, 226,40,movements,el-ex, lt, d,18523.823941500003, 1.3592405991693, -0.5611221006105622, 0.43064763734057676, 0.03223809599876404, 0.6672486066818237, 0.003513147123157978, 0.8277826905250549, 0.5321365594863892, -0.17778238654136658, 0.04154103994369507, -0.0014511346817016602, -0.10304032266139984, -0.3394350091195065, 0.5439601866514726, 0.7673231334533979,-0.010316838861204713,0.86932373046875,0.5306854248046875,-0.28082275390625
20220209-1457,2022-02-09 14:57:36Z,u01, 227,40,movements,el-ex, lt, d,18523.8488875, 1.3719164259748955, -0.5604575183262227, 0.42695788836078574, 0.19947493076324463, 0.49021369218826294, 0.029727239161729813, 0.8303162455558777, 0.5315737724304199, -0.16734538972377777, 0.07506418228149414, 0.012905657291412354, -0.12118305265903473, -0.33812058543511886, 0.5495468782932624, 0.7638626146517654,-0.0136643739870001,0.914215087890625,0.547607421875,-0.30352783203125
20220209-1457,2022-02-09 14:57:36Z,u01, 228,40,movements,el-ex, lt, d,18523.8738335, 1.3804398196582528, -0.5591188562475703, 0.4228504300718825, 0.049586497247219086, 0.410521537065506, 0.019450370222330093, 0.8324102759361267, 0.5304394364356995, -0.1603967696428299, 0.015566349029541016, -0.015363812446594238, -0.0903356522321701, -0.3364630063510955, 0.5537095469357872, 0.7615344213920342,-0.016238763297600767,0.8479766845703125,0.51507568359375,-0.250732421875
20220209-1457,2022-02-09 14:57:36Z,u01, 229,40,movements,el-ex, lt, d,18523.8987795, 1.3908671571597675, -0.5587220313351123, 0.4226739482348317, 0.014594187960028648, 0.4180295765399933, 0.021988429129123688, 0.8342446684837341, 0.5301030278205872, -0.15174606442451477, 0.05558687448501587, 0.0012843608856201172, -0.09356945753097534, -0.3361887202405526, 0.5577670763299158, 0.7586512001533576,-0.01793136206562207,0.8725128173828125,0.5199127197265625,-0.2433929443359375
20220209-1457,2022-02-09 14:57:36Z,u01, 230,40,movements,el-ex, lt, d,18523.9237245, 1.3990419188327552, -0.557596759037149, 0.4208338272310556, 0.10826555639505386, 0.30649346113204956, 0.020707715302705765, 0.836044430732727, 0.529148519039154, -0.1450231671333313, 0.09255975484848022, -0.000706017017364502, -0.1301233321428299, -0.3352125806660926, 0.5613563387923416, 0.7563901970751186,-0.019635912444962933,0.9286041259765625,0.5284423828125,-0.275146484375
20220209-1457,2022-02-09 14:57:36Z,u01, 231,40,movements,el-ex, lt, d,18523.9486705, 1.403840215845379, -0.5574596397155721, 0.41748467337503753, 0.09740135818719864, 0.2487308830022812, -0.0227933581918478, 0.8368023037910461, 0.5290321707725525, -0.1410219967365265, 0.026875853538513184, -0.02456122636795044, -0.09349031746387482, -0.3341742435259592, 0.5637522307680651, 0.7550112676612827,-0.021659794173747693,0.8770599365234375,0.5098114013671875,-0.2492828369140625
20220209-1457,2022-02-09 14:57:36Z,u01, 232,40,movements,el-ex, lt, d,18523.9736165, 1.4086845804569015, -0.5574088343496899, 0.41483139898533195, 0.06706422567367554, 0.2326885461807251, -0.017150118947029114, 0.8375020027160645, 0.5289890170097351, -0.1369708925485611, 0.019202709197998047, -0.028378665447235107, -0.0799938440322876, -0.3333529306557424, 0.5660303667374182, 0.7536149242703332,-0.02345240925760189,0.8567047119140625,0.5006103515625,-0.2169647216796875
20220209-1457,2022-02-09 14:57:36Z,u01, 233,40,movements,el-ex, lt, d,18523.9985625, 1.4124545914685644, -0.5577064033209987, 0.4139971038675138, 0.0053831469267606735, 0.0873369425535202, -0.00981444213539362, 0.8378569483757019, 0.5292415618896484, -0.13378770649433136, 0.0750306248664856, -0.018133163452148438, -0.14764533936977386, -0.33317244018208886, 0.567540547027755, 0.7525250728931205,-0.024491916409062398,0.909149169921875,0.5105133056640625,-0.27178955078125
20220209-1457,2022-02-09 14:57:36Z,u01, 234,40,movements,el-ex, lt, d,18524.023508375, 1.4128862139372012, -0.5578025742395194, 0.4144177016900677, -0.07458093017339706, -0.05045980215072632, 1.6616657376289368e-05, 0.837864339351654, 0.529323160648346, -0.13341805338859558, 0.04777103662490845, -0.026912212371826172, -0.15736865997314453, -0.333319163918523, 0.5676172181323763, 0.752404074212883,-0.024437016682850365,0.8856353759765625,0.502410888671875,-0.2907867431640625
20220209-1457,2022-02-09 14:57:36Z,u01, 235,40,movements,el-ex, lt, d,18524.048454375003, 1.4113886135271954, -0.55754087314715, 0.4187752664828941, -0.23889270424842834, -0.1945452094078064, 0.02989049255847931, 0.8378002643585205, 0.5291010737419128, -0.1346946507692337, 0.04005306959152222, -0.04384112358093262, -0.16333995759487152, -0.3344832779699999, 0.5663687913252089, 0.7528895774453396,-0.022461635304986294,0.875244140625,0.484100341796875,-0.28900146484375
20220209-1457,2022-02-09 14:57:36Z,u01, 236,40,movements,el-ex, lt, d,18524.073400375, 1.4081709539887435, -0.5569725233828434, 0.42597919593603323, -0.2912827134132385, -0.29124411940574646, 0.0320688933134079, 0.8376592397689819, 0.5286186933517456, -0.13743840157985687, 0.033297181129455566, -0.025460124015808105, -0.19660699367523193, -0.33635961242704143, 0.564041673838826, 0.75389481881282,-0.019022694015167263,0.8709564208984375,0.5031585693359375,-0.33404541015625
20220209-1457,2022-02-09 14:57:36Z,u01, 237,40,movements,el-ex, lt, d,18524.098345375, 1.4006334066556816, -0.5554263799475382, 0.43141335306805145, -0.1500450223684311, -0.3712880611419678, 0.030202016234397888, 0.8374040722846985, 0.5273056030273438, -0.14388656616210938, 0.04501175880432129, 0.03305816650390625, -0.24937820434570312, -0.33742652311195154, 0.5605355074526942, 0.7561166454346724,-0.015197976845024608,0.8794403076171875,0.5482635498046875,-0.3895263671875
20220209-1457,2022-02-09 14:57:36Z,u01, 238,40,movements,el-ex, lt, d,18524.123291375003, 1.390107868111665, -0.5547493737867258, 0.43202893573362616, 0.07538384199142456, -0.45321038365364075, -0.002621178049594164, 0.8361942172050476, 0.5267302989959717, -0.1527566909790039, 0.05591100454330444, 0.039233505725860596, -0.2732839584350586, -0.33744162633354985, 0.5565561987215463, 0.7590851398026619,-0.01296942533281581,0.8921051025390625,0.5659637451171875,-0.4260406494140625
20220209-1457,2022-02-09 14:57:36Z,u01, 239,40,movements,el-ex, lt, d,18524.148237375, 1.375761196367908, -0.5551392520173094, 0.4278583396945844, 0.1959494948387146, -0.549072802066803, -0.05749993771314621, 0.83371502161026, 0.5270616412162781, -0.1646973341703415, 0.07003253698348999, 0.029243290424346924, -0.30016160011291504, -0.3365104145369155, 0.5517355131565245, 0.7630191477852875,-0.012264813194311663,0.9019012451171875,0.5543060302734375,-0.4571533203125
20220209-1457,2022-02-09 14:57:36Z,u01, 240,40,movements,el-ex, lt, d,18524.173183375002, 1.3570640271519643, -0.555468705420534, 0.4210612985635636, 0.2544229328632355, -0.6724338531494141, -0.06177031993865967, 0.8303204774856567, 0.5273416042327881, -0.1802189201116562, 0.09044063091278076, 0.026079416275024414, -0.3364894390106201, -0.3348723281843692, 0.5456657035693131, 0.7680947384665089,-0.011833480182017853,0.9207611083984375,0.5534210205078125,-0.5167083740234375
20220209-1457,2022-02-09 14:57:36Z,u01, 241,40,movements,el-ex, lt, d,18524.198129375, 1.3343511247871667, -0.5555960821024015, 0.4124695341487572, 0.3181619346141815, -0.7990294694900513, -0.06725995987653732, 0.8259478807449341, 0.5274498462677002, -0.19901402294635773, 0.12334704399108887, 0.039597272872924805, -0.3663392961025238, -0.3327204585985131, 0.5383215415063181, 0.7741944452374883,-0.011395749868592042,0.943267822265625,0.5639190673828125,-0.559722900390625
20220209-1457,2022-02-09 14:57:36Z,u01, 242,40,movements,el-ex, lt, d,18524.223075375, 1.3067206744363844, -0.5554642197926782, 0.4021667090564478, 0.3558306097984314, -0.977858304977417, -0.09047073870897293, 0.8202016949653625, 0.5273377895355225, -0.2217746526002884, 0.15581142902374268, 0.04553818702697754, -0.375271201133728, -0.3300768261584915, 0.5293032827970591, 0.7815184003126308,-0.010783569712181362,0.97601318359375,0.5728759765625,-0.5970458984375
20220209-1457,2022-02-09 14:57:36Z,u01, 243,40,movements,el-ex, lt, d,18524.248021375002, 1.2735639324832795, -0.555023041213363, 0.3900295666275444, 0.4536397457122803, -1.1501784324645996, -0.10727155953645706, 0.8126213550567627, 0.5269628763198853, -0.24891112744808197, 0.1969153881072998, 0.06585633754730225, -0.37308287620544434, -0.3269107362450261, 0.5183375414052825, 0.7901621353590949,-0.00997218137664696,1.0071258544921875,0.587890625,-0.62646484375
20220209-1457,2022-02-09 14:57:36Z,u01, 244,40,movements,el-ex, lt, d,18524.272966375, 1.2342827036856094, -0.5534989868021033, 0.37200535235246285, 0.8853784799575806, -1.2539279460906982, -0.16410474479198456, 0.8029764294624329, 0.5256670117378235, -0.28089648485183716, 0.2588215470314026, 0.11384409666061401, -0.32196298241615295, -0.32193466412484784, 0.5058753155675354, 0.8002135631910829,-0.01031284348449979,1.061798095703125,0.6395111083984375,-0.6028594970703125
20220209-1457,2022-02-09 14:57:36Z,u01, 245,40,movements,el-ex, lt, d,18524.297912375, 1.1810258235287647, -0.5461319331598059, 0.33405157402936897, 1.6152864694595337, -1.408237338066101, -0.2437465786933899, 0.790446400642395, 0.5193856954574585, -0.3247048258781433, 0.38493818044662476, 0.2672353982925415, -0.2604391574859619, -0.31003409926000264, 0.49145339566784496, 0.8137106050414433,-0.015087530438008256,1.182586669921875,0.808990478515625,-0.5956268310546875
20220209-1457,2022-02-09 14:57:36Z,u01, 246,40,movements,el-ex, lt, d,18524.322858375002, 1.123159418715698, -0.5412464571913694, 0.29288180860750807, 0.9436882734298706, -1.5413954257965088, -0.5257881283760071, 0.7726224660873413, 0.515204668045044, -0.3709699511528015, 0.3129793405532837, 0.10064005851745605, -0.1440141797065735, -0.2987286971582436, 0.4746326947451833, 0.8276524978842463,-0.021824860127757972,1.085601806640625,0.6158447265625,-0.514984130859375
20220209-1457,2022-02-09 14:57:36Z,u01, 247,40,movements,el-ex, lt, d,18524.347804375, 1.0702287964162562, -0.5472741461285463, 0.2705307388171283, 0.3620213270187378, -1.7442134618759155, -0.5968459248542786, 0.7491758465766907, 0.5203614234924316, -0.40982887148857117, 0.2475740909576416, 0.07496023178100586, -0.21344685554504395, -0.29654398308406343, 0.455134295777049, 0.8392238401038659,-0.024858456512289018,1.01470947265625,0.5701446533203125,-0.597991943359375
20220209-1457,2022-02-09 14:57:36Z,u01, 248,40,movements,el-ex, lt, d,18524.372750375, 1.0143244660568238, -0.5537203336088656, 0.25006374875038706, 0.6522793173789978, -1.867647409439087, -0.5356435179710388, 0.7222428321838379, 0.525855302810669, -0.44926783442497253, 0.20773464441299438, 0.10346293449401855, -0.23031282424926758, -0.29532877918677597, 0.4337591364782132, 0.8508303312852121,-0.026865040983508115,0.9299774169921875,0.6293182373046875,-0.6795806884765625
20220209-1457,2022-02-09 14:57:37Z,u01, 249,40,movements,el-ex, lt, d,18524.397696375003, 0.9514725251378139, -0.5528720164505374, 0.22265161614586076, 0.929828941822052, -2.0500917434692383, -0.4094128906726837, 0.6929609775543213, 0.5251335501670837, -0.4940040111541748, 0.2114884853363037, 0.039716362953186035, -0.2964928150177002, -0.29006908757700367, 0.4109232551888262, 0.8637988808838805,-0.029215708251534078,0.8988494873046875,0.5743255615234375,-0.7693023681640625
20220209-1457,2022-02-09 14:57:37Z,u01, 250,40,movements,el-ex, lt, d,18524.422642375, 0.8824903273399952, -0.5442012560569375, 0.19335775717330764, 1.000571608543396, -2.2481343746185303, -0.3154999911785126, 0.6607542634010315, 0.5177348852157593, -0.5434651970863342, 0.2294740080833435, 0.020351052284240723, -0.288443922996521, -0.28158656279034533, 0.3859746121410772, 0.8779650043134684,-0.0301685669181197,0.890228271484375,0.5380859375,-0.8319091796875
20220209-1457,2022-02-09 14:57:37Z,u01, 251,40,movements,el-ex, lt, d,18524.447588375002, 0.8099827281613695, -0.5333667840916642, 0.1661536424176892, 1.0248565673828125, -2.44954776763916, -0.26634588837623596, 0.6236736178398132, 0.5084353685379028, -0.5937380194664001, 0.27299392223358154, 0.09746068716049194, -0.35538917779922485, -0.27291954223314785, 0.3586724213092403, 0.8921742543204781,-0.029904414490775966,0.887451171875,0.5948638916015625,-0.9224700927734375
20220209-1457,2022-02-09 14:57:37Z,u01, 252,40,movements,el-ex, lt, d,18524.472533375, 0.7334315693924027, -0.5190416996275545, 0.14106679418237117, 0.9903295636177063, -2.6778221130371094, -0.18648621439933777, 0.5812564492225647, 0.4960482716560364, -0.6450403928756714, 0.337520956993103, 0.1087644100189209, -0.3525334596633911, -0.26338202453504245, 0.32880042935159176, 0.9064906395046108,-0.02819582489988126,0.9187774658203125,0.6048126220703125,-0.9975738525390625
