SessionID,LoggingTime,UID,RecNo,Hertz,Activity,MoveType,Wrist,Side,TimeStamp,DMRoll,DMPitch,DMYaw,DMRotX,DMRotY,DMRotZ,DMGrvX,DMGrvY,DMGrvZ,DMUAccelX,DMUAccelY,DMUAccelZ,DMQuatX,DMQuatY,DMQuatW,DMQuatZ,AccelroX,AceelroY,AceelroZ
20220209-1452,2022-02-09 14:52:30Z,u01, 1,40,movements,el-ex, lt, d,18217.651174625, 1.1472921614064298, -0.5770958045659169, 0.37897916622767175, 0.8234325051307678, -1.8846980333328247, -0.24195140600204468, 0.7640123963356018, 0.5455923676490784, -0.34440314769744873, 0.2945810556411743, 0.1067359447479248, -0.3841126263141632, -0.3327274592224181, 0.4659301018004535, 0.8198787971416375,5.551115123125783e-17,1.0350494384765625,0.6485137939453125,-0.6729278564453125
20220209-1452,2022-02-09 14:52:30Z,u01, 2,40,movements,el-ex, lt, d,18217.676120625, 1.083752331592047, -0.5736979761930425, 0.35448162194822985, 0.7490565180778503, -2.2317097187042236, -0.1665472537279129, 0.7422361373901367, 0.5427416563034058, -0.39308613538742065, 0.16921693086624146, 0.11140251159667969, -0.34635496139526367, -0.3258195169158994, 0.4441830475193755, 0.8345904905544566,0.001249551567269025,1.0685882568359375,0.6482696533203125,-0.7541351318359375
20220209-1452,2022-02-09 14:52:30Z,u01, 3,40,movements,el-ex, lt, d,18217.701066875, 1.0157282461911912, -0.5706675031129144, 0.3334412902610861, 0.6169590353965759, -2.3459391593933105, -0.26330897212028503, 0.71519535779953, 0.5401939153671265, -0.4434927701950073, 0.19392305612564087, 0.13435125350952148, -0.3043101131916046, -0.31998099359841053, 0.4193635377422355, 0.8495462796018627,0.004153228644814322,0.9994354248046875,0.6323089599609375,-0.7774810791015625
20220209-1452,2022-02-09 14:52:30Z,u01, 4,40,movements,el-ex, lt, d,18217.726012875002, 0.9441278253687617, -0.5684536028702197, 0.31467320016943295, 0.5746655464172363, -2.5701849460601807, -0.2875850796699524, 0.6826028823852539, 0.5383294820785522, -0.4942212402820587, 0.39370620250701904, 0.1194615364074707, -0.3060261011123657, -0.3150534545664458, 0.3919575291771593, 0.8643184245647696,0.008015562609330396,1.1214752197265625,0.628936767578125,-0.8076934814453125
20220209-1452,2022-02-09 14:52:30Z,u01, 5,40,movements,el-ex, lt, d,18217.750957875, 0.8669915354236467, -0.5638716783789767, 0.2939035094701314, 0.7578063011169434, -2.7115790843963623, -0.2859047055244446, 0.644362211227417, 0.5344625115394592, -0.5469433069229126, 0.4045267701148987, 0.15079432725906372, -0.25356340408325195, -0.30883649299318594, 0.36214411649004496, 0.8793900137592578,0.012029669177780034,1.0740509033203125,0.6584014892578125,-0.80059814453125
20220209-1452,2022-02-09 14:52:30Z,u01, 6,40,movements,el-ex, lt, d,18217.775903875, 0.7861056579500674, -0.5544645589917886, 0.27073029175274826, 0.8900781869888306, -2.8110084533691406, -0.23378169536590576, 0.601594865322113, 0.5264881253242493, -0.6007442474365234, 0.45950114727020264, 0.16876322031021118, -0.1878300905227661, -0.30022548550555606, 0.33089656687649105, 0.8944914016128656,0.016032317318687372,1.044403076171875,0.693634033203125,-0.80450439453125
20220209-1452,2022-02-09 14:52:30Z,u01, 7,40,movements,el-ex, lt, d,18217.800849875002, 0.7019049241081006, -0.5421153025977578, 0.2470822115188586, 0.9506809115409851, -2.935788154602051, -0.2905780076980591, 0.5530962347984314, 0.5159491300582886, -0.6541260480880737, 0.4548991918563843, 0.17396163940429688, -0.12376713752746582, -0.290331557164103, 0.2977323852220435, 0.9092068600773386,0.02014180197740434,1.06219482421875,0.6921539306640625,-0.790771484375
20220209-1452,2022-02-09 14:52:30Z,u01, 8,40,movements,el-ex, lt, d,18217.825794875, 0.6155161587092517, -0.5276566834570809, 0.22299416354881169, 0.978498637676239, -2.9865410327911377, -0.33916109800338745, 0.49885013699531555, 0.5035101175308228, -0.7054260969161987, 0.4204002022743225, 0.22572249174118042, -0.14128416776657104, -0.2795213676796805, 0.2629729272400409, 0.9231161031714834,0.023864103624838484,0.9781951904296875,0.7056427001953125,-0.786346435546875
20220209-1452,2022-02-09 14:52:30Z,u01, 9,40,movements,el-ex, lt, d,18217.850740875, 0.5283534329101234, -0.5126501774985299, 0.19876015215900097, 0.9385718703269958, -3.039959192276001, -0.42251646518707275, 0.43930718302726746, 0.4904884696006775, -0.7526155710220337, 0.4652794599533081, 0.27402251958847046, -0.09394216537475586, -0.26858496675575294, 0.22705581410566483, 0.9357300966978148,0.026772307472435974,0.9159088134765625,0.7340240478515625,-0.85357666015625
20220209-1452,2022-02-09 14:52:30Z,u01, 10,40,movements,el-ex, lt, d,18217.875686875002, 0.4386208297578118, -0.4967648720624495, 0.17368698308417818, 0.9821802973747253, -3.2013463973999023, -0.5320664644241333, 0.3733583688735962, 0.47658395767211914, -0.79590904712677, 0.5246517658233643, 0.3023160994052887, -0.050496041774749756, -0.2573343463476124, 0.18927365437879448, 0.9471674565982475,0.028777100114303678,0.904205322265625,0.778076171875,-0.844207763671875
20220209-1452,2022-02-09 14:52:30Z,u01, 11,40,movements,el-ex, lt, d,18217.900631875, 0.34426046840703217, -0.48047655466569983, 0.1481862804038381, 0.9170396327972412, -3.386155843734741, -0.6408485770225525, 0.2992870509624481, 0.4622018337249756, -0.8347434997558594, 0.5124956369400024, 0.27360740303993225, 0.0380668044090271, -0.24608980392803842, 0.14855320206686573, 0.9573191537372845,0.030195044254693326,0.8897552490234375,0.7740631103515625,-0.84039306640625
20220209-1452,2022-02-09 14:52:30Z,u01, 12,40,movements,el-ex, lt, d,18217.925577875, 0.2478650891465394, -0.4640020528441432, 0.12290723982357656, 0.876512885093689, -3.394819974899292, -0.711942195892334, 0.219395250082016, 0.447530597448349, -0.8669382929801941, 0.44872593879699707, 0.26391032338142395, 0.11893719434738159, -0.23511969197235474, 0.10606402358577852, 0.9656663393744075,0.03094240954187566,0.77386474609375,0.7295684814453125,-0.794189453125
20220209-1452,2022-02-09 14:52:30Z,u01, 13,40,movements,el-ex, lt, d,18217.950523875003, 0.15257174587997496, -0.44704272556653807, 0.09704661986989989, 0.8687199950218201, -3.308199882507324, -0.8345603346824646, 0.13704529404640198, 0.43230077624320984, -0.8912544846534729, 0.45154714584350586, 0.2731282114982605, 0.2314339280128479, -0.2243645866535611, 0.06350808883428613, 0.9719618493485832,0.03028645960573284,0.6565093994140625,0.7145843505859375,-0.7375030517578125
20220209-1452,2022-02-09 14:52:30Z,u01, 14,40,movements,el-ex, lt, d,18217.975468875, 0.05967371637552821, -0.4254822251514443, 0.07025086016968642, 1.0682964324951172, -3.2407386302948, -0.910379946231842, 0.05432094261050224, 0.41276004910469055, -0.9092185497283936, 0.4199831783771515, 0.2677360773086548, 0.4427115321159363, -0.2119399151079397, 0.021730339530552145, 0.9766392191020922,0.02801628563709707,0.55987548828125,0.6966552734375,-0.62176513671875
20220209-1452,2022-02-09 14:52:30Z,u01, 15,40,movements,el-ex, lt, d,18218.000414875, -0.028782155165770085, -0.3957632354727638, 0.04555570705308045, 1.3420319557189941, -3.0240015983581543, -0.9123479723930359, -0.026553701609373093, 0.3855125308036804, -0.9223204255104065, 0.4362521171569824, 0.26332157850265503, 0.5559873580932617, -0.196200049828808, -0.018583205700516636, 0.9800648068337843,0.025157459932885318,0.4664459228515625,0.67767333984375,-0.444549560546875
20220209-1452,2022-02-09 14:52:30Z,u01, 16,40,movements,el-ex, lt, d,18218.025360875003, -0.10876687015809308, -0.3612739242976095, 0.021909837808156852, 1.2186015844345093, -2.6970529556274414, -1.0190030336380005, -0.10154517740011215, 0.3534662127494812, -0.9299194812774658, 0.3427408039569855, 0.12981006503105164, 0.936602771282196, -0.1787940799218143, -0.05543418658384249, 0.9821090984492875,0.02052545249152088,0.367156982421875,0.6373138427734375,-0.2970733642578125
20220209-1452,2022-02-09 14:52:30Z,u01, 17,40,movements,el-ex, lt, d,18218.050305875, -0.18121988372222034, -0.33709610146721825, -0.0008856283954787271, 0.35744333267211914, -2.4424235820770264, -0.9178053736686707, -0.17008613049983978, 0.3307480216026306, -0.9282652735710144, 0.3530694842338562, 0.009385555982589722, 1.1115996837615967, -0.1671024882371836, -0.08912978238358293, 0.9817917787201782,0.014744385283718853,0.2329559326171875,0.4710235595703125,0.036834716796875
20220209-1452,2022-02-09 14:52:30Z,u01, 18,40,movements,el-ex, lt, d,18218.075251875, -0.24357855280458046, -0.33262955949671225, -0.024687436035090153, -0.2463354766368866, -1.867395281791687, -0.9498833417892456, -0.22795744240283966, 0.3265295922756195, -0.9172860980033875, 0.21687951683998108, -0.15448680520057678, 1.2324869632720947, -0.1657892410167997, -0.11777464468835526, 0.9790702420136983,0.008027853533164764,0.1512908935546875,0.2825775146484375,0.227935791015625
20220209-1452,2022-02-09 14:52:30Z,u01, 19,40,movements,el-ex, lt, d,18218.100197875003, -0.28614691713885265, -0.330048718348323, -0.05078286529938413, 0.1014321818947792, -0.8124940991401672, -0.9679564237594604, -0.2670234739780426, 0.3240891098976135, -0.9075597524642944, 0.033396124839782715, -0.1259233057498932, 1.290387511253357, -0.166116342854786, -0.13647523971428274, 0.9766155137610331,-0.0013719609964762403,-0.0382537841796875,0.1735382080078125,0.3267059326171875
20220209-1452,2022-02-09 14:52:30Z,u01, 20,40,movements,el-ex, lt, d,18218.125142875, -0.29896429461647006, -0.3128890774415078, -0.06892205160380471, 0.7745169401168823, 0.18959647417068481, -0.7380398511886597, -0.2802306115627289, 0.3078087270259857, -0.9092439413070679, -0.050610482692718506, -0.17917722463607788, 1.2049897909164429, -0.1590466604569476, -0.14171164132211303, 0.9769914206024324,-0.01046392707285565,-0.2928924560546875,0.19329833984375,0.3705596923828125
20220209-1452,2022-02-09 14:52:30Z,u01, 21,40,movements,el-ex, lt, d,18218.150088875, -0.2890848280410973, -0.2877446812391934, -0.07722233965028505, 0.8257553577423096, 0.7156117558479309, -0.4786951243877411, -0.2733546793460846, 0.28379034996032715, -0.9190974831581116, 0.05172073841094971, -0.2159803807735443, 1.1116175651550293, -0.14727834626141922, -0.13696836256247424, 0.9794150657633516,-0.01716786265675868,-0.3209381103515625,0.1214599609375,0.286346435546875
20220209-1452,2022-02-09 14:52:30Z,u01, 22,40,movements,el-ex, lt, d,18218.175033875003, -0.27054972959586204, -0.27385749701399814, -0.08390145962795, 0.06749644875526428, 0.8858647346496582, -0.33759579062461853, -0.2573016583919525, 0.2704471945762634, -0.927714467048645, 0.10100585222244263, -0.2836766242980957, 0.890483021736145, -0.14073823171623848, -0.12781046255422876, 0.9814980304918822,-0.022773597975035698,-0.1887359619140625,0.043487548828125,0.145477294921875
20220209-1452,2022-02-09 14:52:30Z,u01, 23,40,movements,el-ex, lt, d,18218.199979875, -0.25006057519446995, -0.2798081250512457, -0.0922033764663308, -0.606057345867157, 0.9360412955284119, -0.1347581148147583, -0.23783844709396362, 0.2761712372303009, -0.9312154650688171, 0.07907073199748993, -0.25215402245521545, 0.7635519504547119, -0.14390349230109184, -0.11697879957056158, 0.982256934409584,-0.027907473003062344,-0.157745361328125,-0.012786865234375,-0.0549468994140625
20220209-1452,2022-02-09 14:52:30Z,u01, 24,40,movements,el-ex, lt, d,18218.224925875, -0.22567426091089382, -0.29936015585998077, -0.09799924527277042, -0.9795417785644531, 1.2082351446151733, 0.06949056684970856, -0.21381177008152008, 0.29490888118743896, -0.9312965273857117, -0.018900051712989807, -0.19133231043815613, 0.6353828310966492, -0.15344902856857653, -0.10394769951711078, 0.9821736178923637,-0.03135372585031965,-0.1658477783203125,0.044158935546875,-0.20849609375
20220209-1452,2022-02-09 14:52:30Z,u01, 25,40,movements,el-ex, lt, d,18218.249870875003, -0.19027053144126616, -0.3199842488815646, -0.09775005494281076, -0.4069075584411621, 1.6270891427993774, 0.3069055676460266, -0.17952466011047363, 0.31455162167549133, -0.932109534740448, -0.015192791819572449, -0.114188551902771, 0.5110127329826355, -0.16298227361906562, -0.08591864923117887, 0.9823300825586488,-0.032898396288864484,-0.2364349365234375,0.108428955078125,-0.3066253662109375
20220209-1452,2022-02-09 14:52:30Z,u01, 26,40,movements,el-ex, lt, d,18218.274816875, -0.1415160325526629, -0.31797119762730014, -0.0869454861383639, 0.63045334815979, 2.0081570148468018, 0.5020125508308411, -0.1339738368988037, 0.31264010071754456, -0.9403760433197021, 0.10366986691951752, -0.023745566606521606, 0.2714613080024719, -0.1608051111452788, -0.06287833746640192, 0.9844733635113018,-0.03162133378011017,-0.14593505859375,0.262603759765625,-0.507537841796875
20220209-1452,2022-02-09 14:52:30Z,u01, 27,40,movements,el-ex, lt, d,18218.299762875, -0.08484336670844704, -0.306134899338377, -0.07087424676699107, 0.253307044506073, 2.115016460418701, 0.5506935715675354, -0.0808015987277031, 0.30137550830841064, -0.9500757455825806, 0.07691055536270142, -0.1548912525177002, 0.22607672214508057, -0.15372260545000213, -0.03648968253176479, 0.9870279387413641,-0.028521910607467837,-0.0224151611328125,0.271697998046875,-0.673828125
20220209-1452,2022-02-09 14:52:30Z,u01, 28,40,movements,el-ex, lt, d,18218.324707875003, -0.02864303222957509, -0.31028313052998824, -0.05639841401040754, -0.4232553243637085, 2.019538402557373, 0.6091305017471313, -0.027271516621112823, 0.30532824993133545, -0.9518565535545349, 0.14044588804244995, -0.0723724365234375, 0.09390062093734741, -0.15484164347290663, -0.009787084824131598, 0.9875579088089765,-0.025641972931691848,0.0089111328125,0.12188720703125,-0.7499542236328125
20220209-1452,2022-02-09 14:52:30Z,u01, 29,40,movements,el-ex, lt, d,18218.349653875, 0.025577513595776844, -0.3209490964743785, -0.03884108635157578, -0.41127896308898926, 1.894380807876587, 0.6910593509674072, 0.02426878735423088, 0.31546732783317566, -0.9486260414123535, 0.18608880043029785, 0.030556142330169678, -0.028958797454833984, -0.15949834334222562, 0.01572441389344205, 0.9868449360191122,-0.021211281207175692,0.129547119140625,0.2466278076171875,-0.8805084228515625
20220209-1452,2022-02-09 14:52:30Z,u01, 30,40,movements,el-ex, lt, d,18218.374599875002, 0.0769312580622057, -0.3304751802897716, -0.020211372449848695, -0.4603023827075958, 1.7978757619857788, 0.6590626835823059, 0.07269661873579025, 0.32449254393577576, -0.943090558052063, 0.155025452375412, 0.10046461224555969, 0.006582379341125488, -0.1639733085690211, 0.039591403387026686, 0.9855353529860018,-0.01628569938168606,0.233123779296875,0.386077880859375,-0.9818572998046875
20220209-1452,2022-02-09 14:52:31Z,u01, 31,40,movements,el-ex, lt, d,18218.399544875003, 0.12984730069589848, -0.3401052772741305, -0.003474525577930752, -0.34610456228256226, 2.0023410320281982, 0.5304113030433655, 0.12206590175628662, 0.33358633518218994, -0.9347834587097168, 0.08395818620920181, 0.1094372570514679, 0.03581184148788452, -0.16876635253195704, 0.06423553065709137, 0.9834788558324443,-0.012688167552750984,0.2203369140625,0.426422119140625,-0.9249114990234375
20220209-1452,2022-02-09 14:52:31Z,u01, 32,40,movements,el-ex, lt, d,18218.424490875, 0.185410788642372, -0.33927532724340204, 0.009270904894929398, 0.3113655149936676, 2.114882230758667, 0.4356481432914734, 0.17384161055088043, 0.3328038156032562, -0.9268336892127991, 0.1056840568780899, 0.16798952221870422, -0.026413381099700928, -0.16852144426671367, 0.09046368497739798, 0.9814753684897706,-0.011079157305911747,0.2295989990234375,0.468475341796875,-0.923370361328125
20220209-1452,2022-02-09 14:52:31Z,u01, 33,40,movements,el-ex, lt, d,18218.449436875002, 0.24208533742175228, -0.3282115152454408, 0.019913717862073264, 0.17015191912651062, 2.155222177505493, 0.5253910422325134, 0.22693109512329102, 0.32235053181648254, -0.9190170764923096, 0.11840571463108063, 0.062079280614852905, 0.07187962532043457, -0.16335290332202654, 0.11750443453486634, 0.9794941818127958,-0.009974482966628229,0.286468505859375,0.4965362548828125,-0.9454345703125
20220209-1452,2022-02-09 14:52:31Z,u01, 34,40,movements,el-ex, lt, d,18218.474381875, 0.30151420486737746, -0.33153513064937046, 0.03512643376936932, -0.640887975692749, 2.195441484451294, 0.476596862077713, 0.28079476952552795, 0.3254949450492859, -0.902888298034668, 0.16553997993469238, -0.018183022737503052, 0.10059642791748047, -0.1657141481438555, 0.1452400149680844, 0.9753899045668587,-0.007653298270472897,0.3677978515625,0.3385467529296875,-0.7989959716796875
20220209-1452,2022-02-09 14:52:31Z,u01, 35,40,movements,el-ex, lt, d,18218.499327875, 0.3612313400016344, -0.3392245909984138, 0.05039992855780928, -0.04088158532977104, 2.157029628753662, 0.4586869478225708, 0.3332856595516205, 0.332755982875824, -0.8821530938148499, 0.14437532424926758, 0.13031765818595886, -0.11841148138046265, -0.17046305888564822, 0.17281722291242463, 0.9700730911302458,-0.005881122715568066,0.4490966796875,0.3237457275390625,-0.8217010498046875
20220209-1452,2022-02-09 14:52:31Z,u01, 36,40,movements,el-ex, lt, d,18218.524273875002, 0.415911011292807, -0.3224464341684501, 0.0564409581646422, 0.9318179488182068, 2.056112289428711, 0.5059688091278076, 0.3832013010978699, 0.31688785552978516, -0.8676052093505859, 0.09641283750534058, 0.09633532166481018, -0.17695045471191406, -0.16275470514162588, 0.1992693881450366, 0.9663167226745697,-0.005878154169222105,0.4789581298828125,0.5069427490234375,-1.0686187744140625
20220209-1452,2022-02-09 14:52:31Z,u01, 37,40,movements,el-ex, lt, d,18218.549218875, 0.4660851702131874, -0.30258673947486625, 0.06170416747071166, 0.16510295867919922, 1.8774574995040894, 0.5037522912025452, 0.42897605895996094, 0.2979904115200043, -0.8527491688728333, 0.10268577933311462, -0.04867717623710632, -0.019611060619354248, -0.15361539154280462, 0.22366877212280672, 0.9624697910266639,-0.005119342775418978,0.4847259521484375,0.3939056396484375,-1.0268402099609375
20220209-1452,2022-02-09 14:52:31Z,u01, 38,40,movements,el-ex, lt, d,18218.574164875, 0.5167755107011777, -0.30452371482392965, 0.0749210679811316, -0.5544420480728149, 1.839850902557373, 0.3131231963634491, 0.4713466167449951, 0.2998388409614563, -0.8294148445129395, 0.18331632018089294, 0.014858335256576538, 0.0024799704551696777, -0.15599527659102658, 0.24689682669382462, 0.9563988454313754,-0.002939351576377869,0.5539398193359375,0.2130584716796875,-0.812957763671875
20220209-1452,2022-02-09 14:52:31Z,u01, 39,40,movements,el-ex, lt, d,18218.599110875002, 0.5643682548368552, -0.3058926471512958, 0.08296712105502486, 0.3483574092388153, 1.8222641944885254, 0.17693759500980377, 0.5100520849227905, 0.3011445105075836, -0.80570387840271, 0.12544578313827515, 0.18593120574951172, -0.13988333940505981, -0.1576124567295821, 0.268898430058832, 0.950180318456215,-0.003019719314119984,0.66534423828125,0.33612060546875,-0.855499267578125
20220209-1452,2022-02-09 14:52:31Z,u01, 40,40,movements,el-ex, lt, d,18218.624055875, 0.6084903531630622, -0.28788805658054495, 0.07494429322175818, 0.856073796749115, 1.8921595811843872, 0.11873340606689453, 0.5481044054031372, 0.2839278280735016, -0.7867442965507507, 0.06833529472351074, 0.03211212158203125, 0.004303991794586182, -0.1478702777744095, 0.2911395650397843, 0.9451533105302418,-0.007569680386255162,0.6060638427734375,0.5105438232421875,-0.9506378173828125
20220209-1452,2022-02-09 14:52:31Z,u01, 41,40,movements,el-ex, lt, d,18218.649001875, 0.6507956081523695, -0.27653001049950393, 0.07021461439271456, 0.08361490070819855, 1.5670056343078613, 0.05409063771367073, 0.5828036069869995, 0.27301913499832153, -0.7653759717941284, 0.2193201780319214, -0.1176694929599762, -0.0012103915214538574, -0.14162579445206785, 0.31185596877522886, 0.9394491581085234,-0.0110927369785917,0.630035400390625,0.2898712158203125,-0.749908447265625
20220209-1452,2022-02-09 14:52:31Z,u01, 42,40,movements,el-ex, lt, d,18218.673946875002, 0.6884353404359812, -0.28251615878917385, 0.07381390259904358, -0.4109955430030823, 1.446079969406128, -0.09829524159431458, 0.61014324426651, 0.2787729501724243, -0.741627037525177, 0.11774653196334839, -0.01177474856376648, 0.031910240650177, -0.14476762279494124, 0.3289814774046956, 0.9330819011625685,-0.01309016232300858,0.8123626708984375,0.1566162109375,-0.7623291015625
20220209-1452,2022-02-09 14:52:31Z,u01, 43,40,movements,el-ex, lt, d,18218.698892875, 0.7254835563632063, -0.2899131460934047, 0.07526195542782992, -0.11899936199188232, 1.4613004922866821, -0.23816445469856262, 0.6358086466789246, 0.2858690023422241, -0.7169561386108398, 0.09012806415557861, 0.03609132766723633, -0.03176218271255493, -0.14816394535198574, 0.3457880390835498, 0.9263953702223522,-0.016414984764219598,0.7181243896484375,0.2825775146484375,-0.7117919921875
20220209-1452,2022-02-09 14:52:31Z,u01, 44,40,movements,el-ex, lt, d,18218.723838041667, 0.7586137510795504, -0.29647216744901345, 0.07314928391745555, -0.29666754603385925, 1.1744810342788696, -0.24517829716205597, 0.6579042673110962, 0.2921481132507324, -0.6941262483596802, 0.1917811632156372, 0.045864492654800415, 0.0309181809425354, -0.1504954366263726, 0.360954273316839, 0.9201192776484043,-0.021056133386818887,0.756805419921875,0.352020263671875,-0.72857666015625
20220209-1452,2022-02-09 14:52:31Z,u01, 45,40,movements,el-ex, lt, d,18218.74878304167, 0.7877825871952826, -0.3116862715518651, 0.08071447596114509, -0.906352162361145, 1.0534989833831787, -0.26788413524627686, 0.6746397018432617, 0.3066641092300415, -0.6714300513267517, 0.13190925121307373, -0.05017918348312378, -0.016039490699768066, -0.15850720225394932, 0.3730421320980519, 0.9138921809135481,-0.022714739161383113,0.850128173828125,0.340484619140625,-0.653167724609375
20220209-1452,2022-02-09 14:52:31Z,u01, 46,40,movements,el-ex, lt, d,18218.773729041666, 0.8196752784529351, -0.33254628216552645, 0.09102433305249806, -0.6949037313461304, 1.2490357160568237, -0.3099340498447418, 0.6908799409866333, 0.3264508545398712, -0.6450695395469666, 0.022941291332244873, 0.07290208339691162, -0.07471823692321777, -0.16952291663244975, 0.3856516862762483, 0.9065998414429209,-0.024726933737575174,0.76153564453125,0.277923583984375,-0.721405029296875
20220209-1452,2022-02-09 14:52:31Z,u01, 47,40,movements,el-ex, lt, d,18218.798675041668, 0.8537500241596796, -0.34438178589758633, 0.09465874331119005, -0.25130224227905273, 1.3121496438980103, -0.22262856364250183, 0.709493100643158, 0.33761483430862427, -0.6185755133628845, 0.09162366390228271, 0.02629193663597107, -0.0631873607635498, -0.17508983940777897, 0.4000697366733403, 0.8991547498670777,-0.028431424501602964,0.7183074951171875,0.399078369140625,-0.715057373046875
20220209-1452,2022-02-09 14:52:31Z,u01, 48,40,movements,el-ex, lt, d,18218.82362004167, 0.88565880327685, -0.3530519365036221, 0.09892421162245132, -0.5435678362846375, 1.1346585750579834, -0.11509718745946884, 0.726572573184967, 0.34576311707496643, -0.5937507748603821, 0.16078686714172363, -0.058211326599121094, -0.0026238560676574707, -0.17933418661730077, 0.4134777606635507, 0.8921340421342725,-0.031178032778315212,0.8502655029296875,0.3481903076171875,-0.6644287109375
20220209-1452,2022-02-09 14:52:31Z,u01, 49,40,movements,el-ex, lt, d,18218.848566041666, 0.9180583250058709, -0.36722478181591445, 0.11301677352047679, -0.8664804100990295, 1.1161011457443237, -0.12165315449237823, 0.7414574027061462, 0.35902664065361023, -0.5668691992759705, 0.08076226711273193, -0.05157741904258728, -0.07006329298019409, -0.18802446033354894, 0.4256902753263565, 0.8845756724807277,-0.030988380023204698,0.8809661865234375,0.281524658203125,-0.5941009521484375
20220209-1452,2022-02-09 14:52:31Z,u01, 50,40,movements,el-ex, lt, d,18218.873512041668, 0.952116458296622, -0.3792004195735146, 0.12659422140571608, -0.47450098395347595, 1.2119550704956055, -0.07483598589897156, 0.7567731142044067, 0.3701778054237366, -0.5387603640556335, 0.07646346092224121, 0.016998648643493652, -0.14263629913330078, -0.19564385341810975, 0.4385696196822474, 0.8765957180126227,-0.03098331406623156,0.8018798828125,0.3436126708984375,-0.6443939208984375
20220209-1452,2022-02-09 14:52:31Z,u01, 51,40,movements,el-ex, lt, d,18218.89845704167, 0.9850598694303736, -0.38514280036091425, 0.13352466903680918, -0.2561962604522705, 1.150582194328308, -0.004047367721796036, 0.7722611427307129, 0.3756914734840393, -0.5123167037963867, 0.16395694017410278, 0.024744808673858643, -0.15676605701446533, -0.1992222376022367, 0.451831979440256, 0.8689623141023894,-0.03259867405804712,0.8409271240234375,0.396240234375,-0.6826934814453125
20220209-1452,2022-02-09 14:52:31Z,u01, 52,40,movements,el-ex, lt, d,18218.923403041666, 1.0137710412207293, -0.3917795612819389, 0.1428771241002129, -0.7086759805679321, 0.8659396171569824, -0.040827952325344086, 0.7845163345336914, 0.3818337321281433, -0.48860716819763184, 0.11747628450393677, -0.052717000246047974, -0.047571539878845215, -0.20371967329011254, 0.4628117381022282, 0.8620973872446777,-0.033038648271006,0.9644622802734375,0.38421630859375,-0.6539764404296875
20220209-1452,2022-02-09 14:52:31Z,u01, 53,40,movements,el-ex, lt, d,18218.948349041668, 1.0430584829956424, -0.40495678516724026, 0.16401358897726828, -1.0550016164779663, 0.8989943265914917, -0.053801942616701126, 0.7940717339515686, 0.3939790427684784, -0.46285033226013184, 0.0005905628204345703, -0.04429346323013306, -0.0758155882358551, -0.2137543182762382, 0.4721058371816908, 0.8546977777973255,-0.030277489965584325,0.8881683349609375,0.3250274658203125,-0.527801513671875
20220209-1452,2022-02-09 14:52:31Z,u01, 54,40,movements,el-ex, lt, d,18218.97329404167, 1.0755028309502102, -0.41582183010058993, 0.18471566441704157, -0.6255741715431213, 0.9839199185371399, 0.034056343138217926, 0.8048542141914368, 0.4039418697357178, -0.4347878694534302, 0.0742654800415039, 0.06068819761276245, -0.13279348611831665, -0.22274933249384754, 0.4826891350405894, 0.8465355656663518,-0.027772947395316716,0.7915191650390625,0.382293701171875,-0.5481414794921875
20220209-1452,2022-02-09 14:52:31Z,u01, 55,40,movements,el-ex, lt, d,18218.998240041667, 1.1041770061522078, -0.42039192513668594, 0.19659982652036434, -0.4228096008300781, 0.9360045790672302, 0.04816710203886032, 0.8153315782546997, 0.40811827778816223, -0.4106989800930023, 0.05000942945480347, 0.03910145163536072, -0.07997801899909973, -0.22713393844129787, 0.4930118557302332, 0.8394107958282756,-0.027180811045734277,0.884735107421875,0.4660797119140625,-0.564544677734375
20220209-1452,2022-02-09 14:52:31Z,u01, 56,40,movements,el-ex, lt, d,18219.023186041668, 1.1343681272437989, -0.42599104046119884, 0.21048096223861834, -0.6833943724632263, 1.0310158729553223, 0.010537435300648212, 0.8252737522125244, 0.4132234454154968, -0.38492780923843384, 0.01418834924697876, 0.019668281078338623, 0.0302676260471344, -0.232464185332736, 0.5034843543193667, 0.8317268918104231,-0.02634642614344418,0.8447418212890625,0.43170166015625,-0.4438323974609375
20220209-1452,2022-02-09 14:52:31Z,u01, 57,40,movements,el-ex, lt, d,18219.04813104167, 1.1681101401430873, -0.4337140529812829, 0.22770039748981954, -0.5859203338623047, 1.0886192321777344, -0.026485031470656395, 0.8348287343978882, 0.42024385929107666, -0.3556063175201416, 0.05097430944442749, 0.08129715919494629, -0.024764955043792725, -0.2395083435152181, 0.5146188885664913, 0.8228984184672707,-0.025321449356399683,0.8448333740234375,0.4376373291015625,-0.351806640625
20220209-1452,2022-02-09 14:52:31Z,u01, 58,40,movements,el-ex, lt, d,18219.073077041667, 1.1985695264219325, -0.43712589902373195, 0.23481766056085024, 0.03622777760028839, 1.0871820449829102, -0.02858087234199047, 0.8439308404922485, 0.4233373701572418, -0.32949352264404297, 0.05616968870162964, 0.11331415176391602, -0.10867804288864136, -0.24231073061916078, 0.5258695097743846, 0.8148716175223993,-0.027034356668009074,0.8995819091796875,0.5252227783203125,-0.40252685546875
20220209-1452,2022-02-09 14:52:31Z,u01, 59,40,movements,el-ex, lt, d,18219.098022041668, 1.2236518248636445, -0.43851918135469253, 0.23207859424344182, -0.036692965775728226, 1.015434741973877, -0.10650216788053513, 0.8513734936714172, 0.42459923028945923, -0.3080234229564667, 0.04897117614746094, 0.07242518663406372, -0.07231733202934265, -0.24176114408861968, 0.5362274189131674, 0.8080929323452044,-0.03158014726250752,0.9006195068359375,0.5299530029296875,-0.4406585693359375
20220209-1452,2022-02-09 14:52:31Z,u01, 60,40,movements,el-ex, lt, d,18219.12296804167, 1.2507234866709056, -0.44425696803012066, 0.2402742534197181, -0.6917634010314941, 0.8569554090499878, -0.1484966278076172, 0.8570724725723267, 0.4297870993614197, -0.28409403562545776, 0.11927616596221924, -0.01653343439102173, -0.041543930768966675, -0.24576063566119938, 0.5454857430582315, 0.8005877775591571,-0.03325583774222779,0.9131317138671875,0.461883544921875,-0.345977783203125
20220209-1452,2022-02-09 14:52:31Z,u01, 61,40,movements,el-ex, lt, d,18219.147914041667, 1.279993693482819, -0.45502625043375117, 0.2626814965030044, -0.9680210947990417, 0.7354790568351746, -0.1546839326620102, 0.8605355620384216, 0.43948590755462646, -0.25754719972610474, 0.1112051010131836, 0.03559646010398865, -0.07407233119010925, -0.2555542803123332, 0.5530989172182936, 0.7923382910736547,-0.031201480280572236,0.97967529296875,0.4192047119140625,-0.3273162841796875
20220209-1452,2022-02-09 14:52:31Z,u01, 62,40,movements,el-ex, lt, d,18219.172859041668, 1.3073717355278993, -0.46482350845458875, 0.28355549560189075, -0.6636041402816772, 0.7136402726173401, -0.1823582500219345, 0.8630644679069519, 0.44826504588127136, -0.2327614426612854, 0.045001089572906494, 0.07660666108131409, -0.10906617343425751, -0.26462704784674734, 0.5599926828920381, 0.7845445557212394,-0.029501834714033393,0.9548187255859375,0.4869232177734375,-0.3278961181640625
20220209-1452,2022-02-09 14:52:31Z,u01, 63,40,movements,el-ex, lt, d,18219.19780504167, 1.3313136523859295, -0.4722229801757837, 0.2968898046492921, -0.47555217146873474, 0.7240830659866333, -0.18087700009346008, 0.8651434183120728, 0.45486709475517273, -0.2112407386302948, 0.019515275955200195, 0.055966585874557495, -0.09941315650939941, -0.27076575111290524, 0.5666264532229146, 0.7776461226228485,-0.029779081262921336,0.904998779296875,0.5270538330078125,-0.344573974609375
20220209-1452,2022-02-09 14:52:31Z,u01, 64,40,movements,el-ex, lt, d,18219.222751041667, 1.3545944131069885, -0.479498609399113, 0.31026201571373635, -0.6046250462532043, 0.6193588376045227, -0.17399266362190247, 0.8665709495544434, 0.46133437752723694, -0.19032910466194153, 0.06363523006439209, 0.03597995638847351, -0.08390206098556519, -0.2768823686441233, 0.5728626356676461, 0.7708829197001041,-0.030065330627657705,0.8839263916015625,0.501312255859375,-0.2852020263671875
20220209-1452,2022-02-09 14:52:31Z,u01, 65,40,movements,el-ex, lt, d,18219.247696041668, 1.3777003941420876, -0.48767816467300606, 0.3286791905035279, -0.8091359734535217, 0.5411310791969299, -0.21556998789310455, 0.8670043349266052, 0.46857598423957825, -0.16952727735042572, 0.0668942928314209, 0.013098061084747314, -0.0975475162267685, -0.2847839199070682, 0.5780436692329369, 0.7641542745307643,-0.028837172867088312,0.932708740234375,0.4948577880859375,-0.2743682861328125
20220209-1452,2022-02-09 14:52:31Z,u01, 66,40,movements,el-ex, lt, d,18219.27264204167, 1.4009675456619186, -0.49762116924595484, 0.3513431966460086, -0.8473644852638245, 0.462225079536438, -0.26462703943252563, 0.8660787343978882, 0.4773365557193756, -0.14851567149162292, 0.04981452226638794, 0.048404842615127563, -0.0919325202703476, -0.29455429693275237, 0.5822198303975104, 0.7573242766974019,-0.026785693579363445,0.930084228515625,0.484405517578125,-0.2633514404296875
20220209-1452,2022-02-09 14:52:31Z,u01, 67,40,movements,el-ex, lt, d,18219.297588041667, 1.4219062769470148, -0.507479807985317, 0.37100751497999734, -0.6658471822738647, 0.46287429332733154, -0.31247955560684204, 0.8643024563789368, 0.4859762191772461, -0.1296454519033432, 0.026337623596191406, 0.030747264623641968, -0.10315810143947601, -0.3034537879902715, 0.585741470438428, 0.7511066748436268,-0.02571431712156913,0.913818359375,0.5270843505859375,-0.2406768798828125
20220209-1452,2022-02-09 14:52:31Z,u01, 68,40,movements,el-ex, lt, d,18219.322533041668, 1.4408251254056836, -0.5172462051372859, 0.38651159170973876, -0.4999600052833557, 0.444457083940506, -0.3030702471733093, 0.8618530631065369, 0.4944884479045868, -0.11265110969543457, 0.04265725612640381, 0.025195300579071045, -0.10899829864501953, -0.31111061912539495, 0.5889691219634822, 0.7454175633367022,-0.02604026292086198,0.88519287109375,0.5241546630859375,-0.223388671875
20220209-1452,2022-02-09 14:52:31Z,u01, 69,40,movements,el-ex, lt, d,18219.34747904167, 1.4575352224519795, -0.5261815847097749, 0.3983914885362472, -0.4242911636829376, 0.42627817392349243, -0.304565966129303, 0.8591903448104858, 0.5022351145744324, -0.0977311059832573, 0.04020822048187256, 0.006401240825653076, -0.10722517222166061, -0.3174166324526727, 0.591930002386313, 0.740353937992095,-0.027227713007431598,0.904541015625,0.5194549560546875,-0.220306396484375
20220209-1452,2022-02-09 14:52:31Z,u01, 70,40,movements,el-ex, lt, d,18219.372425041667, 1.4735098832939941, -0.5348355460563063, 0.40837769634057774, -0.3012118935585022, 0.4326572120189667, -0.29751214385032654, 0.8562840223312378, 0.5096995830535889, -0.08356864005327225, 0.04001706838607788, 0.009785771369934082, -0.09886568039655685, -0.3230439661855664, 0.5948598778006039, 0.7354881223726906,-0.02900645932497381,0.893157958984375,0.5091094970703125,-0.2012786865234375
20220209-1452,2022-02-09 14:52:32Z,u01, 71,40,movements,el-ex, lt, d,18219.39737004167, 1.4870615629205624, -0.5423202515351688, 0.41465159593242074, -0.1983855962753296, 0.4026322662830353, -0.2595977187156677, 0.8535122871398926, 0.5161247253417969, -0.0716361552476883, 0.049853622913360596, -0.010418057441711426, -0.0999491736292839, -0.3271798702293235, 0.5976079456193153, 0.7313202936696687,-0.03144046906300846,0.89971923828125,0.5190582275390625,-0.181427001953125
20220209-1452,2022-02-09 14:52:32Z,u01, 72,40,movements,el-ex, lt, d,18219.42231604167, 1.4985343279497143, -0.5487237025583365, 0.41861394766843263, -0.12389121949672699, 0.35561951994895935, -0.22162629663944244, 0.8509641885757446, 0.521598756313324, -0.06159962713718414, 0.04722905158996582, -0.02397918701171875, -0.08978307247161865, -0.33027200181141536, 0.6001004835560254, 0.7277634181236381,-0.03406010149166516,0.8995208740234375,0.4983062744140625,-0.155517578125
20220209-1452,2022-02-09 14:52:32Z,u01, 73,40,movements,el-ex, lt, d,18219.447262041667, 1.5093886211070309, -0.5539090244057865, 0.42337248052621296, -0.2348434031009674, 0.307957261800766, -0.16886021196842194, 0.848871648311615, 0.5260157585144043, -0.05219288170337677, 0.038121581077575684, -0.04296833276748657, -0.12233740091323853, -0.3331937837009639, 0.6023997519981049, 0.7244356475865098,-0.03590710079166315,0.8975372314453125,0.4958648681640625,-0.155029296875
20220209-1452,2022-02-09 14:52:32Z,u01, 74,40,movements,el-ex, lt, d,18219.47220704167, 1.5205507196387251, -0.5582145248837953, 0.43107202390899985, -0.27601340413093567, 0.25511839985847473, -0.14331211149692535, 0.847131609916687, 0.5296726226806641, -0.04260049760341644, 0.03549766540527344, -0.028955519199371338, -0.12459027767181396, -0.3366986391208352, 0.6044284722638719, 0.721089250350259,-0.036475002903826714,0.88580322265625,0.47784423828125,-0.1772613525390625
20220209-1452,2022-02-09 14:52:32Z,u01, 75,40,movements,el-ex, lt, d,18219.497153041666, 1.5291839509057634, -0.5611070351829658, 0.43693480249304767, -0.13321031630039215, 0.18602989614009857, -0.08390631526708603, 0.8459334969520569, 0.5321238040924072, -0.035221632570028305, 0.051435768604278564, -0.020420432090759277, -0.1557270884513855, -0.33923687186803236, 0.606059013595767, 0.7185086703355197,-0.03682359719436484,0.8854217529296875,0.503509521484375,-0.1693878173828125
20220209-1452,2022-02-09 14:52:32Z,u01, 76,40,movements,el-ex, lt, d,18219.522099041667, 1.534458576608046, -0.5626879174654963, 0.4390442757100265, -0.00821635127067566, 0.1531272828578949, -0.040835872292518616, 0.845265805721283, 0.5334616303443909, -0.03072858415544033, 0.04000335931777954, -0.027281880378723145, -0.18118572235107422, -0.3402800425685309, 0.6073262720773488, 0.7169080428038543,-0.03751083359595836,0.8948974609375,0.5117645263671875,-0.2003936767578125
20220209-1452,2022-02-09 14:52:32Z,u01, 77,40,movements,el-ex, lt, d,18219.54704404167, 1.5371989476661756, -0.5636558699994103, 0.43812773267476635, 0.04987827688455582, 0.09177450835704803, -0.019850097596645355, 0.844830334186554, 0.5342801213264465, -0.02839476987719536, 0.045718252658843994, -0.01979959011077881, -0.18869227170944214, -0.34025543909618455, 0.6082999679227785, 0.7160335957620036,-0.03864166301571259,0.88421630859375,0.50604248046875,-0.2118682861328125
20220209-1452,2022-02-09 14:52:32Z,u01, 78,40,movements,el-ex, lt, d,18219.571990041666, 1.5373346076349692, -0.5636672055239584, 0.4378924987246043, -0.05871547758579254, -0.07054869085550308, 0.02682333067059517, 0.8448280692100525, 0.5342896580696106, -0.028279954567551613, 0.06876122951507568, -0.03638029098510742, -0.19585663080215454, -0.3401848549957851, 0.6083866260374214, 0.7159874502466437,-0.03875290964890887,0.900543212890625,0.50537109375,-0.2177734375
20220209-1452,2022-02-09 14:52:32Z,u01, 79,40,movements,el-ex, lt, d,18219.596936041668, 1.5309018107443029, -0.5611790808043592, 0.43824799541259524, -0.11274339258670807, -0.19225774705410004, 0.03735540062189102, 0.845954418182373, 0.5321848392486572, -0.03376685827970505, 0.06629210710525513, -0.025165855884552002, -0.21290695667266846, -0.3396262436793229, 0.6064409165018648, 0.7180102617970208,-0.03666849746322187,0.9150238037109375,0.49578857421875,-0.2247161865234375
20220209-1452,2022-02-09 14:52:32Z,u01, 80,40,movements,el-ex, lt, d,18219.62188104167, 1.5214792003864772, -0.5582582383002097, 0.4383977102433731, -0.05642962083220482, -0.2869440019130707, 0.050606027245521545, 0.8471475839614868, 0.5297096967697144, -0.04181278869509697, 0.06876105070114136, 0.004149496555328369, -0.24892842769622803, -0.3389085175604201, 0.6035185350029051, 0.7209367741777511,-0.03400595612462626,0.9086151123046875,0.5225677490234375,-0.2532806396484375
20220209-1452,2022-02-09 14:52:32Z,u01, 81,40,movements,el-ex, lt, d,18219.646827041666, 1.5108500630429813, -0.5559516716382874, 0.4377852473519037, 0.01304516289383173, -0.4131219685077667, 0.057481445372104645, 0.8478726148605347, 0.5277518630027771, -0.05088776722550392, 0.08141791820526123, 0.00856393575668335, -0.24719291925430298, -0.33816007303557216, 0.6001698770293796, 0.7241843593861614,-0.03163389011653195,0.9181365966796875,0.533966064453125,-0.2954254150390625
20220209-1452,2022-02-09 14:52:32Z,u01, 82,40,movements,el-ex, lt, d,18219.671772041667, 1.496727686384149, -0.5534523520906734, 0.436472817412281, -0.02236839011311531, -0.5100525617599487, 0.026611074805259705, 0.8483821153640747, 0.5256273150444031, -0.06295368075370789, 0.07759726047515869, 0.005256295204162598, -0.25407838821411133, -0.3371750200416468, 0.595681262953138, 0.7284525050981748,-0.028870596697763762,0.9297943115234375,0.5345611572265625,-0.2943572998046875
20220209-1452,2022-02-09 14:52:32Z,u01, 83,40,movements,el-ex, lt, d,18219.69671804167, 1.4820375179646537, -0.5533277303110135, 0.4354324726193864, 0.1503000259399414, -0.6273451447486877, 0.029692288488149643, 0.8474310636520386, 0.5255212783813477, -0.07541511952877045, 0.10433560609817505, 0.05458712577819824, -0.30925917625427246, -0.3370301761271869, 0.5905108822643078, 0.7327978179231218,-0.026732230509167787,0.927825927734375,0.533721923828125,-0.3255767822265625
20220209-1452,2022-02-09 14:52:32Z,u01, 84,40,movements,el-ex, lt, d,18219.721665125002, 1.4617611795361787, -0.5519182978994717, 0.4278356227485437, 0.3755573034286499, -0.7127308249473572, 0.054834991693496704, 0.8464633822441101, 0.5243216753005981, -0.09266176074743271, 0.14451849460601807, 0.049896955490112305, -0.3539327383041382, -0.3346006753706596, 0.584560954188919, 0.73869675780255,-0.025647277579520067,0.9658050537109375,0.5933990478515625,-0.41619873046875
20220209-1452,2022-02-09 14:52:32Z,u01, 85,40,movements,el-ex, lt, d,18219.746610125003, 1.4372209532257259, -0.5496559123282151, 0.41695535713098814, 0.39337703585624695, -0.8279106616973877, 0.06107743829488754, 0.8451083898544312, 0.5223938822746277, -0.11356187611818314, 0.20419269800186157, 0.033056557178497314, -0.33963966369628906, -0.33099494232343557, 0.5776343211389419, 0.7457636566612654,-0.024847777147979144,0.9964599609375,0.5716552734375,-0.4478759765625
20220209-1452,2022-02-09 14:52:32Z,u01, 86,40,movements,el-ex, lt, d,18219.771556125, 1.408213262801093, -0.5464278890629729, 0.4035904667849889, 0.602272629737854, -0.9116103649139404, 0.05053931474685669, 0.8431188464164734, 0.5196385979652405, -0.13829754292964935, 0.23247307538986206, 0.061614394187927246, -0.33588480949401855, -0.32642222267443377, 0.5694732298169204, 0.7540365947180625,-0.024030968110797857,1.0711212158203125,0.547027587890625,-0.4422607421875
20220209-1452,2022-02-09 14:52:32Z,u01, 87,40,movements,el-ex, lt, d,18219.796502125002, 1.3722971759384488, -0.5416580836259133, 0.37858124003973476, 1.2425915002822876, -0.959852933883667, 0.027032721787691116, 0.8400294780731201, 0.5155574083328247, -0.1689702421426773, 0.2476932406425476, 0.14624673128128052, -0.4388485550880432, -0.3181559615608211, 0.5606172170713858, 0.7640672955809573,-0.026196400895446337,1.074859619140625,0.595367431640625,-0.48712158203125
20220209-1452,2022-02-09 14:52:32Z,u01, 88,40,movements,el-ex, lt, d,18219.821447125, 1.3237655254742633, -0.5325835446585072, 0.3346057135201894, 1.7556167840957642, -1.160298228263855, 0.03267768770456314, 0.8353453278541565, 0.507760763168335, -0.21065865457057953, 0.26817023754119873, 0.13425272703170776, -0.48851457238197327, -0.30342692141701827, 0.5500934262091657, 0.777339552648721,-0.032748307608797655,1.092254638671875,0.6786956787109375,-0.658599853515625
20220209-1452,2022-02-09 14:52:32Z,u01, 89,40,movements,el-ex, lt, d,18219.846393125, 1.267551740518174, -0.521117427347102, 0.2906047335020663, 1.2556484937667847, -1.5808364152908325, 0.010380973108112812, 0.827692449092865, 0.49784955382347107, -0.25898075103759766, 0.28000402450561523, -0.001374363899230957, -0.39849022030830383, -0.28825246573478147, 0.5361157934559092, 0.7924832715749548,-0.03821845825343956,1.1072235107421875,0.624359130859375,-0.69757080078125
20220209-1452,2022-02-09 14:52:32Z,u01, 90,40,movements,el-ex, lt, d,18219.871339125002, 1.2122343850704935, -0.5143270102964023, 0.2685403644769138, 0.49296966195106506, -1.9777127504348755, 0.004330538213253021, 0.8152543306350708, 0.49194905161857605, -0.3055262863636017, 0.3203045725822449, -0.0014553666114807129, -0.41914430260658264, -0.2809043342649428, 0.5180054163652532, 0.8070813317173309,-0.03718469915211514,1.104644775390625,0.4596099853515625,-0.6605224609375
20220209-1452,2022-02-09 14:52:32Z,u01, 91,40,movements,el-ex, lt, d,18219.896284125, 1.1522223199816188, -0.5092330934274264, 0.25505377004430024, 0.59511399269104, -2.269713878631592, 0.02027534879744053, 0.7977417707443237, 0.48750779032707214, -0.354885995388031, 0.3481779098510742, 0.0809888243675232, -0.3834412097930908, -0.27655402651257033, 0.49605934314031025, 0.8224119937865151,-0.03288426442635212,1.14093017578125,0.5020751953125,-0.730316162109375
20220209-1452,2022-02-09 14:52:32Z,u01, 92,40,movements,el-ex, lt, d,18219.921230125, 1.0863248767995426, -0.49930133784406167, 0.2384293694485551, 0.777092695236206, -2.318171739578247, 0.17163550853729248, 0.7768876552581787, 0.4788122773170471, -0.408881813287735, 0.3056623339653015, 0.084099680185318, -0.14328819513320923, -0.2695703621351822, 0.47211324139153177, 0.8388382648733073,-0.028129287552812854,1.13970947265625,0.59027099609375,-0.7034912109375
20220209-1452,2022-02-09 14:52:32Z,u01, 93,40,movements,el-ex, lt, d,18219.946176125002, 1.0219226009631395, -0.48466573666386675, 0.2207721849429675, 0.9500848054885864, -2.1477341651916504, 0.23664426803588867, 0.7548602223396301, 0.4659126102924347, -0.46163976192474365, 0.27602338790893555, 0.11236482858657837, -0.1649778187274933, -0.2603410085604386, 0.44877909311885616, 0.8545609626625976,-0.02335012207401954,1.0704498291015625,0.5634918212890625,-0.5492095947265625
20220209-1452,2022-02-09 14:52:32Z,u01, 94,40,movements,el-ex, lt, d,18219.971121125, 0.9565094129173125, -0.4601191214899708, 0.19488644774450886, 1.7372820377349854, -2.327308177947998, 0.4337262511253357, 0.7321970462799072, 0.44405484199523926, -0.5164325833320618, 0.41913944482803345, 0.22615686058998108, -0.19238412380218506, -0.2450851452905522, 0.42628275759322687, 0.8705181406600304,-0.020353524335104844,1.0356597900390625,0.5950775146484375,-0.6634674072265625
20220209-1452,2022-02-09 14:52:32Z,u01, 95,40,movements,el-ex, lt, d,18219.996067125, 0.8783620314410333, -0.4208086965782372, 0.16350120608142868, 1.7628973722457886, -2.7974777221679688, 0.6610733866691589, 0.702545166015625, 0.40849873423576355, -0.5827168822288513, 0.4314573407173157, 0.2130221724510193, -0.154374361038208, -0.2223594919230604, 0.3989960198828192, 0.889435194045509,-0.016228251920902326,1.1645660400390625,0.6776885986328125,-0.7061309814453125
20220209-1452,2022-02-09 14:52:32Z,u01, 96,40,movements,el-ex, lt, d,18220.021013125002, 0.801748829904273, -0.3872042576066933, 0.14767620037056073, 0.9235042333602905, -2.810995578765869, 0.5170115828514099, 0.6653761863708496, 0.37760111689567566, -0.6439657211303711, 0.34048300981521606, 0.24388927221298218, -0.18116867542266846, -0.20490863249181138, 0.36882191498052874, 0.906595391102466,-0.008218982305197853,1.0791015625,0.578125,-0.7598114013671875
20220209-1452,2022-02-09 14:52:32Z,u01, 97,40,movements,el-ex, lt, d,18220.045958125, 0.7275409981066571, -0.36896810023897925, 0.14077361837091953, 0.6422410011291504, -2.9834392070770264, 0.13366635143756866, 0.6202783584594727, 0.3606531620025635, -0.696551501750946, 0.4931706190109253, 0.39964643120765686, -0.132107675075531, -0.19560932731102051, 0.3368400637389637, 0.921018716420098,-0.0004949947463948057,1.0148162841796875,0.6354217529296875,-0.82843017578125
20220209-1452,2022-02-09 14:52:32Z,u01, 98,40,movements,el-ex, lt, d,18220.070904125, 0.646055914835611, -0.35423609903824177, 0.1274706771771208, 0.8994974493980408, -3.156594753265381, -0.14724932610988617, 0.5646620988845825, 0.3468739986419678, -0.7488892078399658, 0.5415541529655457, 0.42168062925338745, 0.0032073259353637695, -0.18664335277830335, 0.30119705205754815, 0.9351102400360746,0.003635868921612495,1.1485137939453125,0.7825469970703125,-0.832183837890625
20220209-1452,2022-02-09 14:52:32Z,u01, 99,40,movements,el-ex, lt, d,18220.095850125002, 0.5604319987042917, -0.3386759751175586, 0.10596825428386511, 1.0798988342285156, -3.0715696811676025, -0.48615995049476624, 0.5013575553894043, 0.3322385549545288, -0.7989105582237244, 0.45307958126068115, 0.42412424087524414, 0.05809628963470459, -0.17616629692545024, 0.2636477656238886, 0.9483892057613811,0.0036219902710810103,1.0883026123046875,0.7661285400390625,-0.7421112060546875
20220209-1452,2022-02-09 14:52:32Z,u01, 100,40,movements,el-ex, lt, d,18220.120795125, 0.47577757693539824, -0.31839984402469307, 0.07472416066423887, 1.438842535018921, -2.9453365802764893, -0.7206461429595947, 0.43500810861587524, 0.31304723024368286, -0.8442566990852356, 0.4186447262763977, 0.3972340524196625, 0.12465214729309082, -0.16264732177103022, 0.22675427840549459, 0.9602739541013001,-0.0014889690662578392,0.9097137451171875,0.7461700439453125,-0.7317352294921875
20220209-1452,2022-02-09 14:52:32Z,u01, 101,40,movements,el-ex, lt, d,18220.145741125, 0.39189371833353875, -0.2948725509588062, 0.0429412521144653, 1.2186392545700073, -3.0060195922851562, -0.6871333122253418, 0.36545443534851074, 0.2906179130077362, -0.8842987418174744, 0.4403773546218872, 0.2952127158641815, 0.2955688238143921, -0.14819291343132832, 0.18944523960193982, 0.9706125895912587,-0.007765012527928938,0.852142333984375,0.6958465576171875,-0.713104248046875
20220209-1452,2022-02-09 14:52:32Z,u01, 102,40,movements,el-ex, lt, d,18220.170687125003, 0.3091181746774172, -0.2769977817690853, 0.016550991819715352, 0.8336484432220459, -3.0453476905822754, -0.731393575668335, 0.2926221489906311, 0.27346912026405334, -0.916289746761322, 0.40218669176101685, 0.2465808391571045, 0.418364942073822, -0.13766791941731968, 0.15133626814056877, 0.978760337270113,-0.013153855549620341,0.7809295654296875,0.5524444580078125,-0.5601959228515625
20220209-1452,2022-02-09 14:52:32Z,u01, 103,40,movements,el-ex, lt, d,18220.195632125, 0.22561499122457876, -0.26335217577314296, -0.007402404638294512, 0.6825732588768005, -3.0667898654937744, -0.8099451661109924, 0.21599304676055908, 0.2603186070919037, -0.9410532116889954, 0.39393118023872375, 0.18394094705581665, 0.44694310426712036, -0.1300474807123037, 0.11207602836044209, 0.984980615179114,-0.01842550736434906,0.6868133544921875,0.514892578125,-0.496337890625
20220209-1452,2022-02-09 14:52:32Z,u01, 104,40,movements,el-ex, lt, d,18220.220578125, 0.14359424075784843, -0.2546717080778697, -0.032488792472268845, 0.38140782713890076, -3.0178651809692383, -0.9854956269264221, 0.13848569989204407, 0.2519277334213257, -0.9577860236167908, 0.33438408374786377, 0.17202240228652954, 0.5857614874839783, -0.1254923448054148, 0.07320279218992892, 0.9890696125711,-0.02517929425146781,0.5641326904296875,0.4293212890625,-0.4637298583984375
20220209-1452,2022-02-09 14:52:32Z,u01, 105,40,movements,el-ex, lt, d,18220.245523125002, 0.06248079075420472, -0.24941922250686946, -0.060246497941814, 0.20817624032497406, -2.870565176010132, -1.0882289409637451, 0.06050799414515495, 0.2468411922454834, -0.9671650528907776, 0.3053519129753113, 0.16073621809482574, 0.7291737198829651, -0.12333605961525929, 0.034723212850002426, 0.9911826352214361,-0.033753700577654866,0.462188720703125,0.4238433837890625,-0.360992431640625
20220209-1452,2022-02-09 14:52:32Z,u01, 106,40,movements,el-ex, lt, d,18220.270469125, -0.012364031076202753, -0.24811338988761686, -0.0876746677216188, -0.04926581680774689, -2.5663907527923584, -1.0491033792495728, -0.011985107325017452, 0.24557556211948395, -0.9693033695220947, 0.15714189410209656, 0.007598191499710083, 0.8474161624908447, -0.12388633472505477, -0.0007060372820945696, 0.991376032347903,-0.0427214618728588,0.31085205078125,0.380889892578125,-0.17523193359375
20220209-1452,2022-02-09 14:52:32Z,u01, 107,40,movements,el-ex, lt, d,18220.295415125, -0.07503168161955115, -0.24629785207616095, -0.1142007907246284, 0.19981035590171814, -1.907786250114441, -1.0246328115463257, -0.07269909232854843, 0.24381521344184875, -0.9670930504798889, 0.07907721400260925, -0.09051024913787842, 0.9093843102455139, -0.12467570244828251, -0.030156978543702403, 0.9903749800366202,-0.051997545922148,0.1242218017578125,0.2404937744140625,-0.1178436279296875
20220209-1452,2022-02-09 14:52:32Z,u01, 108,40,movements,el-ex, lt, d,18220.320360125002, -0.11987222221535655, -0.2376697597066953, -0.13657414846083754, 0.18495720624923706, -1.2983933687210083, -0.7155688405036926, -0.11622371524572372, 0.2354385256767273, -0.964914858341217, -0.002657555043697357, -0.27233439683914185, 1.1313883066177368, -0.12212511165773578, -0.05126418047267785, 0.9893388463842472,-0.0605461931053341,-0.0302581787109375,0.1251068115234375,-0.01409912109375
20220209-1452,2022-02-09 14:52:32Z,u01, 109,40,movements,el-ex, lt, d,18220.345306125, -0.14779103889651526, -0.23994784376452147, -0.14988327616956923, -0.5130466818809509, -0.6428165435791016, -0.27514857053756714, -0.14303484559059143, 0.23765195906162262, -0.9607614278793335, -0.11317551136016846, -0.455486536026001, 1.2124857902526855, -0.12451258766271285, -0.06415522393095292, 0.9879847621771176,-0.06531902887068086,-0.1353759765625,-0.062591552734375,0.1845550537109375
20220209-1452,2022-02-09 14:52:32Z,u01, 110,40,movements,el-ex, lt, d,18220.370252125, -0.15565307998802427, -0.2569487731522633, -0.15331035019795278, -0.6629354357719421, 0.026788581162691116, 0.1501581221818924, -0.14993581175804138, 0.25413069128990173, -0.9554772973060608, -0.059536874294281006, -0.3553881049156189, 1.027346134185791, -0.13326321951495718, -0.06709896600789171, 0.9866157705511331,-0.06578717845681442,-0.279449462890625,-0.246826171875,0.2395477294921875
20220209-1452,2022-02-09 14:52:33Z,u01, 111,40,movements,el-ex, lt, d,18220.395197125003, -0.14646258271543108, -0.26943969854373817, -0.14823235177837854, -0.303641140460968, 0.5342018008232117, 0.36299189925193787, -0.14067403972148895, 0.26619139313697815, -0.9535999894142151, 0.014346480369567871, -0.2205066680908203, 0.9497242569923401, -0.13895370685755273, -0.062384881548897875, 0.9862974553927113,-0.06338059938415785,-0.1968841552734375,-0.079376220703125,0.0533905029296875
20220209-1452,2022-02-09 14:52:33Z,u01, 112,40,movements,el-ex, lt, d,18220.420143125, -0.12760718079492295, -0.2800240353034581, -0.13957120318246688, -0.5170221328735352, 0.7719017267227173, 0.41761818528175354, -0.12230417132377625, 0.2763787508010864, -0.9532347321510315, 0.03798405081033707, -0.1822015941143036, 0.848574697971344, -0.14333451903935454, -0.05327147287430931, 0.9864144852616978,-0.060029726497141,-0.098876953125,0.063720703125,-0.031036376953125
20220209-1452,2022-02-09 14:52:33Z,u01, 113,40,movements,el-ex, lt, d,18220.445089125, -0.10239980393718101, -0.2974809608520527, -0.1282294101557003, -0.7220401763916016, 0.9780403971672058, 0.5775706768035889, -0.09773118048906326, 0.29311275482177734, -0.9510696530342102, 0.06915141642093658, -0.11579042673110962, 0.7012832760810852, -0.15093714437035916, -0.041026092868274355, 0.9861191398511464,-0.05571176860293037,-0.081451416015625,0.103057861328125,-0.1162567138671875
20220209-1452,2022-02-09 14:52:33Z,u01, 114,40,movements,el-ex, lt, d,18220.470034125003, -0.07124469607726652, -0.3179960954659114, -0.11385112790651676, -0.8181005716323853, 1.1502796411514282, 0.6575950384140015, -0.06761553138494492, 0.3126637637615204, -0.9474542140960693, 0.07571788877248764, -0.05640774965286255, 0.5334374904632568, -0.159972967837119, -0.026106238194206148, 0.9854824360423389,-0.05051181505498065,-0.012176513671875,0.20941162109375,-0.3015289306640625
20220209-1452,2022-02-09 14:52:33Z,u01, 115,40,movements,el-ex, lt, d,18220.494980125, -0.034629569772863515, -0.3407260997690537, -0.0978006558943689, -0.9333531856536865, 1.3524196147918701, 0.6593518853187561, -0.03263227269053459, 0.3341715335845947, -0.9419471621513367, 0.04769262671470642, -0.029850363731384277, 0.41469496488571167, -0.1701461925890992, -0.00875684973957408, 0.9843410227567447,-0.045234095096739424,0.0078887939453125,0.25970458984375,-0.4299468994140625
20220209-1452,2022-02-09 14:52:33Z,u01, 116,40,movements,el-ex, lt, d,18220.519926125, 0.006789059625273394, -0.36500615346618087, -0.08020812616902509, -0.9635992050170898, 1.4840059280395508, 0.6808198690414429, 0.00634175818413496, 0.35695505142211914, -0.9341000318527222, 0.0911007970571518, 0.06656777858734131, 0.26492583751678467, -0.1812108647136092, 0.010612028540251936, 0.9825712490070286,-0.040042825710157604,0.03607177734375,0.3346405029296875,-0.5617828369140625
20220209-1452,2022-02-09 14:52:33Z,u01, 117,40,movements,el-ex, lt, d,18220.544871125003, 0.05256685378876174, -0.38575447192306117, -0.06138565305742463, -0.6835313439369202, 1.6216771602630615, 0.6677345037460327, 0.04868154227733612, 0.3762582838535309, -0.9252349734306335, 0.09934389591217041, 0.11080217361450195, 0.15225523710250854, -0.1907355899528218, 0.03166128803244703, 0.9805010263117921,-0.03514370261021227,0.104400634765625,0.4307708740234375,-0.686920166015625
20220209-1452,2022-02-09 14:52:33Z,u01, 118,40,movements,el-ex, lt, d,18220.569817125, 0.10067450470943796, -0.3955487980415964, -0.04337759550193933, -0.20299109816551208, 1.6936368942260742, 0.6039400696754456, 0.09274409711360931, 0.3853146731853485, -0.9181128144264221, 0.10121029615402222, 0.15348833799362183, 0.026251792907714844, -0.19512265594008238, 0.05357940555690373, 0.9788194998993055,-0.031121552155714327,0.16864013671875,0.5123748779296875,-0.812164306640625
20220209-1452,2022-02-09 14:52:33Z,u01, 119,40,movements,el-ex, lt, d,18220.594763125002, 0.1503302984664478, -0.3962581143061317, -0.027558820911034284, -0.17683979868888855, 1.774061679840088, 0.5395357608795166, 0.13815969228744507, 0.3859691321849823, -0.9121072888374329, 0.09475035965442657, 0.08130064606666565, 0.05001622438430786, -0.19524645564869547, 0.07632283364072999, 0.9773716774626093,-0.02825109589914876,0.1979827880859375,0.53460693359375,-0.897308349609375
20220209-1452,2022-02-09 14:52:33Z,u01, 120,40,movements,el-ex, lt, d,18220.619708125, 0.19998499281324836, -0.40462182519979584, -0.011256678326102016, -0.6744736433029175, 1.662402868270874, 0.515478789806366, 0.1826135218143463, 0.3936711549758911, -0.9009302258491516, 0.20460867881774902, 0.038839131593704224, 0.005880117416381836, -0.19937643824438583, 0.09891372058977438, 0.9745831490096701,-0.025544063871522915,0.262054443359375,0.440185546875,-0.8539276123046875
20220209-1452,2022-02-09 14:52:33Z,u01, 121,40,movements,el-ex, lt, d,18220.644654125, 0.24661709104140386, -0.4214782240393436, 0.006696963557991927, -0.8537555932998657, 1.528933048248291, 0.4857158660888672, 0.22276027500629425, 0.40910977125167847, -0.8848768472671509, 0.1835811734199524, 0.06639975309371948, 0.02594435214996338, -0.20799599939877686, 0.1195794024819129, 0.9705323703307227,-0.02247902372148225,0.3961944580078125,0.439788818359375,-0.8979339599609375
20220209-1452,2022-02-09 14:52:33Z,u01, 122,40,movements,el-ex, lt, d,18220.669600125002, 0.2938109723423355, -0.43522727232550795, 0.02462767615944749, -0.4433814585208893, 1.6758302450180054, 0.47252586483955383, 0.26260361075401306, 0.42161649465560913, -0.8679164052009583, 0.10507205128669739, 0.10116475820541382, -0.10684561729431152, -0.21531838203174236, 0.14028471650597746, 0.9662141351346698,-0.019706952174642745,0.38824462890625,0.478515625,-0.869049072265625
20220209-1452,2022-02-09 14:52:33Z,u01, 123,40,movements,el-ex, lt, d,18220.694545125, 0.34233139944949204, -0.43544501290463483, 0.0377279370415802, 0.0628548339009285, 1.7358711957931519, 0.4600318968296051, 0.30435889959335327, 0.4218139350414276, -0.8540717959403992, 0.12502330541610718, 0.10783380270004272, -0.0660027265548706, -0.21594914801880477, 0.1622654006450323, 0.9626465988901605,-0.018637684702212554,0.371063232421875,0.5305328369140625,-0.9767608642578125
20220209-1452,2022-02-09 14:52:33Z,u01, 124,40,movements,el-ex, lt, d,18220.71949091667, 0.3882769442389642, -0.43431532676136353, 0.05071409537513015, -0.5000253319740295, 1.4905040264129639, 0.43729302287101746, 0.3434448540210724, 0.4207893908023834, -0.839631974697113, 0.21295148134231567, -0.028394460678100586, 0.013719439506530762, -0.216115993865463, 0.1829696282402525, 0.9589150141298683,-0.017258739690282132,0.4769439697265625,0.5000762939453125,-0.8985443115234375
20220209-1452,2022-02-09 14:52:33Z,u01, 125,40,movements,el-ex, lt, d,18220.744436916666, 0.432775465065263, -0.45073102919966856, 0.07114003030707368, -1.1199088096618652, 1.447005271911621, 0.38205021619796753, 0.3775068521499634, 0.4356236755847931, -0.8171417117118835, 0.14239048957824707, -0.017899155616760254, 0.01190483570098877, -0.2255556222972426, 0.20137976957439263, 0.953085576227781,-0.014092901358511933,0.5565185546875,0.3824615478515625,-0.81536865234375
20220209-1452,2022-02-09 14:52:33Z,u01, 126,40,movements,el-ex, lt, d,18220.769381916667, 0.47960085388475815, -0.4665434089282618, 0.09187612873734882, -0.6045006513595581, 1.5332038402557373, 0.35880371928215027, 0.4121118485927582, 0.44980180263519287, -0.7923648953437805, 0.13740280270576477, 0.15237095952033997, -0.11425137519836426, -0.2349218096102661, 0.22052051036904, 0.9465998971469447,-0.011445369295691676,0.510162353515625,0.47418212890625,-0.8249053955078125
20220209-1452,2022-02-09 14:52:33Z,u01, 127,40,movements,el-ex, lt, d,18220.79432791667, 0.5217073105531979, -0.4705507617497216, 0.10418268038310313, -0.1870955526828766, 1.3480197191238403, 0.2820007801055908, 0.44419851899147034, 0.45337724685668945, -0.772746205329895, 0.1807861030101776, 0.1337045133113861, -0.15941327810287476, -0.2379778149643672, 0.23873304379917182, 0.9414081516624602,-0.01111858762132073,0.5559539794921875,0.6126708984375,-0.9091644287109375
20220209-1452,2022-02-09 14:52:33Z,u01, 128,40,movements,el-ex, lt, d,18220.81927291667, 0.558486066094736, -0.4752242589616102, 0.11423691244697391, -0.573203444480896, 1.2864632606506348, 0.14529864490032196, 0.4711844325065613, 0.45753785967826843, -0.7540850639343262, 0.06529921293258667, 0.04209581017494202, -0.050602495670318604, -0.2411886235342774, 0.2545299722722747, 0.9364356152800103,-0.01143801127162164,0.6258087158203125,0.5634765625,-0.9133148193359375
20220209-1452,2022-02-09 14:52:33Z,u01, 129,40,movements,el-ex, lt, d,18220.844218916667, 0.5984364542097536, -0.4867552179388911, 0.12599201390718381, -0.4685249328613281, 1.4247430562973022, 0.0936940386891365, 0.49792101979255676, 0.46776044368743896, -0.7302566170692444, 0.06297668814659119, 0.08784249424934387, -0.07870340347290039, -0.2478281889647505, 0.2710219251613008, 0.9300384900641586,-0.012509926130561733,0.5292205810546875,0.49810791015625,-0.8022613525390625
20220209-1452,2022-02-09 14:52:33Z,u01, 130,40,movements,el-ex, lt, d,18220.86916491667, 0.6373267970051515, -0.4903298368808304, 0.13248730826132096, -0.1278005987405777, 1.4087530374526978, 0.10479229688644409, 0.5249390006065369, 0.47091689705848694, -0.7089966535568237, 0.12072128057479858, 0.0705106258392334, -0.07483220100402832, -0.2501098890980974, 0.2880047150982399, 0.9242707283873336,-0.01489279391397047,0.602813720703125,0.5670318603515625,-0.8224334716796875
20220209-1452,2022-02-09 14:52:33Z,u01, 131,40,movements,el-ex, lt, d,18220.89410991667, 0.6725070287204342, -0.49157353742184745, 0.13600915573550845, -0.14601938426494598, 1.2637484073638916, 0.051784541457891464, 0.5491864085197449, 0.4720136821269989, -0.6896356344223022, 0.1116868257522583, 0.04792943596839905, -0.1378180980682373, -0.25090927708265093, 0.30368854046268073, 0.9189657318192497,-0.017879558189425215,0.648468017578125,0.530853271484375,-0.79473876953125
20220209-1452,2022-02-09 14:52:33Z,u01, 132,40,movements,el-ex, lt, d,18220.919055916667, 0.7059608167223809, -0.49691569257925844, 0.14394308138135925, -0.6107439994812012, 1.1305822134017944, 0.08184723556041718, 0.5703016519546509, 0.4767165184020996, -0.6689523458480835, 0.058100879192352295, -0.04440462589263916, -0.019081830978393555, -0.25424640773392615, 0.31762022116012173, 0.9132908234046586,-0.01938589730600737,0.661895751953125,0.517852783203125,-0.8108978271484375
20220209-1452,2022-02-09 14:52:33Z,u01, 133,40,movements,el-ex, lt, d,18220.94400191667, 0.7423829230867958, -0.5103261866061074, 0.16115368094869295, -0.8340192437171936, 1.1663472652435303, 0.10724879801273346, 0.5899074673652649, 0.4884619116783142, -0.6429728269577026, 0.04351526498794556, -0.013898402452468872, -0.052278757095336914, -0.2627007812468304, 0.33091069866511824, 0.9061663179003867,-0.018676789874444877,0.62835693359375,0.4258270263671875,-0.6887664794921875
20220209-1452,2022-02-09 14:52:33Z,u01, 134,40,movements,el-ex, lt, d,18220.968946916666, 0.7805463017593938, -0.5180938268727941, 0.175294095025624, -0.2641475200653076, 1.2921597957611084, 0.15660488605499268, 0.6113216280937195, 0.4952250123023987, -0.6172826886177063, 0.09567892551422119, 0.08004647493362427, -0.06728768348693848, -0.26817893221592987, 0.34559906747764885, 0.8990476573827606,-0.018827801097526187,0.637451171875,0.5139312744140625,-0.68133544921875
20220209-1452,2022-02-09 14:52:33Z,u01, 135,40,movements,el-ex, lt, d,18220.993892916667, 0.8147223515871619, -0.5170262151572242, 0.18142678268302542, -0.10613266378641129, 1.1565839052200317, 0.2111484259366989, 0.6324411630630493, 0.49429723620414734, -0.5963961482048035, 0.12898755073547363, 0.03005567193031311, -0.08991378545761108, -0.2684565166143872, 0.36018470714170386, 0.8931850915323278,-0.020454117083236356,0.7147979736328125,0.576385498046875,-0.68389892578125
20220209-1452,2022-02-09 14:52:33Z,u01, 136,40,movements,el-ex, lt, d,18221.01883891667, 0.8466605674758764, -0.5182571408761196, 0.1919071661463087, -0.5091081857681274, 1.021385908126831, 0.18539033830165863, 0.650706946849823, 0.4953669011592865, -0.5754928588867188, 0.030887722969055176, -0.03665727376937866, -0.0381852388381958, -0.2705876550014407, 0.37287515205257893, 0.8873175655877352,-0.02034533364839819,0.7535247802734375,0.5087890625,-0.673858642578125
20220209-1452,2022-02-09 14:52:33Z,u01, 137,40,movements,el-ex, lt, d,18221.043783916666, 0.8819390678974834, -0.5249256139255211, 0.20889828035984703, -0.6005769371986389, 1.1142975091934204, 0.22233764827251434, 0.6680353879928589, 0.5011486411094666, -0.5500715374946594, 0.011178970336914062, 0.00010246038436889648, -0.0763782262802124, -0.2763363547606961, 0.385489892252403, 0.8801542743613366,-0.01908141811700481,0.6735382080078125,0.456756591796875,-0.6086883544921875
20220209-1452,2022-02-09 14:52:33Z,u01, 138,40,movements,el-ex, lt, d,18221.068729916668, 0.915459483479478, -0.5264353273656781, 0.22271010200981003, -0.27715635299682617, 0.9655154347419739, 0.2911079227924347, 0.6854946613311768, 0.5024545192718506, -0.5269122123718262, 0.06293356418609619, 0.01942652463912964, -0.12602674961090088, -0.27937499787481423, 0.3981124135820062, 0.8735739914098504,-0.018016327315753478,0.7123870849609375,0.5107269287109375,-0.65252685546875
20220209-1452,2022-02-09 14:52:33Z,u01, 139,40,movements,el-ex, lt, d,18221.09367591667, 0.9460125343239894, -0.5248154752860409, 0.23620195146820042, -0.4526851773262024, 0.9401562809944153, 0.3252219259738922, 0.7019301652908325, 0.5010533332824707, -0.5062009692192078, -0.020030319690704346, -0.035751938819885254, -0.07035249471664429, -0.2811560799142205, 0.40969594310164914, 0.8676650357929052,-0.016054250018905647,0.7437286376953125,0.5119171142578125,-0.645416259765625
20220209-1452,2022-02-09 14:52:33Z,u01, 140,40,movements,el-ex, lt, d,18221.118620916666, 0.97859774326024, -0.5243054623650507, 0.2525383053461213, -0.3024577796459198, 1.0329686403274536, 0.3723422586917877, 0.7182613015174866, 0.5006119012832642, -0.4832063615322113, 0.04536467790603638, 0.03054642677307129, -0.06888729333877563, -0.28409754059250386, 0.42152746319346257, 0.86105832951112,-0.013478097325334726,0.682464599609375,0.472503662109375,-0.5550994873046875
20220209-1452,2022-02-09 14:52:33Z,u01, 141,40,movements,el-ex, lt, d,18221.143566916668, 1.0056938666844661, -0.5144352736434624, 0.2569613910925175, 0.49588704109191895, 0.9565557837486267, 0.44145140051841736, 0.7352262735366821, 0.49204328656196594, -0.4661926329135895, 0.09916990995407104, 0.1340247392654419, -0.10943007469177246, -0.2807796047047938, 0.43366634107984753, 0.8561114934760417,-0.013012307819985136,0.7767791748046875,0.54449462890625,-0.55841064453125
20220209-1452,2022-02-09 14:52:33Z,u01, 142,40,movements,el-ex, lt, d,18221.16851291667, 1.0255628428243653, -0.497425376378933, 0.24816581856175557, 0.5389620065689087, 0.9812041521072388, 0.3631810247898102, 0.7513913512229919, 0.47716450691223145, -0.4557684659957886, 0.00837409496307373, 0.054390549659729004, -0.007381737232208252, -0.2716985209523576, 0.4453040268080428, 0.853023880651167,-0.015308478125527214,0.8304443359375,0.64215087890625,-0.5660552978515625
20220209-1452,2022-02-09 14:52:33Z,u01, 143,40,movements,el-ex, lt, d,18221.193457916666, 1.0489938960688803, -0.48864009777502443, 0.24582471525408042, -0.004764894023537636, 0.9883124828338623, 0.17233233153820038, 0.7654678821563721, 0.4694255590438843, -0.44011160731315613, 0.0018658638000488281, 0.011424541473388672, -0.0018288195133209229, -0.26737386801501195, 0.45656917925963, 0.8483854558380207,-0.017251892896696874,0.755584716796875,0.5214691162109375,-0.45513916015625
20220209-1452,2022-02-09 14:52:33Z,u01, 144,40,movements,el-ex, lt, d,18221.218403916668, 1.0762766923418663, -0.48684335422183334, 0.251518120400249, -0.17512057721614838, 0.9457339644432068, 0.1720038205385208, 0.7779302597045898, 0.4678383469581604, -0.4194659888744354, 0.10680466890335083, 0.062343448400497437, -0.07626169919967651, -0.26771636410774446, 0.4675413904123063, 0.8422634584929207,-0.018033605835761357,0.794464111328125,0.4913482666015625,-0.4551849365234375
20220209-1452,2022-02-09 14:52:33Z,u01, 145,40,movements,el-ex, lt, d,18221.24334991667, 1.1010093993526409, -0.48521508954995557, 0.25726202502400936, -0.13865947723388672, 0.8425032496452332, 0.1252632886171341, 0.7887439727783203, 0.4663986265659332, -0.4004436433315277, 0.06634312868118286, 0.08317708969116211, -0.05004173517227173, -0.26818960270699155, 0.4773389927088019, 0.8365877891425233,-0.01850921427983976,0.888641357421875,0.5342559814453125,-0.496002197265625
20220209-1452,2022-02-09 14:52:33Z,u01, 146,40,movements,el-ex, lt, d,18221.268294916666, 1.1257018318220486, -0.4857798839845659, 0.2632947215220556, -0.26826217770576477, 0.9177631735801697, 0.03559551388025284, 0.798152506351471, 0.4668981730937958, -0.38073405623435974, 0.01976412534713745, 0.05731740593910217, 0.005810171365737915, -0.2696353757598385, 0.4867542921998242, 0.8306551166187146,-0.019465829819822367,0.826324462890625,0.5381927490234375,-0.4279937744140625
20220209-1452,2022-02-09 14:52:33Z,u01, 147,40,movements,el-ex, lt, d,18221.293240916668, 1.1522925380029425, -0.48878193798845526, 0.27062186787878656, -0.23554711043834686, 0.8988760113716125, -0.05188879370689392, 0.8067089319229126, 0.4695507884025574, -0.3588072955608368, 0.09584832191467285, 0.07242602109909058, -0.033893048763275146, -0.27235824264477376, 0.49640440688520765, 0.8239954981055961,-0.020856857093435377,0.8270111083984375,0.5240936279296875,-0.36871337890625
20220209-1452,2022-02-09 14:52:33Z,u01, 148,40,movements,el-ex, lt, d,18221.31818591667, 1.1753471049848716, -0.4925998265095261, 0.27199213103475106, 0.06988318264484406, 0.9132782816886902, -0.14966155588626862, 0.813105583190918, 0.47291821241378784, -0.33942216634750366, 0.0751846432685852, 0.12014508247375488, -0.07737177610397339, -0.27393829763418376, 0.5052194767939228, 0.8179917284062069,-0.02450388936011244,0.9156951904296875,0.5530853271484375,-0.41064453125
20220209-1452,2022-02-09 14:52:33Z,u01, 149,40,movements,el-ex, lt, d,18221.343131916667, 1.194968530948852, -0.4949322051124829, 0.2655381459183218, 0.15332165360450745, 0.8714922666549683, -0.18981929123401642, 0.8185803890228271, 0.4749719798564911, -0.3229978680610657, 0.06606298685073853, 0.05626264214515686, -0.08143657445907593, -0.27293259403987546, 0.5138179365817935, 0.8127546138753914,-0.0304753302718499,0.887786865234375,0.5884857177734375,-0.421112060546875
20220209-1452,2022-02-09 14:52:33Z,u01, 150,40,movements,el-ex, lt, d,18221.368077916668, 1.2156453368367763, -0.5014268739575939, 0.265833684747151, -0.38662824034690857, 0.7739516496658325, -0.2618313729763031, 0.8221737742424011, 0.4806772470474243, -0.30492526292800903, 0.04017651081085205, -0.01851913332939148, -0.018393397331237793, -0.27518018377344156, 0.5213571147342633, 0.8069909165807831,-0.03504453218881598,0.8796539306640625,0.496307373046875,-0.3846588134765625
20220209-1452,2022-02-09 14:52:34Z,u01, 151,40,movements,el-ex, lt, d,18221.39302291667, 1.2405736798902984, -0.5124064923597726, 0.278399437017223, -0.6108081340789795, 0.7407520413398743, -0.26295536756515503, 0.824476420879364, 0.4902760982513428, -0.2826088070869446, 0.05339205265045166, -0.0019644200801849365, -0.08375489711761475, -0.2822266806446989, 0.5282458693944008, 0.7999753434316104,-0.03665652206094816,0.861846923828125,0.4583587646484375,-0.320953369140625
20220209-1452,2022-02-09 14:52:34Z,u01, 152,40,movements,el-ex, lt, d,18221.417968916667, 1.2632169351877636, -0.5207443288687236, 0.2878931156766951, -0.17850136756896973, 0.6715055108070374, -0.16928352415561676, 0.8267389535903931, 0.4975259304046631, -0.2626223862171173, 0.08414959907531738, 0.06935325264930725, -0.1384550929069519, -0.28746992576370406, 0.5348362877343308, 0.7936147153030555,-0.038558730372108274,0.8924407958984375,0.5195770263671875,-0.389739990234375
20220209-1452,2022-02-09 14:52:34Z,u01, 153,40,movements,el-ex, lt, d,18221.442914916668, 1.279504532063723, -0.5256259535009749, 0.2890039915611333, -0.11299749463796616, 0.6040661931037903, -0.18084490299224854, 0.8285702466964722, 0.5017545819282532, -0.2484220564365387, 0.03300189971923828, 0.02078258991241455, -0.09458041191101074, -0.28926452226800387, 0.5404766481866604, 0.7889569657580802,-0.041925992148859004,0.906341552734375,0.5652313232421875,-0.3941802978515625
20220209-1452,2022-02-09 14:52:34Z,u01, 154,40,movements,el-ex, lt, d,18221.46785991667, 1.2986646364325185, -0.5331438987591594, 0.295869333365944, -0.5202357769012451, 0.6427199840545654, -0.24665361642837524, 0.8295208215713501, 0.5082434415817261, -0.23148147761821747, 0.03137993812561035, -0.02779000997543335, -0.03272467851638794, -0.2934995263149273, 0.5460011779463806, 0.7834405151963217,-0.04428980942463401,0.8413543701171875,0.5017852783203125,-0.3150482177734375
20220209-1452,2022-02-09 14:52:34Z,u01, 155,40,movements,el-ex, lt, d,18221.492805916667, 1.32176330150902, -0.5435444148752145, 0.3110178986597535, -0.5638181567192078, 0.5548308491706848, -0.27267542481422424, 0.8294779658317566, 0.5171728134155273, -0.21094632148742676, 0.09538757801055908, 0.023918986320495605, -0.07448482513427734, -0.3009421180562948, 0.5513262892169575, 0.7768192703173604,-0.04499836035787502,0.87127685546875,0.4863739013671875,-0.2637939453125
20220209-1452,2022-02-09 14:52:34Z,u01, 156,40,movements,el-ex, lt, d,18221.51775191667, 1.339861217905076, -0.5517353809854895, 0.3190755398989435, -0.12606219947338104, 0.562175989151001, -0.22778159379959106, 0.8290080428123474, 0.5241658687591553, -0.19492462277412415, 0.03940004110336304, 0.043033719062805176, -0.09847158193588257, -0.3057117977612901, 0.5559478249008867, 0.7715164860988153,-0.04716495838325424,0.93072509765625,0.5639801025390625,-0.3003082275390625
20220209-1452,2022-02-09 14:52:34Z,u01, 157,40,movements,el-ex, lt, d,18221.54269691667, 1.353863741562649, -0.5568693509567308, 0.31776903023471686, 0.07256048172712326, 0.5970463156700134, -0.20323923230171204, 0.829017162322998, 0.5285311341285706, -0.18271605670452118, -0.0028759241104125977, 0.004336178302764893, -0.06763505935668945, -0.30683808534428014, 0.5607961817739142, 0.7672769842115259,-0.051419340154928606,0.8614501953125,0.56365966796875,-0.2890625
20220209-1452,2022-02-09 14:52:34Z,u01, 158,40,movements,el-ex, lt, d,18221.567642916667, 1.3681515941345692, -0.5621182732990948, 0.31607931024154656, -0.07368580251932144, 0.6038139462471008, -0.22560445964336395, 0.8288142085075378, 0.5329797267913818, -0.17029225826263428, -0.003970026969909668, -0.04604136943817139, -0.046367526054382324, -0.3078428597391443, 0.5657620065257215, 0.7629018695917658,-0.05591744896232209,0.8154144287109375,0.5238494873046875,-0.231903076171875
20220209-1452,2022-02-09 14:52:34Z,u01, 159,40,movements,el-ex, lt, d,18221.59258891667, 1.3839059790552184, -0.5680120765602441, 0.3198338068999851, -0.26328060030937195, 0.4595410227775574, -0.16548219323158264, 0.8282930254936218, 0.5379573702812195, -0.1566278040409088, 0.06791651248931885, -0.025689363479614258, -0.0701485276222229, -0.31053350986881256, 0.570311353928257, 0.758192764457642,-0.05880018678762977,0.8315887451171875,0.4886322021484375,-0.215911865234375
20220209-1452,2022-02-09 14:52:34Z,u01, 160,40,movements,el-ex, lt, d,18221.61753391667, 1.3987409945357836, -0.5731788891497315, 0.32918225863384215, -0.3944781720638275, 0.3323364555835724, -0.13592509925365448, 0.8277757167816162, 0.5423056483268738, -0.14384545385837555, 0.023054122924804688, -0.02838975191116333, -0.05989013612270355, -0.31457212031806453, 0.5736912520947219, 0.7539315492018686,-0.05924261112557355,0.903961181640625,0.5160064697265625,-0.2276763916015625
20220209-1452,2022-02-09 14:52:34Z,u01, 161,40,movements,el-ex, lt, d,18221.642479916667, 1.4132432464813345, -0.5776595438110818, 0.340515462543841, -0.401712566614151, 0.3355097472667694, -0.08762162178754807, 0.8273665308952332, 0.5460647344589233, -0.1314435601234436, -0.021351754665374756, -0.026091158390045166, -0.05338636040687561, -0.3189513067859802, 0.5766699982359038, 0.7498482239945431,-0.0587290753532016,0.8426361083984375,0.514007568359375,-0.2017059326171875
20220209-1452,2022-02-09 14:52:34Z,u01, 162,40,movements,el-ex, lt, d,18221.66742591667, 1.4285274631990772, -0.5806609592343139, 0.35085968364743025, -0.31353381276130676, 0.4028742015361786, -0.05601995438337326, 0.8276528120040894, 0.5485767126083374, -0.118550144135952, 0.02116292715072632, -0.007835865020751953, -0.05352342128753662, -0.32252205412954765, 0.580262399046197, 0.7455715135641925,-0.05829274200622642,0.80133056640625,0.52532958984375,-0.183624267578125
20220209-1452,2022-02-09 14:52:34Z,u01, 163,40,movements,el-ex, lt, d,18221.69237091667, 1.442009821513211, -0.5821323756189034, 0.3579431353676787, -0.15359409153461456, 0.3429384231567383, -0.013318296521902084, 0.828374445438385, 0.5498063564300537, -0.10727720707654953, 0.07111573219299316, 0.013074994087219238, -0.07979577034711838, -0.3246888338148219, 0.5838994419007699, 0.741779377833799,-0.058324580313642016,0.8584747314453125,0.5456695556640625,-0.1754608154296875
20220209-1452,2022-02-09 14:52:34Z,u01, 164,40,movements,el-ex, lt, d,18221.71731675, 1.4509420868918026, -0.5828824355483624, 0.36073443060973404, -0.050957322120666504, 0.2560669183731079, -0.022185292094945908, 0.8288899660110474, 0.5504326820373535, -0.09982442855834961, 0.02723473310470581, 0.012723326683044434, -0.11379885673522949, -0.32549592410425154, 0.5866346296440866, 0.7392104201943079,-0.05899135966959579,0.90081787109375,0.572906494140625,-0.1891632080078125
20220209-1452,2022-02-09 14:52:34Z,u01, 165,40,movements,el-ex, lt, d,18221.742262750002, 1.457678501055674, -0.5836650548878762, 0.3612873775972783, -0.0002847258001565933, 0.2522529363632202, -0.044838737696409225, 0.8291153311729431, 0.5510859489440918, -0.09418980777263641, 0.007233977317810059, -0.001311957836151123, -0.1390867829322815, -0.32571980887667246, 0.5889072115174373, 0.7372091817042681,-0.06014416349170354,0.8509521484375,0.560211181640625,-0.2182769775390625
20220209-1452,2022-02-09 14:52:34Z,u01, 166,40,movements,el-ex, lt, d,18221.767207750003, 1.4626216032557435, -0.5847054811998471, 0.35997552758299217, 0.11021704971790314, 0.1959550976753235, -0.052975960075855255, 0.8290002942085266, 0.5519537925720215, -0.090028315782547, 0.03957551717758179, 0.01973181962966919, -0.162794828414917, -0.32552952124574813, 0.5907760776399816, 0.7356611244870335,-0.06177889555563065,0.84027099609375,0.5572509765625,-0.2324676513671875
20220209-1452,2022-02-09 14:52:34Z,u01, 167,40,movements,el-ex, lt, d,18221.79215375, 1.461091417336199, -0.5853212181670796, 0.3508352040105026, 0.5408631563186646, 0.06481585651636124, -0.06724824011325836, 0.8285236954689026, 0.5524671673774719, -0.09125952422618866, 0.050779104232788086, 0.0422593355178833, -0.25491684675216675, -0.3230817695182873, 0.5915981824808402, 0.7357933403920944,-0.06509851683042162,0.870330810546875,0.5752410888671875,-0.2600860595703125
20220209-1452,2022-02-09 14:52:34Z,u01, 168,40,movements,el-ex, lt, d,18221.81709875, 1.4481460354306999, -0.584747761365253, 0.3279771914562459, 0.8967128396034241, -0.11331140249967575, -0.04789784550666809, 0.8275870680809021, 0.5519890785217285, -0.10201585292816162, 0.0442541241645813, 0.032132506370544434, -0.35496985912323, -0.3165746288109347, 0.5905697066464862, 0.7388700361210994,-0.07126513142397972,0.8697052001953125,0.604644775390625,-0.38238525390625
20220209-1452,2022-02-09 14:52:34Z,u01, 169,40,movements,el-ex, lt, d,18221.84204475, 1.4296965882582644, -0.5822305252539992, 0.30639076884563055, 0.39068105816841125, -0.408993124961853, 0.06804873049259186, 0.8269373178482056, 0.5498883128166199, -0.117461197078228, 0.10748016834259033, -0.07219678163528442, -0.3376781940460205, -0.31003641227807205, 0.5874919784842224, 0.7436550736889982,-0.07554828342089842,0.877899169921875,0.574493408203125,-0.45855712890625
20220209-1452,2022-02-09 14:52:34Z,u01, 170,40,movements,el-ex, lt, d,18221.86699075, 1.4179661295569608, -0.5812316413151246, 0.30890086588862586, -0.5555928349494934, -0.6362830400466919, 0.01848537288606167, 0.8260451555252075, 0.5490537285804749, -0.12723681330680847, 0.15250080823898315, -0.1630980372428894, -0.299612820148468, -0.3108612741146607, 0.5828780820228667, 0.7472395585563079,-0.07246632096140088,0.949615478515625,0.4201507568359375,-0.4463958740234375
20220209-1452,2022-02-09 14:52:34Z,u01, 171,40,movements,el-ex, lt, d,18221.89193575, 1.4082188768953905, -0.5821842040072512, 0.32669057703698845, -0.41604819893836975, -0.8729405403137207, 0.0932299867272377, 0.8242491483688354, 0.5498496294021606, -0.13519757986068726, 0.18350207805633545, -0.033675432205200195, -0.36521464586257935, -0.31667931270187627, 0.5762945597837327, 0.7506180640452176,-0.06458434029879773,0.982879638671875,0.3974151611328125,-0.427886962890625
20220209-1452,2022-02-09 14:52:34Z,u01, 172,40,movements,el-ex, lt, d,18221.91688175, 1.3875276989320875, -0.5799665001549477, 0.3298842397754796, 0.20616328716278076, -0.927840530872345, 0.11472302675247192, 0.8224723935127258, 0.547995924949646, -0.15244394540786743, 0.16503041982650757, 0.0016254782676696777, -0.39369887113571167, -0.3174655561968179, 0.5683252990807877, 0.7567661041587406,-0.05938638565719112,1.001373291015625,0.54876708984375,-0.5225372314453125
20220209-1452,2022-02-09 14:52:34Z,u01, 173,40,movements,el-ex, lt, d,18221.94182775, 1.3572327182597663, -0.5755993467013784, 0.31913323083932266, 0.5067760944366455, -1.004737377166748, 0.08238192647695541, 0.8198085427284241, 0.5443376898765564, -0.1777925342321396, 0.15858489274978638, 0.005390644073486328, -0.3843719959259033, -0.313784378408138, 0.5591449699159344, 0.7652527016235551,-0.0573098006372561,0.9871826171875,0.5472564697265625,-0.54595947265625
20220209-1452,2022-02-09 14:52:34Z,u01, 174,40,movements,el-ex, lt, d,18221.966772750002, 1.323520604989447, -0.5703567178667615, 0.30372561833727985, 0.5936405062675476, -1.0459688901901245, 0.0882239043712616, 0.8161057829856873, 0.5399323105812073, -0.20601940155029297, 0.18429070711135864, -0.0271761417388916, -0.40344735980033875, -0.30859691936829425, 0.5493252577412708, 0.7744886792336176,-0.05636250440624352,0.9739837646484375,0.539947509765625,-0.5735931396484375
20220209-1452,2022-02-09 14:52:34Z,u01, 175,40,movements,el-ex, lt, d,18221.99171875, 1.2856585070245508, -0.563641165778886, 0.28536347351532676, 0.7589619159698486, -1.2196412086486816, 0.11137116700410843, 0.811183750629425, 0.5342676639556885, -0.2377784550189972, 0.22946542501449585, -0.019436299800872803, -0.41952458024024963, -0.30221368146662486, 0.5383100092390954, 0.7847211027406399,-0.05569352080648371,1.0056610107421875,0.5116424560546875,-0.6149444580078125
20220209-1452,2022-02-09 14:52:34Z,u01, 176,40,movements,el-ex, lt, d,18222.01666475, 1.2401311052897066, -0.5537540049664467, 0.2622680635262404, 0.9495804905891418, -1.4553258419036865, 0.16804517805576324, 0.8044785857200623, 0.5258839130401611, -0.27615201473236084, 0.25005608797073364, 0.014902651309967041, -0.4277666509151459, -0.2936440457796539, 0.5250687285913065, 0.7968927887177737,-0.055114951142610835,1.05224609375,0.5198516845703125,-0.67388916015625
20220209-1452,2022-02-09 14:52:34Z,u01, 177,40,movements,el-ex, lt, d,18222.041609750002, 1.1889739093557357, -0.5411091710606503, 0.23936278116735246, 0.807255208492279, -1.6895216703414917, 0.2194427102804184, 0.7954128384590149, 0.5150870084762573, -0.3193800747394562, 0.2589082717895508, 0.010669708251953125, -0.41691768169403076, -0.2842679543692297, 0.509413089859108, 0.8104618038558952,-0.05330681893875966,1.0537872314453125,0.540802001953125,-0.705718994140625
20220209-1452,2022-02-09 14:52:34Z,u01, 178,40,movements,el-ex, lt, d,18222.06655575, 1.135464889648475, -0.5294476036910852, 0.22405747071825605, 0.5570043325424194, -1.9765864610671997, 0.22127310931682587, 0.7825862765312195, 0.5050566792488098, -0.36397284269332886, 0.3114534020423889, 0.044168055057525635, -0.4244641959667206, -0.277234268134391, 0.49107509228673, 0.8243793058689254,-0.048835978810914615,1.0599212646484375,0.5235748291015625,-0.740875244140625
20220209-1452,2022-02-09 14:52:34Z,u01, 179,40,movements,el-ex, lt, d,18222.09150175, 1.0784203989291028, -0.5193232667730079, 0.21411387166133725, 0.4721948206424713, -2.1809442043304443, 0.18905797600746155, 0.7650288939476013, 0.49629274010658264, -0.410395085811615, 0.32220542430877686, 0.1015923023223877, -0.37817931175231934, -0.2720876930891876, 0.46986247369612577, 0.8386862101630366,-0.042459604642685,1.0959014892578125,0.5527496337890625,-0.795440673828125
20220209-1452,2022-02-09 14:52:34Z,u01, 180,40,movements,el-ex, lt, d,18222.116446750002, 1.016015998588703, -0.5084867458137929, 0.20300849439853844, 0.6490484476089478, -2.375227689743042, 0.16568388044834137, 0.7424739599227905, 0.48685601353645325, -0.46011248230934143, 0.38632529973983765, 0.1971191167831421, -0.337327241897583, -0.2663260764676671, 0.44611005998208364, 0.8536732569822787,-0.03602822353509372,1.0929718017578125,0.6246795654296875,-0.7826995849609375
20220209-1452,2022-02-09 14:52:34Z,u01, 181,40,movements,el-ex, lt, d,18222.14139275, 0.946431630509949, -0.4962613283001787, 0.18842856601115054, 0.6831669807434082, -2.6281955242156982, 0.09145624935626984, 0.7134624123573303, 0.47614121437072754, -0.5140631198883057, 0.4341662526130676, 0.2341247797012329, -0.3208216428756714, -0.2591956764505898, 0.4192684571676313, 0.8695491932811619,-0.03026034916907877,1.13299560546875,0.6834564208984375,-0.803558349609375
20220209-1452,2022-02-09 14:52:34Z,u01, 182,40,movements,el-ex, lt, d,18222.16633875, 0.8727110231110801, -0.48678303224508296, 0.17652256074486652, 0.46104729175567627, -2.7918386459350586, -0.0338793620467186, 0.6770886778831482, 0.4677850306034088, -0.5680913329124451, 0.3904617428779602, 0.22082874178886414, -0.2580500841140747, -0.25371990485951534, 0.3893334485650834, 0.8851400710700659,-0.023925137074880254,1.1421051025390625,0.705535888671875,-0.8421783447265625
20220209-1452,2022-02-09 14:52:34Z,u01, 183,40,movements,el-ex, lt, d,18222.191283750002, 0.7962102117655793, -0.48024736509715965, 0.16373673069123157, 0.6077741384506226, -2.8723669052124023, -0.17133475840091705, 0.6338629126548767, 0.4619985818862915, -0.6203023195266724, 0.43156659603118896, 0.29280784726142883, -0.2374706268310547, -0.24928319564813503, 0.3573607849447961, 0.8998902341349047,-0.018669572828407366,1.0630035400390625,0.6945648193359375,-0.827880859375
20220209-1452,2022-02-09 14:52:34Z,u01, 184,40,movements,el-ex, lt, d,18222.21622975, 0.7150643561250092, -0.4718542384468668, 0.14584419454950687, 0.7176126837730408, -2.9604685306549072, -0.29903486371040344, 0.5840193629264832, 0.4545386731624603, -0.6725443005561829, 0.4515182375907898, 0.3051810562610626, -0.14178681373596191, -0.24317252137938986, 0.32341145310145886, 0.9143523486440659,-0.015225116304248887,1.0637054443359375,0.7680206298828125,-0.842529296875
20220209-1452,2022-02-09 14:52:34Z,u01, 185,40,movements,el-ex, lt, d,18222.24117575, 0.6306659542198767, -0.46274768885012046, 0.12381233383297564, 0.8789222240447998, -2.9810574054718018, -0.48010918498039246, 0.527665376663208, 0.4464085102081299, -0.7226954102516174, 0.45712149143218994, 0.31854501366615295, -0.09448909759521484, -0.23626617224944785, 0.28780302571380445, 0.9279865748956454,-0.013733055009061246,1.0303802490234375,0.75921630859375,-0.811370849609375
20220209-1452,2022-02-09 14:52:34Z,u01, 186,40,movements,el-ex, lt, d,18222.266120750002, 0.5442361407290504, -0.4487348303473405, 0.09564960504865379, 1.16669762134552, -2.908935308456421, -0.5715852975845337, 0.4665042757987976, 0.4338259696960449, -0.7708233594894409, 0.41408029198646545, 0.301937460899353, -0.03146857023239136, -0.22658490677158424, 0.2514907358379922, 0.9408460750500298,-0.014837380638782038,0.9553375244140625,0.767181396484375,-0.7989044189453125
20220209-1452,2022-02-09 14:52:34Z,u01, 187,40,movements,el-ex, lt, d,18222.29106675, 0.45900307568004933, -0.42818463914128374, 0.0652018730245328, 1.3029749393463135, -2.924673318862915, -0.5856963992118835, 0.4030560553073883, 0.4152200222015381, -0.815559983253479, 0.49416062235832214, 0.29930320382118225, -0.009757459163665771, -0.21402576334357054, 0.2154367209325869, 0.9526178757811343,-0.01729157284759958,0.8795928955078125,0.7331695556640625,-0.80877685546875
20220209-1452,2022-02-09 14:52:34Z,u01, 188,40,movements,el-ex, lt, d,18222.31601275, 0.37219550555049735, -0.40556104720522396, 0.03562108894627598, 1.1902670860290527, -3.1095383167266846, -0.6568162441253662, 0.3341616988182068, 0.3945343494415283, -0.8559664487838745, 0.5324305891990662, 0.277355819940567, 0.06412678956985474, -0.20111268475437788, 0.17768080630486438, 0.9631087406005668,-0.02011356557024674,0.90087890625,0.7001953125,-0.818450927734375
20220209-1452,2022-02-09 14:52:34Z,u01, 189,40,movements,el-ex, lt, d,18222.340957750002, 0.281630453755082, -0.3879811302772565, 0.007954745524580755, 0.7985485792160034, -3.262066602706909, -0.8145077228546143, 0.2572655975818634, 0.3783203661441803, -0.8892064690589905, 0.47861993312835693, 0.23000168800354004, 0.1344456672668457, -0.191414264837601, 0.13695749745349936, 0.9716302365200546,-0.023191851432720734,0.852447509765625,0.6628570556640625,-0.78411865234375
20220209-1452,2022-02-09 14:52:34Z,u01, 190,40,movements,el-ex, lt, d,18222.36590375, 0.1894989623404857, -0.37678971725616384, -0.019065265757400696, 0.5688156485557556, -3.3046536445617676, -0.9341014623641968, 0.17515303194522858, 0.367937296628952, -0.913205087184906, 0.43280279636383057, 0.23061910271644592, 0.2605409026145935, -0.18554802786897262, 0.09470684759136538, 0.9776866383608176,-0.027039395938160737,0.696319580078125,0.604339599609375,-0.7428741455078125
20220209-1452,2022-02-09 14:52:35Z,u01, 191,40,movements,el-ex, lt, d,18222.39084875, 0.09765115805217787, -0.367984274921657, -0.0470552440805941, 0.44914141297340393, -3.22776460647583, -1.0182656049728394, 0.09096910059452057, 0.359735369682312, -0.9286091923713684, 0.4321936368942261, 0.20096397399902344, 0.4212086796760559, -0.18155837113518974, 0.052268101536132205, 0.9814676279215306,-0.03202771082713035,0.596038818359375,0.5959625244140625,-0.633514404296875
20220209-1452,2022-02-09 14:52:35Z,u01, 192,40,movements,el-ex, lt, d,18222.415794750003, 0.007353797847008968, -0.35976423387521406, -0.07550065137118074, 0.30000123381614685, -3.1961779594421387, -1.0533623695373535, 0.006882944609969854, 0.35205358266830444, -0.9359545111656189, 0.39677298069000244, 0.16032123565673828, 0.6018785834312439, -0.17864840394604364, 0.01036738515839944, 0.9831322469933127,-0.03778952554862691,0.4964141845703125,0.5496673583984375,-0.4696502685546875
20220209-1452,2022-02-09 14:52:35Z,u01, 193,40,movements,el-ex, lt, d,18222.44074075, -0.07964713087687302, -0.3545425722171732, -0.102970478309903, 0.0911293774843216, -2.9816854000091553, -1.0881054401397705, -0.07461456209421158, 0.3471614122390747, -0.9348323941230774, 0.3403310775756836, 0.09606048464775085, 0.7732875943183899, -0.17798777534159657, -0.030069263311331716, 0.9826060352064205,-0.043604346550364714,0.388458251953125,0.5031890869140625,-0.3104095458984375
20220209-1452,2022-02-09 14:52:35Z,u01, 194,40,movements,el-ex, lt, d,18222.46568575, -0.1551115614291473, -0.344316294102636, -0.1337656763580541, 0.4809732139110565, -2.087880849838257, -1.254988193511963, -0.14542274177074432, 0.3375531733036041, -0.9300054311752319, 0.05008578300476074, 0.04957747459411621, 1.1923496723175049, -0.1755137386134909, -0.06474738585744547, 0.9809466668479734,-0.05240407973646949,0.18243408203125,0.4364013671875,-0.0480499267578125
20220209-1452,2022-02-09 14:52:35Z,u01, 195,40,movements,el-ex, lt, d,18222.490631750003, -0.2022429504341797, -0.3245297628484133, -0.1602529574331054, 0.5675771832466125, -1.1044272184371948, -0.9715722799301147, -0.1903819590806961, 0.3188631236553192, -0.9284831881523132, 0.05280868709087372, -0.06901583075523376, 1.3031322956085205, -0.16818671447470107, -0.08643869340611626, 0.9799777620142911,-0.06232943654296774,-0.1168212890625,0.37591552734375,0.283416748046875
20220209-1452,2022-02-09 14:52:35Z,u01, 196,40,movements,el-ex, lt, d,18222.51557775, -0.23023313810016166, -0.3106124560641216, -0.18034043157268093, 0.27579060196876526, -0.5825547575950623, -0.8128292560577393, -0.21728414297103882, 0.3056418299674988, -0.9270224571228027, 0.10542193055152893, -0.23046189546585083, 1.2410941123962402, -0.16325328739782338, -0.09918232450807514, 0.979037974268534,-0.0706804059091174,-0.0986175537109375,0.2087554931640625,0.37286376953125
20220209-1452,2022-02-09 14:52:35Z,u01, 197,40,movements,el-ex, lt, d,18222.54052275, -0.24025260955667993, -0.30002226559099276, -0.1965381044327504, 0.2911509871482849, 0.13933436572551727, -0.5438450574874878, -0.22731882333755493, 0.2955414652824402, -0.9278907775878906, 0.017540976405143738, -0.29023152589797974, 1.1964302062988281, -0.1592816776609206, -0.10336316656752143, 0.9786648825205846,-0.07848681271389707,-0.12896728515625,0.0651702880859375,0.3154144287109375
20220209-1452,2022-02-09 14:52:35Z,u01, 198,40,movements,el-ex, lt, d,18222.565468750003, -0.23303111002706497, -0.2890365743389713, -0.20374729234700836, 0.45355477929115295, 0.560059130191803, -0.21331755816936493, -0.2213486284017563, 0.2850289046764374, -0.9326109886169434, -0.007609531283378601, -0.34565216302871704, 1.0224089622497559, -0.15399700296264635, -0.0998970398575463, 0.9794725725880556,-0.0832996931113546,-0.2250518798828125,-0.0208587646484375,0.2384185791015625
20220209-1452,2022-02-09 14:52:35Z,u01, 199,40,movements,el-ex, lt, d,18222.59041475, -0.21577164222593329, -0.28033459028404345, -0.20382496031132544, 0.13014505803585052, 0.7902839183807373, 0.03467792272567749, -0.20574335753917694, 0.2766771912574768, -0.938679575920105, 0.013284221291542053, -0.34349551796913147, 0.89738929271698, -0.14902300498033647, -0.09193662853364874, 0.9808582047923652,-0.0851873819188319,-0.226470947265625,-0.0622100830078125,0.0737457275390625
20220209-1452,2022-02-09 14:52:35Z,u01, 200,40,movements,el-ex, lt, d,18222.61535975, -0.1940307045144868, -0.28541389661787475, -0.20201082542109233, -0.4970913529396057, 0.9051309823989868, 0.18625399470329285, -0.18501520156860352, 0.281554639339447, -0.9415393471717834, 0.07890555262565613, -0.2672877311706543, 0.7241626381874084, -0.15050063299867428, -0.08111647540067585, 0.9815480110035615,-0.08563344232435816,-0.1728363037109375,-0.0683441162109375,-0.0955657958984375
20220209-1452,2022-02-09 14:52:35Z,u01, 201,40,movements,el-ex, lt, d,18222.640305750003, -0.16992575397922155, -0.30458740553847025, -0.19852742917394278, -0.9149016737937927, 0.9701656103134155, 0.3285764455795288, -0.16132520139217377, 0.2998996078968048, -0.9402310252189636, 0.09261484444141388, -0.17816507816314697, 0.6224057078361511, -0.1587268081241228, -0.06848567460801666, 0.9812878994466532,-0.08478995524165156,-0.0972442626953125,0.0286407470703125,-0.22918701171875
20220209-1452,2022-02-09 14:52:35Z,u01, 202,40,movements,el-ex, lt, d,18222.66525175, -0.1417371439915872, -0.32959178718944726, -0.19279334041209312, -0.8886451721191406, 1.1729371547698975, 0.4169628322124481, -0.1336594969034195, 0.32365682721138, -0.9366863965988159, 0.03299722075462341, -0.07252776622772217, 0.3839367628097534, -0.1696023983574172, -0.05377579581620866, 0.9805254943655206,-0.08314276015349303,-0.0864105224609375,0.15789794921875,-0.37176513671875
20220209-1452,2022-02-09 14:52:35Z,u01, 203,40,movements,el-ex, lt, d,18222.69019675, -0.10725212315610175, -0.349796647518328, -0.183339898480025, -0.6642787456512451, 1.3011187314987183, 0.5113428235054016, -0.1005641371011734, 0.3427067697048187, -0.934044361114502, 0.07749279588460922, -0.009119242429733276, 0.28250932693481445, -0.17786013493736738, -0.03665495174090858, 0.980053572429854,-0.08072776529180403,-0.097808837890625,0.26361083984375,-0.563568115234375
20220209-1452,2022-02-09 14:52:35Z,u01, 204,40,movements,el-ex, lt, d,18222.71514229167, -0.06982166396085702, -0.3681974181229653, -0.17081269466218718, -0.7335494160652161, 1.3589509725570679, 0.5237250924110413, -0.0650891363620758, 0.3599342405796051, -0.9307044148445129, 0.10547909140586853, -0.0016579627990722656, 0.21576911211013794, -0.1852092529008154, -0.01858283534394671, 0.9794664504138675,-0.07744378056504214,0.008087158203125,0.34033203125,-0.6656494140625
20220209-1452,2022-02-09 14:52:35Z,u01, 205,40,movements,el-ex, lt, d,18222.740088291666, -0.029629573137425674, -0.38682315781559146, -0.15874239556548653, -0.663174569606781, 1.508202075958252, 0.45403143763542175, -0.02743629366159439, 0.37724819779396057, -0.9257056713104248, 0.06344698369503021, 0.05045554041862488, 0.1527717113494873, -0.1927345393715894, 0.000745842605869837, 0.978382993015744,-0.07496251864886572,0.039215087890625,0.3663482666015625,-0.7229766845703125
20220209-1452,2022-02-09 14:52:35Z,u01, 206,40,movements,el-ex, lt, d,18222.765033291667, 0.014664807825827427, -0.4011328764172608, -0.146731869333655, -0.47592294216156006, 1.654900312423706, 0.4753004312515259, 0.013500220142304897, 0.3904615342617035, -0.9205202460289001, 0.14863960444927216, 0.08056190609931946, 0.07701438665390015, -0.19815649807050872, 0.02176881299705012, 0.9771843462945716,-0.07328567734211733,0.052215576171875,0.4498138427734375,-0.8043212890625
20220209-1452,2022-02-09 14:52:35Z,u01, 207,40,movements,el-ex, lt, d,18222.78997929167, 0.059980946754478646, -0.41207124827532365, -0.13333380652045224, -0.4905143678188324, 1.5342999696731567, 0.44850805401802063, 0.05492718517780304, 0.4005080461502075, -0.9146454334259033, 0.1850171983242035, 0.06738731265068054, 0.04333806037902832, -0.2020794158622803, 0.04290911988755361, 0.9758272513375035,-0.07130016496099767,0.1791229248046875,0.4699859619140625,-0.850311279296875
20220209-1452,2022-02-09 14:52:35Z,u01, 208,40,movements,el-ex, lt, d,18222.814925291666, 0.10339359388272738, -0.4260337820533895, -0.12092529190842613, -0.7003593444824219, 1.5751140117645264, 0.37540802359580994, 0.09398378431797028, 0.41326236724853516, -0.9057489633560181, 0.10346485674381256, 0.04088485240936279, 0.038012146949768066, -0.20768949183745294, 0.0631710674909869, 0.9736479389052104,-0.06988551701060247,0.234222412109375,0.461151123046875,-0.86376953125
20220209-1452,2022-02-09 14:52:35Z,u01, 209,40,movements,el-ex, lt, d,18222.839870291667, 0.14887115625083916, -0.4426685148821134, -0.10787982287855183, -0.6851413249969482, 1.6295061111450195, 0.3788483440876007, 0.13402539491653442, 0.4283522963523865, -0.8936170935630798, 0.11911782622337341, 0.048789918422698975, -0.04891836643218994, -0.21469365176299737, 0.08425019169671241, 0.9706086678322297,-0.06875503803149263,0.2006988525390625,0.4564208984375,-0.877105712890625
20220209-1452,2022-02-09 14:52:35Z,u01, 210,40,movements,el-ex, lt, d,18222.86481629167, 0.1953321504925151, -0.45619626753678555, -0.09474288989943068, -0.5607872009277344, 1.6305123567581177, 0.38265934586524963, 0.17424345016479492, 0.4405365586280823, -0.8806626796722412, 0.14605370163917542, 0.09831219911575317, -0.042234718799591064, -0.22029737227237664, 0.1055354796578434, 0.9673243398335261,-0.06793231648344866,0.2743682861328125,0.495147705078125,-0.9447784423828125
20220209-1452,2022-02-09 14:52:35Z,u01, 211,40,movements,el-ex, lt, d,18222.889762291667, 0.2417553687539224, -0.4665597578203776, -0.081641097070395, -0.46411260962486267, 1.6097270250320435, 0.344999223947525, 0.2138196974992752, 0.44981640577316284, -0.8671483397483826, 0.10516516864299774, 0.05840796232223511, -0.05399429798126221, -0.22450422418636673, 0.12658464571809408, 0.9638719938590641,-0.06726618420729763,0.321624755859375,0.537628173828125,-0.9180908203125
20220209-1452,2022-02-09 14:52:35Z,u01, 212,40,movements,el-ex, lt, d,18222.914707291668, 0.2869448735675742, -0.4757811216659885, -0.06795131777290536, -0.5318218469619751, 1.4870730638504028, 0.43626365065574646, 0.25158941745758057, 0.4580329656600952, -0.8525893092155457, 0.13714340329170227, 0.014363765716552734, -0.11970078945159912, -0.22837716735446262, 0.14679649989444707, 0.9601523229104592,-0.0663476920145592,0.32208251953125,0.4976959228515625,-0.9247283935546875
20220209-1452,2022-02-09 14:52:35Z,u01, 213,40,movements,el-ex, lt, d,18222.93965329167, 0.33034641468107656, -0.48768491079654114, -0.04981915801689146, -0.7888241410255432, 1.3346176147460938, 0.4778565466403961, 0.28655558824539185, 0.4685819447040558, -0.8356534838676453, 0.14036992192268372, -0.0025328993797302246, -0.10280781984329224, -0.23409926844984055, 0.16544118754529194, 0.9559241011963446,-0.0635261517218571,0.3965606689453125,0.4697723388671875,-0.97607421875
20220209-1452,2022-02-09 14:52:35Z,u01, 214,40,movements,el-ex, lt, d,18222.964598291666, 0.37465990930405857, -0.5055266415654663, -0.028459625271762008, -0.9950276613235474, 1.41942298412323, 0.45862558484077454, 0.32018208503723145, 0.48426827788352966, -0.8142282366752625, 0.0940481424331665, 0.037505894899368286, -0.0006979703903198242, -0.24311460247775585, 0.1837965693722971, 0.9505268348071881,-0.06010549969426121,0.424835205078125,0.4713287353515625,-0.898834228515625
20220209-1452,2022-02-09 14:52:35Z,u01, 215,40,movements,el-ex, lt, d,18222.989544291668, 0.42085385858778085, -0.5186243047171047, -0.009042124700333718, -0.36467158794403076, 1.5100208520889282, 0.3657115697860718, 0.3548177182674408, 0.4956858158111572, -0.7927168011665344, 0.10016873478889465, 0.10639533400535583, -0.11241936683654785, -0.24984438641459852, 0.20302559572711265, 0.9449939839771352,-0.057832434914749764,0.4215087890625,0.529815673828125,-0.8262176513671875
20220209-1452,2022-02-09 14:52:35Z,u01, 216,40,movements,el-ex, lt, d,18223.01449029167, 0.46317786974162556, -0.5156793698500712, 0.0016504798631058425, 0.05476391315460205, 1.4458876848220825, 0.45177561044692993, 0.38869142532348633, 0.4931259751319885, -0.7782965898513794, 0.08121812343597412, 0.043128758668899536, -0.015435099601745605, -0.24836780509149312, 0.22173211135968662, 0.9411763417046412,-0.0577502767197417,0.4588623046875,0.636505126953125,-0.9068756103515625
20220209-1452,2022-02-09 14:52:35Z,u01, 217,40,movements,el-ex, lt, d,18223.039435291666, 0.5073478734029745, -0.5184321564769447, 0.01869627161532766, -0.8028608560562134, 1.4524470567703247, 0.48777973651885986, 0.422017365694046, 0.49551892280578613, -0.759185254573822, 0.10802704095840454, -0.08299767971038818, 0.032088637351989746, -0.2503765768130682, 0.24024766453402768, 0.9362176854890573,-0.05557798987354129,0.4721527099609375,0.5165252685546875,-0.77337646484375
20220209-1452,2022-02-09 14:52:35Z,u01, 218,40,movements,el-ex, lt, d,18223.064381291668, 0.5564149581918365, -0.5329396606367165, 0.04445603078116948, -0.8284911513328552, 1.4279245138168335, 0.4851016104221344, 0.45490068197250366, 0.5080674886703491, -0.7313909530639648, 0.1516513228416443, 0.05264711380004883, -0.04116165637969971, -0.25902843432785816, 0.2592465902069349, 0.9289909784545662,-0.05168314055171691,0.56829833984375,0.4187774658203125,-0.7206268310546875
20220209-1452,2022-02-09 14:52:35Z,u01, 219,40,movements,el-ex, lt, d,18223.08932729167, 0.6034047852348501, -0.5365768918574167, 0.06272359296995751, -0.11952376365661621, 1.6323978900909424, 0.4628172814846039, 0.48770198225975037, 0.5111969709396362, -0.7076894640922546, 0.007720232009887695, 0.13394451141357422, -0.0027445554733276367, -0.2619680309681601, 0.2784385172297767, 0.9226909971408936,-0.049859962678991454,0.5957183837890625,0.5735321044921875,-0.77288818359375
20220209-1452,2022-02-09 14:52:35Z,u01, 220,40,movements,el-ex, lt, d,18223.114272291667, 0.6532315001477217, -0.5283824460475456, 0.07435482519358755, 0.04859909415245056, 1.808173656463623, 0.5203061699867249, 0.5248722434043884, 0.5041370391845703, -0.6858242154121399, 0.10128724575042725, 0.05142003297805786, 0.017519712448120117, -0.2586642981768771, 0.30030096649019805, 0.9167539824261465,-0.04974008723026968,0.4827728271484375,0.6352386474609375,-0.68670654296875
20220209-1452,2022-02-09 14:52:35Z,u01, 221,40,movements,el-ex, lt, d,18223.139218291668, 0.7022900625184443, -0.5225994124282825, 0.08761380685205121, -0.3149870038032532, 1.5645204782485962, 0.4596039056777954, 0.5597467422485352, 0.49913427233695984, -0.6614744663238525, 0.20117837190628052, 0.033794105052948, -0.006433367729187012, -0.2568920802823181, 0.3213552985919024, 0.9101270007577698,-0.04905075412814319,0.650390625,0.55126953125,-0.66943359375
20220209-1452,2022-02-09 14:52:35Z,u01, 222,40,movements,el-ex, lt, d,18223.16416429167, 0.748201037066474, -0.525344824448213, 0.10612375174960771, -0.6042647957801819, 1.4587401151657104, 0.3823036551475525, 0.5885806679725647, 0.5015113353729248, -0.6340811848640442, 0.04121041297912598, 0.031188130378723145, -0.01972752809524536, -0.26007976996813564, 0.33958493142726265, 0.9026758579381322,-0.04708085928521427,0.7578125,0.530609130859375,-0.65802001953125
20220209-1452,2022-02-09 14:52:35Z,u01, 223,40,movements,el-ex, lt, d,18223.189109291667, 0.7970159753094915, -0.5241266914767069, 0.1212947100278367, 0.082216277718544, 1.832378625869751, 0.4631834924221039, 0.6192564368247986, 0.5004571080207825, -0.6050322651863098, -0.02095949649810791, 0.11590629816055298, -0.04477870464324951, -0.2610506327311189, 0.3596337505171257, 0.894630472867641,-0.04639361129687658,0.61456298828125,0.53973388671875,-0.6558837890625
20220209-1452,2022-02-09 14:52:35Z,u01, 224,40,movements,el-ex, lt, d,18223.214055291668, 0.8422793969193035, -0.5077138556870946, 0.11839687632630264, 0.8899928331375122, 1.7987093925476074, 0.31387248635292053, 0.6520403027534485, 0.48618075251579285, -0.5817831158638, 0.10145384073257446, 0.1309913694858551, -0.166431725025177, -0.2522051298524808, 0.3814459449490356, 0.8879015600601321,-0.0502221835298548,0.637420654296875,0.638214111328125,-0.6671600341796875
20220209-1452,2022-02-09 14:52:35Z,u01, 225,40,movements,el-ex, lt, d,18223.23900129167, 0.8769484865781937, -0.48873414421578204, 0.10618778554828956, 0.43078288435935974, 1.4426528215408325, 0.2822929918766022, 0.6787869930267334, 0.4695086181163788, -0.5646324157714844, 0.11891180276870728, 0.023548543453216553, -0.14291775226593018, -0.24060746459824456, 0.3997397075140585, 0.8827147686276489,-0.05595276066749383,0.76129150390625,0.61163330078125,-0.74822998046875
20220209-1452,2022-02-09 14:52:35Z,u01, 226,40,movements,el-ex, lt, d,18223.263946291667, 0.9162869474846304, -0.48972303770047215, 0.11958212366386434, -1.1148172616958618, 1.2705734968185425, 0.2262989580631256, 0.7000991702079773, 0.470381498336792, -0.5372170805931091, 0.07439100742340088, -0.16088759899139404, -0.034667134284973145, -0.24267426488804428, 0.41533197325497756, 0.8749740979857965,-0.05503321208161621,0.7804412841796875,0.419952392578125,-0.6290283203125
20220209-1452,2022-02-09 14:52:35Z,u01, 227,40,movements,el-ex, lt, d,18223.288892291668, 0.9616348272168659, -0.5012644453619709, 0.1473325140510001, -0.6216427683830261, 1.318806767463684, 0.2545481324195862, 0.7192323207855225, 0.4805348217487335, -0.5017879009246826, 0.1317654848098755, 0.09856665134429932, -0.15139520168304443, -0.25227586747512903, 0.43065408410589545, 0.8650285070548209,-0.051181653514569436,0.78106689453125,0.3428497314453125,-0.57977294921875
20220209-1452,2022-02-09 14:52:35Z,u01, 228,40,movements,el-ex, lt, d,18223.31383829167, 0.9956005938495522, -0.49573842594498796, 0.1497610639499817, 0.5971707105636597, 1.2806049585342407, 0.23999786376953125, 0.7380746603012085, 0.4756813049316406, -0.47851109504699707, 0.06098216772079468, 0.15627655386924744, -0.21027079224586487, -0.24958913012671027, 0.44547695084221495, 0.8581584920445995,-0.05309730420073017,0.8618316650390625,0.6602783203125,-0.684112548828125
20220209-1452,2022-02-09 14:52:35Z,u01, 229,40,movements,el-ex, lt, d,18223.338783291667, 1.0203415767117572, -0.4849536730015909, 0.1388252998158885, 0.27862000465393066, 1.11704683303833, 0.09201285243034363, 0.7540150284767151, 0.4661673605442047, -0.4627624750137329, 0.009977102279663086, 0.01883310079574585, -0.16034561395645142, -0.24190615417049632, 0.45836686087727824, 0.8532245763238926,-0.05821409373571812,0.7894439697265625,0.6026153564453125,-0.682861328125
20220209-1452,2022-02-09 14:52:35Z,u01, 230,40,movements,el-ex, lt, d,18223.36372929167, 1.049123631423537, -0.48570675663041457, 0.14618046892145659, -0.7475290894508362, 0.8682836294174194, 0.09580625593662262, 0.7667155861854553, 0.4668335020542145, -0.4406966269016266, 0.16027092933654785, -0.08867502212524414, -0.12720519304275513, -0.2430846145243219, 0.46963981973759783, 0.8466964801049439,-0.05876388197448812,0.7901763916015625,0.442962646484375,-0.594879150390625
20220209-1452,2022-02-09 14:52:36Z,u01, 231,40,movements,el-ex, lt, d,18223.388675291666, 1.0792762779426426, -0.4962698057962714, 0.17220026681519554, -1.052459716796875, 0.639315664768219, 0.08723913878202438, 0.7752622961997986, 0.47614866495132446, -0.41503065824508667, 0.14769583940505981, 0.011674672365188599, -0.13543030619621277, -0.2527479002324644, 0.4781246385618677, 0.839390283570027,-0.05421221778812757,0.93487548828125,0.386016845703125,-0.55999755859375
20220209-1452,2022-02-09 14:52:36Z,u01, 232,40,movements,el-ex, lt, d,18223.413620291667, 1.1076203464212058, -0.5047480893569393, 0.19386550479209255, -0.540501058101654, 0.8590148091316223, -0.0011806734837591648, 0.7830731868743896, 0.48358696699142456, -0.391075074672699, -0.01866912841796875, 0.10540217161178589, -0.08754751086235046, -0.2606703873715636, 0.4863264500332015, 0.8324277564773659,-0.051003217825914604,0.881988525390625,0.5199737548828125,-0.53961181640625
20220209-1452,2022-02-09 14:52:36Z,u01, 233,40,movements,el-ex, lt, d,18223.43856629167, 1.1350116985413496, -0.506680006583135, 0.19877256144636607, 0.12368012964725494, 1.0288922786712646, 0.012313297018408775, 0.7926418781280518, 0.48527705669403076, -0.3690865933895111, 0.07771933078765869, 0.09916502237319946, -0.10570603609085083, -0.26193956988079925, 0.4968343397656201, 0.8256679450362623,-0.05306280057760676,0.7664794921875,0.5914154052734375,-0.4790802001953125
20220209-1452,2022-02-09 14:52:36Z,u01, 234,40,movements,el-ex, lt, d,18223.463512291666, 1.155367190159348, -0.5044810120937282, 0.19318328505331123, 0.19678832590579987, 0.8354741334915161, -0.02528168261051178, 0.8009644150733948, 0.4833531677722931, -0.3533064126968384, 0.11170929670333862, 0.01844722032546997, -0.08866456151008606, -0.25909990245375825, 0.5061758990430115, 0.8205827728150618,-0.057418120406876605,0.927337646484375,0.569580078125,-0.4782867431640625
20220209-1452,2022-02-09 14:52:36Z,u01, 235,40,movements,el-ex, lt, d,18223.488457291667, 1.174837950339687, -0.506030497449452, 0.19087225859789633, -0.0896574854850769, 0.8327213525772095, -0.14287635684013367, 0.8069993853569031, 0.4847090542316437, -0.3373557925224304, 0.0017162561416625977, -0.012236058712005615, -0.059632331132888794, -0.258545701502771, 0.5142725180035783, 0.8154255969359074,-0.061309403254774575,0.8971405029296875,0.4963836669921875,-0.4351348876953125
20220209-1452,2022-02-09 14:52:36Z,u01, 236,40,movements,el-ex, lt, d,18223.51340329167, 1.197954866743009, -0.5117947253635933, 0.1949391755489029, -0.3035131096839905, 0.8546087145805359, -0.1669091135263443, 0.8119661808013916, 0.48974278569221497, -0.3175889551639557, 0.024505198001861572, -0.01830732822418213, -0.041816771030426025, -0.2611370988468408, 0.5225063934238721, 0.8091128652538556,-0.06427100685107706,0.796173095703125,0.4740142822265625,-0.3859405517578125
20220209-1452,2022-02-09 14:52:36Z,u01, 237,40,movements,el-ex, lt, d,18223.538349291666, 1.2217684651336937, -0.5185251010680194, 0.20187896068277947, -0.3161565661430359, 0.742819607257843, -0.14169423282146454, 0.8161821961402893, 0.4955996572971344, -0.29703089594841003, 0.08779406547546387, 0.00577351450920105, -0.03770133852958679, -0.26480063068169757, 0.5304386615581127, 0.8025526080108294,-0.06651737881244368,0.84552001953125,0.473602294921875,-0.3563079833984375
20220209-1452,2022-02-09 14:52:36Z,u01, 238,40,movements,el-ex, lt, d,18223.563294291667, 1.2421507721683804, -0.5243637485370727, 0.20968447895734835, -0.38258543610572815, 0.6055107712745667, -0.12404048442840576, 0.8193135857582092, 0.5006623268127441, -0.2793959379196167, 0.02301710844039917, -0.011603057384490967, 0.005820959806442261, -0.2684444648613764, 0.536879496927567, 0.7969323993879298,-0.06779748256872942,0.90924072265625,0.501861572265625,-0.3186187744140625
20220209-1452,2022-02-09 14:52:36Z,u01, 239,40,movements,el-ex, lt, d,18223.58824029167, 1.2637165750461, -0.5307129414731663, 0.2201690134987362, -0.43669116497039795, 0.7215193510055542, -0.13749317824840546, 0.8221014142036438, 0.5061483383178711, -0.26069706678390503, -0.03215402364730835, -0.029967427253723145, 0.0378880500793457, -0.27295786917759646, 0.5432729169646797, 0.7909918715489961,-0.06841260599248228,0.8336639404296875,0.48583984375,-0.268463134765625
20220209-1452,2022-02-09 14:52:36Z,u01, 240,40,movements,el-ex, lt, d,18223.613185291666, 1.2867355029552812, -0.5362470648504465, 0.22918356506243268, -0.27504023909568787, 0.7323305606842041, -0.09541403502225876, 0.8251824975013733, 0.5109134316444397, -0.24091705679893494, 0.06615948677062988, 0.018825769424438477, -0.0058177560567855835, -0.2767107459975717, 0.5504295022109026, 0.784604666878348,-0.06966956512779887,0.8030853271484375,0.49114990234375,-0.215423583984375
20220209-1452,2022-02-09 14:52:36Z,u01, 241,40,movements,el-ex, lt, d,18223.638131291667, 1.306971612599112, -0.5397289027884649, 0.23445093410830076, -0.1706194430589676, 0.677577018737793, -0.08557657897472382, 0.8281660079956055, 0.5139034390449524, -0.22370512783527374, 0.07387232780456543, 0.004879951477050781, -0.032383307814598083, -0.27875169009773876, 0.5571758519401451, 0.7789379978920212,-0.07147015010290914,0.8970947265625,0.529998779296875,-0.244720458984375
20220209-1452,2022-02-09 14:52:36Z,u01, 242,40,movements,el-ex, lt, d,18223.66307729167, 1.3258152719190581, -0.5425177830964402, 0.23936614972838113, -0.21897338330745697, 0.6181054711341858, -0.06692859530448914, 0.8308405876159668, 0.5162938833236694, -0.20771224796772003, 0.021530508995056152, -0.021512508392333984, -0.02846348285675049, -0.28047655709210745, 0.5634507744240678, 0.7736407502771527,-0.07304781516604347,0.892547607421875,0.511566162109375,-0.2531890869140625
20220209-1452,2022-02-09 14:52:36Z,u01, 243,40,movements,el-ex, lt, d,18223.688022291666, 1.3453198836294191, -0.5458850437986648, 0.24707656707232176, -0.3425956964492798, 0.6203237175941467, -0.05799628794193268, 0.8330342769622803, 0.5191746950149536, -0.1910787671804428, 0.005771636962890625, -0.02831488847732544, -0.05586966872215271, -0.28317400234004836, 0.5694498261268665, 0.7681687388574465,-0.07386417213877411,0.8480987548828125,0.493621826171875,-0.2345428466796875
20220209-1452,2022-02-09 14:52:36Z,u01, 244,40,movements,el-ex, lt, d,18223.71296841667, 1.3651600116793672, -0.5487111391305232, 0.25661472273829794, -0.3455269932746887, 0.562134861946106, -0.03100741282105446, 0.8352215886116028, 0.5215880274772644, -0.1742144674062729, 0.059294283390045166, -0.0003325939178466797, -0.08123314380645752, -0.2861922176971956, 0.5753145068552147, 0.7626550609760756,-0.0739214135164738,0.850067138671875,0.497589111328125,-0.2514190673828125
20220209-1452,2022-02-09 14:52:36Z,u01, 245,40,movements,el-ex, lt, d,18223.737914416666, 1.382716858956878, -0.5507859107410499, 0.2659729204556256, -0.318604975938797, 0.4552655518054962, -0.031225059181451797, 0.8370864391326904, 0.523357093334198, -0.1593218296766281, 0.05260765552520752, 0.010502099990844727, -0.1031448245048523, -0.2889909153857041, 0.5803648332115392, 0.7577940904549403,-0.07354499703137857,0.8968963623046875,0.5237274169921875,-0.258087158203125
20220209-1452,2022-02-09 14:52:36Z,u01, 246,40,movements,el-ex, lt, d,18223.762859416667, 1.3980515019833795, -0.5535037560306014, 0.2753930394624518, -0.3592090606689453, 0.37628406286239624, -0.05161568522453308, 0.8380267024040222, 0.5256710648536682, -0.14622212946414948, -0.012419581413269043, -0.004064798355102539, -0.10229800641536713, -0.29213479961535227, 0.5844195331027343, 0.7535051010540443,-0.07308185658922361,0.87115478515625,0.5394287109375,-0.2606201171875
20220209-1452,2022-02-09 14:52:36Z,u01, 247,40,movements,el-ex, lt, d,18223.78780541667, 1.4133674190160517, -0.5568699913458866, 0.287238456532627, -0.47351422905921936, 0.37449780106544495, -0.09009309858083725, 0.8384155631065369, 0.5285316705703735, -0.13309217989444733, -0.028372347354888916, -0.010617971420288086, -0.1127576231956482, -0.29623235576602985, 0.5879628416963829, 0.749243866138684,-0.07196979757835642,0.8233642578125,0.5182952880859375,-0.2498321533203125
20220209-1452,2022-02-09 14:52:36Z,u01, 248,40,movements,el-ex, lt, d,18223.812751416666, 1.4287011758779087, -0.5610041235610987, 0.2993514259130064, -0.3485409617424011, 0.3078365623950958, -0.12466006726026535, 0.838187575340271, 0.5320366621017456, -0.11991051584482193, 0.063362717628479, 0.05104738473892212, -0.19214721024036407, -0.30069072500886074, 0.5912950442454827, 0.7449181762747425,-0.07107847988458738,0.8270111083984375,0.526519775390625,-0.25701904296875
20220209-1452,2022-02-09 14:52:36Z,u01, 249,40,movements,el-ex, lt, d,18223.837696416667, 1.4393037530546806, -0.5653296970482677, 0.3074940048357946, -0.27870675921440125, 0.19625569880008698, -0.14426758885383606, 0.8371223211288452, 0.5356942415237427, -0.11071420460939407, 0.07088226079940796, 0.03950095176696777, -0.20834732055664062, -0.3042139311391543, 0.5933774375715315, 0.7418258128013844,-0.07107344033368979,0.9057159423828125,0.5888671875,-0.3150787353515625
20220209-1452,2022-02-09 14:52:36Z,u01, 250,40,movements,el-ex, lt, d,18223.86264241667, 1.4469633385518805, -0.5696435966447964, 0.3161766600012001, -0.3502192199230194, 0.07182363420724869, -0.1380167454481125, 0.8356446623802185, 0.5393319725990295, -0.10401258617639542, 0.06817901134490967, -0.0011545419692993164, -0.1920844316482544, -0.30799472236213593, 0.5942499120466755, 0.7396233060880391,-0.0704516793485121,0.9026641845703125,0.569732666015625,-0.3032073974609375
20220209-1452,2022-02-09 14:52:36Z,u01, 251,40,movements,el-ex, lt, d,18223.887588416666, 1.4543366161901259, -0.5741585394903385, 0.3261247586940268, -0.3219060003757477, 0.09011389315128326, -0.11593388766050339, 0.8339619636535645, 0.5431284308433533, -0.0975644513964653, 0.09300941228866577, -0.007407665252685547, -0.1851658970117569, -0.31222623458217985, 0.5947541942255807, 0.7375389132864282,-0.06941561433863097,0.9023895263671875,0.5373382568359375,-0.29437255859375
