SessionID,LoggingTime,UID,RecNo,Hertz,Activity,MoveType,Wrist,Side,TimeStamp,DMRoll,DMPitch,DMYaw,DMRotX,DMRotY,DMRotZ,DMGrvX,DMGrvY,DMGrvZ,DMUAccelX,DMUAccelY,DMUAccelZ,DMQuatX,DMQuatY,DMQuatW,DMQuatZ,AccelroX,AceelroY,AceelroZ
20220119-1827,2022-01-19 18:27:25Z,u01, 1,40,movements,el-ex, rt, d,234869.83539012502, 1.9868891477267485, -0.6824957327262635, 2.686919460448035, 0.03124859556555748, -0.23018094897270203, 0.31767135858535767, 0.7097885608673096, 0.6307317018508911, 0.31365150213241577, 0.0010115504264831543, 0.03032475709915161, 0.002021998167037964, -0.8104478741740706, 0.0, 0.38912538209386965,0.4378989420427837,0.7113189697265625,0.6620025634765625,0.3132781982421875
20220119-1827,2022-01-19 18:27:25Z,u01, 2,40,movements,el-ex, rt, d,234869.860336125, 1.9767050595398823, -0.6756238055917251, 2.680076832449055, 0.1351790577173233, -0.23813197016716003, 0.36082854866981506, 0.716911256313324, 0.6253842115402222, 0.3081110417842865, -0.0020218491554260254, 0.030041754245758057, -0.021276623010635376, -0.8087323568764732, 0.0027371551518620973, 0.3881403992191462,0.4419178145208665,0.71856689453125,0.64599609375,0.28338623046875
20220119-1827,2022-01-19 18:27:25Z,u01, 3,40,movements,el-ex, rt, d,234869.885283125, 1.9639889557355397, -0.6681525914011298, 2.671407211709535, 0.10241462290287018, -0.3499164879322052, 0.448039710521698, 0.7250667810440063, 0.6195368766784668, 0.30075183510780334, 0.3064882755279541, -0.031203925609588623, -0.06598037481307983, -0.8064372493057047, 0.005906050283738001, 0.3873912697519749,0.446712305723928,0.8099212646484375,0.6200714111328125,0.2835693359375
20220119-1827,2022-01-19 18:27:25Z,u01, 4,40,movements,el-ex, rt, d,234869.910229125, 1.9517602883390022, -0.6602329726891987, 2.664545889360061, 0.05199681594967842, -0.32155734300613403, 0.3666451573371887, 0.7332223653793335, 0.6133008599281311, 0.2936781942844391, 0.021523118019104004, -0.02637159824371338, -0.02671074867248535, -0.8042172526537177, 0.008585711399609147, 0.3861256863414274,0.45173864974561145,0.724395751953125,0.5909576416015625,0.273590087890625
20220119-1827,2022-01-19 18:27:25Z,u01, 5,40,movements,el-ex, rt, d,234869.93517512502, 1.939321999902103, -0.6513592039458163, 2.659358366815327, 0.0024727070704102516, -0.40069231390953064, 0.3920917510986328, 0.7418662905693054, 0.6062678694725037, 0.2864850163459778, 0.01495438814163208, -0.016210496425628662, -0.029817193746566772, -0.801950601354931, 0.01085117479356909, 0.3841840406838207,0.45734026415434936,0.7567901611328125,0.590972900390625,0.2570037841796875
20220119-1827,2022-01-19 18:27:25Z,u01, 6,40,movements,el-ex, rt, d,234869.960121125, 1.9265766352446896, -0.6418679062827257, 2.6551119760465025, -0.012521421536803246, -0.4155181348323822, 0.41114264726638794, 0.7508171796798706, 0.5986926555633545, 0.27899834513664246, 0.011176109313964844, -0.019560694694519043, -0.02065250277519226, -0.7995830299103008, 0.012890205001725913, 0.38184776244076674,0.46334962650605166,0.7665252685546875,0.56939697265625,0.260833740234375
20220119-1827,2022-01-19 18:27:25Z,u01, 7,40,movements,el-ex, rt, d,234869.985067125, 1.9142752976774933, -0.6317462086820343, 2.6516219218596278, -0.06506176292896271, -0.40039968490600586, 0.4280635118484497, 0.7598596811294556, 0.5905548334121704, 0.27176839113235474, 0.027097046375274658, -0.031655967235565186, -0.00013172626495361328, -0.79728367546155, 0.014931043523961823, 0.3791454782569143,0.46942992308689196,0.787384033203125,0.5599212646484375,0.2725372314453125
20220119-1827,2022-01-19 18:27:25Z,u01, 8,40,movements,el-ex, rt, d,234870.010014125, 1.9028301071520308, -0.6211608241965664, 2.6493149579996977, -0.04531382396817207, -0.4041178822517395, 0.426401287317276, 0.7687870860099792, 0.581979513168335, 0.2650769054889679, 0.0252649188041687, -0.0023745298385620117, -0.011262565851211548, -0.7951446352671747, 0.016836139104280168, 0.3760256128279924,0.47546408273102075,0.798095703125,0.5814666748046875,0.2441253662109375
20220119-1827,2022-01-19 18:27:25Z,u01, 9,40,movements,el-ex, rt, d,234870.03496012502, 1.8904124279255845, -0.6108683273960622, 2.6450989458869123, 0.03721614181995392, -0.3937974274158478, 0.4309719502925873, 0.7776651978492737, 0.573578953742981, 0.2573787271976471, 0.021574854850769043, 0.014784634113311768, -0.013345122337341309, -0.7926652514028085, 0.019265455820546423, 0.37350575764147254,0.4814602847745627,0.7981719970703125,0.58856201171875,0.2451171875
20220119-1827,2022-01-19 18:27:25Z,u01, 10,40,movements,el-ex, rt, d,234870.059906125, 1.8771849210732516, -0.6011917887764678, 2.6390492430881793, 0.08807599544525146, -0.38459330797195435, 0.42059972882270813, 0.786256730556488, 0.5656257271766663, 0.24873240292072296, 0.013380110263824463, 0.01193469762802124, -0.0005027055740356445, -0.7898589175544374, 0.022115398520567292, 0.37169923792529075,0.4873124384338389,0.799835205078125,0.5731048583984375,0.24761962890625
20220119-1827,2022-01-19 18:27:25Z,u01, 11,40,movements,el-ex, rt, d,234870.084852125, 1.86449684395605, -0.591540076358323, 2.633561157608265, 0.031222697347402573, -0.3890064060688019, 0.41960373520851135, 0.7945380210876465, 0.5576400756835938, 0.24030588567256927, 0.008882999420166016, 0.01442718505859375, 0.0010424405336380005, -0.7871053150038725, 0.024862990157851622, 0.36980882017498234,0.493040075442737,0.80364990234375,0.5725555419921875,0.2400054931640625
20220119-1827,2022-01-19 18:27:25Z,u01, 12,40,movements,el-ex, rt, d,234870.10979812502, 1.8524394100008135, -0.5819058459932892, 2.629381969660143, 0.014852444641292095, -0.3837955594062805, 0.3979955017566681, 0.8025011420249939, 0.5496171116828918, 0.23219096660614014, 0.0010113120079040527, 0.032078325748443604, 0.0016192048788070679, -0.7844448954517587, 0.027233927127572582, 0.36763749144869406,0.4987455063437079,0.8020782470703125,0.58685302734375,0.2341156005859375
20220119-1827,2022-01-19 18:27:25Z,u01, 13,40,movements,el-ex, rt, d,234870.13474512502, 1.840355047673288, -0.5726551972216102, 2.6249582680777266, 0.06251690536737442, -0.3899160325527191, 0.382274866104126, 0.8101146817207336, 0.5418655276298523, 0.2238209992647171, 0.000798344612121582, 0.03827357292175293, 0.006586432456970215, -0.7816866841130158, 0.029604524988260883, 0.36570066210684815,0.5043336935184318,0.8125762939453125,0.580718994140625,0.22930908203125
20220119-1827,2022-01-19 18:27:25Z,u01, 14,40,movements,el-ex, rt, d,234870.159691125, 1.8276755905235178, -0.5640039228445985, 2.6193821294691637, 0.11999857425689697, -0.37689051032066345, 0.36667218804359436, 0.8173907995223999, 0.5345742702484131, 0.2147144377231598, 0.003623485565185547, 0.04794520139694214, -0.0017019659280776978, -0.7786676891562667, 0.0321535322232899, 0.3643141981691388,0.50982135142472,0.8187408447265625,0.584228515625,0.2113189697265625
20220119-1827,2022-01-19 18:27:25Z,u01, 15,40,movements,el-ex, rt, d,234870.18463712503, 1.8144990933083056, -0.5559125761319316, 2.612625373105731, 0.14872050285339355, -0.3855646848678589, 0.3681736886501312, 0.8243197798728943, 0.5277186632156372, 0.204962819814682, -0.0037326812744140625, 0.03761941194534302, 0.001412034034729004, -0.7754111544478248, 0.03491345576140137, 0.36347910194957334,0.5151712971718556,0.8213958740234375,0.5651702880859375,0.207977294921875
20220119-1827,2022-01-19 18:27:25Z,u01, 16,40,movements,el-ex, rt, d,234870.20958312502, 1.8012519330467458, -0.5478683755713428, 2.606217834433518, 0.11398811638355255, -0.41080421209335327, 0.36386290192604065, 0.8310683965682983, 0.5208687782287598, 0.19498859345912933, 0.006974697113037109, 0.023610413074493408, 0.011737078428268433, -0.772066242447533, 0.03752346928661254, 0.36262251882962937,0.5205865970156244,0.8422393798828125,0.5394744873046875,0.203399658203125
20220119-1827,2022-01-19 18:27:25Z,u01, 17,40,movements,el-ex, rt, d,234870.23453012502, 1.7885738913659186, -0.5394765949633209, 2.602046405657953, 0.02819175273180008, -0.42036646604537964, 0.3541136682033539, 0.837712287902832, 0.513687014579773, 0.18537485599517822, 0.006739616394042969, 0.010635554790496826, 0.01527799665927887, -0.7688479272258961, 0.03950051368415419, 0.3610986393880029,0.5262322531075633,0.84503173828125,0.5238494873046875,0.200927734375
20220119-1827,2022-01-19 18:27:25Z,u01, 18,40,movements,el-ex, rt, d,234870.259476125, 1.7768268777064669, -0.5310044405204575, 2.5994838074686033, 0.009729156270623207, -0.4060274064540863, 0.3452427387237549, 0.8440617918968201, 0.5063997507095337, 0.1764056533575058, 0.004433631896972656, 0.011773467063903809, 0.010331153869628906, -0.7658431089998424, 0.04107508367335788, 0.3591385704343865,0.5318050549605621,0.849151611328125,0.517852783203125,0.1865081787109375
20220119-1827,2022-01-19 18:27:26Z,u01, 19,40,movements,el-ex, rt, d,234870.28442212503, 1.765872879106726, -0.5229951895939027, 2.5972610699503242, 0.0020261621102690697, -0.37587177753448486, 0.3142644464969635, 0.8498950004577637, 0.49947717785835266, 0.16793018579483032, -0.007579505443572998, 0.013172268867492676, 0.008186444640159607, -0.7629913238715964, 0.04253628941770607, 0.3572543482533115,0.5370325991198168,0.8418121337890625,0.5118560791015625,0.1761322021484375
20220119-1827,2022-01-19 18:27:26Z,u01, 20,40,movements,el-ex, rt, d,234870.30936812502, 1.7570163547986628, -0.5154253968738499, 2.596426287777275, -0.08539346605539322, -0.3211723864078522, 0.28810787200927734, 0.8550401926040649, 0.49290502071380615, 0.16109204292297363, 0.005006074905395508, 0.00025898218154907227, 0.030924305319786072, -0.7606802578343459, 0.043721441108867276, 0.35511974644189026,0.5416122514107807,0.8732147216796875,0.4893341064453125,0.2041168212890625
20220119-1827,2022-01-19 18:27:26Z,u01, 21,40,movements,el-ex, rt, d,234870.334314125, 1.7507351177343453, -0.5083582559008218, 2.5993833498699246, -0.23094986379146576, -0.2827504277229309, 0.21727418899536133, 0.8594408631324768, 0.4867437779903412, 0.156337708234787, 0.004267454147338867, -0.01048654317855835, 0.05185292661190033, -0.759112869575283, 0.0437778923225936, 0.35207532001400166,0.5457782906661854,0.8619537353515625,0.4759521484375,0.2076416015625
20220119-1827,2022-01-19 18:27:26Z,u01, 22,40,movements,el-ex, rt, d,234870.359261125, 1.748268264282743, -0.5025228478664207, 2.6074220895601843, -0.38280537724494934, -0.23561474680900574, 0.14663398265838623, 0.8626050353050232, 0.48163801431655884, 0.15471592545509338, -0.002802908420562744, 0.015462756156921387, 0.023796305060386658, -0.7586684990791808, 0.04219092862007259, 0.34796237587741274,0.5491484848253453,0.8626708984375,0.5198822021484375,0.162567138671875
20220119-1827,2022-01-19 18:27:26Z,u01, 23,40,movements,el-ex, rt, d,234870.38420712503, 1.7454942641863933, -0.4977192181824672, 2.6147789880441143, -0.15432319045066833, -0.27316635847091675, 0.1489245593547821, 0.86529940366745, 0.47742271423339844, 0.15272285044193268, -0.000706017017364502, 0.07976716756820679, -0.01606537401676178, -0.7581045939780493, 0.04048273971339203, 0.3443724952811774,0.5523097340907811,0.86297607421875,0.5567474365234375,0.1365814208984375
20220119-1827,2022-01-19 18:27:26Z,u01, 24,40,movements,el-ex, rt, d,234870.40915312502, 1.7388496593180192, -0.49338383767763827, 2.6148355643758943, 0.07378034293651581, -0.262605220079422, 0.19946962594985962, 0.8683274984359741, 0.4736088514328003, 0.14731477200984955, -0.024364054203033447, 0.05245310068130493, 0.007912501692771912, -0.7563056840414674, 0.04073200177196973, 0.34302861004414553,0.5555842326885634,0.844482421875,0.5184783935546875,0.15802001953125
20220119-1827,2022-01-19 18:27:26Z,u01, 25,40,movements,el-ex, rt, d,234870.434099125, 1.7301201164767828, -0.4882970151733589, 2.6100002092576498, 0.1741107851266861, -0.26070138812065125, 0.24729487299919128, 0.8719477653503418, 0.46912261843681335, 0.14010953903198242, -0.013885200023651123, 0.025170564651489258, 0.016018018126487732, -0.753809919734362, 0.04272444150033364, 0.34284666436438105,0.558928618273935,0.8596343994140625,0.4922332763671875,0.1562042236328125
20220119-1827,2022-01-19 18:27:26Z,u01, 26,40,movements,el-ex, rt, d,234870.45904512503, 1.7217336666522214, -0.4829996702550548, 2.605371336578557, 0.05787831172347069, -0.24602709710597992, 0.21615639328956604, 0.8755368590354919, 0.4644377827644348, 0.13316398859024048, 0.0026979446411132812, 0.0016113817691802979, 0.036849141120910645, -0.7513838581175537, 0.04476935094941864, 0.3425526000608772,0.5622060754369304,0.8820648193359375,0.455902099609375,0.1703948974609375
20220119-1827,2022-01-19 18:27:26Z,u01, 27,40,movements,el-ex, rt, d,234870.48399212502, 1.7157310451577807, -0.47808841663264545, 2.605182960531885, -0.07310307770967484, -0.2246393859386444, 0.17589247226715088, 0.8785667419433594, 0.4600827693939209, 0.12823398411273956, 0.008777439594268799, -0.0008696019649505615, 0.03813229501247406, -0.7497018309754705, 0.04543297087526396, 0.3411001595955887,0.5652729644627329,0.8868560791015625,0.4606170654296875,0.1654052734375
20220119-1827,2022-01-19 18:27:26Z,u01, 28,40,movements,el-ex, rt, d,234870.508938125, 1.7110476789710218, -0.4738374735589825, 2.606418575287033, -0.04564638435840607, -0.1851278692483902, 0.15444131195545197, 0.8810864090919495, 0.45630431175231934, 0.12439023703336716, 0.0011614561080932617, 0.014597177505493164, 0.022963643074035645, -0.7484101442665464, 0.04557820434324911, 0.33943830213345927,0.5679669264566926,0.881500244140625,0.4700927734375,0.151397705078125
20220119-1827,2022-01-19 18:27:26Z,u01, 29,40,movements,el-ex, rt, d,234870.533884125, 1.7070772610342118, -0.47009630543360265, 2.606552241310209, -0.013108549639582634, -0.14160089194774628, 0.14140832424163818, 0.8832585215568542, 0.4529721438884735, 0.12112206965684891, 0.010524988174438477, 0.011581659317016602, 0.04423713684082031, -0.7472859822337747, 0.0460944192713556, 0.3382441867531202,0.5701138374975098,0.89495849609375,0.4643402099609375,0.16461181640625
20220119-1827,2022-01-19 18:27:26Z,u01, 30,40,movements,el-ex, rt, d,234870.55883012502, 1.7039514580792903, -0.46690939216318067, 2.606577050847951, -0.024724360555410385, -0.10810878127813339, 0.11504988372325897, 0.8850589394569397, 0.4501286447048187, 0.11855161935091019, 0.0054590702056884766, 0.012670338153839111, 0.033776625990867615, -0.7463932693400094, 0.04661433582647245, 0.3372481109762637,0.5718283918348344,0.885406494140625,0.4696807861328125,0.14556884765625
20220119-1827,2022-01-19 18:27:26Z,u01, 31,40,movements,el-ex, rt, d,234870.58377712502, 1.702963122719193, -0.46474690075627983, 2.6068805537366044, 0.02242814004421234, -0.06645128130912781, 0.07708898931741714, 0.8861386775970459, 0.44819656014442444, 0.11780485510826111, -0.012740850448608398, 0.03167712688446045, 0.040855780243873596, -0.7461155929975133, 0.04705261995831378, 0.3364644459473672,0.5726161236714845,0.8730010986328125,0.480804443359375,0.1595611572265625
20220119-1827,2022-01-19 18:27:26Z,u01, 32,40,movements,el-ex, rt, d,234870.608723125, 1.705549530722076, -0.46369528040020175, 2.608076149880952, 0.004343944601714611, -0.019859543070197105, 0.024441758170723915, 0.8862977027893066, 0.4472562372684479, 0.12015964090824127, -0.005453526973724365, 0.02958095073699951, 0.047106996178627014, -0.7468828608516663, 0.04738998787842019, 0.3357107675347217,0.5720301459196828,0.8833160400390625,0.4747467041015625,0.15875244140625
20220119-1827,2022-01-19 18:27:26Z,u01, 33,40,movements,el-ex, rt, d,234870.633669125, 1.70992901759314, -0.46331853881097435, 2.6099118357519426, -0.006974390707910061, 0.05277065187692642, -0.023790020495653152, 0.8859297633171082, 0.4469192326068878, 0.12406335771083832, -0.007237076759338379, 0.01836705207824707, 0.03154553472995758, -0.7481774149188315, 0.04756296577869423, 0.33495650041139835,0.5707648200782807,0.8782501220703125,0.464630126953125,0.156646728515625
20220119-1827,2022-01-19 18:27:26Z,u01, 34,40,movements,el-ex, rt, d,234870.65861516667, 1.7140476262983644, -0.4658936985059005, 2.611900158840433, -0.07092714309692383, 0.12166157364845276, -0.11697322875261307, 0.8842688798904419, 0.4492214322090149, 0.12754632532596588, -0.007056593894958496, 0.054013341665267944, 0.04513701796531677, -0.7493972675107625, 0.04665721069908782, 0.3351550395594083,0.5691200954876553,0.8801422119140625,0.515655517578125,0.1775360107421875
20220119-1827,2022-01-19 18:27:26Z,u01, 35,40,movements,el-ex, rt, d,234870.6835611667, 1.7207579856273068, -0.4699460557224114, 2.615040571036158, -0.02919810265302658, 0.16975846886634827, -0.1589476466178894, 0.8815861344337463, 0.4528381824493408, 0.1332041323184967, 0.0009821653366088867, 0.06504511833190918, 0.04454529285430908, -0.7513673397397751, 0.04526798051143266, 0.3354695209791756,0.5664433534640444,0.8814239501953125,0.5151214599609375,0.17742919921875
20220119-1827,2022-01-19 18:27:26Z,u01, 36,40,movements,el-ex, rt, d,234870.7085081667, 1.7272253452727517, -0.4750601406529457, 2.617200956272329, -0.05706492066383362, 0.2439119666814804, -0.22772064805030823, 0.8784070014953613, 0.4573919177055359, 0.13854022324085236, -0.008228957653045654, 0.048009634017944336, 0.05060742795467377, -0.7532239528897917, 0.04386102065993733, 0.3364364096631649,0.563507130300774,0.871734619140625,0.497711181640625,0.190093994140625
20220119-1827,2022-01-19 18:27:26Z,u01, 37,40,movements,el-ex, rt, d,234870.73345416668, 1.7372664694508984, -0.48155823785261503, 2.6219530113631153, -0.16519342362880707, 0.32382380962371826, -0.3056277632713318, 0.8740220665931702, 0.46316075325012207, 0.14685767889022827, -0.006865262985229492, 0.051487624645233154, 0.03292118012905121, -0.7561055716139536, 0.04163179075665885, 0.33708239844436516,0.559416191871396,0.86767578125,0.5162506103515625,0.1802215576171875
20220119-1827,2022-01-19 18:27:26Z,u01, 38,40,movements,el-ex, rt, d,234870.75840016667, 1.7496698964256328, -0.48982898396741636, 2.628468596217432, -0.12879137694835663, 0.38400155305862427, -0.3460082709789276, 0.868334174156189, 0.4704749882221222, 0.15700006484985352, -0.003710150718688965, 0.0823814868927002, 0.028729572892189026, -0.7596136243083839, 0.03856386634489928, 0.33782671865579617,0.5544123569629069,0.8625946044921875,0.5519256591796875,0.191619873046875
20220119-1827,2022-01-19 18:27:26Z,u01, 39,40,movements,el-ex, rt, d,234870.7833461667, 1.7622095994431122, -0.49918857604075134, 2.6328815114415454, -0.06644028425216675, 0.4476739764213562, -0.4199765920639038, 0.8619362115859985, 0.4787133038043976, 0.16703097522258759, -2.8312206268310547e-05, 0.07916328310966492, 0.048651695251464844, -0.7630339919430013, 0.035980790152613296, 0.33956909825997655,0.5487961724530466,0.8622589111328125,0.5575103759765625,0.216644287109375
20220119-1827,2022-01-19 18:27:26Z,u01, 40,40,movements,el-ex, rt, d,234870.80829216668, 1.7758388186135092, -0.509421243304523, 2.63725824956294, -0.094497449696064, 0.47895923256874084, -0.4498169720172882, 0.8547388315200806, 0.4876720607280731, 0.17775589227676392, 0.005719423294067383, 0.057203978300094604, 0.050927385687828064, -0.7666591840578059, 0.03334128860664559, 0.3416466520167182,0.5425859351926055,0.8546142578125,0.536834716796875,0.232208251953125
20220119-1827,2022-01-19 18:27:26Z,u01, 41,40,movements,el-ex, rt, d,234870.83323916668, 1.7912222092494352, -0.5198967177907422, 2.6442466732890053, -0.2098546326160431, 0.48271411657333374, -0.4766618311405182, 0.8468718528747559, 0.49679049849510193, 0.18975573778152466, -0.0016570091247558594, 0.02409881353378296, 0.021364599466323853, -0.7707015468109059, 0.02994984662877087, 0.343130006338762,0.5360820169037764,0.845672607421875,0.521484375,0.21087646484375
20220119-1827,2022-01-19 18:27:26Z,u01, 42,40,movements,el-ex, rt, d,234870.85818516667, 1.8077709139646692, -0.5302005355796777, 2.6535140910250483, -0.20282365381717682, 0.47499993443489075, -0.4748144745826721, 0.8385951519012451, 0.5057063698768616, 0.20253118872642517, 0.011365056037902832, 0.03317296504974365, -0.011338725686073303, -0.7749786399944759, 0.025955722945410126, 0.3440060194666976,0.5295225206288633,0.8486480712890625,0.5388336181640625,0.1911163330078125
20220119-1827,2022-01-19 18:27:26Z,u01, 43,40,movements,el-ex, rt, d,234870.8831311667, 1.8240264688972327, -0.5407015322365005, 2.6623237463575853, -0.20186352729797363, 0.4920160472393036, -0.49259305000305176, 0.8300051689147949, 0.5147375464439392, 0.21479330956935883, 0.00013387203216552734, 0.017198920249938965, 0.015278413891792297, -0.7790446804989594, 0.02204634902898403, 0.34516336980582474,0.5229391699376559,0.8293609619140625,0.5322113037109375,0.23284912109375
20220119-1827,2022-01-19 18:27:26Z,u01, 44,40,movements,el-ex, rt, d,234870.90807716668, 1.8416638666756926, -0.5512908168615204, 2.672256953505855, -0.22253383696079254, 0.5166927576065063, -0.5000417828559875, 0.8207898139953613, 0.523787260055542, 0.2279270589351654, 0.010615766048431396, 0.006318330764770508, 0.021569013595581055, -0.7833530307590675, 0.0179319968425094, 0.3461351598288989,0.5159717283806966,0.831939697265625,0.52630615234375,0.2472686767578125
20220119-1827,2022-01-19 18:27:26Z,u01, 45,40,movements,el-ex, rt, d,234870.93302416668, 1.8602242763392296, -0.5619789017948729, 2.6828077413140465, -0.22973297536373138, 0.5317736268043518, -0.511917233467102, 0.8110063076019287, 0.5328617691993713, 0.24150949716567993, 0.027830302715301514, 0.004064440727233887, -0.015603423118591309, -0.7877603184563639, 0.013726904286586905, 0.34707747517289345,0.508706589647834,0.838043212890625,0.536712646484375,0.2248382568359375
20220119-1827,2022-01-19 18:27:26Z,u01, 46,40,movements,el-ex, rt, d,234870.9579701667, 1.8791440578092402, -0.572184937849599, 2.6933294700557666, -0.2032824158668518, 0.5434362292289734, -0.48574358224868774, 0.8010684847831726, 0.5414702892303467, 0.2551456689834595, 0.029116511344909668, -0.006283462047576904, -0.031375735998153687, -0.7921347579865403, 0.009764880614090615, 0.34795941829014426,0.5013496371214625,0.8258056640625,0.537750244140625,0.23370361328125
20220119-1827,2022-01-19 18:27:26Z,u01, 47,40,movements,el-ex, rt, d,234870.9829161667, 1.8977954581013403, -0.5828470151881777, 2.7020933193436747, -0.08617683500051498, 0.5679929256439209, -0.526447057723999, 0.7906578779220581, 0.5504031181335449, 0.26817166805267334, 0.02655690908432007, 0.013775229454040527, 0.014146178960800171, -0.7962698041883052, 0.00634327295187237, 0.349546329727369,0.4936915578812089,0.8173980712890625,0.5677947998046875,0.2830047607421875
20220119-1827,2022-01-19 18:27:26Z,u01, 48,40,movements,el-ex, rt, d,234871.00786216668, 1.9157463074344618, -0.5949225331752412, 2.708458898882121, 0.0050510140135884285, 0.5913148522377014, -0.5202018618583679, 0.7794049978256226, 0.5604445934295654, 0.2800527513027191, 0.04186880588531494, 0.024577438831329346, 0.006003528833389282, -0.8000093516975819, 0.003377786198377669, 0.3523242191428257,0.48563486742526474,0.8208770751953125,0.5770111083984375,0.2869110107421875
20220119-1827,2022-01-19 18:27:26Z,u01, 49,40,movements,el-ex, rt, d,234871.03280816667, 1.933041459408031, -0.6075909435849683, 2.712253009795871, 0.0757470577955246, 0.6251065135002136, -0.518510639667511, 0.7677441239356995, 0.5708912014961243, 0.2909506559371948, 0.03717231750488281, 0.012025058269500732, -0.011135190725326538, -0.8034138740122186, 0.0012114308314511713, 0.35601051045586374,0.47726432097062466,0.8031768798828125,0.583953857421875,0.2789154052734375
20220119-1827,2022-01-19 18:27:26Z,u01, 50,40,movements,el-ex, rt, d,234871.0577551667, 1.9507367195277843, -0.620175285684998, 2.7157028883226464, 0.08762305229902267, 0.6387437582015991, -0.5084928274154663, 0.7557435035705566, 0.581177830696106, 0.3018013536930084, 0.028482019901275635, -0.0005503296852111816, -0.0247325599193573, -0.8067838895861689, -0.0006526515777172393, 0.3598027168061366,0.46865906481880165,0.7783050537109375,0.58380126953125,0.2796630859375
20220119-1827,2022-01-19 18:27:26Z,u01, 51,40,movements,el-ex, rt, d,234871.08270116668, 1.9688795299038555, -0.6327764689549116, 2.719515763303474, 0.03865914046764374, 0.6318867802619934, -0.5319254398345947, 0.7433335185050964, 0.5913859605789185, 0.31259819865226746, 0.02868485450744629, 0.023253262042999268, -0.003760606050491333, -0.8101189858909031, -0.0025167361154834478, 0.3635706692334221,0.45990992597538083,0.772613525390625,0.615966796875,0.3105010986328125
20220119-1827,2022-01-19 18:27:26Z,u01, 52,40,movements,el-ex, rt, d,234871.10764716667, 1.9882943299551536, -0.6453183265797928, 2.7261013829934537, -0.00970985647290945, 0.6189221739768982, -0.5665236115455627, 0.7302870750427246, 0.6014527678489685, 0.3239370286464691, 0.04800271987915039, 0.01582622528076172, -0.0077141523361206055, -0.8135979456480245, -0.0051862288855159255, 0.36674955246648777,0.45113876965024635,0.7781219482421875,0.621124267578125,0.313568115234375
20220119-1827,2022-01-19 18:27:26Z,u01, 53,40,movements,el-ex, rt, d,234871.1325931667, 2.00844852786082, -0.6583055595789451, 2.7339677139098755, -0.013012642040848732, 0.6228646636009216, -0.5885864496231079, 0.7164745926856995, 0.6117773652076721, 0.33524957299232483, 0.04490840435028076, 0.02492600679397583, -0.011137992143630981, -0.8170409766869198, -0.008296623350253607, 0.3698955407142195,0.44221303365835857,0.7599029541015625,0.637176513671875,0.3247528076171875
20220119-1827,2022-01-19 18:27:26Z,u01, 54,40,movements,el-ex, rt, d,234871.15753916668, 2.02946017062227, -0.6718716207773255, 2.742030665645462, 0.028281301259994507, 0.6725853681564331, -0.6094873547554016, 0.7017661929130554, 0.622451901435852, 0.34652212262153625, 0.025009870529174805, 0.027953922748565674, 0.0036516189575195312, -0.8204454943056194, -0.011412735722012013, 0.37331640556511364,0.43286683833837275,0.723114013671875,0.65496826171875,0.3571319580078125
20220119-1827,2022-01-19 18:27:26Z,u01, 55,40,movements,el-ex, rt, d,234871.18248616668, 2.0514453797493672, -0.6861757841146288, 2.7496292445169597, 0.04061579704284668, 0.7040230631828308, -0.6267815232276917, 0.6860132217407227, 0.633583128452301, 0.357712060213089, 0.03211110830307007, 0.0221022367477417, 0.029326796531677246, -0.8238036256774859, -0.014269555228750841, 0.37722208014932446,0.4229034744381882,0.716522216796875,0.6562652587890625,0.388031005859375
20220119-1827,2022-01-19 18:27:26Z,u01, 56,40,movements,el-ex, rt, d,234871.20743216667, 2.0748541460211984, -0.700219248966427, 2.7588271925880665, -0.012411100789904594, 0.7073822617530823, -0.6396870017051697, 0.6695947051048279, 0.6443853378295898, 0.3693371117115021, 0.03494924306869507, 0.01134568452835083, 0.0060746073722839355, -0.8272650515263689, -0.01735177763131432, 0.38081114758499457,0.4126913005242593,0.7004547119140625,0.6557464599609375,0.366790771484375
20220119-1827,2022-01-19 18:27:26Z,u01, 57,40,movements,el-ex, rt, d,234871.2323781667, 2.099518677601161, -0.7145541982228919, 2.7691480271405777, 0.00306712556630373, 0.7282597422599792, -0.6663038730621338, 0.6522393226623535, 0.6552807092666626, 0.381039559841156, 0.037473320960998535, 0.03589677810668945, 0.00424465537071228, -0.8307189046660525, -0.020636794140625997, 0.3844161886490818,0.40212494239663343,0.689483642578125,0.6927032470703125,0.3857574462890625
20220119-1827,2022-01-19 18:27:26Z,u01, 58,40,movements,el-ex, rt, d,234871.25732416668, 2.1254658374170607, -0.7289280028477377, 2.7807234885841408, -0.0049563804641366005, 0.7394725680351257, -0.6969202756881714, 0.6340607404708862, 0.6660704016685486, 0.39283135533332825, 0.03590673208236694, 0.011587440967559814, 0.004049330949783325, -0.8341671348359749, -0.024101364975635642, 0.38793808229896676,0.39126476762709433,0.66656494140625,0.68133544921875,0.40234375
20220119-1827,2022-01-19 18:27:27Z,u01, 59,40,movements,el-ex, rt, d,234871.28227016667, 2.1523956678299916, -0.7432443670599903, 2.793650443829035, -0.056822340935468674, 0.7309284806251526, -0.6806607842445374, 0.615222156047821, 0.6766802072525024, 0.4044819176197052, 0.04716193675994873, -0.007475435733795166, -0.004564464092254639, -0.8375364282806198, -0.02781528943981504, 0.3913412818207464,0.3802775980704003,0.661529541015625,0.668060302734375,0.4001922607421875
20220119-1827,2022-01-19 18:27:27Z,u01, 60,40,movements,el-ex, rt, d,234871.30721716667, 2.1819076607649235, -0.7552246666609522, 2.8101726820638127, -0.18476375937461853, 0.7312486171722412, -0.6626632809638977, 0.596336305141449, 0.6854522824287415, 0.4177778959274292, 0.050697505474090576, -0.02354109287261963, -0.0070878565311431885, -0.8413523971784567, -0.03186057091887293, 0.39336717987119696,0.3692876415325234,0.6449432373046875,0.668121337890625,0.4130706787109375
20220119-1827,2022-01-19 18:27:27Z,u01, 61,40,movements,el-ex, rt, d,234871.3321631667, 2.212424609878066, -0.7655796968717385, 2.82886459881102, -0.1922532618045807, 0.6975379586219788, -0.6467770934104919, 0.5775936245918274, 0.6929550766944885, 0.4315073788166046, 0.04490393400192261, -0.0029678940773010254, -0.011036396026611328, -0.8452489886393566, -0.03616403490782813, 0.39457110722946964,0.3585524496226072,0.6197967529296875,0.6905670166015625,0.4221343994140625
20220119-1827,2022-01-19 18:27:27Z,u01, 62,40,movements,el-ex, rt, d,234871.35710916668, 2.242446778196902, -0.7759371921204733, 2.8466082365764604, -0.11458197236061096, 0.7238743901252747, -0.6381874680519104, 0.5587321519851685, 0.700385332107544, 0.4441607892513275, 0.03352254629135132, -0.01035231351852417, -0.0027852654457092285, -0.8488063413489844, -0.040102273664487625, 0.3961366853875834,0.34784382500926847,0.5860443115234375,0.6932373046875,0.440704345703125
20220119-1827,2022-01-19 18:27:27Z,u01, 63,40,movements,el-ex, rt, d,234871.38205516667, 2.272883502170164, -0.7866944035793854, 2.8634000348102218, -0.08275823295116425, 0.7659412026405334, -0.6380108594894409, 0.5391725897789001, 0.7080227732658386, 0.45606592297554016, 0.04696321487426758, -0.0009000897407531738, -0.008342921733856201, -0.8521354093057556, -0.04356846983858953, 0.3982239617882216,0.3367261905198806,0.587066650390625,0.7072601318359375,0.4488983154296875
20220119-1827,2022-01-19 18:27:27Z,u01, 64,40,movements,el-ex, rt, d,234871.40700216667, 2.303882704827645, -0.7972964480938406, 2.880965877956232, -0.10914376378059387, 0.7312766909599304, -0.6558793187141418, 0.5191705822944641, 0.7154698967933655, 0.4675085246562958, 0.06347090005874634, -0.0003821253776550293, -0.005167573690414429, -0.8552968254982612, -0.04713383126065221, 0.40031701295591204,0.32556390205781593,0.5725860595703125,0.710662841796875,0.4659576416015625
20220119-1827,2022-01-19 18:27:27Z,u01, 65,40,movements,el-ex, rt, d,234871.4319481667, 2.3365757916115077, -0.8066483344246481, 2.901004141507768, -0.18875370919704437, 0.737025260925293, -0.6504296064376831, 0.4987665116786957, 0.7219721674919128, 0.4795703589916229, 0.045667022466659546, -0.002306699752807617, -0.0030844509601593018, -0.8585896051317757, -0.05107907683221652, 0.4017390841167142,0.3143570825485269,0.54364013671875,0.719879150390625,0.475982666015625
20220119-1827,2022-01-19 18:27:27Z,u01, 66,40,movements,el-ex, rt, d,234871.45689416668, 2.370299316036029, -0.8142424691995822, 2.9226154859363644, -0.20660410821437836, 0.7180765867233276, -0.6291562914848328, 0.4784778356552124, 0.7272058129310608, 0.4921695590019226, 0.04752326011657715, -0.00958484411239624, -0.014706969261169434, -0.8620037072601677, -0.05508522747056549, 0.4024321880128462,0.3032550555819411,0.5200042724609375,0.720855712890625,0.4773406982421875
20220119-1827,2022-01-19 18:27:27Z,u01, 67,40,movements,el-ex, rt, d,234871.48184016667, 2.4042932648988304, -0.8213536524926203, 2.944632524395172, -0.20636296272277832, 0.7332459688186646, -0.6344056129455566, 0.4579852521419525, 0.732068657875061, 0.5043060183525085, 0.03910025954246521, 0.0005056858062744141, -0.011355876922607422, -0.865252969157941, -0.05907874003643532, 0.4030877916939498,0.2921764479551283,0.4970245361328125,0.7330780029296875,0.494110107421875
20220119-1827,2022-01-19 18:27:27Z,u01, 68,40,movements,el-ex, rt, d,234871.5067861667, 2.4388268113344687, -0.8282387226532378, 2.966744861325144, -0.16149947047233582, 0.726046621799469, -0.6380952000617981, 0.4370322525501251, 0.7367416024208069, 0.5159599184989929, 0.05555206537246704, 0.02262735366821289, -0.014357984066009521, -0.8683436936039595, -0.06292212585736998, 0.4038668163283625,0.28091213748791033,0.4898529052734375,0.7652130126953125,0.49493408203125
20220119-1827,2022-01-19 18:27:27Z,u01, 69,40,movements,el-ex, rt, d,234871.5317331667, 2.472602150195794, -0.8365224471728432, 2.9875302431922126, -0.03534417971968651, 0.7486584782600403, -0.6591284871101379, 0.41556015610694885, 0.7423174977302551, 0.5256180763244629, 0.04043358564376831, 0.019096076488494873, -0.03497189283370972, -0.8708522209959908, -0.0665240561543225, 0.40560877635451453,0.2695782501763084,0.4551849365234375,0.76123046875,0.4912261962890625
20220119-1827,2022-01-19 18:27:27Z,u01, 70,40,movements,el-ex, rt, d,234871.55667916668, 2.505300513754472, -0.8454925681828546, 3.007148082343213, -0.09233885258436203, 0.6947740316390991, -0.6248807311058044, 0.39418134093284607, 0.748297929763794, 0.5335453152656555, 0.06140029430389404, -0.005469679832458496, -0.01868361234664917, -0.8728643867927712, -0.06985993874218321, 0.4079600078756549,0.2584487673858161,0.45263671875,0.7274932861328125,0.5295257568359375
20220119-1827,2022-01-19 18:27:27Z,u01, 71,40,movements,el-ex, rt, d,234871.58162516667, 2.5406096229655653, -0.8501146177420577, 3.0309584763279425, -0.3252215087413788, 0.7212035059928894, -0.5988349914550781, 0.37314116954803467, 0.7513560652732849, 0.5442700982093811, 0.052685946226119995, -0.029187917709350586, 0.004435896873474121, -0.8756109758122406, -0.07375944310463184, 0.40820121208871657,0.2474606718625066,0.42498779296875,0.725372314453125,0.548431396484375
20220119-1827,2022-01-19 18:27:27Z,u01, 72,40,movements,el-ex, rt, d,234871.6065711667, 2.576812000359826, -0.8518689146518141, 3.0565085002367183, -0.2432522475719452, 0.6647021174430847, -0.5959596633911133, 0.3524908423423767, 0.7525125741958618, 0.5563044548034668, 0.07416018843650818, 0.0028585195541381836, -0.03547656536102295, -0.8786890628818766, -0.07783165792757102, 0.40724010392303484,0.23664980905482852,0.4141693115234375,0.76165771484375,0.5140533447265625
20220119-1827,2022-01-19 18:27:27Z,u01, 73,40,movements,el-ex, rt, d,234871.63151716668, 2.6080029161457206, -0.8566270865142386, 3.0768242437234212, -0.011773939244449139, 0.6259886026382446, -0.5585354566574097, 0.3331454396247864, 0.7556376457214355, 0.5639371275901794, 0.034423500299453735, 0.0065538883209228516, -0.060153424739837646, -0.880569447373533, -0.08103088201085873, 0.40819822372669395,0.22672758606476212,0.3642730712890625,0.7593994140625,0.5058135986328125
20220119-1827,2022-01-19 18:27:27Z,u01, 74,40,movements,el-ex, rt, d,234871.656464375, 2.637893332647861, -0.8639387584544638, 3.0953508646093995, -0.011592544615268707, 0.6027997732162476, -0.5356548428535461, 0.313467800617218, 0.760406494140625, 0.568787693977356, 0.05616110563278198, -0.018295347690582275, -0.032868921756744385, -0.8816707525877463, -0.08396752839121904, 0.4105762815435734,0.21687117477200352,0.3772430419921875,0.73211669921875,0.5361785888671875
20220119-1827,2022-01-19 18:27:27Z,u01, 75,40,movements,el-ex, rt, d,234871.68141037502, 2.6683798472536506, -0.8682856502252712, 3.1146296989279625, -0.13813485205173492, 0.6493354439735413, -0.5012463927268982, 0.29447513818740845, 0.763222336769104, 0.5751307010650635, 0.06290096044540405, -0.028862714767456055, -0.02163386344909668, -0.883203540233732, -0.08669976713904004, 0.41174346089508707,0.20712738145473725,0.3592376708984375,0.7349395751953125,0.5538482666015625
20220119-1827,2022-01-19 18:27:27Z,u01, 76,40,movements,el-ex, rt, d,234871.706356375, 2.6981013853076172, -0.8706447832776495, 3.134191558447325, -0.13286863267421722, 0.5636172294616699, -0.4832015037536621, 0.2764805555343628, 0.7647445797920227, 0.5819998979568481, 0.0734645426273346, -0.02260291576385498, -0.03832954168319702, -0.884869839065211, -0.0894723963508747, 0.4121125518979862,0.19789688207229045,0.336029052734375,0.7415771484375,0.5475006103515625
20220119-1827,2022-01-19 18:27:27Z,u01, 77,40,movements,el-ex, rt, d,234871.731302375, 2.725394255005011, -0.873364794840055, -3.1318675545854764, -0.0175933800637722, 0.5644956827163696, -0.42687469720840454, 0.2596533000469208, 0.7664943337440491, 0.5874236822128296, 0.0415094792842865, -0.02114814519882202, -0.044668734073638916, -0.8861743572014176, -0.09168881467655932, 0.4128956369374561,0.1892229929105198,0.3008575439453125,0.7447357177734375,0.54412841796875
20220119-1827,2022-01-19 18:27:27Z,u01, 78,40,movements,el-ex, rt, d,234871.75624837502, 2.7508510482129735, -0.8776770811045593, -3.1165402437685295, -0.01294429786503315, 0.5669571757316589, -0.4301639795303345, 0.24335570633411407, 0.7692567706108093, 0.5907809138298035, 0.04721750319004059, -0.0365142822265625, -0.04555410146713257, -0.886921306334242, -0.09360051233728056, 0.4145712176571775,0.18094269813154568,0.2865142822265625,0.725677490234375,0.554931640625
20220119-1827,2022-01-19 18:27:27Z,u01, 79,40,movements,el-ex, rt, d,234871.78119537502, 2.777205486996595, -0.8792718003994179, -3.1004337439716503, -0.17748181521892548, 0.541220486164093, -0.3989500403404236, 0.22726581990718842, 0.7702746987342834, 0.5958415269851685, 0.07563650608062744, -0.02006089687347412, 0.0008074045181274414, -0.8881539114938106, -0.09541176021815695, 0.415103026223797,0.17253611335318575,0.30377197265625,0.7517242431640625,0.59613037109375
20220119-1827,2022-01-19 18:27:27Z,u01, 80,40,movements,el-ex, rt, d,234871.806141375, 2.8022071360875382, -0.8782556465582649, -3.084299043595139, -0.149293452501297, 0.4850754737854004, -0.3453741669654846, 0.2125598043203354, 0.7696263194084167, 0.6020745635032654, 0.06704233586788177, -0.011065959930419922, -0.024758458137512207, -0.8896997089277252, -0.09732266598363928, 0.41449344594608406,0.16479662438286963,0.2628173828125,0.7578125,0.5709075927734375
20220119-1827,2022-01-19 18:27:27Z,u01, 81,40,movements,el-ex, rt, d,234871.831087375, 2.824648918265097, -0.8794398706764486, -3.070898859964057, 0.006668152287602425, 0.47685927152633667, -0.33301931619644165, 0.19871145486831665, 0.7703818678855896, 0.6058259010314941, 0.01590345799922943, -0.03013235330581665, -0.06062966585159302, -0.8906002593148479, -0.0987123082370987, 0.41504314693842503,0.15756293691063472,0.2127227783203125,0.7387847900390625,0.54486083984375
20220119-1827,2022-01-19 18:27:27Z,u01, 82,40,movements,el-ex, rt, d,234871.85603337502, 2.8454712062230265, -0.8827631568546491, -3.059683620305374, 0.06041447073221207, 0.48091766238212585, -0.3013215661048889, 0.18530647456645966, 0.7724964618682861, 0.6073797345161438, 0.007930859923362732, -0.010716795921325684, -0.04446810483932495, -0.8909397387210881, -0.09958036739067741, 0.4166998706255697,0.15056951469381996,0.2011871337890625,0.77056884765625,0.5610809326171875
20220119-1827,2022-01-19 18:27:27Z,u01, 83,40,movements,el-ex, rt, d,234871.88098037502, 2.8638473984880117, -0.8876665528027544, -3.0502572588896215, 0.16107277572155, 0.4170885980129242, -0.28339341282844543, 0.17307384312152863, 0.7756009101867676, 0.607032299041748, 0.03914542496204376, -0.009228348731994629, -0.053794682025909424, -0.8907715425525076, -0.10021085128560209, 0.41911998759219943,0.144298833248388,0.2104949951171875,0.766510009765625,0.5559539794921875
20220119-1827,2022-01-19 18:27:27Z,u01, 84,40,movements,el-ex, rt, d,234871.905926375, 2.880426454226037, -0.8931559250396199, -3.0415192195250205, 0.11245663464069366, 0.37821048498153687, -0.269936740398407, 0.16188473999500275, 0.7790542244911194, 0.605695903301239, 0.032069817185401917, -0.02487325668334961, -0.032759130001068115, -0.8903194006979936, -0.10089263900318665, 0.42179476622183665,0.1387124222330302,0.191741943359375,0.7506866455078125,0.5820770263671875
20220119-1827,2022-01-19 18:27:27Z,u01, 85,40,movements,el-ex, rt, d,234871.930872375, 2.896641983318511, -0.8956938767153547, -3.0323102538267457, -0.027578968554735184, 0.3516450524330139, -0.25117889046669006, 0.15156212449073792, 0.7806429266929626, 0.6063206791877747, 0.03526650369167328, -0.027499794960021973, -0.01849156618118286, -0.8904049287920952, -0.10168280623067502, 0.4231266290423664,0.13342892105585963,0.18658447265625,0.753631591796875,0.5886993408203125
20220119-1827,2022-01-19 18:27:27Z,u01, 86,40,movements,el-ex, rt, d,234871.95581837502, 2.9128263415956637, -0.8959796200374237, -3.022475058399335, -0.04119284823536873, 0.3401307165622711, -0.24306677281856537, 0.1416792869567871, 0.7808215022087097, 0.6084771752357483, 0.04286055266857147, -0.007597684860229492, -0.017931759357452393, -0.8908993929424508, -0.10264914675101855, 0.4234378595596412,0.12830312888804868,0.1788482666015625,0.7820587158203125,0.595977783203125
20220119-1827,2022-01-19 18:27:27Z,u01, 87,40,movements,el-ex, rt, d,234871.980764375, 2.929035768101801, -0.897165967666621, -3.0124600881204264, 0.009862112812697887, 0.36192476749420166, -0.2447466254234314, 0.13160254061222076, 0.781562089920044, 0.6097878217697144, 0.033879101276397705, 0.025597333908081055, 0.019301295280456543, -0.8911432318229369, -0.1037190299819139, 0.42417646189515634,0.12320852437460778,0.1653900146484375,0.8077545166015625,0.631378173828125
20220119-1827,2022-01-19 18:27:27Z,u01, 88,40,movements,el-ex, rt, d,234872.005711375, 2.9463043773589295, -0.89853442364131, -3.0022979433265142, -0.033056825399398804, 0.4053575396537781, -0.27083197236061096, 0.12084562331438065, 0.7824150323867798, 0.610919713973999, 0.04561258852481842, 0.02868121862411499, 0.0442618727684021, -0.8913549607729893, -0.10462402076976507, 0.4250777868981003,0.11768169253711433,0.1671295166015625,0.815673828125,0.6678466796875
20220119-1827,2022-01-19 18:27:27Z,u01, 89,40,movements,el-ex, rt, d,234872.03065737503, 2.965204505888941, -0.8984379028635223, -2.9914286096469174, -0.07688473165035248, 0.4452072083950043, -0.28085848689079285, 0.10929146409034729, 0.7823549509048462, 0.613168478012085, 0.031455688178539276, 0.022927582263946533, 0.05609685182571411, -0.8918883480216996, -0.10544865638587328, 0.4254041786342635,0.11156556998303835,0.13873291015625,0.8071136474609375,0.6704559326171875
20220119-1827,2022-01-19 18:27:27Z,u01, 90,40,movements,el-ex, rt, d,234872.05560337502, 2.9866679101636366, -0.8977122788978791, -2.979212117703788, -0.06802616268396378, 0.4763850271701813, -0.30637964606285095, 0.09619421511888504, 0.7819027900695801, 0.6159337162971497, 0.03286468982696533, 0.018558025360107422, 0.06811749935150146, -0.8925600101073536, -0.10631785373811614, 0.42555458425837955,0.10457689821166956,0.1251373291015625,0.7916107177734375,0.664215087890625
20220119-1827,2022-01-19 18:27:27Z,u01, 91,40,movements,el-ex, rt, d,234872.080549375, 3.009300978202542, -0.897007208499745, -2.9661047636333873, -0.074042409658432, 0.5137389898300171, -0.3271065652370453, 0.08230295777320862, 0.7814630270004272, 0.6184989809989929, 0.0030242279171943665, 0.030228078365325928, 0.013046622276306152, -0.8931556833880842, -0.10734248733247798, 0.42578560660088766,0.09724661205487875,0.0844573974609375,0.8111572265625,0.6301116943359375
20220119-1827,2022-01-19 18:27:27Z,u01, 92,40,movements,el-ex, rt, d,234872.10549537503, 3.0319681604447775, -0.8973627367487946, -2.9533365228900013, 0.046678848564624786, 0.4784979820251465, -0.29793527722358704, 0.06823305040597916, 0.7816848158836365, 0.619929850101471, 0.013126887381076813, 0.019523799419403076, -0.03263455629348755, -0.8934504845689183, -0.10821812120014795, 0.4265694845170247,0.0898528491287322,0.0784454345703125,0.7925872802734375,0.5697479248046875
20220119-1827,2022-01-19 18:27:27Z,u01, 93,40,movements,el-ex, rt, d,234872.13044237503, 3.052663647382755, -0.901350384857237, -2.9422397052864957, 0.19744305312633514, 0.49152135848999023, -0.2787645161151886, 0.0551123283803463, 0.784165620803833, 0.6180994510650635, -0.0021947547793388367, -0.02052408456802368, -0.06609779596328735, -0.8928732817481126, -0.10875213590165247, 0.4290014045650632,0.08311479935566704,0.0541229248046875,0.763275146484375,0.5538177490234375
20220119-1827,2022-01-19 18:27:27Z,u01, 94,40,movements,el-ex, rt, d,234872.15538837502, 3.0726847120403806, -0.906911515925256, -2.9314341040584337, 0.1604519784450531, 0.44277986884117126, -0.26246392726898193, 0.04242617264389992, 0.7876044511795044, 0.6147187352180481, 0.031579047441482544, -0.024634480476379395, -0.03772306442260742, -0.8918668994791479, -0.10923729904204615, 0.4321519284146591,0.0767157026442925,0.076263427734375,0.750518798828125,0.5926361083984375
20220119-1827,2022-01-19 18:27:27Z,u01, 95,40,movements,el-ex, rt, d,234872.180334375, 3.0906161651035258, -0.9091995630859981, -2.9219227472789178, -0.017593543976545334, 0.39443835616111755, -0.24170170724391937, 0.0313052199780941, 0.7890121936798096, 0.6135789155960083, 0.028417762368917465, -0.06611192226409912, -0.010017931461334229, -0.891506185549696, -0.10957276178647055, 0.4338052886331865,0.07087539611553284,0.0597686767578125,0.7235107421875,0.6042022705078125
20220119-1827,2022-01-19 18:27:27Z,u01, 96,40,movements,el-ex, rt, d,234872.20528037503, 3.107036731671608, -0.9068140839021973, -2.9124754425945287, -0.1460505574941635, 0.3073781132698059, -0.2144383192062378, 0.021291101351380348, 0.7875443696975708, 0.6158894300460815, 0.05738329142332077, -0.0344470739364624, -0.042006731033325195, -0.892069015020226, -0.11026139146532307, 0.4333194854990867,0.06549264594688553,0.07958984375,0.7522735595703125,0.5603790283203125
20220119-1827,2022-01-19 18:27:27Z,u01, 97,40,movements,el-ex, rt, d,234872.23022737502, 3.120354328811782, -0.9031222301020637, -2.904370730071562, -0.12874001264572144, 0.26391878724098206, -0.18410624563694, 0.013148944824934006, 0.7852638959884644, 0.619020938873291, 0.031757768243551254, -0.02710062265396118, -0.07260406017303467, -0.8928462947987753, -0.11106734272315466, 0.43214978506352186,0.06112160718890186,0.043914794921875,0.757598876953125,0.5435638427734375
20220119-1827,2022-01-19 18:27:27Z,u01, 98,40,movements,el-ex, rt, d,234872.25517337502, 3.1312508315658887, -0.9022319097047642, -2.8982362005858016, 0.05872342735528946, 0.22265775501728058, -0.1449430137872696, 0.0064103687182068825, 0.7847123146057129, 0.6198269724845886, 0.028394997119903564, -0.02940213680267334, -0.09469598531723022, -0.8930215520686058, -0.11147188240019104, 0.4321760747192333,0.057535750070346656,0.0323944091796875,0.75433349609375,0.528778076171875
20220119-1827,2022-01-19 18:27:27Z,u01, 99,40,movements,el-ex, rt, d,234872.280119375, 3.1390129278431247, -0.905629223323143, -2.8938672596122292, 0.17942102253437042, 0.12463225424289703, -0.07807382941246033, 0.0015921806916594505, 0.7868136763572693, 0.6171885132789612, 0.02829989790916443, -0.048669636249542236, -0.09393435716629028, -0.8922597252520285, -0.11165503908550148, 0.43400280999682295,0.05520219018777331,0.0284881591796875,0.737060546875,0.5213165283203125
20220119-1827,2022-01-19 18:27:28Z,u01, 100,40,movements,el-ex, rt, d,234872.30506537503, -3.141531456305544, -0.9104787276405283, -2.8927768917145773, 0.1827542930841446, 0.011729275807738304, 0.02862744778394699, -3.753643613890745e-05, 0.7897974848747253, 0.6133676767349243, 0.02655741572380066, -0.09071588516235352, -0.1307324767112732, -0.8912158989961277, -0.11143629431649041, 0.4362826047091799,0.05453106097070573,0.0314483642578125,0.6956024169921875,0.479095458984375
20220119-1827,2022-01-19 18:27:28Z,u01, 101,40,movements,el-ex, rt, d,234872.33001137502, 3.1375457266565503, -0.9143873223899714, -2.896071714552014, 0.12053343653678894, -0.12227001041173935, 0.13051578402519226, 0.0024697352200746536, 0.792188823223114, 0.6102708578109741, 0.044924139976501465, -0.12386912107467651, -0.12321054935455322, -0.8904308999925133, -0.1107621311221835, 0.4378864907658008,0.05585622474283376,0.0479888916015625,0.667633056640625,0.488494873046875
20220119-1827,2022-01-19 18:27:28Z,u01, 102,40,movements,el-ex, rt, d,234872.354958375, 3.1273317674499137, -0.9162396339620287, -2.903291258830695, 0.05122203752398491, -0.23852011561393738, 0.2104751467704773, 0.008681843057274818, 0.7933179140090942, 0.608745813369751, 0.0607457160949707, -0.09766954183578491, -0.11361348628997803, -0.8901291835675668, -0.10974030996246348, 0.4383555579115807,0.05891975828238398,0.07586669921875,0.7061767578125,0.5010528564453125
20220119-1827,2022-01-19 18:27:28Z,u01, 103,40,movements,el-ex, rt, d,234872.379904375, 3.112575862635912, -0.9172324327513006, -2.91309635234404, 0.01742272824048996, -0.3012281060218811, 0.2502538561820984, 0.01764029636979103, 0.793921947479248, 0.6077634692192078, 0.06153762340545654, -0.04039716720581055, -0.05434274673461914, -0.8899943771927145, -0.10858981309113194, 0.4382923883436278,0.06338718361983219,0.080535888671875,0.7551116943359375,0.5565032958984375
20220119-1827,2022-01-19 18:27:28Z,u01, 104,40,movements,el-ex, rt, d,234872.40485037502, 3.0965692986463424, -0.9166217355473708, -2.9236905362673222, -0.0359940230846405, -0.308928906917572, 0.27052024006843567, 0.027387645095586777, 0.7935504913330078, 0.6078875064849854, 0.06527906656265259, 7.43865966796875e-05, 0.013389050960540771, -0.8901748430986649, -0.10738954649273424, 0.4375041776389479,0.06816323549482178,0.0961456298828125,0.8014678955078125,0.6260986328125
20220119-1827,2022-01-19 18:27:28Z,u01, 105,40,movements,el-ex, rt, d,234872.429796375, 3.0780620611125915, -0.9167621131177307, -2.9365204896492862, 0.08317680656909943, -0.35568875074386597, 0.3558747470378876, 0.03862554952502251, 0.793635904788971, 0.6071652770042419, 0.051096197217702866, -0.023814797401428223, -0.039004623889923096, -0.8901713965344679, -0.10572377237654826, 0.43703552681954577,0.07360135276450941,0.0879974365234375,0.766510009765625,0.56402587890625
20220119-1827,2022-01-19 18:27:28Z,u01, 106,40,movements,el-ex, rt, d,234872.454742375, 3.05499534712409, -0.9207433596731119, -2.954068908963479, 0.34384721517562866, -0.3810637593269348, 0.4766252636909485, 0.05234568193554878, 0.7960517406463623, 0.6029606461524963, 0.016303695738315582, -0.060227036476135254, -0.10129767656326294, -0.8893158662685265, -0.10294474025331857, 0.4382844508547037,0.08016490323806606,0.067474365234375,0.7238311767578125,0.4836578369140625
20220119-1827,2022-01-19 18:27:28Z,u01, 107,40,movements,el-ex, rt, d,234872.479689375, 3.026597236220981, -0.9319419549735685, -2.9774598916274218, 0.5814314484596252, -0.376739501953125, 0.5247862339019775, 0.06841794401407242, 0.8027793765068054, 0.592337429523468, 0.009951256215572357, -0.02458113431930542, -0.046653151512145996, -0.886790985874892, -0.09884564952948141, 0.44282995690237376,0.08793592469464628,0.08087158203125,0.782257080078125,0.5535736083984375
20220119-1827,2022-01-19 18:27:28Z,u01, 108,40,movements,el-ex, rt, d,234872.50463537502, 2.996529927050644, -0.9422865030086116, -3.0024780724249713, 0.30920979380607605, -0.42934519052505493, 0.5353088974952698, 0.08498935401439667, 0.8089045286178589, 0.5817646384239197, 0.0487997904419899, -0.038228750228881836, 0.006186783313751221, -0.8842719668467272, -0.09458018722946854, 0.4471292879065521,0.09588028506012923,0.14654541015625,0.755157470703125,0.57708740234375
20220119-1827,2022-01-19 18:27:28Z,u01, 109,40,movements,el-ex, rt, d,234872.529581375, 2.9652245245297584, -0.9432423488884639, -3.026645880565509, -0.010760307312011719, -0.5136479735374451, 0.5617475509643555, 0.10302133113145828, 0.8094661235809326, 0.5780575275421143, 0.052023276686668396, -0.07019323110580444, -0.04595339298248291, -0.8836076681524876, -0.09091892082011324, 0.44731190062553877,0.1043220689285472,0.154296875,0.7407989501953125,0.5296478271484375
20220119-1827,2022-01-19 18:27:28Z,u01, 110,40,movements,el-ex, rt, d,234872.554527375, 2.9311622201557057, -0.9408045809841581, -3.0513296167846646, 0.07714930921792984, -0.5888356566429138, 0.6104125380516052, 0.12305961549282074, 0.8080323934555054, 0.5761420726776123, 0.01359817385673523, -0.03966081142425537, -0.08790695667266846, -0.8834063892119767, -0.08754539545477463, 0.446056013286399,0.11385468605258613,0.130950927734375,0.7776641845703125,0.48828125
20220119-1827,2022-01-19 18:27:28Z,u01, 111,40,movements,el-ex, rt, d,234872.57947337502, 2.893164850433269, -0.9421436810507521, -3.0797928674954975, 0.2816266119480133, -0.5812857151031494, 0.6401506066322327, 0.14459136128425598, 0.8088205456733704, 0.5700026154518127, -0.0016621947288513184, -0.012067437171936035, -0.02846825122833252, -0.8820576922828943, -0.08351961797178908, 0.4467191225204498,0.12426113303200063,0.144805908203125,0.7988128662109375,0.5467376708984375
20220119-1827,2022-01-19 18:27:28Z,u01, 112,40,movements,el-ex, rt, d,234872.60442037502, 2.8551147577578018, -0.9442182563004357, -3.108723444580745, 0.17730458080768585, -0.5906356573104858, 0.6233745217323303, 0.16569553315639496, 0.8100388050079346, 0.5624786019325256, 0.024413809180259705, -0.01522362232208252, -0.009698688983917236, -0.8803043210450113, -0.07939516283341835, 0.44795828163366425,0.1345142617647186,0.210662841796875,0.791015625,0.5459136962890625
20220119-1827,2022-01-19 18:27:28Z,u01, 113,40,movements,el-ex, rt, d,234872.629366375, 2.816745308907621, -0.9415458485167956, -3.1363500675759455, 0.04093804210424423, -0.6739037036895752, 0.6648651361465454, 0.18784040212631226, 0.8084688782691956, 0.5577576756477356, 0.06553183495998383, -0.022198796272277832, -0.05530136823654175, -0.879292600155767, -0.0756529930583881, 0.44722615978888214,0.14529201959266327,0.2528076171875,0.7868499755859375,0.5011749267578125
20220119-1827,2022-01-19 18:27:28Z,u01, 114,40,movements,el-ex, rt, d,234872.654312375, 2.77634728480921, -0.9379976488111663, 3.118199536674756, 0.16580024361610413, -0.6987742781639099, 0.6947051286697388, 0.21123670041561127, 0.8063755035400391, 0.5523924827575684, 0.03139340877532959, 0.003622114658355713, -0.040200889110565186, -0.8780877061081657, -0.07182073817140788, 0.44634154407461474,0.15678949384785223,0.2447357177734375,0.80621337890625,0.5111083984375
20220119-1827,2022-01-19 18:27:28Z,u01, 115,40,movements,el-ex, rt, d,234872.67925837502, 2.7350828556308446, -0.9357442872021206, 3.088046145022583, 0.14162559807300568, -0.6449400186538696, 0.6718912720680237, 0.23456259071826935, 0.8050408363342285, 0.5448760986328125, 0.02558460831642151, 0.01203697919845581, 0.04998767375946045, -0.8762807919667965, -0.06760183766654307, 0.44636910678466446,0.16827558722398434,0.2621917724609375,0.8169708251953125,0.5963592529296875
20220119-1827,2022-01-19 18:27:28Z,u01, 116,40,movements,el-ex, rt, d,234872.704204375, 2.6978022502892323, -0.9305963822425349, 3.061716574794947, -0.0027699251659214497, -0.6439666152000427, 0.6441999673843384, 0.25648409128189087, 0.8019763231277466, 0.539490282535553, 0.050904273986816406, 0.020624995231628418, 0.028029561042785645, -0.8750239860474436, -0.0638604537919514, 0.4451923822303324,0.17904907344604687,0.31927490234375,0.8205413818359375,0.5597076416015625
20220119-1827,2022-01-19 18:27:28Z,u01, 117,40,movements,el-ex, rt, d,234872.729151375, 2.6620636802460034, -0.923287128333183, 3.037238101483515, 0.01716596633195877, -0.6179906725883484, 0.6512970328330994, 0.2782939672470093, 0.7975887060165405, 0.5351680517196655, 0.036540716886520386, 0.030994176864624023, 0.028308331966400146, -0.8740429932601123, -0.060273194239350014, 0.4431783113469665,0.18976040200528715,0.312408447265625,0.8309173583984375,0.56683349609375
20220119-1827,2022-01-19 18:27:28Z,u01, 118,40,movements,el-ex, rt, d,234872.754097375, 2.627049605417387, -0.9174570965621214, 3.012035962466639, 0.14680588245391846, -0.564980149269104, 0.6288552284240723, 0.2991410493850708, 0.7940585017204285, 0.5291362404823303, 0.0020827054977416992, 0.03522604703903198, 0.0346604585647583, -0.8725812950287805, -0.05630267752375864, 0.4421046025160734,0.19993804028007128,0.300018310546875,0.83538818359375,0.57611083984375
20220119-1827,2022-01-19 18:27:28Z,u01, 119,40,movements,el-ex, rt, d,234872.77904337502, 2.5936164620289173, -0.9128506812837865, 2.9868382596435255, 0.14572930335998535, -0.5223996639251709, 0.6118291020393372, 0.3185637295246124, 0.7912501096725464, 0.5219582915306091, 0.01738908886909485, 0.031427621841430664, 0.03932076692581177, -0.8707841486767353, -0.05209716006771922, 0.4418069805904654,0.2093501062648016,0.3378143310546875,0.82171630859375,0.55810546875
20220119-1827,2022-01-19 18:27:28Z,u01, 120,40,movements,el-ex, rt, d,234872.803989375, 2.5619801105059623, -0.9071012421283605, 2.9635598224125568, 0.10451006144285202, -0.5441547632217407, 0.6003798246383667, 0.3374002277851105, 0.7877213358879089, 0.5154179334640503, 0.022783488035202026, 0.01763749122619629, 0.004158675670623779, -0.8691327772870036, -0.048137114383061674, 0.4410617926410515,0.21852995889404592,0.3586883544921875,0.794677734375,0.5030975341796875
20220119-1827,2022-01-19 18:27:28Z,u01, 121,40,movements,el-ex, rt, d,234872.828936375, 2.528800317676788, -0.9023717560684634, 2.939128240635294, 0.2839304208755493, -0.5590338706970215, 0.622623860836029, 0.35645169019699097, 0.7847990393638611, 0.5069835186004639, -0.013479858636856079, -0.007913053035736084, -0.04304039478302002, -0.8669163390343864, -0.044134218687338606, 0.44102895212630255,0.22803851175621292,0.342193603515625,0.777679443359375,0.4649505615234375
20220119-1827,2022-01-19 18:27:28Z,u01, 122,40,movements,el-ex, rt, d,234872.85388237503, 2.4918382298952193, -0.8998055995296991, 2.9099349029811816, 0.32980039715766907, -0.5640654563903809, 0.6527646780014038, 0.37616026401519775, 0.783206045627594, 0.49506694078445435, -0.012833267450332642, 0.009243786334991455, 0.00745043158531189, -0.8637086295694145, -0.039253954636025046, 0.44258623595633984,0.23787349684116046,0.376861572265625,0.7889862060546875,0.52081298828125
20220119-1827,2022-01-19 18:27:28Z,u01, 123,40,movements,el-ex, rt, d,234872.87882837502, 2.4591826828841192, -0.8934310377208119, 2.8858611009371025, -0.009617345407605171, -0.5421825051307678, 0.5926105380058289, 0.3952644467353821, 0.7792267203330994, 0.4863864779472351, 0.04069450497627258, -0.011938393115997314, 0.060763001441955566, -0.8613756105963909, -0.03500416053721708, 0.442261143995059,0.24741030320334662,0.4394378662109375,0.76788330078125,0.54620361328125
20220119-1827,2022-01-19 18:27:28Z,u01, 124,40,movements,el-ex, rt, d,234872.903774375, 2.434741244245043, -0.8819069536454536, 2.8721344545592635, -0.17470836639404297, -0.5662113428115845, 0.538693904876709, 0.4128378629684448, 0.7719525098800659, 0.4833778142929077, 0.06024569272994995, 0.03246033191680908, 0.026906371116638184, -0.8606032666392162, -0.032417982669149636, 0.43883726774848714,0.2563842782842702,0.472686767578125,0.810028076171875,0.4979400634765625
20220119-1827,2022-01-19 18:27:28Z,u01, 125,40,movements,el-ex, rt, d,234872.92872037503, 2.409187641950187, -0.8718671618899275, 2.857397251235669, 0.08655549585819244, -0.5597650408744812, 0.5586482286453247, 0.4302145540714264, 0.765531599521637, 0.47841060161590576, -0.005348771810531616, 0.028963088989257812, -0.02792567014694214, -0.859253494685484, -0.029811499138601483, 0.43625253160441363,0.2654776731768088,0.4232330322265625,0.7925872802734375,0.4487457275390625
20220119-1827,2022-01-19 18:27:28Z,u01, 126,40,movements,el-ex, rt, d,234872.95366737503, 2.3796124368055667, -0.8654981999376897, 2.8359620998285235, 0.2396252304315567, -0.492170512676239, 0.5786840915679932, 0.4475304186344147, 0.761418342590332, 0.4689975380897522, -0.02817302942276001, 0.01523888111114502, 0.002804100513458252, -0.8566393985358641, -0.025840172342109308, 0.4361455001002987,0.2743689879903173,0.43267822265625,0.7828369140625,0.4981689453125
20220119-1827,2022-01-19 18:27:28Z,u01, 127,40,movements,el-ex, rt, d,234872.97861337502, 2.352201350359791, -0.8586444331615608, 2.8160574047743583, 0.047357991337776184, -0.48987656831741333, 0.5396683216094971, 0.4639102518558502, 0.756957471370697, 0.460220068693161, 0.04202544689178467, 0.015274584293365479, 0.0644378662109375, -0.8541832752267207, -0.021930840646417815, 0.4358291362288538,0.28274169770012225,0.5079345703125,0.771636962890625,0.52435302734375
20220119-1827,2022-01-19 18:27:28Z,u01, 128,40,movements,el-ex, rt, d,234873.003559375, 2.331530583826105, -0.8479235541640703, 2.8048696281808323, -0.1893482655286789, -0.47318407893180847, 0.510586678981781, 0.47917410731315613, 0.7499083876609802, 0.4561018645763397, 0.04975646734237671, 0.02610766887664795, 0.05640995502471924, -0.8530376427015671, -0.019434732482733807, 0.43292812402253583,0.29072678281781184,0.5301055908203125,0.7730255126953125,0.5034637451171875
20220119-1827,2022-01-19 18:27:28Z,u01, 129,40,movements,el-ex, rt, d,234873.02850537503, 2.312762982452627, -0.8360834459878654, 2.795656416267285, -0.042027514427900314, -0.4749116897583008, 0.5096948146820068, 0.4941602647304535, 0.7420232892036438, 0.4529978632926941, 0.021190166473388672, 0.04226326942443848, -4.094839096069336e-05, -0.8521784240546346, -0.01705491084724159, 0.4293938524146925,0.2985330283318123,0.5135650634765625,0.786376953125,0.45233154296875
20220119-1827,2022-01-19 18:27:28Z,u01, 130,40,movements,el-ex, rt, d,234873.05345137502, 2.2901433866112435, -0.8281321847527481, 2.7803434350195992, 0.2052985578775406, -0.4187668561935425, 0.49884650111198425, 0.5087016224861145, 0.7366695404052734, 0.44557851552963257, -0.002826988697052002, 0.07692897319793701, 0.027229994535446167, -0.8500602164917237, -0.013670854226367546, 0.42838149044912815,0.306104367090637,0.511322021484375,0.8109130859375,0.4792022705078125
20220119-1827,2022-01-19 18:27:28Z,u01, 131,40,movements,el-ex, rt, d,234873.07839837502, 2.2672259088987667, -0.8227211560701507, 2.763655292152977, 0.15195836126804352, -0.42983362078666687, 0.42310965061187744, 0.5218290686607361, 0.7329995632171631, 0.4363551437854767, 0.018484652042388916, 0.032564401626586914, 0.01632702350616455, -0.8473909958363822, -0.010299450650307906, 0.4286980579906754,0.3131138996622468,0.540283203125,0.7642669677734375,0.4504852294921875
20220119-1827,2022-01-19 18:27:28Z,u01, 132,40,movements,el-ex, rt, d,234873.103344375, 2.247804770594266, -0.8157300675270607, 2.751994296879409, 0.014412324875593185, -0.45382264256477356, 0.404888778924942, 0.5341860055923462, 0.7282261252403259, 0.42933890223503113, 0.013955473899841309, 0.023238658905029297, -0.0017268657684326172, -0.8453439960898264, -0.007936333910290805, 0.427723688289651,0.31997337523350045,0.5409698486328125,0.74285888671875,0.41851806640625
20220119-1827,2022-01-19 18:27:28Z,u01, 133,40,movements,el-ex, rt, d,234873.12829037503, 2.2286276639363156, -0.8077387559010663, 2.7417375941542894, 0.052632514387369156, -0.47190555930137634, 0.4334558844566345, 0.5469085574150085, 0.7227262258529663, 0.4225611090660095, -0.01954948902130127, -0.003564178943634033, -0.03198212385177612, -0.8433542151195206, -0.005850562493949357, 0.42621329568913635,0.3272027946387196,0.5266571044921875,0.7192535400390625,0.3910064697265625
20220119-1827,2022-01-19 18:27:28Z,u01, 134,40,movements,el-ex, rt, d,234873.15323637502, 2.2078821027637034, -0.8000435422648203, 2.729612386565681, 0.11664286255836487, -0.49610665440559387, 0.47281885147094727, 0.560010552406311, 0.7173864245414734, 0.4144212305545807, -0.01572948694229126, -0.0018864870071411133, -0.018196523189544678, -0.8409515007559714, -0.003344002104382321, 0.4252018477337769,0.3346532666246121,0.551971435546875,0.701416015625,0.3912353515625
20220119-1827,2022-01-19 18:27:28Z,u01, 135,40,movements,el-ex, rt, d,234873.178182375, 2.186084412240568, -0.7922799501963408, 2.7160447480914782, 0.10718709975481033, -0.4922819435596466, 0.46089497208595276, 0.5734409093856812, 0.7119561433792114, 0.4053191542625427, 0.023360848426818848, -0.0407525897026062, -0.011276483535766602, -0.8382478212049844, -0.00040771606702902363, 0.42450278679259695,0.34225383553815386,0.5980987548828125,0.6719512939453125,0.3957061767578125
20220119-1827,2022-01-19 18:27:28Z,u01, 136,40,movements,el-ex, rt, d,234873.203129375, 2.1664022452682543, -0.7836130962868484, 2.70522559062085, 0.0002784300595521927, -0.47751909494400024, 0.44820594787597656, 0.5863929986953735, 0.705843448638916, 0.39740169048309326, 0.035295844078063965, -0.013948976993560791, 0.01568397879600525, -0.8358806836270267, 0.0020793269018912486, 0.4230853538414289,0.34971109851396726,0.6268310546875,0.70343017578125,0.418182373046875
20220119-1827,2022-01-19 18:27:28Z,u01, 137,40,movements,el-ex, rt, d,234873.22807537502, 2.1486987864189997, -0.7745238595944552, 2.696858162170822, -0.016948694363236427, -0.458440899848938, 0.4323868751525879, 0.5986853837966919, 0.6993758082389832, 0.3904474377632141, 0.04111570119857788, 0.0020096898078918457, 0.016321122646331787, -0.8337906535423265, 0.004106100796637563, 0.42115313543227734,0.35694018361533403,0.6403961181640625,0.6999664306640625,0.4085540771484375
20220119-1827,2022-01-19 18:27:28Z,u01, 138,40,movements,el-ex, rt, d,234873.253021375, 2.131648074907198, -0.7653608406429857, 2.6890500506342896, 0.010215947404503822, -0.43552467226982117, 0.41433998942375183, 0.6106563210487366, 0.6927972435951233, 0.3835756480693817, 0.022140860557556152, -0.007006347179412842, 0.013488143682479858, -0.8317154790568476, 0.0060983074060326214, 0.4191560980973058,0.36403316661145513,0.629791259765625,0.687469482421875,0.3964996337890625
20220119-1827,2022-01-19 18:27:28Z,u01, 139,40,movements,el-ex, rt, d,234873.277967375, 2.114870529408413, -0.7570933504055726, 2.680668837126331, 0.05299593508243561, -0.43712249398231506, 0.42457830905914307, 0.6218852400779724, 0.6868116855621338, 0.3762289881706238, 0.022371292114257812, 0.011155843734741211, 0.008719444274902344, -0.8294861853881652, 0.008194966898249362, 0.4176609778567638,0.37073542355841343,0.644683837890625,0.697021484375,0.385223388671875
20220119-1827,2022-01-19 18:27:29Z,u01, 140,40,movements,el-ex, rt, d,234873.302914375, 2.0971987317572798, -0.7485610312666893, 2.6710533760045534, 0.09652094542980194, -0.441851943731308, 0.4354904294013977, 0.633480429649353, 0.6805852055549622, 0.3681119978427887, 0.0035434365272521973, 0.001970946788787842, 0.005331665277481079, -0.8270073393311297, 0.010717523567412818, 0.416368158731167,0.37759977606805467,0.63226318359375,0.682586669921875,0.3695831298828125
20220119-1827,2022-01-19 18:27:29Z,u01, 141,40,movements,el-ex, rt, d,234873.32786037502, 2.078988874384188, -0.7405699085876121, 2.6603180115595753, 0.13731923699378967, -0.4505192041397095, 0.4429733455181122, 0.6448090076446533, 0.6747086644172668, 0.3591509759426117, 0.01595759391784668, 0.013188004493713379, -0.003941893577575684, -0.8242535231262114, 0.013476447490522708, 0.4155687916148717,0.3843527573301105,0.6619415283203125,0.685516357421875,0.3544921875
20220119-1827,2022-01-19 18:27:29Z,u01, 142,40,movements,el-ex, rt, d,234873.352806375, 2.0603858832761297, -0.7321153251824503, 2.6497172728083216, 0.08252529799938202, -0.4590321183204651, 0.43760696053504944, 0.6563891768455505, 0.6684444546699524, 0.34976422786712646, 0.011945724487304688, 0.004346013069152832, 0.0004552304744720459, -0.8213514268540385, 0.016246364620847054, 0.41465888163746717,0.39137679285132476,0.6685791015625,0.66851806640625,0.3506927490234375
20220119-1827,2022-01-19 18:27:29Z,u01, 143,40,movements,el-ex, rt, d,234873.377752375, 2.043825245334567, -0.7231080273092784, 2.6419427548440053, 0.0009311037138104439, -0.4425833821296692, 0.4348415434360504, 0.6674240231513977, 0.6617181301116943, 0.3415757417678833, 0.02021324634552002, 0.011102855205535889, 0.02808329463005066, -0.8188083886429444, 0.018458082696688527, 0.41305137578733564,0.398246853032743,0.6886138916015625,0.6719818115234375,0.369659423828125
20220119-1827,2022-01-19 18:27:29Z,u01, 144,40,movements,el-ex, rt, d,234873.40269837502, 2.0287659353064873, -0.7137245722737846, 2.635584175880272, 0.01813189499080181, -0.38929277658462524, 0.41227996349334717, 0.678031861782074, 0.654653787612915, 0.3342171609401703, 0.0083237886428833, 0.01751112937927246, 0.01932862401008606, -0.8165089043096292, 0.020537488544702165, 0.41106932125550094,0.40486219383887023,0.6894378662109375,0.666900634765625,0.3522491455078125
20220119-1827,2022-01-19 18:27:29Z,u01, 145,40,movements,el-ex, rt, d,234873.42764537502, 2.0141411962133065, -0.7051174066237209, 2.6281954777204537, 0.08945334702730179, -0.37840816378593445, 0.3966112732887268, 0.6879116296768188, 0.6481232643127441, 0.3266707956790924, -0.0007320046424865723, 0.020654261112213135, 0.013981372117996216, -0.8141308356527354, 0.02294293560783517, 0.40962673877622213,0.41093858483418694,0.686859130859375,0.668365478515625,0.3388214111328125
20220119-1827,2022-01-19 18:27:29Z,u01, 146,40,movements,el-ex, rt, d,234873.452591375, 1.9995221364694618, -0.6967803882022748, 2.6196103921072877, 0.08697816729545593, -0.38622942566871643, 0.4200994670391083, 0.6975035071372986, 0.6417518854141235, 0.3188147246837616, 0.01686704158782959, 0.004381418228149414, 2.086162567138672e-06, -0.8116295339364893, 0.025784804955777924, 0.40858639778907546,0.41671282059934667,0.722686767578125,0.6381988525390625,0.31591796875
20220119-1827,2022-01-19 18:27:29Z,u01, 147,40,movements,el-ex, rt, d,234873.477537375, 1.9843624743675474, -0.6876615069554625, 2.611530770787231, 0.07888775318861008, -0.39616939425468445, 0.4440460801124573, 0.707585871219635, 0.6347318887710571, 0.31054359674453735, 0.0073187947273254395, -0.00675654411315918, -0.004971295595169067, -0.8089847802964297, 0.028555733929706506, 0.4072310675878615,0.422955011191513,0.7148284912109375,0.6279296875,0.304229736328125
20220119-1827,2022-01-19 18:27:29Z,u01, 148,40,movements,el-ex, rt, d,234873.50248337502, 1.968690069500498, -0.6780103949471403, 2.603363297960539, 0.07292699813842773, -0.4237172603607178, 0.47137928009033203, 0.717979907989502, 0.6272447109222412, 0.30177605152130127, 0.014625072479248047, -0.010331928730010986, -0.007357954978942871, -0.8061635858763128, 0.031437177741621775, 0.40577879290619834,0.42948282227645673,0.735687255859375,0.6139984130859375,0.2947540283203125
20220119-1827,2022-01-19 18:27:29Z,u01, 149,40,movements,el-ex, rt, d,234873.527429375, 1.9531059603884942, -0.6678322465158189, 2.5958036498085613, 0.025213340297341347, -0.42458054423332214, 0.43584755063056946, 0.7284809350967407, 0.6192854046821594, 0.29291731119155884, 0.012745082378387451, -0.004112184047698975, 0.01505047082901001, -0.8032956869862383, 0.03427376189272796, 0.4040761695218362,0.43619214180911214,0.74176025390625,0.6164703369140625,0.308502197265625
20220119-1827,2022-01-19 18:27:29Z,u01, 150,40,movements,el-ex, rt, d,234873.552376375, 1.9397258674708493, -0.6576454456249581, 2.5908224296262676, -0.02670694887638092, -0.40272974967956543, 0.4222055673599243, 0.738180935382843, 0.6112550497055054, 0.2854045033454895, 0.021065831184387207, 0.008419513702392578, 0.021495193243026733, -0.8008532715982364, 0.03655526276116389, 0.4018268368018143,0.44252997794223525,0.7589874267578125,0.6227874755859375,0.3063507080078125
20220119-1827,2022-01-19 18:27:29Z,u01, 151,40,movements,el-ex, rt, d,234873.577322375, 1.928103155514708, -0.6479981543312462, 2.5874084594194, -0.028654253110289574, -0.3684529960155487, 0.4068114459514618, 0.7469379901885986, 0.6035915613174438, 0.2788552939891815, 0.02218109369277954, 0.015121698379516602, 0.015318572521209717, -0.7987179443872395, 0.03843547532904479, 0.39942621590507577,0.44836462434947194,0.7694854736328125,0.61865234375,0.29327392578125
20220119-1827,2022-01-19 18:27:29Z,u01, 152,40,movements,el-ex, rt, d,234873.60226837502, 1.9171299382824578, -0.6386429173549846, 2.583814548482044, -0.014707344584167004, -0.3427312970161438, 0.3823493719100952, 0.7552317976951599, 0.5961064100265503, 0.2725473940372467, 0.010866284370422363, 0.026284396648406982, 0.013508826494216919, -0.7966409151317035, 0.040459170505951575, 0.39718661341024786,0.453838182625724,0.768035888671875,0.621673583984375,0.2827911376953125
20220119-1827,2022-01-19 18:27:29Z,u01, 153,40,movements,el-ex, rt, d,234873.627214375, 1.906252882667336, -0.6298133111502313, 2.579729268027019, 0.037822943180799484, -0.33229759335517883, 0.36222484707832336, 0.7630917429924011, 0.5889939069747925, 0.26603904366493225, 0.007187068462371826, 0.027445852756500244, -0.0023217499256134033, -0.7944857927388245, 0.04256575120812042, 0.39527127064421175,0.45906531130896033,0.7708587646484375,0.6171722412109375,0.2631378173828125
20220119-1827,2022-01-19 18:27:29Z,u01, 154,40,movements,el-ex, rt, d,234873.65215950002, 1.89495771713958, -0.62189373815388, 2.574462677381287, 0.06719247996807098, -0.32706543803215027, 0.34413254261016846, 0.7704458832740784, 0.5825753808021545, 0.25888076424598694, 0.004136145114898682, 0.030522823333740234, 0.003844916820526123, -0.792106547838947, 0.044806221078625225, 0.3939869174610733,0.46404096050885,0.7788848876953125,0.6107635498046875,0.2622222900390625
20220119-1827,2022-01-19 18:27:29Z,u01, 155,40,movements,el-ex, rt, d,234873.67710650002, 1.8832742602566976, -0.6143677185558981, 2.569283446239367, 0.06024658679962158, -0.3665051758289337, 0.3184671998023987, 0.7775678038597107, 0.5764420032501221, 0.2512024939060211, 0.00043201446533203125, 0.022160232067108154, 0.0005061328411102295, -0.789561866543984, 0.04683281686656751, 0.39286389663555565,0.4691019000490577,0.7770538330078125,0.598419189453125,0.25067138671875
20220119-1827,2022-01-19 18:27:29Z,u01, 156,40,movements,el-ex, rt, d,234873.7020525, 1.8717427638442514, -0.607237212936774, 2.5655627497551774, -0.014797160401940346, -0.385722279548645, 0.31153231859207153, 0.7843186259269714, 0.5706007480621338, 0.24343176186084747, -0.00856173038482666, 0.01761031150817871, 0.0024175941944122314, -0.7870144386393473, 0.048209496124187706, 0.3915636227128075,0.4743016358009902,0.7785491943359375,0.5803070068359375,0.24676513671875
20220119-1827,2022-01-19 18:27:29Z,u01, 157,40,movements,el-ex, rt, d,234873.7269985, 1.8613807066854935, -0.5991890588107753, 2.5639904150574444, -0.04444962739944458, -0.3736283779144287, 0.3301980793476105, 0.7911729216575623, 0.5639730095863342, 0.23659971356391907, 0.009592950344085693, 0.009543776512145996, -0.002759113907814026, -0.7847753425695057, 0.0492698894374915, 0.3894332902996753,0.47962659327755713,0.8028564453125,0.575408935546875,0.2323150634765625
20220119-1827,2022-01-19 18:27:29Z,u01, 158,40,movements,el-ex, rt, d,234873.75194450002, 1.8496709585412618, -0.591287286726308, 2.560202880663675, 0.11957120150327682, -0.38381725549697876, 0.34004950523376465, 0.7981487512588501, 0.5574302077293396, 0.22853896021842957, 0.017219960689544678, 0.0373726487159729, -0.014336317777633667, -0.7820980240882905, 0.05091328431011907, 0.38794166359556975,0.4850069803918433,0.8162384033203125,0.5909881591796875,0.216064453125
20220119-1827,2022-01-19 18:27:29Z,u01, 159,40,movements,el-ex, rt, d,234873.7768905, 1.836665102117054, -0.5840905747204769, 2.553653979622211, 0.11364253610372543, -0.3688142001628876, 0.33804163336753845, 0.8049032092094421, 0.551440954208374, 0.2191876471042633, 0.01817101240158081, 0.007045865058898926, 0.001408308744430542, -0.7789516011642542, 0.053181042551744745, 0.3874312614847423,0.49020708516539935,0.823516845703125,0.5555572509765625,0.2205047607421875
20220119-1827,2022-01-19 18:27:29Z,u01, 160,40,movements,el-ex, rt, d,234873.8018375, 1.8246764891689606, -0.5763350896416999, 2.548578398590691, 0.05483754351735115, -0.3577674329280853, 0.3403383195400238, 0.8115884065628052, 0.5449547171592712, 0.21059030294418335, 0.020274877548217773, -0.019091129302978516, 0.01461385190486908, -0.776042360444192, 0.05525765860479684, 0.3863853917268054,0.4953897942640363,0.830841064453125,0.5227203369140625,0.2244110107421875
20220119-1827,2022-01-19 18:27:29Z,u01, 161,40,movements,el-ex, rt, d,234873.8267835, 1.8143706647624216, -0.5683486965712884, 2.5457343707093103, -0.005848272703588009, -0.33828020095825195, 0.3211064040660858, 0.8179135918617249, 0.5382410883903503, 0.2032584249973297, 0.009616374969482422, -0.010622620582580566, -0.0007897317409515381, -0.7735590681374191, 0.056882162327247854, 0.38469372268197666,0.5003814313614623,0.8277130126953125,0.527069091796875,0.20184326171875
20220119-1827,2022-01-19 18:27:29Z,u01, 162,40,movements,el-ex, rt, d,234873.85172950002, 1.8050249828267337, -0.560935749601795, 2.5438958001112737, 0.0021696723997592926, -0.33208388090133667, 0.28662583231925964, 0.8236355781555176, 0.5319787859916687, 0.19652627408504486, 0.005587935447692871, 0.012103676795959473, 0.008887261152267456, -0.7712865537683907, 0.058139415273188305, 0.38293665717996006,0.5050704853368795,0.83050537109375,0.5460357666015625,0.2061920166015625
20220119-1827,2022-01-19 18:27:29Z,u01, 163,40,movements,el-ex, rt, d,234873.8766755, 1.7955871002469355, -0.5540051501841875, 2.541340822754237, 0.034871190786361694, -0.3126179873943329, 0.2938012480735779, 0.8290279507637024, 0.5260975360870361, 0.18956154584884644, 0.006039559841156006, 0.003428161144256592, 0.01119813323020935, -0.7689202565794274, 0.05951818964564484, 0.38154333466096124,0.509552471663937,0.83563232421875,0.5286407470703125,0.1997222900390625
20220119-1827,2022-01-19 18:27:29Z,u01, 164,40,movements,el-ex, rt, d,234873.9016225, 1.7863942406521902, -0.5470171128505995, 2.538053278969873, 0.07889404892921448, -0.2876087427139282, 0.29641035199165344, 0.8343066573143005, 0.5201418995857239, 0.18271459639072418, 0.0052013397216796875, -0.007400870323181152, 0.00786745548248291, -0.7665539372964808, 0.06125651185153119, 0.3803314479325006,0.513800189979971,0.8417816162109375,0.5147247314453125,0.1895599365234375
20220119-1827,2022-01-19 18:27:29Z,u01, 165,40,movements,el-ex, rt, d,234873.92656850003, 1.7763482035324558, -0.5402341345764106, 2.5324530678935253, 0.18961556255817413, -0.27990010380744934, 0.3205094337463379, 0.8395347595214844, 0.5143368244171143, 0.17504015564918518, 0.011081695556640625, 0.022208034992218018, -0.02080462872982025, -0.7638502486425907, 0.0636622176345438, 0.3798363242370096,0.5178844458774616,0.850555419921875,0.53643798828125,0.15350341796875
20220119-1827,2022-01-19 18:27:29Z,u01, 166,40,movements,el-ex, rt, d,234873.95151450002, 1.7653772597688835, -0.5333033792642885, 2.524973053941552, 0.15774224698543549, -0.2945457696914673, 0.3134596645832062, 0.8448817729949951, 0.5083807706832886, 0.16650459170341492, 0.015683412551879883, 0.009502530097961426, 0.0009145736694335938, -0.7607947442430144, 0.06666070987979791, 0.3798474776816524,0.5219804338547982,0.863037109375,0.5091552734375,0.1740875244140625
20220119-1827,2022-01-19 18:27:29Z,u01, 167,40,movements,el-ex, rt, d,234873.9764605, 1.756015916362376, -0.5263962434826073, 2.5213007900228086, -0.022601787000894547, -0.309753954410553, 0.28163331747055054, 0.849834680557251, 0.5024207234382629, 0.15923108160495758, 0.010165989398956299, -0.01493293046951294, 0.031900301575660706, -0.758235701885342, 0.06851394772774358, 0.3788535873436567,0.5261695988552003,0.858856201171875,0.4873199462890625,0.1899261474609375
20220119-1827,2022-01-19 18:27:29Z,u01, 168,40,movements,el-ex, rt, d,234874.00140650003, 1.7484729466090332, -0.5190465039604333, 2.5212682335675045, -0.02518535405397415, -0.2894982695579529, 0.29271814227104187, 0.8546229004859924, 0.49605244398117065, 0.15346482396125793, -0.0026180148124694824, 0.000972062349319458, -0.0098952054977417, -0.7562432186461442, 0.06948819479180124, 0.3767106668301917,0.5304305618894805,0.8525848388671875,0.5077667236328125,0.128082275390625
20220119-1827,2022-01-19 18:27:29Z,u01, 169,40,movements,el-ex, rt, d,234874.02635350003, 1.7396765842581698, -0.5121580156247977, 2.517418372500349, 0.183076411485672, -0.26315420866012573, 0.2906801104545593, 0.8592877984046936, 0.490059494972229, 0.14651226997375488, 0.005748093128204346, 0.026435166597366333, -0.009397044777870178, -0.7537501630276721, 0.07153201109116228, 0.3757910207785431,0.5343452547267767,0.867095947265625,0.5157470703125,0.1377105712890625
20220119-1827,2022-01-19 18:27:29Z,u01, 170,40,movements,el-ex, rt, d,234874.05129950002, 1.7300649146482838, -0.5059612857082136, 2.5115667631831866, 0.07328050583600998, -0.28321373462677, 0.2593308985233307, 0.8636382222175598, 0.4846484959125519, 0.1387254297733307, 0.02262270450592041, 0.0021983981132507324, 0.017066597938537598, -0.7509282522529673, 0.07395587453269487, 0.3756896707368109,0.5380469557137351,0.889923095703125,0.4780120849609375,0.161956787109375
20220119-1827,2022-01-19 18:27:29Z,u01, 171,40,movements,el-ex, rt, d,234874.0762455, 1.7227845758747247, -0.49938594014071236, 2.5112124998702114, -0.09231209009885788, -0.2754765450954437, 0.2595851421356201, 0.8677566647529602, 0.47888657450675964, 0.13291385769844055, 0.00721287727355957, -0.030232340097427368, 0.0064748674631118774, -0.7488986462401374, 0.07488487510743902, 0.37392017560849533,0.5419656939299744,0.8735504150390625,0.4500732421875,0.1381072998046875
20220119-1827,2022-01-19 18:27:29Z,u01, 172,40,movements,el-ex, rt, d,234874.10119150003, 1.716414122360967, -0.49276967739336647, 2.5113543648651175, 0.06142321228981018, -0.2388230413198471, 0.2687374949455261, 0.8717015385627747, 0.47306784987449646, 0.12784013152122498, -0.009427428245544434, 0.028702139854431152, -0.005022406578063965, -0.7471082512352244, 0.07582432529971962, 0.37197566242113944,0.545631732773802,0.86572265625,0.5068511962890625,0.116607666015625
20220119-1827,2022-01-19 18:27:29Z,u01, 173,40,movements,el-ex, rt, d,234874.12613750002, 1.7084772672751023, -0.4869749455426918, 2.506448704955573, 0.1522780805826187, -0.21640175580978394, 0.24327810108661652, 0.8753893971443176, 0.4679546356201172, 0.12129180878400803, 0.006065011024475098, 0.021654099225997925, 0.0151214599609375, -0.7446792979622309, 0.07809383779936678, 0.3717485867011451,0.5487777370317244,0.8837127685546875,0.487213134765625,0.136016845703125
20220119-1827,2022-01-19 18:27:29Z,u01, 174,40,movements,el-ex, rt, d,234874.15108450002, 1.7010667699890945, -0.4816003206758678, 2.502855874520539, 0.03820660337805748, -0.23298320174217224, 0.21176163852214813, 0.8787452578544617, 0.46319806575775146, 0.11512652039527893, 0.01047581434249878, 0.0008369088172912598, 0.020737402141094208, -0.7424213908923236, 0.07983568580046844, 0.37129722087190853,0.5518831427893767,0.8873138427734375,0.456024169921875,0.13311767578125
20220119-1827,2022-01-19 18:27:29Z,u01, 175,40,movements,el-ex, rt, d,234874.1760305, 1.69556438417389, -0.4765288473678167, 2.5029714290452563, -0.0846807062625885, -0.20960597693920135, 0.19206225872039795, 0.8816848993301392, 0.45869749784469604, 0.11058051139116287, 1.3589859008789062e-05, -0.0019104182720184326, 0.018584847450256348, -0.7408214509967603, 0.08046014025787385, 0.3698547172897688,0.5549027838783982,0.881103515625,0.4582977294921875,0.1298980712890625
20220119-1827,2022-01-19 18:27:29Z,u01, 176,40,movements,el-ex, rt, d,234874.20097650003, 1.6914097141080464, -0.47177547184653085, 2.5040050694549456, -0.010748721659183502, -0.16111333668231964, 0.17543712258338928, 0.8842912316322327, 0.4544685184955597, 0.10717759281396866, -0.010374784469604492, 0.034682393074035645, 0.026962146162986755, -0.7396247394497628, 0.08089524679401594, 0.3682075267575271,0.5575251360989774,0.87335205078125,0.4927520751953125,0.1287841796875
20220119-1827,2022-01-19 18:27:29Z,u01, 177,40,movements,el-ex, rt, d,234874.22592250002, 1.687310885781521, -0.4680072869253047, 2.5024577591674824, 0.0652356892824173, -0.10939761251211166, 0.1360011100769043, 0.8864178657531738, 0.45110875368118286, 0.10375050455331802, -0.0016217231750488281, 0.047762125730514526, 0.04136039316654205, -0.7383467979968312, 0.08197109074203536, 0.3675969681445399,0.5594615147208556,0.8857574462890625,0.4993743896484375,0.1454010009765625
20220119-1827,2022-01-19 18:27:29Z,u01, 178,40,movements,el-ex, rt, d,234874.2508695, 1.6843761700505402, -0.4654517211613218, 2.5004180976450243, 0.042702753096818924, -0.05234324932098389, 0.08091375231742859, 0.8878607749938965, 0.44882652163505554, 0.10127897560596466, -0.0032785534858703613, 0.04732814431190491, 0.05562685430049896, -0.7373900355886213, 0.08303868689339373, 0.36747000661923357,0.5606478871721826,0.884307861328125,0.4901885986328125,0.1539306640625
20220119-1827,2022-01-19 18:27:29Z,u01, 179,40,movements,el-ex, rt, d,234874.2758155, 1.686294982307023, -0.465498600485726, 2.5012981625458974, -0.0337250791490078, 0.0020104683935642242, 0.002572811208665371, 0.8876439929008484, 0.44886839389801025, 0.10298001021146774, -0.0018256902694702148, 0.03932121396064758, 0.04013191908597946, -0.7379651522801158, 0.0830508327272936, 0.3671587977545363,0.5600930633824669,0.886688232421875,0.4892425537109375,0.1423187255859375
20220119-1827,2022-01-19 18:27:30Z,u01, 180,40,movements,el-ex, rt, d,234874.30076150002, 1.6888799539323047, -0.4675765673997288, 2.5032216470113022, -0.027063246816396713, 0.027564965188503265, -0.04043097794055939, 0.8864468336105347, 0.4507243037223816, 0.10516410320997238, -0.0024442076683044434, 0.05168655514717102, 0.040496110916137695, -0.7388086215127077, 0.08212108314757324, 0.3671807391129652,0.5591030096486573,0.881927490234375,0.5050201416015625,0.1495361328125
20220119-1827,2022-01-19 18:27:30Z,u01, 181,40,movements,el-ex, rt, d,234874.32570750001, 1.6936461741744506, -0.4701490365523475, 2.5050073214940145, 0.008604302071034908, 0.07706347107887268, -0.07410778850317001, 0.8847818374633789, 0.4530191421508789, 0.10924544930458069, -0.015793919563293457, 0.04670614004135132, 0.04788923263549805, -0.7402594605537021, 0.08147794288883066, 0.36731448511716625,0.5571869231159434,0.8679046630859375,0.4993133544921875,0.157073974609375
20220119-1827,2022-01-19 18:27:30Z,u01, 182,40,movements,el-ex, rt, d,234874.3506535, 1.6981805533551464, -0.47293709649579474, 2.506062932398174, -0.0017956406809389591, 0.1427265703678131, -0.12033473700284958, 0.8830211758613586, 0.4555029571056366, 0.11309535056352615, -0.015986323356628418, 0.045656681060791016, 0.036104798316955566, -0.7416117326194355, 0.08099206614045458, 0.3677349287396888,0.5551786075442493,0.87164306640625,0.503814697265625,0.1489715576171875
20220119-1827,2022-01-19 18:27:30Z,u01, 183,40,movements,el-ex, rt, d,234874.3756005, 1.7042370777533131, -0.4779379429677525, 2.5076935838541385, -0.04725726321339607, 0.19617435336112976, -0.21308518946170807, 0.8800512552261353, 0.45994916558265686, 0.11813673377037048, -0.006638288497924805, 0.04003554582595825, 0.04922139644622803, -0.7434337955486097, 0.07984083812099409, 0.3686541808521331,0.5522912518700718,0.873931884765625,0.5014190673828125,0.167755126953125
20220119-1827,2022-01-19 18:27:30Z,u01, 184,40,movements,el-ex, rt, d,234874.40054650002, 1.7123904385432525, -0.4842722557625793, 2.5115392076378202, -0.11505641788244247, 0.24459248781204224, -0.26198989152908325, 0.8761569261550903, 0.46556442975997925, 0.12489444762468338, 0.004061460494995117, 0.04272109270095825, 0.03927457332611084, -0.7459168146789896, 0.07781598681585905, 0.3693247364000387,0.5487731149824276,0.880157470703125,0.5074310302734375,0.16131591796875
20220119-1827,2022-01-19 18:27:30Z,u01, 185,40,movements,el-ex, rt, d,234874.4254925, 1.7223073816219312, -0.49179592000349354, 2.5163033511160737, -0.08691965788602829, 0.29661744832992554, -0.3017105162143707, 0.8713878393173218, 0.47220972180366516, 0.13304449617862701, -0.0010266900062561035, 0.033527523279190063, 0.022625431418418884, -0.7488918226393987, 0.07538756128670468, 0.3700876809039902,0.5445298056295246,0.8695831298828125,0.5052490234375,0.1557769775390625
20220119-1827,2022-01-19 18:27:30Z,u01, 186,40,movements,el-ex, rt, d,234874.4504385, 1.732336651324548, -0.49973912022405137, 2.5197533806484507, -0.0589589923620224, 0.342939168214798, -0.3375289738178253, 0.8662803173065186, 0.47919657826423645, 0.14116929471492767, 0.0077735185623168945, 0.023900926113128662, 0.02298450469970703, -0.7518013451561308, 0.07334430358157534, 0.3713711549184421,0.5399062028137664,0.8767547607421875,0.49786376953125,0.16778564453125
20220119-1827,2022-01-19 18:27:30Z,u01, 187,40,movements,el-ex, rt, d,234874.47538450002, 1.743484232602226, -0.5082144252447535, 2.5243531389025082, -0.1654752492904663, 0.37500959634780884, -0.3970888555049896, 0.8606210947036743, 0.48661813139915466, 0.1501140147447586, 0.014775693416595459, 0.015106141567230225, 0.032197728753089905, -0.7550020037325986, 0.07091531839715473, 0.37250991360731434,0.5349573629090579,0.875396728515625,0.502685546875,0.183685302734375
20220119-1827,2022-01-19 18:27:30Z,u01, 188,40,movements,el-ex, rt, d,234874.50033150002, 1.7574509582312081, -0.5175295073087485, 2.5325466229285962, -0.25280818343162537, 0.4277026057243347, -0.43997296690940857, 0.8539491891860962, 0.49473467469215393, 0.16127082705497742, 0.011117279529571533, 0.01904398202896118, 0.029906272888183594, -0.7590085050052062, 0.06739066302439442, 0.37291562371789444,0.5294322249410074,0.8647308349609375,0.51519775390625,0.1914215087890625
20220119-1827,2022-01-19 18:27:30Z,u01, 189,40,movements,el-ex, rt, d,234874.5252775, 1.7733851261624978, -0.5274445529285446, 2.5423502870248504, -0.24669115245342255, 0.4550253450870514, -0.4703865051269531, 0.8464242815971375, 0.5033268332481384, 0.17386116087436676, 0.019893348217010498, 0.013762891292572021, 0.005810841917991638, -0.7634833726575618, 0.06343281517702551, 0.37310438292761927,0.5233186475900681,0.866363525390625,0.51806640625,0.1790771484375
20220119-1827,2022-01-19 18:27:30Z,u01, 190,40,movements,el-ex, rt, d,234874.5502235, 1.7892523876784487, -0.5380703647174534, 2.551164077796341, -0.15888622403144836, 0.46952247619628906, -0.49160635471343994, 0.8382903933525085, 0.5124799609184265, 0.18609948456287384, 0.014416337013244629, 0.024095237255096436, -0.005176320672035217, -0.7677858126571875, 0.05962120513573069, 0.37387650725006216,0.5168814116422837,0.84808349609375,0.5496063232421875,0.1828460693359375
20220119-1827,2022-01-19 18:27:30Z,u01, 191,40,movements,el-ex, rt, d,234874.57516950002, 1.804357241678948, -0.5498069656343255, 2.556789620774557, -0.023058883845806122, 0.5123717188835144, -0.5294932723045349, 0.8294752836227417, 0.5225226283073425, 0.19733436405658722, 0.0202866792678833, 0.053344011306762695, 0.008796334266662598, -0.7716657846905229, 0.05656055735718235, 0.37594213503839596,0.5099022649116094,0.850555419921875,0.5777740478515625,0.206329345703125
20220119-1827,2022-01-19 18:27:30Z,u01, 192,40,movements,el-ex, rt, d,234874.6001155, 1.8193335488506375, -0.5632518126485635, 2.560106955188034, 0.04834848642349243, 0.5568055510520935, -0.5720707774162292, 0.8195431232452393, 0.5339385271072388, 0.2079872190952301, 0.03580349683761597, 0.05138862133026123, 0.004109621047973633, -0.7753011587326214, 0.05386765307598915, 0.3792341459662665,0.5021830635894541,0.8515472412109375,0.5811309814453125,0.2132568359375
20220119-1827,2022-01-19 18:27:30Z,u01, 193,40,movements,el-ex, rt, d,234874.6250625, 1.8353619834721628, -0.5778165242042642, 2.563059743268539, 0.034210797399282455, 0.5991411805152893, -0.6114190220832825, 0.8085118532180786, 0.5461962223052979, 0.21903902292251587, 0.01791936159133911, 0.029105842113494873, 0.003571152687072754, -0.7790352957703031, 0.051220311048674194, 0.38302168017435684,0.4937355791422095,0.825469970703125,0.5749359130859375,0.2231292724609375
20220119-1827,2022-01-19 18:27:30Z,u01, 194,40,movements,el-ex, rt, d,234874.650009, 1.8529421427689845, -0.5927088767421193, 2.5679959293904284, -0.04852483049035072, 0.5978873372077942, -0.6305626034736633, 0.7966348528862, 0.5586099028587341, 0.2309277206659317, 0.020732581615447998, 0.016875267028808594, -0.004746928811073303, -0.7830416812635579, 0.04805818036272591, 0.38645620108994494,0.48496147556974656,0.81353759765625,0.5823211669921875,0.231048583984375
20220119-1827,2022-01-19 18:27:30Z,u01, 195,40,movements,el-ex, rt, d,234874.67495500002, 1.872260960490739, -0.6072230607412383, 2.5762100937592907, -0.1178690493106842, 0.5806199312210083, -0.6471222639083862, 0.784200131893158, 0.5705891251564026, 0.2438405603170395, 0.030069947242736816, 0.03872483968734741, 0.0058387815952301025, -0.7873838592985946, 0.04412414428085801, 0.3890167704747126,0.4761781940018461,0.8140716552734375,0.6091461181640625,0.24920654296875
20220119-1827,2022-01-19 18:27:30Z,u01, 196,40,movements,el-ex, rt, d,234874.699901, 1.8921053899444242, -0.622194435760073, 2.585342929847701, -0.07353384047746658, 0.5972493886947632, -0.6833248138427734, 0.7710146307945251, 0.5828197598457336, 0.2566267251968384, 0.04507112503051758, 0.025029301643371582, -0.01697242259979248, -0.7916599972737454, 0.03984729754482966, 0.3916182394860541,0.4672490609082897,0.813751220703125,0.6074066162109375,0.2392730712890625
20220119-1827,2022-01-19 18:27:30Z,u01, 197,40,movements,el-ex, rt, d,234874.724847, 1.9122872234522257, -0.6383433241006334, 2.5942329024756456, -0.05785807594656944, 0.6020023822784424, -0.7269713282585144, 0.7567107677459717, 0.595865786075592, 0.2689465284347534, 0.040957510471343994, 0.023625671863555908, -0.007441669702529907, -0.7957494125661864, 0.035441994867377785, 0.3947993060675617,0.4578865009652553,0.797210693359375,0.61822509765625,0.26251220703125
20220119-1827,2022-01-19 18:27:30Z,u01, 198,40,movements,el-ex, rt, d,234874.749794, 1.9332931412228893, -0.6550231433544038, 2.604172801803824, -0.09060913324356079, 0.6052066087722778, -0.745072603225708, 0.7414979934692383, 0.6091775894165039, 0.28121763467788696, 0.03854656219482422, 0.01066499948501587, -0.010618537664413452, -0.7997915166010529, 0.030697737542378672, 0.39804118249953,0.44827937316913147,0.7785186767578125,0.6210174560546875,0.2730560302734375
20220119-1827,2022-01-19 18:27:30Z,u01, 199,40,movements,el-ex, rt, d,234874.77474000002, 1.9558179404974367, -0.6711594611876454, 2.616369545431633, -0.15635578334331512, 0.6003556847572327, -0.7468484044075012, 0.7257705330848694, 0.621894359588623, 0.29411646723747253, 0.045393407344818115, -0.004294872283935547, -0.010059088468551636, -0.8039922162914315, 0.02558816986317472, 0.40071306619243396,0.43860096811791144,0.76995849609375,0.6180572509765625,0.2837677001953125
20220119-1827,2022-01-19 18:27:30Z,u01, 200,40,movements,el-ex, rt, d,234874.799686, 1.9798361675873726, -0.6867428515063099, 2.630859555141909, -0.1771296113729477, 0.5969026684761047, -0.749627947807312, 0.7095192074775696, 0.6340217590332031, 0.30756959319114685, 0.05108577013015747, -0.0018346905708312988, -0.020857155323028564, -0.8083200746295551, 0.020086143799502965, 0.40284204715499716,0.42887475212911996,0.75732421875,0.637939453125,0.2859039306640625
20220119-1827,2022-01-19 18:27:30Z,u01, 201,40,movements,el-ex, rt, d,234874.824632, 2.0042751445852445, -0.7021769420404147, 2.6455742947881244, -0.14987681806087494, 0.6058743000030518, -0.7596102356910706, 0.6928273439407349, 0.645881175994873, 0.320667028427124, 0.056409597396850586, -0.0032421350479125977, -0.021793395280838013, -0.8124762902402051, 0.01468989819014066, 0.4050534260766597,0.41904420438705314,0.7482757568359375,0.6438140869140625,0.29852294921875
20220119-1827,2022-01-19 18:27:30Z,u01, 202,40,movements,el-ex, rt, d,234874.84957800002, 2.028529088110318, -0.7177511667483878, 2.6598802108052344, -0.08530721068382263, 0.5962883830070496, -0.7421584129333496, 0.6757407784461975, 0.6576923131942749, 0.3328889310359955, 0.05835956335067749, -0.009605824947357178, -0.025912880897521973, -0.8163056961135415, 0.009458935380437683, 0.4075881842623239,0.40917885124557857,0.7278900146484375,0.651092529296875,0.3096466064453125
20220119-1827,2022-01-19 18:27:30Z,u01, 203,40,movements,el-ex, rt, d,234874.87452500002, 2.0514009609273893, -0.7335635280159523, 2.6720119388098964, -0.011773639358580112, 0.5919380784034729, -0.7292777895927429, 0.6586464047431946, 0.6695208549499512, 0.3434047996997833, 0.047545671463012695, -0.014216840267181396, -0.02907392382621765, -0.8195601497574047, 0.0048540043953095025, 0.4108290191122958,0.3993959927458245,0.7057647705078125,0.6548309326171875,0.3137054443359375
20220119-1827,2022-01-19 18:27:30Z,u01, 204,40,movements,el-ex, rt, d,234874.899471, 2.0741574460292953, -0.7489124713944835, 2.684369462725856, -0.08046574890613556, 0.5711401104927063, -0.6972112059593201, 0.6415836215019226, 0.6808426380157471, 0.3533039093017578, 0.05217248201370239, -0.03693699836730957, -0.029787421226501465, -0.8225884996573892, 0.00034948246509480807, 0.4140071756049786,0.38980259695712294,0.6898040771484375,0.6458740234375,0.333953857421875
20220119-1827,2022-01-19 18:27:30Z,u01, 205,40,movements,el-ex, rt, d,234874.924417, 2.098621926668973, -0.7624453734418898, 2.6993797578354943, -0.1302822381258011, 0.5806160569190979, -0.6915394067764282, 0.6247313022613525, 0.6906918883323669, 0.36421826481819153, 0.04560244083404541, -0.028231680393218994, -0.02319997549057007, -0.8258876493566023, -0.00432701137758576, 0.41615824016024217,0.38039844498038444,0.6704254150390625,0.6644134521484375,0.3418121337890625
20220119-1827,2022-01-19 18:27:30Z,u01, 206,40,movements,el-ex, rt, d,234874.94936300002, 2.123269543152126, -0.7757655056271314, 2.71474732341486, -0.08596188575029373, 0.5344336628913879, -0.689328134059906, 0.6076797842979431, 0.7002627849578857, 0.37464264035224915, 0.07795858383178711, -0.014197170734405518, -0.04032281041145325, -0.8289997814320573, -0.008982674963730203, 0.41833351175146727,0.37104670992054617,0.6815643310546875,0.68939208984375,0.3338470458984375
20220119-1827,2022-01-19 18:27:30Z,u01, 207,40,movements,el-ex, rt, d,234874.974309, 2.1480261033945833, -0.788705963919664, 2.7314344979639635, -0.1957297921180725, 0.5236029028892517, -0.6878228783607483, 0.5905761122703552, 0.7094419002532959, 0.38459277153015137, 0.04791259765625, -0.019775211811065674, -0.011775076389312744, -0.8319258613694097, -0.013990984890197095, 0.42029708258649645,0.3620135337362635,0.6370391845703125,0.6896209716796875,0.37554931640625
20220119-1827,2022-01-19 18:27:30Z,u01, 208,40,movements,el-ex, rt, d,234874.999256, 2.1758096071678272, -0.7999699783032067, 2.751675232551688, -0.23466047644615173, 0.5473924875259399, -0.6998317241668701, 0.5730547904968262, 0.7173351645469666, 0.3962799608707428, 0.04605519771575928, -0.008778214454650879, 0.0014705061912536621, -0.8353233982561998, -0.019359782120111968, 0.4211996556658,0.3527756341400699,0.617462158203125,0.7227935791015625,0.4011993408203125
20220119-1827,2022-01-19 18:27:30Z,u01, 209,40,movements,el-ex, rt, d,234875.024202, 2.204689394448143, -0.8110963878405386, 2.7723730705872214, -0.18527771532535553, 0.5768537521362305, -0.7071553468704224, 0.5549077391624451, 0.7250427007675171, 0.4079095423221588, 0.05260568857192993, 0.02666616439819336, -0.019253164529800415, -0.8386594072007185, -0.024600220204029938, 0.4221954660777848,0.34321436655420434,0.6064910888671875,0.7532196044921875,0.3890838623046875
20220119-1827,2022-01-19 18:27:30Z,u01, 210,40,movements,el-ex, rt, d,234875.04914800002, 2.233673109277744, -0.823287343816001, 2.7917651828206154, -0.06811560690402985, 0.6085007786750793, -0.7196696996688843, 0.5358465313911438, 0.7333845496177673, 0.4183486998081207, 0.05201369524002075, 0.028135955333709717, -0.01641717553138733, -0.8416097289005511, -0.02945182044023706, 0.42404377541573146,0.33318546552453465,0.5794219970703125,0.7628173828125,0.4104766845703125
20220119-1827,2022-01-19 18:27:30Z,u01, 211,40,movements,el-ex, rt, d,234875.074094, 2.261986139641343, -0.836959124084405, 2.809361702800654, -0.004780744668096304, 0.6163123250007629, -0.7251803874969482, 0.5160139799118042, 0.7426100373268127, 0.4269181787967682, 0.04236602783203125, 0.01462244987487793, -0.007057756185531616, -0.843983331657472, -0.033929692424571695, 0.42696370617066015,0.3228662656917654,0.5571136474609375,0.756256103515625,0.419921875
20220119-1827,2022-01-19 18:27:30Z,u01, 212,40,movements,el-ex, rt, d,234875.099041, 2.2909298184421534, -0.8501830421957022, 2.8276498398908214, -0.07817493379116058, 0.5910274386405945, -0.7243103384971619, 0.4960176646709442, 0.7514011859893799, 0.43515831232070923, 0.05108630657196045, -0.009991765022277832, -0.00237351655960083, -0.846231932163798, -0.03834942737573338, 0.4298046314185784,0.3125521234866554,0.54193115234375,0.739044189453125,0.4354400634765625
20220119-1827,2022-01-19 18:27:30Z,u01, 213,40,movements,el-ex, rt, d,234875.12398700003, 2.322469498402175, -0.8611160311542039, 2.8495338567385797, -0.18278160691261292, 0.5951077342033386, -0.731117308139801, 0.47601795196533203, 0.7585702538490295, 0.44494664669036865, 0.038966089487075806, -0.016596496105194092, 0.005309373140335083, -0.8488888678515968, -0.04313945226547056, 0.4314392324496254,0.3023022639036748,0.5145721435546875,0.7418365478515625,0.450439453125
20220119-1827,2022-01-19 18:27:30Z,u01, 214,40,movements,el-ex, rt, d,234875.14893300002, 2.3562005374267954, -0.8693702632730793, 2.8746225517894284, -0.3033594787120819, 0.5748164653778076, -0.6730133891105652, 0.45629847049713135, 0.7639226913452148, 0.45630398392677307, 0.06657445430755615, -0.03765028715133667, -0.007619678974151611, -0.8519558871367693, -0.04819915959640553, 0.4318021908459626,0.2922237403625117,0.5161590576171875,0.726409912109375,0.4497222900390625
20220119-1827,2022-01-19 18:27:30Z,u01, 215,40,movements,el-ex, rt, d,234875.173879, 2.389628629534459, -0.8745225163489583, 2.900065000127702, -0.2561250329017639, 0.5265594124794006, -0.5456382036209106, 0.43809887766838074, 0.7672373652458191, 0.46841880679130554, 0.050090909004211426, -0.053202271461486816, -0.038670480251312256, -0.8552291872413137, -0.05284360400308971, 0.4310848123875462,0.2827657417996378,0.4847564697265625,0.7151641845703125,0.4289093017578125
20220119-1827,2022-01-19 18:27:30Z,u01, 216,40,movements,el-ex, rt, d,234875.19882500003, 2.417690765966817, -0.880896115510584, 2.918744864352724, -0.020407475531101227, 0.569586455821991, -0.5093747973442078, 0.42153578996658325, 0.7713095545768738, 0.4768531024456024, 0.014819830656051636, -0.04259556531906128, -0.046158790588378906, -0.8574929396630432, -0.0559679113249148, 0.4318642123346819,0.27398292806252833,0.4322509765625,0.7319488525390625,0.4298095703125
20220119-1827,2022-01-19 18:27:30Z,u01, 217,40,movements,el-ex, rt, d,234875.22377200003, 2.4440128529558547, -0.8888516300548216, 2.934745793026543, -0.07628488540649414, 0.5493039488792419, -0.5243567228317261, 0.4048851728439331, 0.7763484120368958, 0.48306453227996826, 0.057349443435668945, -0.0161401629447937, -0.009660720825195312, -0.8591296464170973, -0.058553548750961915, 0.43374814787068666,0.2651987136757532,0.4657440185546875,0.7574920654296875,0.472991943359375
20220119-1827,2022-01-19 18:27:30Z,u01, 218,40,movements,el-ex, rt, d,234875.24871800002, 2.473317344932327, -0.8934938801939055, 2.955353312838077, -0.2839062511920929, 0.5265672206878662, -0.5050956606864929, 0.38831984996795654, 0.7792661190032959, 0.49188607931137085, 0.09192007780075073, -0.0348355770111084, -0.020740747451782227, -0.8614623193026331, -0.06185233783451316, 0.4338735325685175,0.25653590588789915,0.471160888671875,0.747528076171875,0.4709014892578125
20220119-1827,2022-01-19 18:27:30Z,u01, 219,40,movements,el-ex, rt, d,234875.273664, 2.5037477449584746, -0.8960844205544508, 2.9782218078215448, -0.19996076822280884, 0.4966506361961365, -0.5128214955329895, 0.37197092175483704, 0.7808869481086731, 0.5018499493598938, 0.0600208044052124, -0.011096179485321045, -0.034412384033203125, -0.8640770872523713, -0.06554213557528027, 0.43304375615352175,0.24808905388374122,0.42889404296875,0.77008056640625,0.4664154052734375
20220119-1827,2022-01-19 18:27:31Z,u01, 220,40,movements,el-ex, rt, d,234875.29861000003, 2.530910626270678, -0.9012585026848752, 2.9962490074305212, 0.003223719075322151, 0.534611165523529, -0.48610666394233704, 0.3558818995952606, 0.784108579158783, 0.5084502696990967, 0.053969234228134155, 0.008997619152069092, -0.029110968112945557, -0.8657756559291959, -0.06824696783724785, 0.43393824663222014,0.23973406967776967,0.4079742431640625,0.7960662841796875,0.4815673828125
20220119-1827,2022-01-19 18:27:31Z,u01, 221,40,movements,el-ex, rt, d,234875.32355600002, 2.5563888137489763, -0.9094267253825039, 3.0119454696970567, 0.05042868107557297, 0.5334463715553284, -0.4911940395832062, 0.33926424384117126, 0.7891517877578735, 0.5119953155517578, 0.06794711947441101, -0.015683650970458984, -0.012834727764129639, -0.8666022635959777, -0.07069777809651209, 0.4364401596560782,0.23134888700284162,0.4072418212890625,0.772308349609375,0.499664306640625
20220119-1827,2022-01-19 18:27:31Z,u01, 222,40,movements,el-ex, rt, d,234875.34850300002, 2.582884509030089, -0.9158940320599207, 3.0288617129307047, -0.08549416810274124, 0.5320894718170166, -0.5139191150665283, 0.32286885380744934, 0.7931074500083923, 0.5164651274681091, 0.056357890367507935, -0.013825774192810059, -0.004731357097625732, -0.8676884618487868, -0.07313883385281286, 0.4382269790222333,0.22298998990256122,0.3745269775390625,0.7875823974609375,0.5194244384765625
20220119-1827,2022-01-19 18:27:31Z,u01, 223,40,movements,el-ex, rt, d,234875.373449, 2.6112455918181716, -0.9199209992993238, 3.048456706180443, -0.11652684956789017, 0.5082936882972717, -0.4794829785823822, 0.30647557973861694, 0.7955537438392639, 0.5226539969444275, 0.05808752775192261, -0.00026553869247436523, -0.009882450103759766, -0.8692280335629726, -0.07595798233739018, 0.4388642273524515,0.21464221170720738,0.359527587890625,0.7975006103515625,0.5135955810546875
20220119-1827,2022-01-19 18:27:31Z,u01, 224,40,movements,el-ex, rt, d,234875.39839500003, 2.6399718407384243, -0.924280686097883, 3.0681315934825584, -0.05704657733440399, 0.5052854418754578, -0.512428343296051, 0.2896665036678314, 0.7981876730918884, 0.5281943678855896, 0.029440611600875854, 0.02874702215194702, -0.009746849536895752, -0.8705726884459506, -0.07874251601663362, 0.43978129190060644,0.20614330761131971,0.32452392578125,0.816802978515625,0.515594482421875
20220119-1827,2022-01-19 18:27:31Z,u01, 225,40,movements,el-ex, rt, d,234875.42334100002, 2.66866381362731, -0.9284835853331704, 3.0876053725648944, -0.11365243792533875, 0.5266938805580139, -0.5030017495155334, 0.27286386489868164, 0.8007124662399292, 0.5332955718040466, 0.02736806869506836, 0.00511932373046875, 0.01962149143218994, -0.8717931062316226, -0.08139145900795355, 0.44078051209186464,0.19764746897708435,0.2991180419921875,0.803924560546875,0.55218505859375
20220119-1827,2022-01-19 18:27:31Z,u01, 226,40,movements,el-ex, rt, d,234875.448287, 2.700203796943865, -0.9304667522886677, 3.109996908999029, -0.2067716270685196, 0.5457956194877625, -0.49878525733947754, 0.25523215532302856, 0.8018988966941833, 0.5401986837387085, 0.0476091206073761, 0.002071559429168701, 0.017692863941192627, -0.8734829685427298, -0.08442060208396446, 0.440786106254608,0.1887014542644717,0.300079345703125,0.8060455322265625,0.551666259765625
20220119-1827,2022-01-19 18:27:31Z,u01, 227,40,movements,el-ex, rt, d,234875.473234, 2.730851336377643, -0.9316178248173508, 3.1307478882239366, -0.10038209706544876, 0.5629806518554688, -0.4811149537563324, 0.23819048702716827, 0.8025860786437988, 0.5469195246696472, 0.031050920486450195, -0.0024913549423217773, -0.005522668361663818, -0.8751667411023465, -0.0868501106415919, 0.44068858252573856,0.17981612574578848,0.2679595947265625,0.798980712890625,0.5423126220703125
20220119-1827,2022-01-19 18:27:31Z,u01, 228,40,movements,el-ex, rt, d,234875.49818000002, 2.7602563409403293, -0.9352375504167166, -3.1338104793061152, 0.019604723900556564, 0.594731867313385, -0.4159509539604187, 0.2209249883890152, 0.8047401309013367, 0.5509859323501587, 0.024070218205451965, -0.007208883762359619, 0.004235446453094482, -0.8761284974087219, -0.0888359059125382, 0.44193159137240423,0.1708903325657033,0.2402801513671875,0.795928955078125,0.5542449951171875
20220119-1827,2022-01-19 18:27:31Z,u01, 229,40,movements,el-ex, rt, d,234875.52312600001, 2.788835102281544, -0.9400204787652423, -3.116468049156577, 0.004737526178359985, 0.570435643196106, -0.44917619228363037, 0.203758105635643, 0.8075701594352722, 0.5534549355506897, 0.04703536629676819, -0.03163033723831177, -0.001667022705078125, -0.8766638508076264, -0.0904873544908946, 0.44386871722830373,0.16202739451523201,0.25274658203125,0.773529052734375,0.5502471923828125
20220119-1827,2022-01-19 18:27:31Z,u01, 230,40,movements,el-ex, rt, d,234875.548072, 2.817108362786423, -0.9421731288613183, -3.0987505663662165, -0.11669742316007614, 0.541286826133728, -0.41918233036994934, 0.18747618794441223, 0.808837890625, 0.5573450922966003, 0.04523564875125885, -0.037170469760894775, -0.007723867893218994, -0.8776015683326567, -0.0921305843513654, 0.4447088147848022,0.1534971883675506,0.234588623046875,0.78155517578125,0.548583984375
20220119-1827,2022-01-19 18:27:31Z,u01, 231,40,movements,el-ex, rt, d,234875.57301800002, 2.8450915957157297, -0.9426085688136029, -3.080382974338014, -0.09817211329936981, 0.5107746124267578, -0.3962171673774719, 0.17170560359954834, 0.8090938329696655, 0.5620356202125549, 0.06315773725509644, -0.016903281211853027, -0.01905190944671631, -0.8787387456011166, -0.0940001401245473, 0.4448309364724143,0.1452843339710348,0.231964111328125,0.7926788330078125,0.5441436767578125
20220119-1827,2022-01-19 18:27:31Z,u01, 232,40,movements,el-ex, rt, d,234875.59796500002, 2.8704489057839995, -0.9441808413615292, -3.064416971307158, 0.008878741413354874, 0.492808997631073, -0.3690994679927826, 0.15705937147140503, 0.8100168704986572, 0.5649822950363159, 0.04728640615940094, -0.013523221015930176, -0.034709155559539795, -0.8794194339999136, -0.09546003566166114, 0.44559715136989203,0.1376662814469392,0.19549560546875,0.8029022216796875,0.5358734130859375
20220119-1827,2022-01-19 18:27:31Z,u01, 233,40,movements,el-ex, rt, d,234875.622911, 2.895685740066036, -0.947275837881221, -3.0490627864900177, 0.016422145068645477, 0.5123893618583679, -0.3629302680492401, 0.1421414166688919, 0.8118278980255127, 0.5663309693336487, 0.04609102010726929, -0.018050551414489746, -0.009995818138122559, -0.8796642691969006, -0.09672773469033111, 0.4471513275924455,0.12996168047244072,0.1889495849609375,0.793121337890625,0.5562896728515625
20220119-1827,2022-01-19 18:27:31Z,u01, 234,40,movements,el-ex, rt, d,234875.647857125, 2.920381417447209, -0.9483530485339349, -3.0339697662504768, -0.09297898411750793, 0.48360952734947205, -0.3483831286430359, 0.1279217004776001, 0.8124563694000244, 0.5688149929046631, 0.06259961426258087, -0.005876660346984863, -0.014036238193511963, -0.8802418982485787, -0.09788619194814274, 0.44787714840350357,0.12246842567246849,0.18438720703125,0.8094482421875,0.553131103515625
20220119-1827,2022-01-19 18:27:31Z,u01, 235,40,movements,el-ex, rt, d,234875.67280312502, 2.944336253871243, -0.9481370622748623, -3.0188491460439195, -0.05755394324660301, 0.46415475010871887, -0.35534611344337463, 0.11429478973150253, 0.812330424785614, 0.5718877911567688, 0.047906190156936646, 0.005723714828491211, -0.018879055976867676, -0.8809704610306228, -0.09917124971583033, 0.448062760446406,0.11530731605249993,0.16046142578125,0.8201446533203125,0.55413818359375
20220119-1827,2022-01-19 18:27:31Z,u01, 236,40,movements,el-ex, rt, d,234875.69775012502, 2.966952803926065, -0.949183830471035, -3.0045363312991578, 0.01628858596086502, 0.42946067452430725, -0.3149971067905426, 0.10118472576141357, 0.8129404783248901, 0.5734885334968567, 0.0476190447807312, -0.004102647304534912, -0.036623477935791016, -0.8812816704424283, -0.10043344829071207, 0.44885438036281833,0.10856047489984594,0.1372833251953125,0.80487060546875,0.5418853759765625
20220119-1827,2022-01-19 18:27:31Z,u01, 237,40,movements,el-ex, rt, d,234875.722696125, 2.9888603546280743, -0.9515645052605951, -2.99114898280697, 0.05217907577753067, 0.4420020282268524, -0.3253895342350006, 0.08830304443836212, 0.8143245577812195, 0.5736531019210815, 0.03570520877838135, -0.004220187664031982, -0.021239399909973145, -0.8812113360725965, -0.10145502899325373, 0.4503109667726544,0.10194811451055683,0.1252899169921875,0.81072998046875,0.55194091796875
20220119-1827,2022-01-19 18:27:31Z,u01, 238,40,movements,el-ex, rt, d,234875.747642125, 3.009587449558448, -0.9533128992434046, -2.978406634413847, -0.0186674315482378, 0.4012529253959656, -0.29394033551216125, 0.076207235455513, 0.8153380751609802, 0.5739476084709167, 0.05741404742002487, -0.012100279331207275, -0.01631540060043335, -0.8811832529487532, -0.10242009265943239, 0.45151256780448057,0.09572081022266195,0.1308441162109375,0.794219970703125,0.552459716796875
20220119-1827,2022-01-19 18:27:31Z,u01, 239,40,movements,el-ex, rt, d,234875.77258812502, 3.028496995735235, -0.9527419762426473, -2.966778394491428, -0.06403574347496033, 0.3628127872943878, -0.23912376165390015, 0.06539372354745865, 0.8150073885917664, 0.5757486820220947, 0.04274541884660721, -0.03142273426055908, -0.03914302587509155, -0.8815948981982091, -0.10327043602005445, 0.4516920338513897,0.08999972168000153,0.10687255859375,0.7830047607421875,0.5337371826171875
20220119-1827,2022-01-19 18:27:31Z,u01, 240,40,movements,el-ex, rt, d,234875.797534125, 3.0451050968062527, -0.9534246730049515, -2.957064128230866, 0.0550866536796093, 0.34950923919677734, -0.21857668459415436, 0.055769432336091995, 0.8154028058052063, 0.576201319694519, 0.02821502834558487, -0.03786057233810425, -0.03591841459274292, -0.8816609963963433, -0.10380051287248893, 0.4524294871400285,0.0848933203660263,0.080291748046875,0.7846221923828125,0.5530242919921875
20220119-1827,2022-01-19 18:27:31Z,u01, 241,40,movements,el-ex, rt, d,234875.822481125, 3.0597627022738076, -0.9562518391394178, -2.948914473428214, 0.09942755103111267, 0.30826234817504883, -0.18939335644245148, 0.04712938144803047, 0.8170361518859863, 0.5746568441390991, 0.04863486438989639, -0.020618855953216553, -0.026485145092010498, -0.8811917594845177, -0.10406487887269977, 0.45410594588550546,0.08036976149342366,0.0956878662109375,0.7963409423828125,0.548126220703125
20220119-1827,2022-01-19 18:27:31Z,u01, 242,40,movements,el-ex, rt, d,234875.847427125, 3.073811595950901, -0.957544387247753, -2.9409687974754126, -0.05593657121062279, 0.2968835234642029, -0.1812991499900818, 0.0389801524579525, 0.8177807331085205, 0.5742081999778748, 0.054846227169036865, -0.030930757522583008, -0.007725954055786133, -0.8810290566203176, -0.10436424697213958, 0.4550989376145999,0.07603169648174893,0.089202880859375,0.78375244140625,0.566436767578125
20220119-1827,2022-01-19 18:27:31Z,u01, 243,40,movements,el-ex, rt, d,234875.87237312502, 3.087440987124602, -0.9547970575589665, -2.933361775801123, -0.12467002868652344, 0.29259487986564636, -0.1581425666809082, 0.031272128224372864, 0.8161965012550354, 0.5769269466400146, 0.039681337773799896, -0.01909273862838745, -0.0095902681350708, -0.8817668657661109, -0.1046454216227585, 0.45431562400126135,0.07164945386110433,0.0701904296875,0.7979583740234375,0.567047119140625
20220119-1827,2022-01-19 18:27:31Z,u01, 244,40,movements,el-ex, rt, d,234875.897319125, 3.099572776010809, -0.953910993694276, -2.9268892784275615, 0.0440998449921608, 0.25995153188705444, -0.13302117586135864, 0.02430121600627899, 0.8156842589378357, 0.5779862403869629, 0.04349368438124657, 0.003483712673187256, -0.03832900524139404, -0.882054066959797, -0.10475569762798281, 0.4543334266631712,0.06773351605862962,0.0697479248046875,0.818267822265625,0.5391082763671875
20220119-1827,2022-01-19 18:27:31Z,u01, 245,40,movements,el-ex, rt, d,234875.922265125, 3.1090156248532637, -0.9573623396688905, -2.9223288673661587, 0.19365525245666504, 0.22777682542800903, -0.10759703814983368, 0.018750565126538277, 0.8176759481430054, 0.5753726363182068, 0.02939101681113243, -0.009006083011627197, -0.034143805503845215, -0.8813363239633399, -0.1045591227810592, 0.45620126102182496,0.06475993852212766,0.047149658203125,0.8101959228515625,0.5446319580078125
20220119-1827,2022-01-19 18:27:31Z,u01, 246,40,movements,el-ex, rt, d,234875.947212125, 3.11790807210347, -0.9609741487189426, -2.9179379022113237, 0.03867505490779877, 0.2160705029964447, -0.10848399996757507, 0.013563401997089386, 0.8197498917579651, 0.5725609064102173, 0.029786884784698486, -0.021455824375152588, -0.024251818656921387, -0.8805583393248732, -0.10439096669659967, 0.45812005030116815,0.06201212748803313,0.0406341552734375,0.7923736572265625,0.5591888427734375
20220119-1827,2022-01-19 18:27:31Z,u01, 247,40,movements,el-ex, rt, d,234875.97215812502, 3.126201913288735, -0.9589253305310212, -2.9137214907996274, -0.1583523005247116, 0.1792367845773697, -0.0921945720911026, 0.008840090595185757, 0.8185747265815735, 0.5743318796157837, 0.03388461470603943, -0.012254476547241211, -0.013922512531280518, -0.8810606490210154, -0.10439381472363277, 0.4575217992756076,0.0592269003838051,0.0424346923828125,0.80950927734375,0.5606689453125
20220119-1827,2022-01-19 18:27:31Z,u01, 248,40,movements,el-ex, rt, d,234875.997104125, 3.1332595494185576, -0.9556136003705534, -2.909737288825086, -0.07163940370082855, 0.12304560840129852, -0.08794716745615005, 0.004809042904525995, 0.8166680335998535, 0.5770877003669739, 0.03353637456893921, 0.01516491174697876, -0.0411686897277832, -0.8818159114048398, -0.10461615579038208, 0.4563143492488326,0.056862633061872364,0.0365753173828125,0.82550048828125,0.5255279541015625
20220119-1827,2022-01-19 18:27:31Z,u01, 249,40,movements,el-ex, rt, d,234876.022050125, 3.137195590113094, -0.9564179352049315, -2.9074820888641866, 0.05292319878935814, 0.07859033346176147, -0.062463581562042236, 0.0025346821639686823, 0.8171319365501404, 0.5764451026916504, 0.019315987825393677, -0.03200608491897583, -0.05944699048995972, -0.8816247818779974, -0.10469148936000205, 0.45681158724207943,0.05568312904901991,0.0210723876953125,0.78460693359375,0.5183868408203125
20220119-1827,2022-01-19 18:27:31Z,u01, 250,40,movements,el-ex, rt, d,234876.04699612502, 3.1390625675166466, -0.9575196025461101, -2.906617950049613, -0.0022833654657006264, 0.04355211928486824, -0.026012960821390152, 0.001456189202144742, 0.8177664875984192, 0.5755480527877808, 0.018685489892959595, -0.04567176103591919, -0.04916584491729736, -0.881379225374779, -0.10461680986947552, 0.4573710487668603,0.055114521914498824,0.0245361328125,0.766082763671875,0.5229644775390625
20220119-1827,2022-01-19 18:27:31Z,u01, 251,40,movements,el-ex, rt, d,234876.07194312502, 3.1378859922453954, -0.9585760660442458, -2.9078234320039424, -0.022122882306575775, -0.02347411960363388, 0.02498677372932434, 0.0021301605738699436, 0.8183740973472595, 0.5746817588806152, 0.040502965450286865, -0.05239814519882202, -0.06426024436950684, -0.8811678292754934, -0.10432709521870881, 0.45780848799178586,0.05541158940400803,0.0430450439453125,0.766021728515625,0.5098114013671875
20220119-1827,2022-01-19 18:27:31Z,u01, 252,40,movements,el-ex, rt, d,234876.096889125, 3.1336369185098163, -0.9602617835499391, -2.910672034240157, 0.054335206747055054, -0.1123306155204773, 0.08951982855796814, 0.004561019595712423, 0.8193416595458984, 0.5732874870300293, 0.042115718126297, -0.05138194561004639, -0.07443207502365112, -0.8808105264712243, -0.1040026724903394, 0.4584098116328782,0.05671634678704139,0.0491485595703125,0.758026123046875,0.4897003173828125
