SessionID,LoggingTime,UID,RecNo,Hertz,Activity,MoveType,Wrist,Side,TimeStamp,DMRoll,DMPitch,DMYaw,DMRotX,DMRotY,DMRotZ,DMGrvX,DMGrvY,DMGrvZ,DMUAccelX,DMUAccelY,DMUAccelZ,DMQuatX,DMQuatY,DMQuatW,DMQuatZ,AccelroX,AceelroY,AceelroZ
20220119-1817,2022-01-19 18:17:29Z,u01, 1,40,movements,el-ex, rt, d,234276.77608937502, 1.974076690279805, -0.7054551950726518, 2.664522968256138, 0.04805184155702591, -0.4843716025352478, 0.6033346056938171, 0.7002429962158203, 0.64838045835495, 0.29876941442489624, 0.004499554634094238, 0.0257987380027771, -0.014329999685287476, -0.8058440962701989, 0.0, 0.4022989354970338,0.4344779523424177,0.70831298828125,0.6734161376953125,0.2830657958984375
20220119-1817,2022-01-19 18:17:29Z,u01, 2,40,movements,el-ex, rt, d,234276.801035375, 1.9565249083655998, -0.6921942295961887, 2.656923439121523, -0.07314402610063553, -0.03872717544436455, 0.2410827875137329, 0.7132829427719116, 0.6382279396057129, 0.28964313864707947, 0.01419520378112793, 0.01469576358795166, -0.003601640462875366, -0.8030008573759535, 0.003346270165466736, 0.39924565201710477,0.4424721037790128,0.72747802734375,0.652923583984375,0.286041259765625
20220119-1817,2022-01-19 18:17:29Z,u01, 3,40,movements,el-ex, rt, d,234276.825981375, 1.9404887951105732, -0.6779885706362023, 2.653240118144783, -0.12308771163225174, -0.5187163352966309, 0.5387589931488037, 0.7262168526649475, 0.6272277235984802, 0.2814158499240875, -0.014028072357177734, 0.006363034248352051, 0.003542304039001465, -0.8004215986794002, 0.005761578107036758, 0.3950558008268449,0.4508027800939033,0.7440185546875,0.6306610107421875,0.2829132080078125
20220119-1817,2022-01-19 18:17:29Z,u01, 4,40,movements,el-ex, rt, d,234276.850928375, 1.9267982790912428, -0.6638833171699134, 2.652004485531251, -0.17369450628757477, -0.5373585820198059, 0.5641206502914429, 0.7382208108901978, 0.6161800026893616, 0.2745038568973541, 0.014449477195739746, 0.017807424068450928, 0.004457563161849976, -0.7982434813294572, 0.00769929629472571, 0.39038363909999835,0.4586379241957318,0.7526702880859375,0.6339874267578125,0.278961181640625
20220119-1817,2022-01-19 18:17:29Z,u01, 5,40,movements,el-ex, rt, d,234276.87587437502, 1.9134475713231427, -0.6494755208995527, 2.650958162796389, -0.14481844007968903, -0.4997197389602661, 0.5461634397506714, 0.7501043677330017, 0.6047688126564026, 0.26757925748825073, -0.004422426223754883, 0.022993147373199463, 0.0039054453372955322, -0.7960489546605612, 0.009781842160511867, 0.3855877020147052,0.46640402104294004,0.7531280517578125,0.6217193603515625,0.263153076171875
20220119-1817,2022-01-19 18:17:29Z,u01, 6,40,movements,el-ex, rt, d,234276.900820375, 1.8998393360111339, -0.6359405525566487, 2.6490204926111343, -0.10029451549053192, -0.4890013337135315, 0.538139820098877, 0.761353075504303, 0.5939344763755798, 0.2599685490131378, 0.02174323797225952, 0.008024811744689941, 0.009181499481201172, -0.7936251796165363, 0.011972761327025683, 0.3813403488794611,0.4739149694229808,0.7830963134765625,0.601959228515625,0.2691497802734375
20220119-1817,2022-01-19 18:17:29Z,u01, 7,40,movements,el-ex, rt, d,234276.925767375, 1.8861973960468055, -0.6223872026393694, 2.6469475028561464, -0.1264529824256897, -0.49764537811279297, 0.5198287963867188, 0.7724109292030334, 0.5829764008522034, 0.25203239917755127, 0.012241899967193604, 0.025971412658691406, 0.014599919319152832, -0.7910830593650822, 0.01427543865079589, 0.3771541846860281,0.48139244524246133,0.7852935791015625,0.6060791015625,0.270050048828125
20220119-1817,2022-01-19 18:17:29Z,u01, 8,40,movements,el-ex, rt, d,234276.950713375, 1.8730796089642352, -0.6082029110635023, 2.6454101542756994, -0.10599161684513092, -0.4917876720428467, 0.5729693174362183, 0.7834661602973938, 0.5713935494422913, 0.24431592226028442, 0.009090602397918701, 0.00660938024520874, 0.006965965032577515, -0.788592787085028, 0.016714533413614924, 0.3726482161838007,0.48885107762096813,0.7925567626953125,0.5780029296875,0.25128173828125
20220119-1817,2022-01-19 18:17:29Z,u01, 9,40,movements,el-ex, rt, d,234276.9756585417, 1.860093765512572, -0.5945735111447653, 2.643642272173305, -0.13596965372562408, -0.5027421116828918, 0.5250824093818665, 0.7939634323120117, 0.5601555109024048, 0.23632147908210754, 0.011395394802093506, 0.02590399980545044, 0.025428012013435364, -0.785998531225388, 0.019158590320634883, 0.36842571413869624,0.49608641897066424,0.8171539306640625,0.5732269287109375,0.278839111328125
20220119-1817,2022-01-19 18:17:29Z,u01, 10,40,movements,el-ex, rt, d,234277.0006055417, 1.8485510795347988, -0.5806060230596582, 2.6450724415785176, -0.2779439091682434, -0.5257764458656311, 0.5462541580200195, 0.8040845394134521, 0.5485307574272156, 0.22926458716392517, 0.01998162269592285, -0.029030025005340576, 0.045760005712509155, -0.7837096533203131, 0.02077200381226177, 0.3632995651163743,0.5033698449612771,0.824066162109375,0.519500732421875,0.2750244140625
20220119-1817,2022-01-19 18:17:29Z,u01, 11,40,movements,el-ex, rt, d,234277.02555154168, 1.8377550589490548, -0.5654159095314346, 2.6473229924668233, -0.11249701678752899, -0.4531954526901245, 0.6045805811882019, 0.8144566416740417, 0.5357670187950134, 0.22274303436279297, -0.022555947303771973, 0.0023952722549438477, -0.003901243209838867, -0.781574801512198, 0.022635064053623838, 0.3575381631652045,0.5106810305725106,0.79541015625,0.544219970703125,0.204498291015625
20220119-1817,2022-01-19 18:17:29Z,u01, 12,40,movements,el-ex, rt, d,234277.05049754167, 1.8237619869375463, -0.5516140930800296, 2.641403353862534, 0.17225214838981628, -0.42205992341041565, 0.5935074090957642, 0.8245748281478882, 0.5240625739097595, 0.2131553441286087, 0.016108274459838867, 0.04225212335586548, -0.0012257099151611328, -0.7783716900211216, 0.026742927319751253, 0.3544204284027165,0.5175023278006015,0.8406829833984375,0.566314697265625,0.2119293212890625
20220119-1817,2022-01-19 18:17:29Z,u01, 13,40,movements,el-ex, rt, d,234277.07544454167, 1.8083636214281948, -0.5382022531307766, 2.6326388893373607, 0.10455314069986343, -0.45668286085128784, 0.583207368850708, 0.8345156311988831, 0.5125932097434998, 0.2020694762468338, 0.022356927394866943, 0.009089529514312744, 0.02000710368156433, -0.774618857747027, 0.03162851216671944, 0.35227486357469495,0.5242783176902744,0.8529510498046875,0.50848388671875,0.220062255859375
20220119-1817,2022-01-19 18:17:29Z,u01, 14,40,movements,el-ex, rt, d,234277.1003905417, 1.7956238825541815, -0.524200015378841, 2.628405369510485, -0.08323737233877182, -0.40667396783828735, 0.5844767093658447, 0.8439368605613708, 0.5005205869674683, 0.19300320744514465, 0.006832420825958252, -0.022538959980010986, 0.031270772218704224, -0.7715209677689372, 0.03545424715797496, 0.3487696243522257,0.5309033573538857,0.85076904296875,0.4779815673828125,0.224273681640625
20220119-1817,2022-01-19 18:17:29Z,u01, 15,40,movements,el-ex, rt, d,234277.12533654168, 1.7844472982371413, -0.5093698208142136, 2.628066133165865, -0.10106942802667618, -0.4708813428878784, 0.5673907995223999, 0.8532018661499023, 0.48762717843055725, 0.1851126104593277, 0.02091318368911743, 0.031400591135025024, 0.004111886024475098, -0.7688203119650105, 0.03836188188882628, 0.3439572694450477,0.5377148330746022,0.8752899169921875,0.5265350341796875,0.1839752197265625
20220119-1817,2022-01-19 18:17:29Z,u01, 16,40,movements,el-ex, rt, d,234277.15028354168, 1.7720538241333414, -0.495937665792741, 2.626228652743765, 0.006307393312454224, -0.4396200180053711, 0.5398135781288147, 0.8617706894874573, 0.47585657238960266, 0.1758180558681488, 0.007049560546875, 0.05168557167053223, -0.00392758846282959, -0.7656423373412281, 0.041241242113309234, 0.3400835858099611,0.544457706420401,0.8688201904296875,0.5275421142578125,0.1718902587890625
20220119-1817,2022-01-19 18:17:29Z,u01, 17,40,movements,el-ex, rt, d,234277.17522954167, 1.7597649638115842, -0.4834254117577253, 2.6212220299438838, 0.14407457411289215, -0.3603014647960663, 0.5162645578384399, 0.8696465492248535, 0.46481478214263916, 0.16632036864757538, -0.009706854820251465, 0.04485931992530823, -0.010070085525512695, -0.7623164857510896, 0.045097220615285705, 0.33743268524511055,0.5504354104344495,0.8618927001953125,0.508270263671875,0.16204833984375
20220119-1817,2022-01-19 18:17:29Z,u01, 18,40,movements,el-ex, rt, d,234277.2001755417, 1.7472562587550864, -0.47217336575843055, 2.6137209957526943, 0.19010049104690552, -0.3620624244213104, 0.4586280882358551, 0.8767524361610413, 0.45482292771339417, 0.15633773803710938, -0.004773616790771484, 0.06963691115379333, 0.015720590949058533, -0.7587621515702639, 0.04948605341004045, 0.33596536718851033,0.5558403600282357,0.871978759765625,0.5244598388671875,0.17205810546875
20220119-1817,2022-01-19 18:17:29Z,u01, 19,40,movements,el-ex, rt, d,234277.22512254168, 1.7356402729043727, -0.462264211439435, 2.6082647408293194, 0.026188025251030922, -0.35953208804130554, 0.38983020186424255, 0.8829118609428406, 0.44597581028938293, 0.14687547087669373, 0.008003056049346924, 0.06948134303092957, 0.033148035407066345, -0.7554115256510543, 0.05283144899423943, 0.3344223487205685,0.5610027254830263,0.8948974609375,0.5121002197265625,0.1832122802734375
20220119-1817,2022-01-19 18:17:29Z,u01, 20,40,movements,el-ex, rt, d,234277.25006854167, 1.7270773132948918, -0.45299329516117, 2.6085555180816278, -0.1330249011516571, -0.3381865322589874, 0.34512776136398315, 0.8881834149360657, 0.4376588761806488, 0.13994738459587097, 0.010910272598266602, 0.060204923152923584, 0.03732943534851074, -0.7530085955730847, 0.05433000639780555, 0.3314327642438957,0.5658434380959374,0.8990936279296875,0.49786376953125,0.177276611328125
20220119-1817,2022-01-19 18:17:29Z,u01, 21,40,movements,el-ex, rt, d,234277.2750145417, 1.7200092610252373, -0.4450196861589204, 2.610344737833335, -0.05522054806351662, -0.27276840806007385, 0.2689343988895416, 0.8925730586051941, 0.430475652217865, 0.13418075442314148, -0.015314638614654541, 0.08922350406646729, 0.033284783363342285, -0.7510347951619495, 0.05510999104017915, 0.32842374082015563,0.5701295126872717,0.875213623046875,0.5186920166015625,0.1675567626953125
20220119-1817,2022-01-19 18:17:29Z,u01, 22,40,movements,el-ex, rt, d,234277.2999615417, 1.7136272602486138, -0.439327104209642, 2.6096274784243674, 0.012137318961322308, -0.22077980637550354, 0.18484774231910706, 0.895822286605835, 0.42533057928085327, 0.12882839143276215, -0.00890505313873291, 0.09671840071678162, 0.04721248149871826, -0.7491693716852651, 0.05620896607591551, 0.3268857164905591,0.5733513091936138,0.8869171142578125,0.5220489501953125,0.1760406494140625
20220119-1817,2022-01-19 18:17:29Z,u01, 23,40,movements,el-ex, rt, d,234277.32490754168, 1.7085727245551086, -0.4353783868096373, 2.6094029440202697, -0.04122370481491089, -0.17530618607997894, 0.13369281589984894, 0.8981184363365173, 0.42175352573394775, 0.12452846765518188, -0.003159940242767334, 0.07923826575279236, 0.0586383193731308, -0.7476905031240155, 0.05677274960751391, 0.32576298757823147,0.5758595960444289,0.8928070068359375,0.493316650390625,0.181365966796875
20220119-1817,2022-01-19 18:17:30Z,u01, 24,40,movements,el-ex, rt, d,234277.34985354167, 1.7051430543706334, -0.4324970936229308, 2.6102202673786215, -0.049798719584941864, -0.12550088763237, 0.0864458680152893, 0.8997410535812378, 0.4191392660140991, 0.12160979211330414, -0.011953949928283691, 0.058979690074920654, 0.05884088575839996, -0.7467070590447271, 0.05686355371128325, 0.3246554451390283,0.5777492615472252,0.887786865234375,0.478118896484375,0.180450439453125
20220119-1817,2022-01-19 18:17:30Z,u01, 25,40,movements,el-ex, rt, d,234277.37480054167, 1.7032059028039304, -0.43087164859649, 2.6114462905713465, -0.046468134969472885, -0.07340459525585175, 0.030704911798238754, 0.9006486535072327, 0.41766294836997986, 0.1199563667178154, -0.018431365489959717, 0.057510942220687866, 0.06501088291406631, -0.7461709963827486, 0.05663062163601429, 0.32380928324008706,0.5789380943255852,0.88262939453125,0.471893310546875,0.1806488037109375
20220119-1817,2022-01-19 18:17:30Z,u01, 26,40,movements,el-ex, rt, d,234277.3997465417, 1.7032862681793761, -0.43129255008556056, 2.6125797949862535, -0.02707456424832344, -0.0027268966659903526, -0.029310686513781548, 0.9004649519920349, 0.4180453419685364, 0.1200055480003357, -0.013273060321807861, 0.0577542781829834, 0.06868493556976318, -0.7462289684923831, 0.05608119091498262, 0.32362043978030697,0.5790226208774096,0.8871917724609375,0.475799560546875,0.188690185546875
20220119-1817,2022-01-19 18:17:30Z,u01, 27,40,movements,el-ex, rt, d,234277.42469254168, 1.7062191295870286, -0.4336712275795009, 2.6148131877399443, -0.07568095624446869, 0.06796757876873016, -0.10361334681510925, 0.8991212844848633, 0.4202049970626831, 0.1225113645195961, -0.01063239574432373, 0.06505504250526428, 0.07493758201599121, -0.7471532411271736, 0.05493375416653046, 0.32369350556217974,0.5778987691367089,0.889678955078125,0.486053466796875,0.1981964111328125
20220119-1817,2022-01-19 18:17:30Z,u01, 28,40,movements,el-ex, rt, d,234277.44963954168, 1.712635677717256, -0.43777675640439345, 2.6188475389969024, -0.11314137279987335, 0.16008499264717102, -0.17392106354236603, 0.896601140499115, 0.4239269196987152, 0.1280330866575241, -0.00925678014755249, 0.05823555588722229, 0.06694398820400238, -0.7491303797289391, 0.05310573000252669, 0.3237415691582153,0.5754779998213361,0.8873443603515625,0.4821624755859375,0.194976806640625
20220119-1817,2022-01-19 18:17:30Z,u01, 29,40,movements,el-ex, rt, d,234277.47458554167, 1.7205587304635883, -0.44334970770417165, 2.6231955938752827, -0.07589087635278702, 0.25065550208091736, -0.2523355782032013, 0.8932088017463684, 0.4289677143096924, 0.1347782462835312, -0.006520450115203857, 0.056017667055130005, 0.08533000946044922, -0.7515291821461666, 0.05092159739156207, 0.32417380504300775,0.5722957326403217,0.8893585205078125,0.482208251953125,0.2279205322265625
20220119-1817,2022-01-19 18:17:30Z,u01, 30,40,movements,el-ex, rt, d,234277.4995315417, 1.7315175497237905, -0.4511399507128969, 2.6259801648565433, 0.016279766336083412, 0.395460307598114, -0.3230505585670471, 0.8883523941040039, 0.43599170446395874, 0.14401929080486298, 0.0040580034255981445, 0.07403334975242615, 0.11837100982666016, -0.7547178141160371, 0.04909854204818623, 0.3257528303933873,0.5673407934344299,0.8924102783203125,0.5100250244140625,0.26239013671875
20220119-1817,2022-01-19 18:17:30Z,u01, 31,40,movements,el-ex, rt, d,234277.5244785417, 1.7453569097326331, -0.4606156576330767, 2.62835587249674, -0.1438203603029251, 0.5715411901473999, -0.49719348549842834, 0.8821662068367004, 0.444499671459198, 0.15557485818862915, 0.008321821689605713, 0.014957845211029053, 0.08740642666816711, -0.758645672956075, 0.04737269157862162, 0.32798251565375774,0.5609281052683458,0.8872833251953125,0.4779052734375,0.2434234619140625
20220119-1817,2022-01-19 18:17:30Z,u01, 32,40,movements,el-ex, rt, d,234277.54942454168, 1.7649402060848884, -0.4728152077694848, 2.641030481821357, -0.47299662232398987, 0.5428552627563477, -0.6178524494171143, 0.8735642433166504, 0.455394446849823, 0.17176057398319244, 0.04278719425201416, 0.10991322994232178, 0.0821915864944458, -0.7642850819860367, 0.041816310993108924, 0.32820732711360395,0.5535338883072533,0.916351318359375,0.5653076171875,0.2539520263671875
20220119-1817,2022-01-19 18:17:30Z,u01, 33,40,movements,el-ex, rt, d,234277.57437054167, 1.786342630903282, -0.48589125230019825, 2.6590557427314967, -0.5461563467979431, 0.5750477910041809, -0.662972092628479, 0.8637970685958862, 0.4669966399669647, 0.18912632763385773, -0.006344735622406006, 0.135801762342453, 0.057898372411727905, -0.7703191732631621, 0.03422771314118836, 0.3273851201502608,0.546128034694895,0.841278076171875,0.61932373046875,0.24432373046875
20220119-1817,2022-01-19 18:17:30Z,u01, 34,40,movements,el-ex, rt, d,234277.5993175417, 1.8079367942970594, -0.5002761319232142, 2.673410493627748, -0.15280525386333466, 0.6714391708374023, -0.7321637868881226, 0.8528935313224792, 0.4796678423881531, 0.2061341553926468, -0.04089713096618652, 0.19733402132987976, -0.008792087435722351, -0.7760807422676564, 0.02767238912075251, 0.32820775251319967,0.537784854121406,0.8119964599609375,0.677001953125,0.1973419189453125
20220119-1817,2022-01-19 18:17:30Z,u01, 35,40,movements,el-ex, rt, d,234277.6242635417, 1.8272692463408904, -0.5194509226873278, 2.677361461913881, 0.16934441030025482, 0.7505196332931519, -0.8409520387649536, 0.8396972417831421, 0.4964035749435425, 0.2202092409133911, -0.00025027990341186523, 0.18625935912132263, -0.006463915109634399, -0.7807430163265311, 0.023344487198671854, 0.33368532355852787,0.5277779007267898,0.84478759765625,0.675933837890625,0.2237701416015625
20220119-1817,2022-01-19 18:17:30Z,u01, 36,40,movements,el-ex, rt, d,234277.64920954168, 1.8476179379061182, -0.5421033749155999, 2.679404176166736, 0.09306898713111877, 0.818047046661377, -0.9532111287117004, 0.8240130543708801, 0.515938937664032, 0.23411549627780914, 0.016563355922698975, 0.09885305166244507, 0.07151833176612854, -0.7853009179422632, 0.01897942329709079, 0.3409783057135142,0.5164070770670757,0.840576171875,0.6147918701171875,0.305633544921875
20220119-1817,2022-01-19 18:17:30Z,u01, 37,40,movements,el-ex, rt, d,234277.67415654167, 1.873101588720133, -0.5655015542928863, 2.6888239888029877, -0.16705290973186493, 0.8270412683486938, -1.0250848531723022, 0.8060323596000671, 0.5358393788337708, 0.25137239694595337, 0.02653294801712036, 0.05170023441314697, 0.08252054452896118, -0.79090425791597, 0.012516269363479327, 0.3467282359286664,0.5040767427153472,0.8302154541015625,0.588653564453125,0.3297882080078125
20220119-1817,2022-01-19 18:17:30Z,u01, 38,40,movements,el-ex, rt, d,234277.6991025417, 1.9025131768099668, -0.5886067426589041, 2.7052720233659326, -0.2926555871963501, 0.8178839683532715, -1.0840190649032593, 0.7863737940788269, 0.5552027821540833, 0.270861953496933, 0.04587101936340332, 0.04516953229904175, 0.031231850385665894, -0.7971282295515061, 0.004190844268624816, 0.35083540643679634,0.4914097778618115,0.832244873046875,0.600372314453125,0.302093505859375
20220119-1817,2022-01-19 18:17:30Z,u01, 39,40,movements,el-ex, rt, d,234277.72404854168, 1.9347675249810192, -0.6114850635407478, 2.7264195569237804, -0.3921003043651581, 0.8225619792938232, -1.1225762367248535, 0.7651576995849609, 0.5740840435028076, 0.2914818525314331, 0.06337934732437134, 0.025891542434692383, 0.007117748260498047, -0.8035625542104831, -0.00530547355494243, 0.35405292481395373,0.4784410010617457,0.8224639892578125,0.5961151123046875,0.2978515625
20220119-1817,2022-01-19 18:17:30Z,u01, 40,40,movements,el-ex, rt, d,234277.74899554168, 1.9707369999412103, -0.6335420978462787, 2.7510372288502896, -0.3649207353591919, 0.9154683351516724, -1.1183685064315796, 0.7423345446586609, 0.5920031666755676, 0.3138020932674408, 0.04337102174758911, 0.026313483715057373, 0.01081356406211853, -0.810352351810503, -0.01516950855847346, 0.3565760103852046,0.4647069262124598,0.78570556640625,0.618316650390625,0.324615478515625
20220119-1817,2022-01-19 18:17:30Z,u01, 41,40,movements,el-ex, rt, d,234277.77394154167, 2.0064722186094657, -0.6584547386961858, 2.7715883254262415, -0.08671285957098007, 0.9446055293083191, -1.2676830291748047, 0.7170531749725342, 0.6118953824043274, 0.3337945342063904, 0.06665343046188354, 0.07185089588165283, -0.028069227933883667, -0.8162832327873388, -0.024061271205667034, 0.3615449884153574,0.4498754856930878,0.7848968505859375,0.70648193359375,0.3003692626953125
20220119-1817,2022-01-19 18:17:30Z,u01, 42,40,movements,el-ex, rt, d,234277.7988875417, 2.047346916257896, -0.6856327809109402, 2.798611661109403, -0.5491894483566284, 0.9985174536705017, -1.3924126625061035, 0.6877794861793518, 0.6331629157066345, 0.35505542159080505, 0.0781964659690857, 0.045029282569885254, 0.03483736515045166, -0.8223742863177825, -0.0350462789455277, 0.36647415866874156,0.4337846120261456,0.7659759521484375,0.678192138671875,0.389892578125
20220119-1817,2022-01-19 18:17:30Z,u01, 43,40,movements,el-ex, rt, d,234277.8238345417, 2.099963049394828, -0.7068827626782784, 2.8408695695780435, -0.7375531196594238, 1.053914189338684, -1.3510386943817139, 0.6563901305198669, 0.6494666337966919, 0.38385578989982605, 0.08474451303482056, 0.0012444257736206055, -0.006704121828079224, -0.8304137601191061, -0.048382636995474765, 0.36677819499188385,0.41658843293409153,0.733489990234375,0.6648712158203125,0.36962890625
20220119-1817,2022-01-19 18:17:30Z,u01, 44,40,movements,el-ex, rt, d,234277.84878054168, 2.1494352633676854, -0.7285176584933397, 2.8752660079741372, -0.12602216005325317, 1.05949068069458, -1.2629687786102295, 0.6246930360794067, 0.6657642722129822, 0.4080650508403778, 0.08218568563461304, 0.0730663537979126, -0.05384725332260132, -0.8369919662311884, -0.05896583990076171, 0.3695879125748546,0.3992148046245281,0.706878662109375,0.73883056640625,0.354217529296875
20220119-1817,2022-01-19 18:17:30Z,u01, 45,40,movements,el-ex, rt, d,234277.87372654167, 2.1915286433835934, -0.7535258807292792, 2.897637811219468, 0.0724901407957077, 1.0908163785934448, -1.1238359212875366, 0.5932358503341675, 0.6842143535614014, 0.42417261004447937, 0.0910903811454773, -0.009516477584838867, -0.017907023429870605, -0.8412350592966582, -0.06640692442532029, 0.3764923864507518,0.38231837803677216,0.6856231689453125,0.64501953125,0.42315673828125
20220119-1817,2022-01-19 18:17:30Z,u01, 46,40,movements,el-ex, rt, d,234277.89867354167, 2.2338394543959805, -0.7752324146536123, 2.9212860058574646, -0.10299699008464813, 1.013401985168457, -1.063495397567749, 0.5629235506057739, 0.6998820900917053, 0.4396391212940216, 0.09959781169891357, -0.09627485275268555, 0.002866029739379883, -0.8452536202009834, -0.07325218925168397, 0.3822780877213116,0.36612027416649623,0.6625213623046875,0.603607177734375,0.4425048828125
20220119-1817,2022-01-19 18:17:30Z,u01, 47,40,movements,el-ex, rt, d,234277.9236195417, 2.2759144070084263, -0.7935036444002307, 2.946634028761547, -0.09539326280355453, 0.9207506775856018, -1.0164048671722412, 0.5341046452522278, 0.7128149271011353, 0.45456331968307495, 0.10583382844924927, -0.0885014533996582, -0.0358312726020813, -0.8490635472021767, -0.07982953593400144, 0.38677439518147827,0.35089049786682824,0.62884521484375,0.6417999267578125,0.4144744873046875
20220119-1817,2022-01-19 18:17:30Z,u01, 48,40,movements,el-ex, rt, d,234277.94856554168, 2.3162310039198357, -0.809360538856395, 2.972327447409011, -0.12209115922451019, 0.8285526037216187, -0.931474506855011, 0.5069789886474609, 0.7238461375236511, 0.4679948687553406, 0.07464021444320679, -0.0869290828704834, -0.04918667674064636, -0.8523926177518665, -0.08616415125190335, 0.3905447393475152,0.3368640703394154,0.5816192626953125,0.6369171142578125,0.4188079833984375
20220119-1817,2022-01-19 18:17:30Z,u01, 49,40,movements,el-ex, rt, d,234277.97351229168, 2.3551837424042747, -0.8232746510183032, 2.9971453140605484, -0.09317678213119507, 0.8426642417907715, -0.8492136597633362, 0.4811936616897583, 0.7333759665489197, 0.4802218973636627, 0.07300567626953125, -0.09473448991775513, -0.050106823444366455, -0.8553833492104689, -0.09181655568806663, 0.3939517595926982,0.32356033400321166,0.5498199462890625,0.64154052734375,0.438232421875
20220119-1817,2022-01-19 18:17:30Z,u01, 50,40,movements,el-ex, rt, d,234277.9984582917, 2.3941766907813524, -0.8349885165731417, 3.021245647344621, -0.1179538443684578, 0.8482266068458557, -0.7868385314941406, 0.4562361240386963, 0.7412887811660767, 0.4922802150249481, 0.07650920748710632, -0.06434792280197144, -0.023819833993911743, -0.8583778052145885, -0.09657973429281258, 0.39687097054570897,0.3104084899229318,0.532745361328125,0.67694091796875,0.4684600830078125
20220119-1817,2022-01-19 18:17:30Z,u01, 51,40,movements,el-ex, rt, d,234278.02340429169, 2.431597993980274, -0.8455099520616794, 3.0439389534389387, -0.059276413172483444, 0.8084070682525635, -0.6882480382919312, 0.432391494512558, 0.7483094930648804, 0.5030619502067566, 0.09402155876159668, -0.03842473030090332, -0.04949408769607544, -0.8610402062447734, -0.10070125779629105, 0.3997055356421527,0.2978334812323259,0.5146026611328125,0.713134765625,0.457305908203125
20220119-1817,2022-01-19 18:17:30Z,u01, 52,40,movements,el-ex, rt, d,234278.04835129168, 2.4662743822377475, -0.8562968171576445, 3.063664263967667, 0.033675666898489, 0.763968825340271, -0.6256693005561829, 0.4096205532550812, 0.7554212808609009, 0.5114201307296753, 0.0724199116230011, -0.044773638248443604, -0.06809055805206299, -0.8630722840527079, -0.10400142394391748, 0.4031850810173355,0.2858881014818253,0.4820404052734375,0.7106475830078125,0.443328857421875
20220119-1817,2022-01-19 18:17:30Z,u01, 53,40,movements,el-ex, rt, d,234278.07329729167, 2.498941019761029, -0.8666122507332574, 3.0816748682338484, 0.014107158407568932, 0.7827835083007812, -0.6089150905609131, 0.38800737261772156, 0.7621400356292725, 0.5182597637176514, 0.043846845626831055, -0.039712607860565186, -0.042444705963134766, -0.8647160367183827, -0.1067523661806151, 0.40679073416106837,0.27457518631964783,0.4329681396484375,0.728546142578125,0.478179931640625
20220119-1817,2022-01-19 18:17:30Z,u01, 54,40,movements,el-ex, rt, d,234278.0982432917, 2.531502585032714, -0.8759695108059731, 3.1006727105179346, -0.006744393613189459, 0.7146027088165283, -0.6101272106170654, 0.36682724952697754, 0.7681645750999451, 0.5247489213943481, 0.04917311668395996, -0.0017461180686950684, -0.008833646774291992, -0.8662246200435079, -0.10967841927148161, 0.41001508655375474,0.2636538256680452,0.4160003662109375,0.76641845703125,0.5159149169921875
20220119-1817,2022-01-19 18:17:30Z,u01, 55,40,movements,el-ex, rt, d,234278.1231902917, 2.565021668948828, -0.8844156248756065, 3.1212356344422307, -0.00042900629341602325, 0.6873564124107361, -0.6175702810287476, 0.345486044883728, 0.7735447883605957, 0.5312893390655518, 0.06502118706703186, 0.018325507640838623, -0.04099363088607788, -0.8677048987134384, -0.11284005948785636, 0.41287032418598607,0.2527718036303166,0.4075469970703125,0.7869415283203125,0.4857025146484375
20220119-1817,2022-01-19 18:17:30Z,u01, 56,40,movements,el-ex, rt, d,234278.14813629168, 2.5989954058778473, -0.8918898217157525, -3.1412463692240564, -0.05539272353053093, 0.7075720429420471, -0.6424145102500916, 0.3242458403110504, 0.778259813785553, 0.5377517938613892, 0.03177228569984436, 0.027938425540924072, -0.006852328777313232, -0.8691843666795888, -0.115734322936308, 0.41549287221903936,0.24184708688213769,0.35601806640625,0.8061981201171875,0.5308990478515625
20220119-1817,2022-01-19 18:17:30Z,u01, 57,40,movements,el-ex, rt, d,234278.17308229167, 2.6330982333620523, -0.8993117371105058, -3.12077855643349, 0.08120080828666687, 0.719238817691803, -0.5793349146842957, 0.30290138721466064, 0.7828989028930664, 0.543434202671051, 0.04249659180641174, 0.00295943021774292, -0.008781135082244873, -0.8704603837411556, -0.11838842412073536, 0.41830254577190595,0.23088112049846038,0.3373260498046875,0.7941436767578125,0.5400848388671875
20220119-1817,2022-01-19 18:17:30Z,u01, 58,40,movements,el-ex, rt, d,234278.19802929167, 2.665895309634506, -0.9086191035776041, -3.1019501882758567, 0.11525731533765793, 0.6840108036994934, -0.5611425638198853, 0.28156915307044983, 0.7886554598808289, 0.5465725660324097, 0.05438357591629028, -0.0025836825370788574, -0.012636840343475342, -0.8710462443787517, -0.12068441698803153, 0.4222073915277135,0.22012428677593682,0.3359527587890625,0.78607177734375,0.533935546875
20220119-1817,2022-01-19 18:17:30Z,u01, 59,40,movements,el-ex, rt, d,234278.2229752917, 2.697743045058429, -0.9173245654121448, -3.0834096842506247, 0.0848136842250824, 0.6630550026893616, -0.5801944732666016, 0.2610640525817871, 0.7939779162406921, 0.5490399599075317, 0.040403813123703, -0.02429407835006714, -0.016187608242034912, -0.8714511999408396, -0.1228526684096855, 0.4259674634101948,0.2098376402827631,0.29254150390625,0.7644195556640625,0.5358734130859375
20220119-1817,2022-01-19 18:17:30Z,u01, 60,40,movements,el-ex, rt, d,234278.24792129168, 2.731402498513853, -0.9236205397679406, -3.0624036230623832, -0.009703031741082668, 0.695713996887207, -0.5695654153823853, 0.24044117331504822, 0.7977898120880127, 0.5529196858406067, 0.016196444630622864, -0.01521211862564087, -0.023607194423675537, -0.8722055720502614, -0.1253686106320491, 0.428671831783158,0.19945134570441986,0.2566375732421875,0.7825775146484375,0.5293121337890625
20220119-1817,2022-01-19 18:17:30Z,u01, 61,40,movements,el-ex, rt, d,234278.27286829168, 2.765255821860299, -0.9295350404352708, -3.0415016111769537, 0.03359760344028473, 0.6828882694244385, -0.5524694323539734, 0.21985064446926117, 0.8013418912887573, 0.556342601776123, 0.04121194779872894, 0.017582058906555176, -0.00965052843093872, -0.8728530253774246, -0.12766707908374025, 0.4313870290776802,0.1890343974495634,0.25933837890625,0.829376220703125,0.5485382080078125
20220119-1817,2022-01-19 18:17:30Z,u01, 62,40,movements,el-ex, rt, d,234278.29781429167, 2.79848644617037, -0.9348732420229436, -3.0199160002425867, -0.044110141694545746, 0.6452971696853638, -0.5502340793609619, 0.19980309903621674, 0.8045238256454468, 0.5593034029006958, 0.03652498126029968, -0.006321370601654053, 0.0079575777053833, -0.8733174513391623, -0.13026251101727412, 0.43389748841355136,0.17911255745700266,0.236328125,0.7982025146484375,0.5672607421875
20220119-1817,2022-01-19 18:17:30Z,u01, 63,40,movements,el-ex, rt, d,234278.3227602917, 2.8330855254268372, -0.9367216815141451, -2.9974748860284186, -0.15158192813396454, 0.671173632144928, -0.5619789958000183, 0.1798841953277588, 0.8056202530860901, 0.5644626021385193, 0.02641458809375763, 0.004728257656097412, 0.015875160694122314, -0.8744329793069716, -0.13265841128863343, 0.43503614216205494,0.168856053281243,0.2076263427734375,0.8162689208984375,0.5742340087890625
20220119-1817,2022-01-19 18:17:31Z,u01, 64,40,movements,el-ex, rt, d,234278.3477072917, 2.86884698429725, -0.9377742452388868, -2.974012871229969, -0.05250375717878342, 0.6999063491821289, -0.5489112138748169, 0.15935900807380676, 0.806243360042572, 0.5697163939476013, 0.04141613841056824, 0.010330796241760254, -0.003752470016479492, -0.875547277117499, -0.13518569966866442, 0.435977561656567,0.15832090150599182,0.200775146484375,0.8165740966796875,0.5659637451171875
20220119-1817,2022-01-19 18:17:31Z,u01, 65,40,movements,el-ex, rt, d,234278.37265329168, 2.903989019356029, -0.941664795467437, -2.952001755924766, 0.055472470819950104, 0.6963874101638794, -0.5786566734313965, 0.13850434124469757, 0.8085388541221619, 0.5719106197357178, 0.048247918486595154, 0.027581751346588135, 0.015461385250091553, -0.8758473155372194, -0.13728361165023392, 0.43841055693698616,0.147786898999155,0.1835479736328125,0.8405303955078125,0.5904693603515625
20220119-1817,2022-01-19 18:17:31Z,u01, 66,40,movements,el-ex, rt, d,234278.39759929167, 2.9392076629084896, -0.9452967651807971, -2.929323455683225, -0.042907487601041794, 0.6575079560279846, -0.5231247544288635, 0.11768975108861923, 0.8106707334518433, 0.5735529065132141, 0.047150954604148865, -0.029329001903533936, -0.004567563533782959, -0.8759548841562961, -0.139568971250669, 0.4408400496501135,0.1374185701786702,0.1648406982421875,0.781341552734375,0.5689849853515625
20220119-1817,2022-01-19 18:17:31Z,u01, 67,40,movements,el-ex, rt, d,234278.4225462917, 2.974561115382723, -0.9447251274611952, -2.906218583662987, -0.16263028979301453, 0.6744357943534851, -0.5176458358764648, 0.09742028266191483, 0.8103358745574951, 0.5778106451034546, 0.030326232314109802, -0.028826594352722168, 0.0007570385932922363, -0.8767974205982462, -0.14188590970063153, 0.4415471888219264,0.1270070655788953,0.1305389404296875,0.789093017578125,0.5659332275390625
20220119-1817,2022-01-19 18:17:31Z,u01, 68,40,movements,el-ex, rt, d,234278.44749229169, 3.009937171497349, -0.9450744897866439, -2.8844691638323057, 0.09847790002822876, 0.7461113929748535, -0.5241995453834534, 0.07688576728105545, 0.8105405569076538, 0.5806140899658203, 0.03381671756505966, 0.029058992862701416, 0.005354106426239014, -0.8773169436962514, -0.14360374445729102, 0.44290373021143664,0.11631545418944139,0.1107025146484375,0.839599609375,0.585968017578125
20220119-1817,2022-01-19 18:17:31Z,u01, 69,40,movements,el-ex, rt, d,234278.47243829168, 3.0461979427332535, -0.9538890271761812, -2.8631839684243228, 0.39818310737609863, 0.7392556071281433, -0.5633360147476196, 0.05510367453098297, 0.8156715035438538, 0.5758854150772095, 0.047755807638168335, 0.01783984899520874, 0.02257978916168213, -0.8757703984899988, -0.14480645443034026, 0.44823158617866965,0.10557409062425152,0.0996856689453125,0.82806396484375,0.60577392578125
20220119-1817,2022-01-19 18:17:31Z,u01, 70,40,movements,el-ex, rt, d,234278.49738529167, 3.0806184279346946, -0.9602019335227308, -2.8431765677692664, -0.02558339387178421, 0.7297205328941345, -0.4851108491420746, 0.03493824228644371, 0.8193073868751526, 0.5722898840904236, 0.0289655402302742, -0.10876637697219849, 0.011816978454589844, -0.874593254980305, -0.1457105867287949, 0.4525055049632226,0.09536314473961531,0.06390380859375,0.710540771484375,0.5841064453125
20220119-1817,2022-01-19 18:17:31Z,u01, 71,40,movements,el-ex, rt, d,234278.5223312917, 3.114319274348961, -0.9566082436211492, -2.823823373108556, -0.14069999754428864, 0.6962957978248596, -0.4815120995044708, 0.015715572983026505, 0.8172416090965271, 0.5760810375213623, 0.04551789164543152, -0.0827903151512146, -0.0005803108215332031, -0.8755201603547453, -0.14664570162798538, 0.45251917963681443,0.08476992593385436,0.0540313720703125,0.7530670166015625,0.5768890380859375
20220119-1817,2022-01-19 18:17:31Z,u01, 72,40,movements,el-ex, rt, d,234278.54727729168, -3.1371500937308228, -0.9566506112280005, -2.8053291393511723, 0.12629038095474243, 0.6279688477516174, -0.3878234922885895, -0.002560066757723689, 0.817266047000885, 0.5762555599212646, 0.028576254844665527, 0.005732238292694092, -0.044989943504333496, -0.8754178469824322, -0.1475513039687092, 0.4541313094968846,0.07508144107682334,0.0260162353515625,0.822998046875,0.5312652587890625
20220119-1817,2022-01-19 18:17:31Z,u01, 73,40,movements,el-ex, rt, d,234278.57222429168, -3.10830041080794, -0.960939056769727, -2.788371607474662, 0.18065592646598816, 0.5890238881111145, -0.3448631763458252, -0.019064651802182198, 0.819729745388031, 0.5724338889122009, 0.01572289690375328, -0.03442072868347168, -0.060028076171875, -0.8742150008540858, -0.14820622546480663, 0.45753628391413936,0.06666254783485723,-0.008270263671875,0.7738037109375,0.51104736328125
20220119-1817,2022-01-19 18:17:31Z,u01, 74,40,movements,el-ex, rt, d,234278.59717029167, -3.0824018491746465, -0.9629469799071171, -2.774195975794292, -0.027431529015302658, 0.5666942596435547, -0.3359778821468353, -0.03378435969352722, 0.8208781480789185, 0.5701037049293518, 0.017762571573257446, -0.05059915781021118, -0.03267359733581543, -0.8735228352109368, -0.14835669946691613, 0.45988551640762954,0.05876768711081422,-0.016021728515625,0.7702789306640625,0.5374298095703125
20220119-1817,2022-01-19 18:17:31Z,u01, 75,40,movements,el-ex, rt, d,234278.6221162917, -3.058746235887047, -0.9590691369379394, -2.761773905877752, -0.15432418882846832, 0.5059154033660889, -0.26816442608833313, -0.04752283915877342, 0.8186573386192322, 0.5723127722740173, 0.062308553606271744, -0.04805797338485718, -0.04513674974441528, -0.8741181814836321, -0.1485725451147839, 0.4596183800689327,0.05093733756194456,0.0085601806640625,0.7786407470703125,0.517730712890625
20220119-1817,2022-01-19 18:17:31Z,u01, 76,40,movements,el-ex, rt, d,234278.6470632917, -3.0387798790458183, -0.9584188789938565, -2.7512385562450246, 0.16181626915931702, 0.40872323513031006, -0.2163439691066742, -0.05899421498179436, 0.81828373670578, 0.5717791318893433, 0.018909335136413574, -0.03666764497756958, -0.10679793357849121, -0.8739565735592957, -0.14862532596255962, 0.46056882958654555,0.044573250696300123,-0.0400848388671875,0.7816162109375,0.4649810791015625
20220119-1817,2022-01-19 18:17:31Z,u01, 77,40,movements,el-ex, rt, d,234278.67200929168, -3.0236016052117454, -0.9638944400995867, -2.743011784582585, 0.21193814277648926, 0.27695801854133606, -0.10857754945755005, -0.06713732331991196, 0.8214188814163208, 0.566360592842102, 0.006712459027767181, -0.09503930807113647, -0.16007977724075317, -0.872455375411135, -0.1483303907924316, 0.46388414254326527,0.04039112338814771,-0.0608367919921875,0.702728271484375,0.406005859375
20220119-1817,2022-01-19 18:17:31Z,u01, 78,40,movements,el-ex, rt, d,234278.69695529167, -3.01862649843738, -0.9676581821478986, -2.7412688283647557, 0.13030940294265747, 0.05048372596502304, 0.045893386006355286, -0.06957443803548813, 0.8235596418380737, 0.5629468560218811, 0.030237220227718353, -0.19677430391311646, -0.20019954442977905, -0.8715900488741446, -0.14766250770958064, 0.4658379166967801,0.03900867982545117,-0.039337158203125,0.6267852783203125,0.3627471923828125
20220119-1817,2022-01-19 18:17:31Z,u01, 79,40,movements,el-ex, rt, d,234278.72190229167, -3.0228441491963856, -0.9726540143322738, -2.745024641086179, 0.25127047300338745, -0.13579979538917542, 0.1563829481601715, -0.06671126186847687, 0.826383113861084, 0.5591430068016052, 0.0536954402923584, -0.11297369003295898, -0.1444852352142334, -0.8706694269858352, -0.14665011433914435, 0.46775037606346603,0.040474621275149184,-0.0016021728515625,0.728057861328125,0.4084014892578125
20220119-1817,2022-01-19 18:17:31Z,u01, 80,40,movements,el-ex, rt, d,234278.7468482917, -3.034057981673091, -0.978496357770123, -2.752917358517802, 0.1346292793750763, -0.23484209179878235, 0.23728777468204498, -0.05991785600781441, 0.8296588659286499, 0.5550462603569031, 0.08343158662319183, -0.0581744909286499, -0.11586761474609375, -0.8696965208810283, -0.14543417768040365, 0.46961016336087813,0.044082550075087476,0.0235137939453125,0.771484375,0.439178466796875
20220119-1817,2022-01-19 18:17:31Z,u01, 81,40,movements,el-ex, rt, d,234278.77179429168, -3.0509285212024837, -0.981197201828566, -2.7642607438933666, 0.09681534767150879, -0.3564624488353729, 0.3042367994785309, -0.05034276098012924, 0.8311636447906494, 0.5537443161010742, 0.07704559713602066, -0.04072791337966919, -0.14721941947937012, -0.869513590636706, -0.1442853793001923, 0.469814630345906,0.04901131115542218,0.0232696533203125,0.790496826171875,0.3943634033203125
20220119-1817,2022-01-19 18:17:31Z,u01, 82,40,movements,el-ex, rt, d,234278.79674129168, -3.0742783063970736, -0.988344984462492, -2.7799595779078334, 0.46234574913978577, -0.4776231050491333, 0.4379073679447174, -0.03699987754225731, 0.8351167440414429, 0.5488276481628418, 0.027554623782634735, -0.08192741870880127, -0.19746315479278564, -0.868389100194508, -0.14252787126419228, 0.47163400836324043,0.05610509499669318,-0.0094451904296875,0.7531890869140625,0.3513641357421875
20220119-1817,2022-01-19 18:17:31Z,u01, 83,40,movements,el-ex, rt, d,234278.82168729167, -3.1045720784618123, -1.0012174173771007, -2.801025774663586, 0.35678043961524963, -0.5475488305091858, 0.518416166305542, -0.019959831610322, 0.8421281576156616, 0.5389087200164795, 0.01927313022315502, -0.08829796314239502, -0.06790012121200562, -0.8659596476189719, -0.13988658801399798, 0.4756884390283489,0.06531772871139234,0.011932373046875,0.7491912841796875,0.4874725341796875
20220119-1817,2022-01-19 18:17:31Z,u01, 84,40,movements,el-ex, rt, d,234278.8466342917, -3.141351700402705, -1.002240909892547, -2.8257922020838033, -0.280282586812973, -0.7504316568374634, 0.5591305494308472, -0.00012973303091712296, 0.8426796197891235, 0.5384159088134766, 0.10408782958984375, -0.09380859136581421, -0.044488608837127686, -0.866143343344093, -0.1378537531222439, 0.47444858455012856,0.0754374573578931,0.1039581298828125,0.748870849609375,0.493927001953125
20220119-1817,2022-01-19 18:17:31Z,u01, 85,40,movements,el-ex, rt, d,234278.87158029168, 3.0983387673019473, -0.9934344963371528, -2.8530210529423004, -0.2369731366634369, -0.8747684359550476, 0.6569836735725403, 0.023601271212100983, 0.8379055261611938, 0.5453047752380371, 0.08549901843070984, -0.0572659969329834, -0.11038339138031006, -0.8683310476346806, -0.13657812477028922, 0.46874633757784706,0.0873182316211893,0.09637451171875,0.7847747802734375,0.42291259765625
20220119-1817,2022-01-19 18:17:31Z,u01, 86,40,movements,el-ex, rt, d,234278.89652629168, 3.0478890743954636, -0.9954894707708419, -2.887970977087345, 0.5079332590103149, -0.7866227030754089, 0.8310805559158325, 0.05090886726975441, 0.8390253782272339, 0.5417059063911438, -0.02509104460477829, -0.054143667221069336, -0.09704917669296265, -0.8678218228408736, -0.13318495736420405, 0.46788706167808575,0.10113821773537404,0.02581787109375,0.784881591796875,0.4446563720703125
20220119-1817,2022-01-19 18:17:31Z,u01, 87,40,movements,el-ex, rt, d,234278.92147329167, 2.9937308241785745, -1.005302556223385, -2.929991151678942, 0.2850586175918579, -0.7551352977752686, 0.86053466796875, 0.07894084602594376, 0.8443241119384766, 0.5299860835075378, 0.011864140629768372, -0.030389904975891113, 0.039319515228271484, -0.8652702267693267, -0.1276732832730216, 0.47091271369587406,0.11510091622729522,0.122283935546875,0.7995147705078125,0.5747528076171875
20220119-1817,2022-01-19 18:17:31Z,u01, 88,40,movements,el-ex, rt, d,234278.9464192917, 2.9398797994829096, -0.9994099601986636, -2.969298511274018, -0.31625667214393616, -0.892408549785614, 0.8889579772949219, 0.10834779590368271, 0.841152012348175, 0.5298338532447815, 0.1126299574971199, -0.037441253662109375, -0.04533672332763672, -0.8658741977040165, -0.12320231650417465, 0.46735999221405417,0.12906462634458904,0.220977783203125,0.8037109375,0.4844970703125
20220119-1817,2022-01-19 18:17:31Z,u01, 89,40,movements,el-ex, rt, d,234278.971366125, 2.8855111930886417, -0.9904811962044126, -3.0080759640813843, 0.138291135430336, -0.7818250060081482, 0.9480090737342834, 0.13887673616409302, 0.8362898826599121, 0.5304079651832581, 0.0581904798746109, 0.06300199031829834, -0.10477906465530396, -0.8666599030291628, -0.11876274327841274, 0.4628083300790419,0.14354276182015802,0.1768646240234375,0.886322021484375,0.475189208984375
20220119-1817,2022-01-19 18:17:31Z,u01, 90,40,movements,el-ex, rt, d,234278.996313125, 2.829150055063317, -0.9946283395529404, -3.0517991275942284, 0.426378071308136, -0.8262087106704712, 0.8720826506614685, 0.16746743023395538, 0.8385565280914307, 0.5184383392333984, 0.017362281680107117, 0.10004228353500366, 0.07892829179763794, -0.863958412255141, -0.113115141082901, 0.46464505752215784,0.15775308856758113,0.1848297119140625,0.9385986328125,0.5973663330078125
20220119-1817,2022-01-19 18:17:31Z,u01, 91,40,movements,el-ex, rt, d,234279.021259125, 2.773906772487273, -0.9919018697042304, -3.0922035982031364, -0.11663437634706497, -0.8912655115127563, 0.8488398194313049, 0.19665858149528503, 0.8370680212974548, 0.5105319023132324, 0.05059477686882019, -0.05568075180053711, 0.013882458209991455, -0.8622837445379629, -0.10831760174176808, 0.4637363421678888,0.17228678806840608,0.248809814453125,0.7686004638671875,0.510040283203125
20220119-1817,2022-01-19 18:17:31Z,u01, 92,40,movements,el-ex, rt, d,234279.04620512502, 2.7251071207169524, -0.9767480829449627, -3.1231035842620423, -0.3563618063926697, -0.9285308718681335, 0.8851309418678284, 0.2264343947172165, 0.8286815881729126, 0.511873722076416, 0.046209633350372314, -0.012229502201080322, -0.057100534439086914, -0.8630846942095101, -0.10498411800312862, 0.45734665456673573,0.18680823854852313,0.27264404296875,0.8164520263671875,0.45477294921875
20220119-1817,2022-01-19 18:17:31Z,u01, 93,40,movements,el-ex, rt, d,234279.07115212502, 2.6757549051078424, -0.9658462198427037, 3.126789369986644, 0.24174173176288605, -0.8773697018623352, 0.8149246573448181, 0.255453497171402, 0.8225304484367371, 0.5081217885017395, 0.0056701600551605225, 0.010965824127197266, 0.0767936110496521, -0.8624960379177717, -0.10080415756587036, 0.4533310946415109,0.20107269816300713,0.2685546875,0.8589935302734375,0.5860137939453125
20220119-1817,2022-01-19 18:17:31Z,u01, 94,40,movements,el-ex, rt, d,234279.096098125, 2.6226612712154247, -0.9631897055008035, 3.0878124505023923, 0.2988765835762024, -0.826088011264801, 0.840596616268158, 0.28314149379730225, 0.8210167288780212, 0.4957447350025177, 0.055298447608947754, 0.035184502601623535, 0.03307938575744629, -0.8594774435391055, -0.09576475775073223, 0.45364051280137213,0.21526280779358295,0.33843994140625,0.856201171875,0.5288238525390625
20220119-1817,2022-01-19 18:17:31Z,u01, 95,40,movements,el-ex, rt, d,234279.121044125, 2.5760894092166797, -0.9549041351749065, 3.0558357164951, -0.07572771608829498, -0.8191684484481812, 0.8056982159614563, 0.3095485270023346, 0.8162583708763123, 0.4877525568008423, 0.039755672216415405, -0.0025986433029174805, 0.016291379928588867, -0.857612399962581, -0.09152729286270966, 0.45148714972562015,0.2286553385672135,0.35284423828125,0.804931640625,0.48406982421875
20220119-1817,2022-01-19 18:17:31Z,u01, 96,40,movements,el-ex, rt, d,234279.14599112503, 2.5338047130175583, -0.9414082753822355, 3.0284448753248325, -0.03025790862739086, -0.7763282060623169, 0.8340069055557251, 0.33615052700042725, 0.8083878755569458, 0.4832308888435364, 0.0020757317543029785, -0.020668208599090576, 0.020278900861740112, -0.8567237692661321, -0.08740610918021754, 0.44712088206349315,0.24180065269402803,0.338226318359375,0.7877197265625,0.503509521484375
20220119-1817,2022-01-19 18:17:31Z,u01, 97,40,movements,el-ex, rt, d,234279.17093712502, 2.490617172655796, -0.9314511810617777, 2.99820201477073, 0.1922556608915329, -0.7382932901382446, 0.7878105044364929, 0.3615601062774658, 0.8024866580963135, 0.47464731335639954, 0.005551129579544067, 0.05719369649887085, 0.06263023614883423, -0.8546947105736187, -0.08258697528658604, 0.4448663376365391,0.25450048467078257,0.3843231201171875,0.86968994140625,0.523193359375
20220119-1817,2022-01-19 18:17:31Z,u01, 98,40,movements,el-ex, rt, d,234279.195883125, 2.4501259948658314, -0.9220692319255522, 2.9697222450228007, 0.012944689020514488, -0.6953747868537903, 0.7402990460395813, 0.38526150584220886, 0.7968534827232361, 0.46540138125419617, 0.04619601368904114, 0.038290560245513916, 0.05820426344871521, -0.8524285565273867, -0.07788611713004948, 0.4430555085118393,0.2664606007118046,0.43145751953125,0.83514404296875,0.5236053466796875
20220119-1817,2022-01-19 18:17:31Z,u01, 99,40,movements,el-ex, rt, d,234279.220830125, 2.4164506939980033, -0.907771811291976, 2.949389736914948, -0.16939862072467804, -0.7219823598861694, 0.7683687806129456, 0.4082278609275818, 0.7881342172622681, 0.4606463611125946, 0.02217686176300049, 0.01019054651260376, 0.004273951053619385, -0.8513653273323286, -0.07416374544285573, 0.43865132235667204,0.27796051876659067,0.4272003173828125,0.791717529296875,0.446868896484375
20220119-1817,2022-01-19 18:17:31Z,u01, 100,40,movements,el-ex, rt, d,234279.24577612503, 2.380013785299401, -0.8933100045001228, 2.926275843173584, 0.1450261026620865, -0.7401354312896729, 0.8460386395454407, 0.43255817890167236, 0.7791508436203003, 0.45367154479026794, -0.030260145664215088, -0.025290250778198242, -0.029034435749053955, -0.849697715702355, -0.06963880677949699, 0.43470607875174266,0.29016378332546444,0.4022979736328125,0.7538604736328125,0.4246368408203125
20220119-1817,2022-01-19 18:17:31Z,u01, 101,40,movements,el-ex, rt, d,234279.27072212502, 2.3398470629232597, -0.8825294398200813, 2.897996267208685, 0.13777081668376923, -0.7446601986885071, 0.7496707439422607, 0.4564363658428192, 0.7723480463027954, 0.44175198674201965, -0.015472590923309326, 0.02223825454711914, 0.06885313987731934, -0.8466079262729643, -0.06427295289134666, 0.4331809294405059,0.30245405368819395,0.468780517578125,0.80963134765625,0.498077392578125
20220119-1817,2022-01-19 18:17:31Z,u01, 102,40,movements,el-ex, rt, d,234279.29566912501, 2.3076328250505207, -0.8674930470189592, 2.8802910403997464, -0.3299221396446228, -0.7537619471549988, 0.7384768724441528, 0.47897523641586304, 0.7627099752426147, 0.43457671999931335, 0.061613261699676514, 0.00769120454788208, 0.042977988719940186, -0.8447526171617203, -0.060674314494772896, 0.42886501551692147,0.31430349758726017,0.54058837890625,0.7704010009765625,0.4775543212890625
20220119-1817,2022-01-19 18:17:31Z,u01, 103,40,movements,el-ex, rt, d,234279.320615125, 2.2814539314740903, -0.847627763355058, 2.871167144279383, -0.2138955146074295, -0.7406224012374878, 0.8148441314697266, 0.5015725493431091, 0.7497126460075378, 0.4316898286342621, 0.023344993591308594, 0.010373413562774658, -0.04277363419532776, -0.8440714345875066, -0.05820934011967038, 0.4216100571238657,0.3261903064358582,0.5126800537109375,0.7648468017578125,0.3827362060546875
20220119-1817,2022-01-19 18:17:32Z,u01, 104,40,movements,el-ex, rt, d,234279.34556112502, 2.2463835562383005, -0.8338776166172581, 2.8480505663701834, 0.4411221146583557, -0.7019069194793701, 0.8152925968170166, 0.5243958830833435, 0.7405427098274231, 0.4202450215816498, -0.011242806911468506, 0.04873347282409668, -0.013659000396728516, -0.8410291938425722, -0.05284322522610685, 0.4190173331295252,0.3380859737164108,0.513153076171875,0.789276123046875,0.406585693359375
20220119-1817,2022-01-19 18:17:32Z,u01, 105,40,movements,el-ex, rt, d,234279.37050812502, 2.2061747584401514, -0.8257287520202068, 2.817242969676577, 0.27674320340156555, -0.6896854043006897, 0.7319660782814026, 0.545703649520874, 0.7350420951843262, 0.4023936092853546, 0.0365411639213562, 0.05908626317977905, 0.08535376191139221, -0.8360825356184233, -0.04650588426931182, 0.42012272386841243,0.34971426665814986,0.6000823974609375,0.779693603515625,0.5008087158203125
20220119-1817,2022-01-19 18:17:32Z,u01, 106,40,movements,el-ex, rt, d,234279.395454125, 2.182004253144851, -0.8105348459979986, 2.8070612508631263, -0.504180371761322, -0.655411958694458, 0.6141418814659119, 0.5643512606620789, 0.7246558666229248, 0.39545130729675293, 0.08852648735046387, 0.018553972244262695, 0.08477362990379333, -0.8341544899085273, -0.04372567770602426, 0.41549159615197356,0.36005714477439366,0.6528778076171875,0.7432098388671875,0.480224609375
20220119-1817,2022-01-19 18:17:32Z,u01, 107,40,movements,el-ex, rt, d,234279.420401125, 2.1668356509967985, -0.7916628871415883, 2.8085448023824378, -0.20796887576580048, -0.6095500588417053, 0.6161627769470215, 0.5814998745918274, 0.7115226984024048, 0.3944534659385681, 0.03152197599411011, 0.07784497737884521, -0.022764474153518677, -0.8338961832494011, -0.04294055362077076, 0.4075906112511619,0.3696528373902144,0.593658447265625,0.8065948486328125,0.3531951904296875
20220119-1817,2022-01-19 18:17:32Z,u01, 108,40,movements,el-ex, rt, d,234279.445347125, 2.1400123967015694, -0.7805814572682478, 2.790080869968828, 0.5071460604667664, -0.5024570822715759, 0.672887921333313, 0.5984748601913452, 0.7036926746368408, 0.38294199109077454, -0.061197638511657715, 0.04491877555847168, 0.011574208736419678, -0.8306784497358902, -0.03800400929386613, 0.40623388087891554,0.3788179967289601,0.5372772216796875,0.7486114501953125,0.3945159912109375
20220119-1817,2022-01-19 18:17:32Z,u01, 109,40,movements,el-ex, rt, d,234279.47029312502, 2.108941674439245, -0.7726361262906326, 2.7643973355081184, 0.267927348613739, -0.5546929836273193, 0.6250098347663879, 0.6148643493652344, 0.6980253458023071, 0.36701950430870056, -0.013912022113800049, 0.023395180702209473, 0.054855912923812866, -0.8261389899410538, -0.03168792953871469, 0.4075890293052769,0.3877650456223816,0.623443603515625,0.7134552001953125,0.4153594970703125
20220119-1817,2022-01-19 18:17:32Z,u01, 110,40,movements,el-ex, rt, d,234279.49524012502, 2.088443220912167, -0.7598076259882041, 2.7556023041001545, -0.31127169728279114, -0.5930004119873047, 0.5043614506721497, 0.6299876570701599, 0.6887819766998291, 0.3587411344051361, 0.04777723550796509, 0.0068051815032958984, 0.06281372904777527, -0.8237320101791751, -0.02891606772371827, 0.4041645597865977,0.39658611985486936,0.677764892578125,0.695587158203125,0.4215545654296875
20220119-1817,2022-01-19 18:17:32Z,u01, 111,40,movements,el-ex, rt, d,234279.520186125, 2.075137761451416, -0.7446346970946088, 2.757757611142931, -0.25081315636634827, -0.5612612962722778, 0.5218551754951477, 0.6437813639640808, 0.6777032613754272, 0.35533708333969116, 0.02960437536239624, 0.045044660568237305, -0.0050712525844573975, -0.8227124084344422, -0.02851037751629773, 0.3978349089962758,0.40504204453967196,0.664276123046875,0.7243804931640625,0.344451904296875
20220119-1817,2022-01-19 18:17:32Z,u01, 112,40,movements,el-ex, rt, d,234279.545132125, 2.0559329681359344, -0.732201360328186, 2.7495244965689754, 0.17516502737998962, -0.5188820362091064, 0.5925378203392029, 0.6578894257545471, 0.6685084104537964, 0.3468112051486969, -0.035071492195129395, 0.030283033847808838, -0.009118735790252686, -0.8202120747555998, -0.025646684835359673, 0.39459576139311997,0.41338674135779513,0.6228179931640625,0.69879150390625,0.3376922607421875
20220119-1817,2022-01-19 18:17:32Z,u01, 113,40,movements,el-ex, rt, d,234279.57007912503, 2.0321154696837813, -0.7224606688983853, 2.7333674805579213, 0.2250346541404724, -0.5287573933601379, 0.5666235685348511, 0.6717618703842163, 0.661232590675354, 0.3339279890060425, -0.018822908401489258, 0.02054542303085327, 0.015513807535171509, -0.8164057391421827, -0.021110828002946058, 0.39406374020056945,0.4216040377950987,0.6741943359375,0.682861328125,0.347564697265625
20220119-1817,2022-01-19 18:17:32Z,u01, 114,40,movements,el-ex, rt, d,234279.59502512502, 2.0118223988669457, -0.7108526597615256, 2.7238587002764056, -0.13504837453365326, -0.5899407267570496, 0.5217790007591248, 0.6852945685386658, 0.6524801850318909, 0.3234827518463135, 0.04700523614883423, -0.03045564889907837, 0.025348633527755737, -0.8132747378108148, -0.01804393459505399, 0.39160330069615157,0.43000641483815294,0.7322998046875,0.6220245361328125,0.3488311767578125
20220119-1817,2022-01-19 18:17:32Z,u01, 115,40,movements,el-ex, rt, d,234279.619971125, 1.9975175710152753, -0.6961697810350334, 2.7241904404626314, -0.2833441197872162, -0.5675537586212158, 0.5090737342834473, 0.6984984278678894, 0.6412834525108337, 0.3175783157348633, 0.01709306240081787, -0.026872992515563965, 0.006686568260192871, -0.8114825592238932, -0.016888118494261917, 0.3860066712968567,0.43841748371370415,0.7105712890625,0.62677001953125,0.3181915283203125
20220119-1817,2022-01-19 18:17:32Z,u01, 116,40,movements,el-ex, rt, d,234279.644918125, 1.982336911071296, -0.6820728929563559, 2.721710127978413, -0.028287168592214584, -0.5401372313499451, 0.5732359886169434, 0.7114538550376892, 0.6304035186767578, 0.31052401661872864, 0.014605104923248291, 0.009611189365386963, -0.009116917848587036, -0.8093464020940285, -0.014846354765936098, 0.38126146179627524,0.44651742585489673,0.7260589599609375,0.6400146484375,0.3014068603515625
20220119-1817,2022-01-19 18:17:32Z,u01, 117,40,movements,el-ex, rt, d,234279.66986412503, 1.9636791316669955, -0.6692400192419437, 2.7132457706060396, 0.08422965556383133, -0.5432872176170349, 0.5736112594604492, 0.7245375514030457, 0.6203901171684265, 0.3002692461013794, 0.009196579456329346, -0.007139384746551514, 0.005868047475814819, -0.8062296122050313, -0.011332906383152402, 0.37835684441869033,0.4546554135548562,0.7383575439453125,0.608795166015625,0.3044586181640625
20220119-1817,2022-01-19 18:17:32Z,u01, 118,40,movements,el-ex, rt, d,234279.69481012502, 1.945631471888325, -0.6563907449108215, 2.705297027248558, -0.047078900039196014, -0.5212358236312866, 0.5798556804656982, 0.7371960282325745, 0.6102615594863892, 0.290039598941803, 0.03282350301742554, -0.0031449198722839355, 0.01425144076347351, -0.8030929240208458, -0.007845761390913142, 0.375424826519295,0.4626407504838717,0.77001953125,0.60711669921875,0.304290771484375
20220119-1817,2022-01-19 18:17:32Z,u01, 119,40,movements,el-ex, rt, d,234279.719757125, 1.9313070783796518, -0.6424688982905187, 2.702733991933294, -0.1691252440214157, -0.4987410306930542, 0.5377736687660217, 0.7491527199745178, 0.599173903465271, 0.28242015838623047, 0.03609514236450195, 0.016747117042541504, 0.024464964866638184, -0.8007374012069524, -0.00544892086664972, 0.3709384059518932,0.47031346690400666,0.7890167236328125,0.61865234375,0.30194091796875
20220119-1817,2022-01-19 18:17:32Z,u01, 120,40,movements,el-ex, rt, d,234279.744703125, 1.917336959581864, -0.6285579279177598, 2.69954700856033, 0.03876852989196777, -0.47710612416267395, 0.5652507543563843, 0.760791540145874, 0.5879788994789124, 0.2747317850589752, 0.005245566368103027, 0.04841947555541992, -0.02721869945526123, -0.7983475061599373, -0.002674911543694314, 0.36664689078552704,0.4777073949540351,0.7660369873046875,0.6363983154296875,0.2475128173828125
20220119-1817,2022-01-19 18:17:32Z,u01, 121,40,movements,el-ex, rt, d,234279.76964912502, 1.898655466490948, -0.6167837979579809, 2.6870709518256044, 0.34985363483428955, -0.4550619423389435, 0.5791946649551392, 0.7722915410995483, 0.5784145593643188, 0.26268306374549866, -0.014936864376068115, 0.04277074337005615, -0.009509116411209106, -0.7945665175064265, 0.002361896989354101, 0.36542259312077274,0.4848966913481806,0.7642974853515625,0.6179046630859375,0.2471160888671875
20220119-1817,2022-01-19 18:17:32Z,u01, 122,40,movements,el-ex, rt, d,234279.79459612502, 1.879407452583708, -0.6052450157375253, 2.674122907936502, 0.07806017994880676, -0.4912884533405304, 0.5312750339508057, 0.7835112810134888, 0.5689635872840881, 0.24978089332580566, 0.00808417797088623, 0.00243222713470459, 0.035085633397102356, -0.7904650986918578, 0.007441279036036003, 0.36452484296757925,0.4921698787093488,0.791595458984375,0.5713958740234375,0.2848663330078125
20220119-1817,2022-01-19 18:17:32Z,u01, 123,40,movements,el-ex, rt, d,234279.819542125, 1.867284750786816, -0.5916769159057786, 2.6751304687005386, -0.4384090006351471, -0.5138341784477234, 0.5055779218673706, 0.7937919497489929, 0.5577536821365356, 0.2424977421760559, 0.010849714279174805, -0.0005332827568054199, 0.08635993301868439, -0.7881425079232302, 0.008958581963395162, 0.3595182535781507,0.4994974891286297,0.8018341064453125,0.555267333984375,0.3383636474609375
20220119-1817,2022-01-19 18:17:32Z,u01, 124,40,movements,el-ex, rt, d,234279.844489125, 1.860142647870867, -0.5768584365540285, 2.6851201437798826, -0.5015848875045776, -0.48838862776756287, 0.4369673430919647, 0.803337812423706, 0.5453934073448181, 0.23915450274944305, 0.011557996273040771, 0.04652559757232666, 0.07404771447181702, -0.7870889004964807, 0.008265390456789534, 0.35178262133792887,0.5066280314782249,0.8148956298828125,0.5919189453125,0.313201904296875
20220119-1817,2022-01-19 18:17:32Z,u01, 125,40,movements,el-ex, rt, d,234279.869435125, 1.8542969889870828, -0.5625782996844235, 2.696846957130487, -0.6164588332176208, -0.4925917983055115, 0.43446534872055054, 0.8121169209480286, 0.5333688855171204, 0.23660887777805328, 0.03875887393951416, 0.04084980487823486, 0.051553696393966675, -0.7862922475936281, 0.006995617437666274, 0.34373447030168586,0.5133636165316142,0.8501434326171875,0.5637969970703125,0.2833099365234375
20220119-1817,2022-01-19 18:17:32Z,u01, 126,40,movements,el-ex, rt, d,234279.89438112502, 1.8469557055458916, -0.5477600494371822, 2.707757268900571, -0.35171931982040405, -0.5254688262939453, 0.48284295201301575, 0.8213467001914978, 0.5207763314247131, 0.23277023434638977, -0.04064595699310303, 0.00943613052368164, -0.04420185089111328, -0.7850790548440241, 0.0059996675889020246, 0.33564922763062766,0.5205330292859203,0.78070068359375,0.53021240234375,0.188568115234375
20220119-1817,2022-01-19 18:17:32Z,u01, 127,40,movements,el-ex, rt, d,234279.91932812502, 1.8327900624628706, -0.5353351199324462, 2.7063004769475687, 0.12126769125461578, -0.5431486964225769, 0.4933912754058838, 0.8307477235794067, 0.5101293325424194, 0.22277124226093292, -0.05274760723114014, 0.03953814506530762, -0.042457789182662964, -0.7818702437919749, 0.008033738608114432, 0.33164742570151373,0.5278490891274129,0.792694091796875,0.5444793701171875,0.1905364990234375
20220119-1817,2022-01-19 18:17:32Z,u01, 128,40,movements,el-ex, rt, d,234279.944274125, 1.8164583827549226, -0.5235992426967151, 2.7003818761779868, -0.038512639701366425, -0.5041480660438538, 0.4940546452999115, 0.8400241732597351, 0.5000004172325134, 0.2106160819530487, 0.03151208162307739, -0.04254192113876343, 0.02679571509361267, -0.7779335246348342, 0.011290519380945024, 0.32913108424501397,0.5351305790489297,0.8715362548828125,0.45745849609375,0.2374114990234375
20220119-1817,2022-01-19 18:17:32Z,u01, 129,40,movements,el-ex, rt, d,234279.96921925002, 1.8049340037322834, -0.5109461150612572, 2.7004211345901563, -0.14895926415920258, -0.41773808002471924, 0.4937180280685425, 0.8484820127487183, 0.4890027344226837, 0.20237325131893158, 0.03365921974182129, -0.06047487258911133, 0.013676166534423828, -0.7752472368482821, 0.0133546854639561, 0.32471550439772195,0.5416394920049452,0.8797149658203125,0.440765380859375,0.2000274658203125
20220119-1817,2022-01-19 18:17:32Z,u01, 130,40,movements,el-ex, rt, d,234279.99416625002, 1.7938420386864957, -0.49844108390203257, 2.6954764992113875, 0.32239964604377747, -0.2845376133918762, 0.5475488305091858, 0.8565711975097656, 0.4780568778514862, 0.19428716599941254, 0.0088004469871521, 0.038239479064941406, -0.033306628465652466, -0.7725543497571551, 0.01741713245841292, 0.3217349632490516,0.5471225438153916,0.8653717041015625,0.51629638671875,0.160980224609375
20220119-1817,2022-01-19 18:17:32Z,u01, 131,40,movements,el-ex, rt, d,234280.01911225, 1.7790490494642532, -0.48777799793594073, 2.6776095806956772, 0.6060696840286255, -0.25461140275001526, 0.5295432209968567, 0.8642899394035339, 0.46866416931152344, 0.18263870477676392, 0.020521461963653564, 0.041360825300216675, -0.015218988060951233, -0.7685565151632594, 0.025302845423395948, 0.3230605473036368,0.5516453551919904,0.888702392578125,0.5077667236328125,0.1710662841796875
20220119-1817,2022-01-19 18:17:32Z,u01, 132,40,movements,el-ex, rt, d,234280.04405825, 1.7643856393185586, -0.47771769689320065, 2.66335026336076, 0.12955765426158905, -0.36322489380836487, 0.45833221077919006, 0.8714580535888672, 0.4597535729408264, 0.17084455490112305, 0.023729383945465088, 0.016976773738861084, 0.0027244091033935547, -0.7644753251528061, 0.031618925421702526, 0.32371917803649763,0.5565822360638133,0.8951873779296875,0.4767303466796875,0.1735687255859375
20220119-1817,2022-01-19 18:17:32Z,u01, 133,40,movements,el-ex, rt, d,234280.06900525003, 1.7549941897425871, -0.4666856343859099, 2.664314141436076, -0.25556570291519165, -0.3883199393749237, 0.39320799708366394, 0.8779572248458862, 0.44992882013320923, 0.16357198357582092, 0.007602035999298096, 0.054053813219070435, 0.00810493528842926, -0.762021886980334, 0.03329616573719171, 0.3197810054075154,0.5620982095288315,0.8849639892578125,0.51416015625,0.1659698486328125
20220119-1817,2022-01-19 18:17:32Z,u01, 134,40,movements,el-ex, rt, d,234280.09395125002, 1.746842411477458, -0.45700342952972217, 2.666993457533284, -0.031665556132793427, -0.3336147367954254, 0.3264370858669281, 0.8835088610649109, 0.44126102328300476, 0.1571652740240097, -0.0026647448539733887, 0.12859368324279785, 0.0018925517797470093, -0.7598807389261293, 0.034115965948538496, 0.3158127249264595,0.5671681740907304,0.8808441162109375,0.569854736328125,0.1590576171875
20220119-1817,2022-01-19 18:17:32Z,u01, 135,40,movements,el-ex, rt, d,234280.11889825002, 1.7383235271836088, -0.4504901791993688, 2.663003205780928, 0.18432946503162384, -0.21567611396312714, 0.23473593592643738, 0.8876307606697083, 0.4354068636894226, 0.15010923147201538, -0.0061151981353759766, 0.12774932384490967, 0.031409502029418945, -0.7574492431490202, 0.036404074417777044, 0.3148500747510188,0.570802032991678,0.884552001953125,0.557281494140625,0.1826934814453125
20220119-1817,2022-01-19 18:17:32Z,u01, 136,40,movements,el-ex, rt, d,234280.14384425, 1.7309610697079143, -0.4464671567430379, 2.6570952451472536, 0.1493625044822693, -0.1766805797815323, 0.1458941549062729, 0.8904340267181396, 0.43178167939186096, 0.14384828507900238, -0.006339609622955322, 0.09052672982215881, 0.04296530783176422, -0.7552611020925111, 0.038791862222243484, 0.3152948810253543,0.5732933178188071,0.88409423828125,0.522308349609375,0.1868133544921875
20220119-1817,2022-01-19 18:17:32Z,u01, 137,40,movements,el-ex, rt, d,234280.16879025003, 1.725771611971614, -0.4440788370411556, 2.6549073679065662, -0.0373576283454895, -0.17525166273117065, 0.07419453561306, 0.8921846747398376, 0.4296262562274933, 0.13938423991203308, -0.004870772361755371, 0.07005330920219421, 0.05022166669368744, -0.7537409582040661, 0.03958144238226893, 0.31520609176152026,0.5752852126468952,0.888397216796875,0.4925079345703125,0.188262939453125
20220119-1817,2022-01-19 18:17:32Z,u01, 138,40,movements,el-ex, rt, d,234280.19373725003, 1.7231951022575023, -0.44329694843351825, 2.6590965891260505, -0.2779274582862854, -0.1695372611284256, -0.06834683567285538, 0.8928726315498352, 0.42892006039619446, 0.13713601231575012, -0.011768996715545654, 0.07014915347099304, 0.04589341580867767, -0.7530836771879115, 0.037854778001326084, 0.3137814542691314,0.5770383666945386,0.881103515625,0.4990692138671875,0.1830291748046875
20220119-1817,2022-01-19 18:17:32Z,u01, 139,40,movements,el-ex, rt, d,234280.21868325002, 1.7239579142149986, -0.44512792005825147, 2.6702428162100698, -0.4654906094074249, -0.1546182930469513, -0.19283822178840637, 0.8919901251792908, 0.43057334423065186, 0.1376970261335373, -0.01102381944656372, 0.08775249123573303, 0.05236661434173584, -0.7534905144550909, 0.03317467713697406, 0.3111763512757371,0.578204861980211,0.8775482177734375,0.52001953125,0.1908111572265625
20220119-1817,2022-01-19 18:17:32Z,u01, 140,40,movements,el-ex, rt, d,234280.24362925, 1.7258235206721404, -0.44867246341509304, 2.6827618778852926, -0.32562869787216187, -0.11554811894893646, -0.2062656283378601, 0.8902181386947632, 0.43376976251602173, 0.13912434875965118, -0.026753783226013184, 0.1029428243637085, 0.013707861304283142, -0.7541892299818843, 0.027582284055413797, 0.3087448183609799,0.57889076312914,0.86346435546875,0.536712646484375,0.15283203125
20220119-1817,2022-01-19 18:17:32Z,u01, 141,40,movements,el-ex, rt, d,234280.26857625, 1.727413437896014, -0.4534865961763551, 2.6905254978649618, -0.23628664016723633, -0.039105676114559174, -0.2663045823574066, 0.8879229426383972, 0.4381023645401001, 0.14021222293376923, -0.017500460147857666, 0.0905231237411499, 0.07235825061798096, -0.7546934731824608, 0.02332112036977682, 0.308135938616688,0.5787454385981645,0.8785858154296875,0.51910400390625,0.2188873291015625
20220119-1817,2022-01-19 18:17:33Z,u01, 142,40,movements,el-ex, rt, d,234280.29352225002, 1.7319309407617134, -0.459713070681572, 2.700406426174838, -0.3850148320198059, 0.07213089615106583, -0.3498825132846832, 0.8845707774162292, 0.4436909854412079, 0.14378152787685394, -0.004413187503814697, 0.033771812915802, 0.09652936458587646, -0.756014419678183, 0.018247224753153046, 0.3073819043412847,0.5776034269205489,0.880157470703125,0.4774627685546875,0.2403106689453125
20220119-1817,2022-01-19 18:17:33Z,u01, 143,40,movements,el-ex, rt, d,234280.31846825, 1.7406699606981644, -0.46757019060361443, 2.7114461205657627, -0.2288002371788025, 0.23639246821403503, -0.38712263107299805, 0.8798174262046814, 0.45071861147880554, 0.15091221034526825, -0.02009129524230957, 0.06281602382659912, 0.08907832205295563, -0.7584794244867374, 0.012847930982004568, 0.3068562669308026,0.5747898206907929,0.857635498046875,0.516754150390625,0.23541259765625
20220119-1817,2022-01-19 18:17:33Z,u01, 144,40,movements,el-ex, rt, d,234280.34341525, 1.7503850763550333, -0.4767937483647111, 2.716238276997939, 0.0014642011374235153, 0.36530452966690063, -0.398446261882782, 0.8741821050643921, 0.45893287658691406, 0.15870311856269836, -0.011358499526977539, 0.053289443254470825, 0.09108352661132812, -0.7610917969565846, 0.00953073499381954, 0.30863958277485964,0.5704298462326944,0.862823486328125,0.5122222900390625,0.249786376953125
20220119-1817,2022-01-19 18:17:33Z,u01, 145,40,movements,el-ex, rt, d,234280.39330825, 1.7756900189894187, -0.49848915534760563, 2.724397887791251, -0.3157074451446533, 0.5096900463104248, -0.5729268193244934, 0.8599342703819275, 0.47809910774230957, 0.17870287597179413, 0.01053398847579956, 0.011692821979522705, 0.12592387199401855, -0.7676848356553369, 0.003380540992053982, 0.3138504896391727,0.5587008291767905,0.8739013671875,0.49066162109375,0.2595062255859375
20220119-1817,2022-01-19 18:17:33Z,u01, 146,40,movements,el-ex, rt, d,234280.36836125, 1.7607073504177442, -0.48694477877315245, 2.717327243831935, 0.0023270659148693085, 0.4192553758621216, -0.44366884231567383, 0.8678774237632751, 0.4679279625415802, 0.16682995855808258, 0.007320880889892578, 0.019788652658462524, 0.09171518683433533, -0.7637798092727405, 0.007442171536308523, 0.3118302080899674,0.5651079051051807,0.8704681396484375,0.4897918701171875,0.30462646484375
20220119-1817,2022-01-19 18:17:33Z,u01, 147,40,movements,el-ex, rt, d,234280.41825425002, 1.7978681119375715, -0.5114649263914607, 2.740715718117071, -0.5189880132675171, 0.6404221057891846, -0.6609920859336853, 0.8496434688568115, 0.4894552230834961, 0.19631583988666534, 0.015240073204040527, 0.047471076250076294, 0.13403713703155518, -0.7733986039618573, -0.003537813141954116, 0.31391217982674297,0.550728038183416,0.861236572265625,0.55029296875,0.32672119140625
20220119-1817,2022-01-19 18:17:33Z,u01, 148,40,movements,el-ex, rt, d,234280.46814725, 1.8502537557591099, -0.5408492436412972, 2.7639570475027635, 0.13212262094020844, 0.9881858825683594, -0.6602863669395447, 0.8240141272544861, 0.5148642063140869, 0.23646485805511475, 0.000982820987701416, 0.11153954267501831, 0.05590902268886566, -0.7861629593052962, -0.013424922552515511, 0.3184116744723945,0.5295107361442432,0.8314361572265625,0.6016082763671875,0.292449951171875
20220119-1817,2022-01-19 18:17:33Z,u01, 149,40,movements,el-ex, rt, d,234280.44320025, 1.8240651468717588, -0.5251954039989644, 2.757112537501279, -0.27192577719688416, 0.8160732984542847, -0.6812185645103455, 0.837624192237854, 0.5013821125030518, 0.2167995721101761, -0.0061879754066467285, 0.10022616386413574, 0.07565067708492279, -0.7799347526853844, -0.010078136684131461, 0.3144343800496946,0.5410465408732651,0.825653076171875,0.620758056640625,0.2993927001953125
20220119-1817,2022-01-19 18:17:33Z,u01, 150,40,movements,el-ex, rt, d,234280.51803925002, 1.902294956859304, -0.5789017999729587, 2.771338527004627, -0.1289111077785492, 0.885230541229248, -0.8434165120124817, 0.7914907932281494, 0.5471050143241882, 0.27243128418922424, 0.05575352907180786, 0.04943740367889404, 0.015090346336364746, -0.7973974266566441, -0.019312861360108097, 0.3308423598505783,0.5043092810164506,0.837677001953125,0.6011962890625,0.297760009765625
20220119-1817,2022-01-19 18:17:33Z,u01, 151,40,movements,el-ex, rt, d,234280.54298625002, 1.9312298883859234, -0.5971935014263915, 2.785090262243447, -0.16875533759593964, 0.8417115807533264, -0.8425419330596924, 0.7737826704978943, 0.5623239278793335, 0.2916370928287506, 0.03331565856933594, 0.04515892267227173, -0.004832655191421509, -0.803228622858172, -0.025344041611930407, 0.3345087542135041,0.4922249171373374,0.845855712890625,0.5962371826171875,0.2913055419921875
20220119-1817,2022-01-19 18:17:33Z,u01, 152,40,movements,el-ex, rt, d,234280.56793225, 1.9594602272191197, -0.6158491655521142, 2.79632981288795, 0.040158700197935104, 0.9088596105575562, -0.8348143100738525, 0.7554019689559937, 0.5776519179344177, 0.3093325197696686, 0.012771308422088623, 0.05339062213897705, -0.02678525447845459, -0.8085410672792143, -0.030456487429561002, 0.33914103690869046,0.4799138155171152,0.807098388671875,0.60748291015625,0.28680419921875
20220119-1817,2022-01-19 18:17:33Z,u01, 153,40,movements,el-ex, rt, d,234280.59287925, 1.9876576534030823, -0.6358356329262078, 2.805679053120434, -0.05189242959022522, 0.8938968181610107, -0.8782758116722107, 0.735675573348999, 0.5938500761985779, 0.32576683163642883, 0.05138814449310303, 3.731250762939453e-05, 0.010476112365722656, -0.8134227159630001, -0.03502719742825089, 0.34491922394644475,0.4670625989796134,0.7628631591796875,0.62896728515625,0.2892913818359375
20220119-1817,2022-01-19 18:17:33Z,u01, 154,40,movements,el-ex, rt, d,234280.49309325003, 1.8752420142104465, -0.5593024540589332, 2.7643623846848895, 0.16829925775527954, 0.9730802178382874, -0.7800173163414001, 0.8086462020874023, 0.530595064163208, 0.25408801436424255, 0.029030919075012207, 0.07060122489929199, 0.04367232322692871, -0.7917162416363402, -0.01514614040690343, 0.3252027423444107,0.5169133217173586,0.7870635986328125,0.5938873291015625,0.33624267578125
20220119-1817,2022-01-19 18:17:33Z,u01, 155,40,movements,el-ex, rt, d,234280.61782525002, 2.019158198534427, -0.6543443077758664, 2.8224459476469552, -0.25989624857902527, 0.836656928062439, -0.9034097194671631, 0.7150218486785889, 0.608639121055603, 0.34395143389701843, 0.07617700099945068, -0.017162680625915527, 0.011441230773925781, -0.818691307526456, -0.04147607768788916, 0.34869656633300283,0.4543513214961644,0.7852630615234375,0.5943450927734375,0.36163330078125
20220119-1817,2022-01-19 18:17:33Z,u01, 156,40,movements,el-ex, rt, d,234280.64277125002, 2.0527028088713797, -0.6711380940455114, 2.842279647657252, -0.2138609141111374, 0.889227569103241, -0.8523341417312622, 0.6939280033111572, 0.6218776702880859, 0.3629496395587921, 0.05648404359817505, -0.0016994476318359375, -0.009143859148025513, -0.8241048715506941, -0.04822840953795704, 0.35146225694016586,0.4415875583814424,0.7504119873046875,0.62017822265625,0.3538055419921875
20220119-1817,2022-01-19 18:17:33Z,u01, 157,40,movements,el-ex, rt, d,234280.66771825, 2.0857598259461523, -0.68830496487272, 2.8580483559306686, 0.030331134796142578, 0.9914076328277588, -0.8324211239814758, 0.6721621751785278, 0.6352289915084839, 0.38037213683128357, 0.062411367893218994, 0.005914926528930664, -0.01522892713546753, -0.8290595776464603, -0.053350526330879, 0.3555435932709724,0.42825572611787766,0.7288665771484375,0.6463470458984375,0.3769683837890625
20220119-1817,2022-01-19 18:17:33Z,u01, 158,40,movements,el-ex, rt, d,234280.69266425, 2.1178368831701797, -0.7075160034556519, 2.867759408452703, 0.15326957404613495, 1.0766217708587646, -0.8160451054573059, 0.6490732431411743, 0.649948000907898, 0.39531201124191284, 0.07405596971511841, 0.0019989609718322754, 0.05381542444229126, -0.8333469423948523, -0.056470106288381755, 0.3619111280919549,0.41396176437560805,0.7231292724609375,0.651947021484375,0.449127197265625
20220119-1817,2022-01-19 18:17:33Z,u01, 159,40,movements,el-ex, rt, d,234280.71761025002, 2.153652391080778, -0.7252234105342015, 2.880840612811578, -0.05220654979348183, 1.0890402793884277, -0.8300747871398926, 0.6247941255569458, 0.6633026599884033, 0.4119006097316742, 0.0872267484664917, -0.02975773811340332, 0.07697591185569763, -0.8380826601123189, -0.05973072686236347, 0.3672942962186484,0.39892940898052165,0.71014404296875,0.640380859375,0.4752044677734375
20220119-1817,2022-01-19 18:17:33Z,u01, 160,40,movements,el-ex, rt, d,234280.74255725002, 2.192979001883764, -0.7415497993735561, 2.898499332966726, -0.04547794163227081, 1.1134403944015503, -0.8299756646156311, 0.5992358922958374, 0.6754316091537476, 0.4297775328159332, 0.0972057580947876, 0.02546560764312744, 0.021913379430770874, -0.8431054680572466, -0.06373328739356746, 0.3715744417715011,0.3834628198574168,0.696441650390625,0.700897216796875,0.451690673828125
20220119-1817,2022-01-19 18:17:33Z,u01, 161,40,movements,el-ex, rt, d,234280.76750325, 2.2327060120323337, -0.758312203389988, 2.9156012851994357, 0.04443513974547386, 1.1753047704696655, -0.8250536918640137, 0.5726816058158875, 0.6876971125602722, 0.44621598720550537, 0.06907254457473755, 0.025300323963165283, 0.026028573513031006, -0.8476883149626537, -0.06732391003951321, 0.3764289925812813,0.367686397014057,0.623443603515625,0.7100067138671875,0.4794464111328125
20220119-1817,2022-01-19 18:17:33Z,u01, 162,40,movements,el-ex, rt, d,234280.79245025, 2.273949152763424, -0.7751999982218194, 2.931756025007347, 0.08320693671703339, 1.2101339101791382, -0.8394746780395508, 0.5448590517044067, 0.6998589634895325, 0.46187281608581543, 0.029329240322113037, 0.023010969161987305, 0.05269956588745117, -0.8520755561847428, -0.07002612751645837, 0.3818241386068929,0.35110404855677285,0.574188232421875,0.722869873046875,0.5145721435546875
20220119-1817,2022-01-19 18:17:33Z,u01, 163,40,movements,el-ex, rt, d,234280.81739625, 2.317608941549562, -0.7924678111781611, 2.9517837002022693, -0.03857206180691719, 1.1478521823883057, -0.9335739016532898, 0.5152344703674316, 0.7120880484580994, 0.476932168006897, 0.05832815170288086, 0.050805628299713135, 0.02808818221092224, -0.8561703047120997, -0.07374610330113568, 0.38706728614522096,0.3342348278902094,0.57086181640625,0.7662200927734375,0.4823150634765625
20220119-1817,2022-01-19 18:17:33Z,u01, 164,40,movements,el-ex, rt, d,234280.84234225002, 2.3634263049680224, -0.8076725718902059, 2.9769742465207916, -0.10427311062812805, 1.063252568244934, -0.9509008526802063, 0.48519277572631836, 0.7226804494857788, 0.492261677980423, 0.049597352743148804, 0.018622159957885742, -0.04417175054550171, -0.8602047156429513, -0.07860461570739571, 0.39102709192788054,0.3177533455976012,0.5347900390625,0.741302490234375,0.448089599609375
20220119-1817,2022-01-19 18:17:33Z,u01, 165,40,movements,el-ex, rt, d,234280.86728925002, 2.408840375840477, -0.8217702835457038, 3.0027230775229192, -0.036557648330926895, 1.0547680854797363, -0.9198921918869019, 0.45548364520072937, 0.7323524355888367, 0.506156861782074, 0.026053190231323242, -0.00989454984664917, -0.04952210187911987, -0.86378805612161, -0.08335844510022136, 0.39479875350671967,0.30175414525618605,0.4778900146484375,0.72454833984375,0.4522552490234375
20220119-1817,2022-01-19 18:17:33Z,u01, 166,40,movements,el-ex, rt, d,234280.89223525, 2.4533569824192503, -0.8363351213687562, 3.027814691021427, 0.0262464489787817, 1.0429768562316895, -0.9018349647521973, 0.42568662762641907, 0.7421919703483582, 0.5176312923431396, 0.061953723430633545, -0.009937942028045654, -0.027579843997955322, -0.8666575460955359, -0.08786542393351082, 0.3991899307181689,0.28606259785734356,0.487640380859375,0.7322540283203125,0.49005126953125
20220119-1817,2022-01-19 18:17:33Z,u01, 167,40,movements,el-ex, rt, d,234280.91718225, 2.4982361843883836, -0.8511171919809819, 3.0542448803721025, -0.016329342499375343, 0.9774309992790222, -0.9454616904258728, 0.39541003108024597, 0.7520172595977783, 0.5273723006248474, 0.10181295871734619, 0.029080331325531006, -0.04066234827041626, -0.8689640644588809, -0.09266925914835741, 0.40385283541384553,0.27058628650875083,0.5130767822265625,0.7850494384765625,0.486358642578125
20220119-1817,2022-01-19 18:17:33Z,u01, 168,40,movements,el-ex, rt, d,234280.94212825003, 2.5433476822539447, -0.8643328333169173, 3.083027638414651, 0.015960954129695892, 0.9251893758773804, -0.9188697934150696, 0.36559557914733887, 0.760662317276001, 0.5364072918891907, 0.10898324847221375, 0.009082436561584473, -0.08660846948623657, -0.8709801478551935, -0.09796538576704134, 0.4079036205401111,0.2557558026906986,0.474578857421875,0.769744873046875,0.449798583984375
20220119-1817,2022-01-19 18:17:33Z,u01, 169,40,movements,el-ex, rt, d,234280.99202287503, 2.626622004200475, -0.8948416700267782, 3.132260035326171, 0.28255096077919006, 0.8855460286140442, -0.8655884265899658, 0.3081347644329071, 0.7801100611686707, 0.5445011854171753, 0.06286737322807312, 0.004145920276641846, -0.029196441173553467, -0.8723490388186448, -0.10610255158667212, 0.4194456788790818,0.22762866056508663,0.3952789306640625,0.7869873046875,0.4705657958984375
20220119-1817,2022-01-19 18:17:33Z,u01, 170,40,movements,el-ex, rt, d,234281.01696887502, 2.6687979635451646, -0.907860579468346, -3.1234006463834922, -0.055811770260334015, 0.8058903217315674, -0.7991079688072205, 0.2802538275718689, 0.7881888747215271, 0.5479200482368469, 0.08333253860473633, -0.0507926344871521, -0.030875742435455322, -0.8727649366165755, -0.11064087034947578, 0.42437338686698045,0.21435320093113983,0.371002197265625,0.7842559814453125,0.5153045654296875
20220119-1817,2022-01-19 18:17:33Z,u01, 171,40,movements,el-ex, rt, d,234281.041914875, 2.715151712515185, -0.9123531203455243, -3.0903582775289395, -0.24677270650863647, 0.7365202307701111, -0.8049763441085815, 0.25309646129608154, 0.7909457683563232, 0.5570880770683289, 0.08628946542739868, -0.031149685382843018, -0.02855396270751953, -0.874737947379632, -0.11566138055055755, 0.4255358507326602,0.20093594216150676,0.3508148193359375,0.71759033203125,0.524444580078125
20220119-1817,2022-01-19 18:17:33Z,u01, 172,40,movements,el-ex, rt, d,234280.967075875, 2.585683367143502, -0.8782442583572253, 3.1083889499825825, 0.20554223656654358, 0.903630256652832, -0.8919265270233154, 0.3369486927986145, 0.7696190476417542, 0.5423586964607239, 0.06614276766777039, 0.002948939800262451, -0.07630914449691772, -0.8722021375227216, -0.10218987291679735, 0.41289397653587817,0.24153568014023874,0.339385986328125,0.759796142578125,0.528533935546875
20220119-1817,2022-01-19 18:17:33Z,u01, 173,40,movements,el-ex, rt, d,234281.066861875, 2.7594105952322376, -0.9157614590707011, -3.059081427262624, -0.06361613422632217, 0.798345685005188, -0.7330875992774963, 0.22719387710094452, 0.7930266857147217, 0.5652360916137695, 0.0790499895811081, -0.03081965446472168, -0.02583765983581543, -0.8764518699495581, -0.12020887815068718, 0.42660592709196193,0.18812072475950714,0.2953338623046875,0.7665252685546875,0.5482940673828125
20220119-1817,2022-01-19 18:17:33Z,u01, 174,40,movements,el-ex, rt, d,234281.09180787503, 2.7994462621543668, -0.9231003450861087, -3.032142027910159, 0.08267177641391754, 0.7921638488769531, -0.6467110514640808, 0.2024301439523697, 0.797476053237915, 0.5683786273002625, 0.043007418513298035, -0.05118393898010254, -0.01820749044418335, -0.8768256129638619, -0.12396028926835018, 0.42984143980373024,0.17620190002253802,0.2454376220703125,0.7462921142578125,0.5501708984375
20220119-1817,2022-01-19 18:17:33Z,u01, 175,40,movements,el-ex, rt, d,234281.11675487502, 2.836388435655413, -0.9289845528972833, -3.008417210617843, -0.02345166727900505, 0.6705118417739868, -0.6079456806182861, 0.1798866093158722, 0.8010124564170837, 0.5709821581840515, 0.052275851368904114, -0.09179902076721191, -0.03278905153274536, -0.8771701152287841, -0.12674250942258927, 0.4327387872578501,0.1650645680733394,0.2276611328125,0.7170562744140625,0.5437469482421875
20220119-1817,2022-01-19 18:17:33Z,u01, 176,40,movements,el-ex, rt, d,234281.141700875, 2.8713969849981233, -0.9312998407366991, -2.9854305153374803, -0.10198226571083069, 0.6302368640899658, -0.549170196056366, 0.1592956781387329, 0.8023963570594788, 0.5751394033432007, 0.0539763867855072, -0.06904363632202148, -0.019887089729309082, -0.8779735733005551, -0.129352672009107, 0.4341694858293865,0.1546844066735449,0.2132720947265625,0.7333526611328125,0.5552520751953125
20220119-1817,2022-01-19 18:17:33Z,u01, 177,40,movements,el-ex, rt, d,234281.166646875, 2.905120373430293, -0.9321365813263353, -2.963124884349643, -0.07358191907405853, 0.6440744400024414, -0.4701129198074341, 0.1396557092666626, 0.8028954267501831, 0.5795301198959351, 0.04204589128494263, -0.047417640686035156, -0.020188570022583008, -0.8788514679847899, -0.13185283670060743, 0.4350735740682037,0.14472700625413618,0.176727294921875,0.7611083984375,0.55865478515625
20220119-1817,2022-01-19 18:17:33Z,u01, 178,40,movements,el-ex, rt, d,234281.191593875, 2.9349938114279333, -0.934542283696174, -2.9447902465926616, 0.05741691589355469, 0.5821883082389832, -0.43468526005744934, 0.1218869611620903, 0.8043271899223328, 0.5815513134002686, 0.025818124413490295, -0.05035972595214844, -0.05056041479110718, -0.8791826373003638, -0.1334674508817231, 0.43683852929748,0.1356341666047538,0.147705078125,0.75396728515625,0.5309906005859375
20220119-1817,2022-01-19 18:17:33Z,u01, 179,40,movements,el-ex, rt, d,234281.21653987502, 2.9618054199462125, -0.9365911100458314, -2.9292643753748093, -0.05926818773150444, 0.5523424744606018, -0.3592694401741028, 0.1059577465057373, 0.8055428862571716, 0.5829870700836182, 0.03160020709037781, -0.059265971183776855, -0.030923843383789062, -0.8794385633563264, -0.13446693661533604, 0.438523898240069,0.12729239035792292,0.1350555419921875,0.7513580322265625,0.5453948974609375
20220119-1817,2022-01-19 18:17:33Z,u01, 180,40,movements,el-ex, rt, d,234281.24148687502, 2.9874301603044313, -0.9352778975443458, -2.913542780224436, -0.16599313914775848, 0.46788302063941956, -0.33005794882774353, 0.09114808589220047, 0.8047640919685364, 0.586555540561676, 0.045311249792575836, -0.03451550006866455, -0.04900330305099487, -0.8802558465146993, -0.13574759887093207, 0.4387020357719486,0.11942754148612447,0.1364593505859375,0.7702484130859375,0.5375518798828125
20220119-1817,2022-01-19 18:17:34Z,u01, 181,40,movements,el-ex, rt, d,234281.266432875, 3.0090508239989724, -0.9329410671500495, -2.900062770918191, -0.09838905930519104, 0.3918093144893646, -0.2689961791038513, 0.07869437336921692, 0.8033747673034668, 0.5902515053749084, 0.03347296267747879, -0.04684382677078247, -0.0869094729423523, -0.8811219423386674, -0.13693016561769478, 0.4383554937358326,0.11277811938449452,0.103271484375,0.7543792724609375,0.4974212646484375
20220119-1817,2022-01-19 18:17:34Z,u01, 182,40,movements,el-ex, rt, d,234281.291378875, 3.0260599512310624, -0.9332587227949467, -2.8902237952521745, 0.026657171547412872, 0.3440815210342407, -0.19152769446372986, 0.06861434131860733, 0.8035638332366943, 0.5912506580352783, 0.011692635715007782, -0.05071049928665161, -0.083193838596344, -0.8813113665412906, -0.1375339762659584, 0.4391219964484205,0.10745505808845733,0.0803070068359375,0.7528533935546875,0.508056640625
20220119-1817,2022-01-19 18:17:34Z,u01, 183,40,movements,el-ex, rt, d,234281.31632587503, 3.0392222857162516, -0.9344909339187774, -2.883515633200001, 0.01135281752794981, 0.2623995244503021, -0.1475796103477478, 0.060725171118974686, 0.8042966723442078, 0.591117262840271, 0.04028796777129173, -0.07124918699264526, -0.10475844144821167, -0.881264650485051, -0.13759091133869905, 0.44022084871154094,0.10318463633331794,0.1059722900390625,0.731964111328125,0.4900970458984375
20220119-1817,2022-01-19 18:17:34Z,u01, 184,40,movements,el-ex, rt, d,234281.36621887502, 3.055502466646203, -0.9312729547509714, -2.8729622539178625, -0.13390909135341644, 0.0531364306807518, -0.04906008765101433, 0.05131634697318077, 0.8023803234100342, 0.5946032404899597, 0.030363887548446655, -0.061108291149139404, -0.09693753719329834, -0.8820807358450521, -0.13869104902065774, 0.4393864666667525,0.09817371533756047,0.09515380859375,0.7506103515625,0.5155181884765625
20220119-1817,2022-01-19 18:17:34Z,u01, 185,40,movements,el-ex, rt, d,234281.34127187502, 3.049278359680034, -0.9341346205646058, -2.8773035440598878, -0.073462575674057, 0.15940368175506592, -0.13203759491443634, 0.054804276674985886, 0.8040848970413208, 0.5919831991195679, 0.040349479764699936, -0.053474605083465576, -0.07646483182907104, -0.8814279558832928, -0.13811716498533824, 0.44044026567752803,0.10010404036361024,0.0790557861328125,0.7406005859375,0.48834228515625
20220119-1817,2022-01-19 18:17:34Z,u01, 186,40,movements,el-ex, rt, d,234281.391164875, 3.0556934995875453, -0.9305709254741009, -2.872869614690929, 0.08893059939146042, -0.04196857288479805, 0.03982817381620407, 0.051251061260700226, 0.8019611239433289, 0.5951740145683289, 0.0029633641242980957, -0.07204163074493408, -0.12625586986541748, -0.8822414484002977, -0.13869766517575224, 0.43908371843512967,0.09807453280402208,0.0542144775390625,0.72991943359375,0.4689178466796875
20220119-1817,2022-01-19 18:17:34Z,u01, 187,40,movements,el-ex, rt, d,234281.41611087503, 3.049660801564752, -0.9346512396030221, -2.877319364056918, 0.21338525414466858, -0.16201309859752655, 0.13374601304531097, 0.05453972518444061, 0.8043919205665588, 0.5915902853012085, 0.01111878827214241, -0.10169428586959839, -0.1284400224685669, -0.8813315564063491, -0.13802115402913231, 0.44069654960640553,0.09995705764045061,0.0728302001953125,0.7016448974609375,0.4651336669921875
20220119-1817,2022-01-19 18:17:34Z,u01, 188,40,movements,el-ex, rt, d,234281.44105787502, 3.0375564289979904, -0.9390851542772961, -2.8854347439183403, 0.13972076773643494, -0.2816739082336426, 0.20058557391166687, 0.061325427144765854, 0.8070182204246521, 0.5873340368270874, 0.05154380202293396, -0.08312594890594482, -0.10208892822265625, -0.8802696239025233, -0.13708536048577474, 0.4422426414626943,0.10370425419487114,0.1128692626953125,0.7238922119140625,0.4852447509765625
20220119-1817,2022-01-19 18:17:34Z,u01, 189,40,movements,el-ex, rt, d,234281.46600387502, 3.021019551748805, -0.94001861782744, -2.8954412477622933, -0.022409304976463318, -0.37634190917015076, 0.25437867641448975, 0.07093864679336548, 0.8075690865516663, 0.5854916572570801, 0.05007878690958023, -0.07502496242523193, -0.0688897967338562, -0.879862866925684, -0.13633478735626353, 0.4420575971610151,0.10880917425191439,0.119293212890625,0.7396697998046875,0.5166778564453125
20220119-1817,2022-01-19 18:17:34Z,u01, 190,40,movements,el-ex, rt, d,234281.490950875, 3.000913676224743, -0.9386863758009808, -2.9079130412724354, 0.005177879706025124, -0.42155057191848755, 0.3283674716949463, 0.08284608274698257, 0.8067826628684998, 0.5850116014480591, 0.03487544506788254, -0.033085763454437256, -0.060963571071624756, -0.879888809047839, -0.13528303280647902, 0.4407988792313199,0.11485047919129523,0.1177215576171875,0.7736968994140625,0.5240478515625
20220119-1817,2022-01-19 18:17:34Z,u01, 191,40,movements,el-ex, rt, d,234281.515896875, 2.9777665790760586, -0.9382155719026278, -2.9234304329081158, 0.07056161016225815, -0.4337932765483856, 0.401500403881073, 0.09642590582370758, 0.8065043687820435, 0.583311915397644, 0.024591490626335144, -0.029465913772583008, -0.05824148654937744, -0.8796706356789553, -0.13354974056920724, 0.4399515706951128,0.12160048036370326,0.12554931640625,0.775543212890625,0.5211944580078125
20220119-1817,2022-01-19 18:17:34Z,u01, 192,40,movements,el-ex, rt, d,234281.54084287502, 2.950455334918638, -0.9392872232131801, -2.9428471757416856, 0.18298585712909698, -0.5030856132507324, 0.4956742525100708, 0.11215478181838989, 0.8071374893188477, 0.5796128511428833, 0.03237643837928772, -0.06221848726272583, -0.07691168785095215, -0.8789970448559622, -0.13103671139687678, 0.43983884438454324,0.12936610996993675,0.14453125,0.7449188232421875,0.5027008056640625
20220119-1817,2022-01-19 18:17:34Z,u01, 193,40,movements,el-ex, rt, d,234281.56578987502, 2.917829736271905, -0.9421405852632238, -2.966963063309041, 0.24065478146076202, -0.5434995293617249, 0.5570812225341797, 0.1304902583360672, 0.8088187575340271, 0.5733973979949951, 0.021426185965538025, -0.054943084716796875, -0.04583984613418579, -0.877719807683119, -0.12769749739367633, 0.44060892671723206,0.1384380145130869,0.16064453125,0.7561798095703125,0.5391082763671875
20220119-1817,2022-01-19 18:17:34Z,u01, 194,40,movements,el-ex, rt, d,234281.590735875, 2.8843739668425137, -0.9421365814834477, -2.9909558972023715, -0.003837918397039175, -0.5942050814628601, 0.5344603657722473, 0.14959800243377686, 0.8088163733482361, 0.5687150955200195, 0.06350620090961456, -0.02486562728881836, 0.010646164417266846, -0.8768394141972812, -0.12453989686607783, 0.4402145246776478,0.14783011478512692,0.213104248046875,0.7839508056640625,0.5793609619140625
20220119-1817,2022-01-19 18:17:34Z,u01, 195,40,movements,el-ex, rt, d,234281.615682875, 2.851742191596281, -0.9361942357597629, -3.012096798774245, -0.10050374269485474, -0.6516755223274231, 0.5682771801948547, 0.1694439947605133, 0.8053076863288879, 0.5681275129318237, 0.05634027719497681, -0.027033090591430664, -0.03181123733520508, -0.8770065678286856, -0.12216069592899426, 0.43718429051377583,0.1575002288051294,0.220611572265625,0.7778778076171875,0.521087646484375
20220119-1817,2022-01-19 18:17:34Z,u01, 196,40,movements,el-ex, rt, d,234281.640628875, 2.815924890530186, -0.9328824522252881, -3.0365089121625117, 0.18733100593090057, -0.6226821541786194, 0.5990508794784546, 0.19053195416927338, 0.8033398389816284, 0.5642189979553223, -0.009135499596595764, 0.010411441326141357, -0.005075693130493164, -0.8763142992716842, -0.11909130878465482, 0.4355448270034627,0.16790275001871302,0.181396484375,0.813751220703125,0.55914306640625
20220119-1817,2022-01-19 18:17:34Z,u01, 197,40,movements,el-ex, rt, d,234281.66557487502, 2.781478004106281, -0.9316150434114218, -3.061124921601546, 0.025114770978689194, -0.5620707869529724, 0.5233445167541504, 0.21020938456058502, 0.8025844097137451, 0.558275043964386, 0.004924282431602478, 0.03889220952987671, 0.11445480585098267, -0.8750684319917164, -0.11572703934766093, 0.43508968273511855,0.17765048763833702,0.22796630859375,0.83868408203125,0.6823883056640625
20220119-1817,2022-01-19 18:17:34Z,u01, 198,40,movements,el-ex, rt, d,234281.69052187502, 2.753309486100072, -0.9250212009836344, -3.0780502394535794, -0.1525038182735443, -0.6150978207588196, 0.4487781822681427, 0.2278481125831604, 0.7986335158348083, 0.5570185780525208, 0.061549991369247437, 0.0759238600730896, -0.013744473457336426, -0.8749448824144175, -0.11393299677025687, 0.4321084649684867,0.18647513698820273,0.289398193359375,0.8745574951171875,0.54327392578125
20220119-1817,2022-01-19 18:17:34Z,u01, 199,40,movements,el-ex, rt, d,234281.715467875, 2.7233726068276005, -0.9202088483726073, -3.095802370831279, 0.19896119832992554, -0.626602828502655, 0.5033960342407227, 0.24597710371017456, 0.7957281470298767, 0.5534548759460449, 0.024713769555091858, 0.060701847076416016, -0.07028502225875854, -0.8741476761043703, -0.11221974745010224, 0.42999666175120693,0.19589672509627135,0.2570953369140625,0.8459930419921875,0.4893798828125
20220119-1817,2022-01-19 18:17:34Z,u01, 200,40,movements,el-ex, rt, d,234281.740414875, 2.6865863578272395, -0.9236111246130703, -3.1224854690334922, 0.4848034977912903, -0.6216484308242798, 0.5485914945602417, 0.264974445104599, 0.797784149646759, 0.5415991544723511, -0.03911381959915161, 0.010977625846862793, -0.0442233681678772, -0.8711814492983986, -0.10882310498154088, 0.4321352760497052,0.20605756378363532,0.225860595703125,0.8087615966796875,0.49737548828125
20220119-1817,2022-01-19 18:17:34Z,u01, 201,40,movements,el-ex, rt, d,234281.76536087503, 2.648899273789982, -0.9249842073200893, 3.1331817733780496, 0.13958334922790527, -0.6367313265800476, 0.5586994886398315, 0.28467437624931335, 0.7986112833023071, 0.530265212059021, -0.008246123790740967, -0.06835591793060303, -0.03028017282485962, -0.868374868607523, -0.10515560987388259, 0.4336234185706024,0.2164216455971863,0.29345703125,0.7233428955078125,0.5023193359375
20220119-1817,2022-01-19 18:17:34Z,u01, 202,40,movements,el-ex, rt, d,234281.79030687502, 2.6165930272790696, -0.9166333195429354, 3.1139284421894007, -0.17073455452919006, -0.7296053171157837, 0.5874203443527222, 0.3049858510494232, 0.7935575246810913, 0.5265461206436157, 0.06296461820602417, -0.05007278919219971, -0.031276047229766846, -0.8675834108281237, -0.10282070598491444, 0.43046093047084816,0.2267830545638272,0.367950439453125,0.7434844970703125,0.495269775390625
20220119-1817,2022-01-19 18:17:34Z,u01, 203,40,movements,el-ex, rt, d,234281.81525387501, 2.581601147384034, -0.907985722922557, 3.093609730469336, 0.11235153675079346, -0.7769018411636353, 0.6369121670722961, 0.32685330510139465, 0.7882658839225769, 0.5213488936424255, 0.017751246690750122, 0.0015902519226074219, -0.034608423709869385, -0.8663636322796772, -0.1004416134076628, 0.42731500542669615,0.23817580591813597,0.34014892578125,0.791412353515625,0.4765472412109375
20220119-1817,2022-01-19 18:17:34Z,u01, 204,40,movements,el-ex, rt, d,234281.840199875, 2.5404219646686172, -0.9029681776306444, 3.0664593528346527, 0.2056085765361786, -0.7902761697769165, 0.6945534944534302, 0.3502713143825531, 0.7851685285568237, 0.5107061862945557, 0.0097598135471344, -0.042736828327178955, -0.05094337463378906, -0.8637019369941751, -0.09680938738459616, 0.4264508961895191,0.25057267846130615,0.3600311279296875,0.742431640625,0.4597625732421875
20220119-1817,2022-01-19 18:17:34Z,u01, 205,40,movements,el-ex, rt, d,234281.865146875, 2.500893953880034, -0.8949809564394822, 3.0408651360841854, 0.006492083892226219, -0.7805719971656799, 0.7053292989730835, 0.3739164471626282, 0.7801971435546875, 0.5014769434928894, 0.04000869393348694, -0.022918760776519775, 0.019855082035064697, -0.8614452346826593, -0.09300849578472756, 0.4244618792391601,0.2628568614128098,0.429229736328125,0.7527618408203125,0.5329132080078125
20220119-1817,2022-01-19 18:17:34Z,u01, 206,40,movements,el-ex, rt, d,234281.89009287502, 2.466554771731743, -0.8826199444245141, 3.021778362929349, -0.1498839408159256, -0.7849158644676208, 0.6797352433204651, 0.3969097435474396, 0.7724055051803589, 0.4958352744579315, 0.07815739512443542, 0.010431349277496338, 0.02415403723716736, -0.860115390780093, -0.0901063458838737, 0.4202292919664107,0.27475406155512677,0.475067138671875,0.7828369140625,0.519989013671875
20220119-1817,2022-01-19 18:17:34Z,u01, 207,40,movements,el-ex, rt, d,234281.91503987502, 2.432825750269746, -0.8694537023122814, 3.003369897210304, -0.01506267674267292, -0.7709029912948608, 0.735451340675354, 0.4199884831905365, 0.7639765739440918, 0.4898471236228943, 0.038248300552368164, 0.014755964279174805, -0.014581263065338135, -0.8586875821941253, -0.08705856186883926, 0.41578332676023516,0.2867069907962708,0.454498291015625,0.77203369140625,0.46044921875
20220119-1817,2022-01-19 18:17:34Z,u01, 208,40,movements,el-ex, rt, d,234281.939985875, 2.394738423701998, -0.859258872645939, 2.978305961392482, 0.23941786587238312, -0.754860520362854, 0.775908887386322, 0.4436044991016388, 0.7573587894439697, 0.47919026017189026, 0.007933646440505981, -0.026538968086242676, -0.011874258518218994, -0.8560388445950984, -0.0824173885550997, 0.41358293009014957,0.2989218002514542,0.4515380859375,0.7308197021484375,0.467315673828125
20220119-1817,2022-01-19 18:17:34Z,u01, 209,40,movements,el-ex, rt, d,234281.96493179168, 2.3564496113953575, -0.8487833581273116, 2.9524783607566727, 0.05658501014113426, -0.7531048059463501, 0.7715846300125122, 0.4672052264213562, 0.7504768967628479, 0.46744367480278015, 0.026843786239624023, -0.02130526304244995, 0.04290187358856201, -0.8530780270406187, -0.07732866048746412, 0.41165939996228074,0.3111505385601973,0.506927490234375,0.7239532470703125,0.5007476806640625
20220119-1817,2022-01-19 18:17:34Z,u01, 210,40,movements,el-ex, rt, d,234281.98987879168, 2.3258922954867485, -0.8334690124399172, 2.935847281671315, -0.24189552664756775, -0.6982572078704834, 0.7348381280899048, 0.4895816445350647, 0.7402680516242981, 0.4607749283313751, 0.05759859085083008, 0.0037200450897216797, 0.06403613090515137, -0.8514606169600416, -0.07350021914558658, 0.4068558035086204,0.3226159886885197,0.54718017578125,0.743988037109375,0.524810791015625
20220119-1817,2022-01-19 18:17:34Z,u01, 211,40,movements,el-ex, rt, d,234282.0148247917, 2.299896562557884, -0.816384160633895, 2.9235808610897824, -0.11900455504655838, -0.666559636592865, 0.7317561507225037, 0.5107516050338745, 0.7286742329597473, 0.45625361800193787, 0.03479599952697754, 0.04555678367614746, 0.034423649311065674, -0.8504219577413158, -0.07006638799217116, 0.4009563046895555,0.33332788612839886,0.540374755859375,0.7772979736328125,0.4821014404296875
20220119-1817,2022-01-19 18:17:34Z,u01, 212,40,movements,el-ex, rt, d,234282.0397717917, 2.269722339038146, -0.8034769296098199, 2.9041498441389244, 0.2404164969921112, -0.6669632196426392, 0.7298725843429565, 0.5314398407936096, 0.7197741270065308, 0.44665077328681946, -0.0034705400466918945, 0.03852653503417969, -0.01394188404083252, -0.8479877809218446, -0.0651315024933738, 0.3979856225169725,0.3439215945294391,0.5279693603515625,0.75830078125,0.432708740234375
20220119-1817,2022-01-19 18:17:34Z,u01, 213,40,movements,el-ex, rt, d,234282.06471779168, 2.235343347322692, -0.7934451956301372, 2.8791978370962776, 0.258688747882843, -0.6734299063682556, 0.7547215223312378, 0.5521350502967834, 0.7127739191055298, 0.4325518012046814, -0.009608745574951172, 0.004389286041259766, 0.0024617016315460205, -0.8442565462335644, -0.059218079474417984, 0.3972405650261814,0.354858196803214,0.545318603515625,0.7071075439453125,0.451568603515625
20220119-1817,2022-01-19 18:17:34Z,u01, 214,40,movements,el-ex, rt, d,234282.08966479168, 2.2063505453976244, -0.7801433970103201, 2.861856810341426, -0.15310420095920563, -0.659410834312439, 0.6878848671913147, 0.572021484375, 0.703381359577179, 0.42195525765419006, 0.012618958950042725, 0.013919055461883545, 0.05482110381126404, -0.8414230618132174, -0.054633926349875406, 0.3942384995853941,0.36551120065942333,0.5846405029296875,0.7173004150390625,0.476776123046875
20220119-1817,2022-01-19 18:17:34Z,u01, 215,40,movements,el-ex, rt, d,234282.11461079167, 2.1855869752233557, -0.7629552757124832, 2.8552023460378377, -0.21752776205539703, -0.6516628265380859, 0.6588468551635742, 0.590448796749115, 0.6910605430603027, 0.4169003665447235, 0.03044658899307251, 0.03863006830215454, 0.017304033041000366, -0.8400930933748259, -0.05190161033146762, 0.3881076913284906,0.3753962705735796,0.6246185302734375,0.7402801513671875,0.41943359375
20220119-1817,2022-01-19 18:17:34Z,u01, 216,40,movements,el-ex, rt, d,234282.1395567917, 2.1617679386466087, -0.7491597173473411, 2.8431536328817435, 0.1566566824913025, -0.6081144213676453, 0.6621403098106384, 0.6080700159072876, 0.6810237169265747, 0.407992959022522, 0.0007404685020446777, 0.05850893259048462, -0.006503283977508545, -0.8376612040103586, -0.0481682431117183, 0.38436091940306344,0.38505901968011047,0.6088104248046875,0.739532470703125,0.4014892578125
20220119-1817,2022-01-19 18:17:34Z,u01, 217,40,movements,el-ex, rt, d,234282.1645037917, 2.1336047975597596, -0.7381378584623365, 2.8243957871514835, 0.23703880608081818, -0.6283133029937744, 0.6742426156997681, 0.6256283521652222, 0.6729115843772888, 0.3946894407272339, -0.007448911666870117, 0.018815159797668457, -0.0026908516883850098, -0.8339616193250519, -0.04304343400847302, 0.3830625281897117,0.39486530912857176,0.6239776611328125,0.684356689453125,0.3955535888671875
20220119-1817,2022-01-19 18:17:34Z,u01, 218,40,movements,el-ex, rt, d,234282.18944979168, 2.106861875000512, -0.7255188404119562, 2.8081831308986254, 0.04790959879755974, -0.6514882445335388, 0.6594896912574768, 0.6432080268859863, 0.6635237336158752, 0.3821260333061218, 0.013042092323303223, 0.006672918796539307, 0.026291072368621826, -0.830421836253046, -0.03824385656492682, 0.3808667256357839,0.4048181404639576,0.65625,0.670196533203125,0.408416748046875
20220119-1817,2022-01-19 18:17:34Z,u01, 219,40,movements,el-ex, rt, d,234282.21439679168, 2.0844764741311077, -0.7109782617930983, 2.798238295723788, -0.08537116646766663, -0.6308574080467224, 0.6449236869812012, 0.6599336266517639, 0.6525753140449524, 0.372334748506546, 0.03089272975921631, 0.007413029670715332, 0.02918526530265808, -0.8276276669153829, -0.03463849059976079, 0.3768980515564775,0.4144641525109146,0.700347900390625,0.6635589599609375,0.399383544921875
20220119-1817,2022-01-19 18:17:34Z,u01, 220,40,movements,el-ex, rt, d,234282.23934279167, 2.0634709818382784, -0.6962335748003237, 2.790464136878199, -0.04801313579082489, -0.6277380585670471, 0.6292709708213806, 0.6760134696960449, 0.6413323879241943, 0.3629034161567688, 0.020153582096099854, 0.032449960708618164, 0.011471271514892578, -0.8248990544969532, -0.03151588015258372, 0.37253508486766984,0.42398824125100487,0.6961669921875,0.6737823486328125,0.3743743896484375
20220119-1817,2022-01-19 18:17:34Z,u01, 221,40,movements,el-ex, rt, d,234282.26428979167, 2.0416794321696745, -0.6821022283978488, 2.7810105256391564, 0.04596675559878349, -0.6393478512763977, 0.6359525918960571, 0.6917687654495239, 0.630426287651062, 0.35216382145881653, 0.0158119797706604, 0.03349900245666504, -0.004095286130905151, -0.8217681398536134, -0.027911177686073735, 0.36885777781096263,0.43343081436132774,0.71075439453125,0.6593017578125,0.3425750732421875
20220119-1817,2022-01-19 18:17:34Z,u01, 222,40,movements,el-ex, rt, d,234282.2892357917, 2.0189446361082917, -0.6687982710595589, 2.770038988325217, 0.07576050609350204, -0.663632333278656, 0.6183898448944092, 0.70709228515625, 0.6200435757637024, 0.33995112776756287, 0.031494200229644775, 0.014279544353485107, 0.00279197096824646, -0.8181686196002479, -0.02399306086439887, 0.3659349218961837,0.4428500803114103,0.73858642578125,0.6343231201171875,0.342742919921875
20220119-1817,2022-01-19 18:17:34Z,u01, 223,40,movements,el-ex, rt, d,234282.31418179168, 1.9973100358483138, -0.6550728725613787, 2.7619321909659487, -0.07989320158958435, -0.6416558027267456, 0.6181114315986633, 0.7219613790512085, 0.6092170476913452, 0.3280651271343231, 0.01894444227218628, 0.01813286542892456, 0.0013570785522460938, -0.8146151949236344, -0.02084834178932124, 0.36235101816767257,0.4524039068787727,0.7458953857421875,0.6192169189453125,0.3274993896484375
20220119-1817,2022-01-19 18:17:34Z,u01, 224,40,movements,el-ex, rt, d,234282.33912879167, 1.9778850002341473, -0.6399205621228833, 2.7571201494435376, -0.09597843140363693, -0.6441096067428589, 0.6091959476470947, 0.7365899682044983, 0.5971317291259766, 0.3175986409187317, 0.036420226097106934, 0.023122727870941162, -6.303191184997559e-05, -0.8114614048927689, -0.01815795820696889, 0.3576008356279761,0.46186827736214875,0.77301025390625,0.6202545166015625,0.317535400390625
20220119-1817,2022-01-19 18:17:35Z,u01, 225,40,movements,el-ex, rt, d,234282.3640747917, 1.9582896342961535, -0.625620271023431, 2.7511877660231505, -0.005794210825115442, -0.6520868539810181, 0.5832815170288086, 0.750501811504364, 0.5856001973152161, 0.3063005805015564, 0.029329299926757812, 0.029069721698760986, -0.006053060293197632, -0.8080343534130543, -0.01519103485918949, 0.35350529033550676,0.47104558715858497,0.77978515625,0.6149444580078125,0.3003692626953125
20220119-1817,2022-01-19 18:17:35Z,u01, 226,40,movements,el-ex, rt, d,234282.3890217917, 1.9384095772795207, -0.6121447818465806, 2.7449173396937256, -0.0024570361711084843, -0.64363032579422, 0.5811781287193298, 0.7637373208999634, 0.5746241211891174, 0.29413041472435, 0.029246747493743896, 0.016562461853027344, -0.004411578178405762, -0.8043097289276334, -0.012291213831486958, 0.34987856836101955,0.480124848997108,0.7929840087890625,0.5911865234375,0.2897186279296875
20220119-1817,2022-01-19 18:17:35Z,u01, 227,40,movements,el-ex, rt, d,234282.41396779168, 1.9189434229213376, -0.5987011151693147, 2.739238243250355, -0.037719886749982834, -0.6282703876495361, 0.563639760017395, 0.7765097618103027, 0.563569962978363, 0.28181877732276917, 0.007792055606842041, 0.021101057529449463, 0.0017355382442474365, -0.8005119234059885, -0.009489196257624039, 0.346208096960819,0.4891121458424404,0.7818756103515625,0.5794219970703125,0.29132080078125
20220119-1817,2022-01-19 18:17:35Z,u01, 228,40,movements,el-ex, rt, d,234282.43891479168, 1.9005199120215903, -0.5848218361812475, 2.7344931589063552, -0.013736222870647907, -0.6431733965873718, 0.5546921491622925, 0.7888947129249573, 0.5520508289337158, 0.26997244358062744, 0.01994311809539795, 0.02192378044128418, -0.009077459573745728, -0.7968322566047388, -0.006676489447817541, 0.34223173045415856,0.49788681393851425,0.808837890625,0.573974609375,0.260894775390625
20220119-1817,2022-01-19 18:17:35Z,u01, 229,40,movements,el-ex, rt, d,234282.46386079167, 1.8810899744371337, -0.5720144873569455, 2.7280687418492255, 0.0867215096950531, -0.6515597105026245, 0.5222571492195129, 0.8006587624549866, 0.5413269400596619, 0.2567322850227356, 0.02308720350265503, 0.03025221824645996, -0.009966790676116943, -0.7926872560043866, -0.003613763289940841, 0.33914111047383977,0.5065742672882356,0.8275604248046875,0.5704803466796875,0.25750732421875
20220119-1817,2022-01-19 18:17:35Z,u01, 230,40,movements,el-ex, rt, d,234282.4888067917, 1.8616104634317052, -0.5600513700912599, 2.722068119411423, -0.017335020005702972, -0.625790536403656, 0.5522863268852234, 0.8116533756256104, 0.5312297344207764, 0.24292756617069244, 0.009879767894744873, -0.009043514728546143, 0.03633899986743927, -0.788329205604526, -0.0009195264483597421, 0.3363330086017329,0.5151857322261137,0.821533203125,0.522186279296875,0.279266357421875
20220119-1817,2022-01-19 18:17:35Z,u01, 231,40,movements,el-ex, rt, d,234282.5137537917, 1.8444679430118853, -0.5462970353200778, 2.717552259764371, 0.060241736471652985, -0.5427325367927551, 0.5785545110702515, 0.8226560354232788, 0.5195267796516418, 0.23093189299106598, -0.008538365364074707, -0.005793750286102295, 0.020273834466934204, -0.7845133236600496, 0.002189413767126891, 0.3325747100638017,0.5233816293447785,0.8190460205078125,0.523712158203125,0.233154296875
20220119-1817,2022-01-19 18:17:35Z,u01, 232,40,movements,el-ex, rt, d,234282.53869979168, 1.8261212316708981, -0.5334806615538396, 2.7085721042077315, 0.25294777750968933, -0.5336571335792542, 0.5700901746749878, 0.8331284523010254, 0.5085334181785583, 0.21746468544006348, 0.006181240081787109, 0.03669363260269165, 0.014423355460166931, -0.7801849469951544, 0.006617324868562008, 0.33041056661559776,0.5311276587969591,0.8393096923828125,0.54522705078125,0.2318878173828125
20220119-1817,2022-01-19 18:17:35Z,u01, 233,40,movements,el-ex, rt, d,234282.56364679168, 1.8074877288282083, -0.5210088194788408, 2.698101566348302, 0.147588849067688, -0.5442476868629456, 0.5628050565719604, 0.843136191368103, 0.49775534868240356, 0.20337523519992828, 0.021503210067749023, 0.014299094676971436, 0.03505885601043701, -0.7755998371370979, 0.011511368839571906, 0.3288788183904705,0.5386569742311984,0.8676605224609375,0.5108489990234375,0.2371978759765625
20220119-1817,2022-01-19 18:17:35Z,u01, 234,40,movements,el-ex, rt, d,234282.58859279167, 1.791223321684957, -0.5078611539910542, 2.6929197857049414, -0.0021010050550103188, -0.546330988407135, 0.5403059720993042, 0.8526447415351868, 0.4863094687461853, 0.1910502314567566, 0.021485507488250732, 0.01143220067024231, 0.021520107984542847, -0.7715569629010613, 0.014999078221306028, 0.32576656021184647,0.5462152342048132,0.8741302490234375,0.49774169921875,0.2125701904296875
20220119-1817,2022-01-19 18:17:35Z,u01, 235,40,movements,el-ex, rt, d,234282.6135397917, 1.7766486512388053, -0.49497831967996087, 2.689620113264887, 0.030455738306045532, -0.49495062232017517, 0.510656476020813, 0.8614000678062439, 0.47501257061958313, 0.17986907064914703, 0.0013470053672790527, 0.041421085596084595, 0.028276294469833374, -0.7678609095496559, 0.018004506772597517, 0.3222837833445641,0.5533521445417038,0.86358642578125,0.52069091796875,0.2101593017578125
20220119-1817,2022-01-19 18:17:35Z,u01, 236,40,movements,el-ex, rt, d,234282.6384857917, 1.7625452908875825, -0.4830671471716856, 2.68520459657437, 0.05300382524728775, -0.464758038520813, 0.48319321870803833, 0.8693441152572632, 0.46449753642082214, 0.16876934468746185, 0.009241759777069092, 0.057292044162750244, 0.047753095626831055, -0.764155149038607, 0.0212504281843012, 0.319500272838789,0.5599419887933761,0.8785858154296875,0.52178955078125,0.216522216796875
20220119-1817,2022-01-19 18:17:35Z,u01, 237,40,movements,el-ex, rt, d,234282.66343179168, 1.7499907038679505, -0.47225161844752617, 2.682326101383866, 0.004374604672193527, -0.40173307061195374, 0.4092837870121002, 0.8762865662574768, 0.4548926055431366, 0.15872822701931, -0.006108343601226807, 0.0556359589099884, 0.037103280425071716, -0.76078621458236, 0.023842192535856344, 0.3166994716837431,0.5659835422933077,0.869171142578125,0.5097503662109375,0.196258544921875
20220119-1817,2022-01-19 18:17:35Z,u01, 238,40,movements,el-ex, rt, d,234282.68837879167, 1.7389101351503893, -0.462936928265443, 2.6796029861706656, 0.049805037677288055, -0.37564265727996826, 0.36542490124702454, 0.8821309208869934, 0.4465778172016144, 0.14971144497394562, -0.003239870071411133, 0.07425040006637573, 0.03441666066646576, -0.757741203058483, 0.02615322289293251, 0.3143927900309854,0.571228096458713,0.8788909912109375,0.5208282470703125,0.1841278076171875
20220119-1817,2022-01-19 18:17:35Z,u01, 239,40,movements,el-ex, rt, d,234282.7133247917, 1.728210731563683, -0.4547981322897474, 2.676925220264526, 0.0036043180152773857, -0.37077295780181885, 0.29869794845581055, 0.8872424960136414, 0.43928098678588867, 0.1408299058675766, -0.008443057537078857, 0.06888246536254883, 0.045556411147117615, -0.754733512935099, 0.028147366230258486, 0.3125037425742323,0.5761306343117076,0.8756866455078125,0.5081939697265625,0.1882781982421875
20220119-1817,2022-01-19 18:17:35Z,u01, 240,40,movements,el-ex, rt, d,234282.7382717917, 1.7199989733206162, -0.44812283162927785, 2.6776261711432183, -0.11243490874767303, -0.3122440576553345, 0.22775301337242126, 0.8912490010261536, 0.4332744777202606, 0.13397231698036194, -0.014173805713653564, 0.06835818290710449, 0.06614695489406586, -0.7524340181465079, 0.02879601289663497, 0.3101265049832639,0.5803752545494272,0.8770751953125,0.5016326904296875,0.2001190185546875
20220119-1817,2022-01-19 18:17:35Z,u01, 241,40,movements,el-ex, rt, d,234282.76321779168, 1.71332983091793, -0.442890740410321, 2.6787664616070437, -0.017252393066883087, -0.2557651996612549, 0.16631028056144714, 0.8943543434143066, 0.4285530745983124, 0.128345787525177, -0.007040500640869141, 0.08252477645874023, 0.04781709611415863, -0.7505520514266656, 0.029060513684700112, 0.308098631246994,0.5838684727620147,0.885894775390625,0.5121612548828125,0.184661865234375
20220119-1817,2022-01-19 18:17:35Z,u01, 242,40,movements,el-ex, rt, d,234282.78816479168, 1.7078321404810324, -0.4395396800896632, 2.678873313210434, -0.04408044368028641, -0.18275365233421326, 0.0959862470626831, 0.8964642286300659, 0.42552295327186584, 0.12362249940633774, -0.012171506881713867, 0.06069839000701904, 0.07579481601715088, -0.7489684833324376, 0.029282459900704827, 0.30700164098644916,0.5864630606125041,0.8842926025390625,0.4862213134765625,0.1994171142578125
20220119-1817,2022-01-19 18:17:35Z,u01, 243,40,movements,el-ex, rt, d,234282.81311079167, 1.7054803797134253, -0.4379154050478667, 2.6809744397090305, -0.09904526174068451, -0.07639279216527939, 0.01608482375741005, 0.8974360823631287, 0.42405250668525696, 0.12160652875900269, -0.017751574516296387, 0.06540367007255554, 0.0828005000948906, -0.7483188476382243, 0.0286734265266044, 0.3058639888699426,0.5879150007503589,0.8792266845703125,0.488525390625,0.20672607421875
20220119-1817,2022-01-19 18:17:35Z,u01, 244,40,movements,el-ex, rt, d,234282.83805779167, 1.705292980019736, -0.43822653207794904, 2.682901109613404, -0.020761841908097267, -0.013862703926861286, -0.045523811131715775, 0.8973281383514404, 0.42433425784111023, 0.12142065167427063, -0.007679581642150879, 0.07963302731513977, 0.06246327608823776, -0.7482889327576646, 0.027820846237382818, 0.30540640411037356,0.5882318617082466,0.8896484375,0.50396728515625,0.1838836669921875
20220119-1817,2022-01-19 18:17:35Z,u01, 245,40,movements,el-ex, rt, d,234282.8630037917, 1.705615025822622, -0.4397737589082418, 2.682793940337362, 0.017010405659675598, 0.03910723701119423, -0.06953281164169312, 0.8966373801231384, 0.4257347583770752, 0.12162124365568161, -0.012970268726348877, 0.047394514083862305, 0.058188557624816895, -0.7483715620882807, 0.027397572610498133, 0.30596199767656945,0.5878578109244823,0.879058837890625,0.471771240234375,0.1859588623046875
20220119-1817,2022-01-19 18:17:35Z,u01, 246,40,movements,el-ex, rt, d,234282.8879507917, 1.7095248900251623, -0.4423610616212401, 2.6843235852757026, -0.05493452772498131, 0.10514717549085617, -0.12390343844890594, 0.8950608372688293, 0.428074449300766, 0.12497325986623764, -0.02231919765472412, 0.04149946570396423, 0.07851812988519669, -0.7495203990414644, 0.026566952719402875, 0.30634467765239404,0.5862305722169976,0.87274169921875,0.469573974609375,0.2034912109375
20220119-1817,2022-01-19 18:17:35Z,u01, 247,40,movements,el-ex, rt, d,234282.91289679168, 1.7155499476763845, -0.44658387175496134, 2.6885885941466947, -0.1693280041217804, 0.15678361058235168, -0.22033743560314178, 0.8924950957298279, 0.4318869709968567, 0.13010187447071075, -0.00029838085174560547, 0.0437142550945282, 0.07744836807250977, -0.751299469157347, 0.024495767350848047, 0.3064668811727124,0.5839753978932373,0.8923187255859375,0.475372314453125,0.2091522216796875
20220119-1817,2022-01-19 18:17:35Z,u01, 248,40,movements,el-ex, rt, d,234282.93784279167, 1.7247820925986457, -0.45262794945320534, 2.696512702890952, -0.29694509506225586, 0.2453925758600235, -0.289718359708786, 0.8886603713035583, 0.43733036518096924, 0.13793297111988068, 0.000683128833770752, 0.047121018171310425, 0.07906247675418854, -0.7540079526194643, 0.020940281556057594, 0.3061334663455424,0.580789169738261,0.88934326171875,0.4844512939453125,0.2169952392578125
20220119-1817,2022-01-19 18:17:35Z,u01, 249,40,movements,el-ex, rt, d,234282.96278854168, 1.7375612070550972, -0.4593816612292121, 2.707278012710009, -0.3256264626979828, 0.33416038751602173, -0.3542940318584442, 0.8838921785354614, 0.4433939456939697, 0.14878399670124054, 0.000598907470703125, 0.06837058067321777, 0.06613624095916748, -0.7577043371446407, 0.016617231355339462, 0.30523524784621514,0.5765757166303398,0.88079833984375,0.5191497802734375,0.212615966796875
20220119-1817,2022-01-19 18:17:35Z,u01, 250,40,movements,el-ex, rt, d,234282.98773454168, 1.7507333466290929, -0.46751185563239134, 2.7165153081406497, -0.1951819211244583, 0.36388206481933594, -0.39557063579559326, 0.8782799243927002, 0.45066654682159424, 0.15976303815841675, -0.00756758451461792, 0.08799922466278076, 0.028149232268333435, -0.7613972332882182, 0.012480818645381891, 0.3053191854029096,0.5717505918851206,0.8707122802734375,0.538665771484375,0.1879119873046875
20220119-1817,2022-01-19 18:17:35Z,u01, 251,40,movements,el-ex, rt, d,234283.01268154167, 1.7630268736137735, -0.4771330856429192, 2.723822378745729, -0.23561829328536987, 0.365709513425827, -0.462086021900177, 0.8719530701637268, 0.459234356880188, 0.16971160471439362, -0.004506051540374756, 0.07631868124008179, 0.03449690341949463, -0.7647117227871777, 0.00847263227925274, 0.30654532310777505,0.5667224278954027,0.8665313720703125,0.544403076171875,0.2125244140625
20220119-1817,2022-01-19 18:17:35Z,u01, 252,40,movements,el-ex, rt, d,234283.0376275417, 1.7775226016627819, -0.4880508325327328, 2.7335056167645595, -0.24351252615451813, 0.46066540479660034, -0.542730987071991, 0.8644426465034485, 0.46890518069267273, 0.18129296600818634, -0.007005453109741211, 0.09121447801589966, 0.05587458610534668, -0.7685273370270619, 0.003494530511391397, 0.3076182485438904,0.5610032581501585,0.8574371337890625,0.56011962890625,0.2371673583984375
