SessionID,LoggingTime,UID,RecNo,Hertz,Activity,MoveType,Wrist,Side,TimeStamp,DMRoll,DMPitch,DMYaw,DMRotX,DMRotY,DMRotZ,DMGrvX,DMGrvY,DMGrvZ,DMUAccelX,DMUAccelY,DMUAccelZ,DMQuatX,DMQuatY,DMQuatW,DMQuatZ,AccelroX,AceelroY,AceelroZ
20220119-1819,2022-01-19 18:19:57Z,u01, 1,40,movements,el-ex, rt, d,234424.65389279168, 1.775569222323637, -0.49298003117622335, 2.737731499075149, 0.06536345183849335, -0.45603930950164795, 0.5092174410820007, 0.8625215291976929, 0.47325316071510315, 0.17913185060024261, 0.01603388786315918, 0.028394848108291626, 0.014944687485694885, -0.7678319624415697, 0.0, 0.3081749634944726,0.5616603603281817,0.8786773681640625,0.5016632080078125,0.19549560546875
20220119-1819,2022-01-19 18:19:57Z,u01, 2,40,movements,el-ex, rt, d,234424.67883879167, 1.7617203807489488, -0.4805933974620861, 2.733036805794835, 0.05636843293905258, -0.44933682680130005, 0.47971639037132263, 0.8706085085868835, 0.4623054265975952, 0.16826967895030975, 0.01301276683807373, 0.011067986488342285, 0.030964374542236328, -0.7642784799204858, 0.003639041904103385, 0.305150671375907,0.5681093945960229,0.884613037109375,0.4751129150390625,0.2010650634765625
20220119-1819,2022-01-19 18:19:57Z,u01, 3,40,movements,el-ex, rt, d,234424.7037847917, 1.7499665878404005, -0.46942371163336105, 2.730298439472513, -0.06275197118520737, -0.827041745185852, 0.733380913734436, 0.87755286693573, 0.45237240195274353, 0.15893574059009552, 0.28786784410476685, -0.012781858444213867, -0.028549298644065857, -0.7612001224959702, 0.006499580448719067, 0.3020440619688387,0.5738481296800693,1.22320556640625,0.4371185302734375,0.12921142578125
20220119-1819,2022-01-19 18:19:57Z,u01, 4,40,movements,el-ex, rt, d,234424.7287317917, 1.7385844838109603, -0.45792398707185356, 2.728976708316261, -0.028573226183652878, -0.36903131008148193, 0.42671096324920654, 0.8843756914138794, 0.44208693504333496, 0.14979614317417145, 0.0048760175704956055, 0.008154183626174927, 0.021758556365966797, -0.7581666430973932, 0.009023033211674664, 0.2984488334656384,0.579681194893271,0.894866943359375,0.4443359375,0.175750732421875
20220119-1819,2022-01-19 18:19:57Z,u01, 5,40,movements,el-ex, rt, d,234424.75367779168, 1.7286228160579722, -0.44775833452577246, 2.727155803823897, 0.046453747898340225, -0.3539314568042755, 0.3896203339099884, 0.8902163505554199, 0.43294593691825867, 0.14167803525924683, 0.009518086910247803, 0.028327226638793945, 0.007202014327049255, -0.7554506190472133, 0.011549175116190524, 0.29548658354864166,0.5846782575993557,0.8989410400390625,0.4606781005859375,0.14764404296875
20220119-1819,2022-01-19 18:19:57Z,u01, 6,40,movements,el-ex, rt, d,234424.77862379167, 1.7181932141959133, -0.4387072190657957, 2.7232133414410393, 0.10336410254240036, -0.34313538670539856, 0.3576534688472748, 0.8954852819442749, 0.42476946115493774, 0.13295599818229675, -0.008491754531860352, 0.02261829376220703, 0.021157756447792053, -0.7525082534662241, 0.014468283414301286, 0.2935671473192073,0.589355985132484,0.8865509033203125,0.4498291015625,0.1529083251953125
20220119-1819,2022-01-19 18:19:57Z,u01, 7,40,movements,el-ex, rt, d,234424.80357079167, 1.7080941448984448, -0.43000730776289153, 2.7195294150797213, 0.038441095501184464, -0.32257354259490967, 0.3604704439640045, 0.9004089832305908, 0.4168774485588074, 0.12440688908100128, -0.006015002727508545, 0.026512473821640015, 0.03562736511230469, -0.7496039803842461, 0.0172429273700761, 0.29172595894880493,0.5938792948278132,0.895355224609375,0.443328857421875,0.1609039306640625
20220119-1819,2022-01-19 18:19:57Z,u01, 8,40,movements,el-ex, rt, d,234424.8285167917, 1.6996913442105561, -0.4212689465061054, 2.7183557611455957, -0.03615601360797882, -0.2998657524585724, 0.32406213879585266, 0.9050006866455078, 0.4089187979698181, 0.11730040609836578, 0.007200300693511963, 0.04585418105125427, 0.04320693016052246, -0.7471783584137391, 0.019357279578744863, 0.28913765374145745,0.598121481531952,0.910980224609375,0.454833984375,0.1643524169921875
20220119-1819,2022-01-19 18:19:57Z,u01, 9,40,movements,el-ex, rt, d,234424.85346279168, 1.6929272665469393, -0.41378794427589694, 2.718389154096745, -0.022903621196746826, -0.23787090182304382, 0.2532803416252136, 0.9087843298912048, 0.4020804762840271, 0.11154583841562271, -0.0002149343490600586, 0.04748925566673279, 0.029948949813842773, -0.7452099053364876, 0.02085948019919795, 0.28661985881752255,0.6017276785035512,0.9087677001953125,0.4503936767578125,0.1416015625
20220119-1819,2022-01-19 18:19:57Z,u01, 10,40,movements,el-ex, rt, d,234424.87840979168, 1.6873974271278591, -0.4081270089063909, 2.7175647050492335, 0.027639711275696754, -0.18817152082920074, 0.20183977484703064, 0.9116334319114685, 0.39689087867736816, 0.10678183287382126, -0.016659557819366455, 0.071370929479599, 0.05522073805332184, -0.7435692249901171, 0.02226483062770651, 0.2849822726307702,0.6044785376050013,0.89642333984375,0.4712371826171875,0.169036865234375
20220119-1819,2022-01-19 18:19:57Z,u01, 11,40,movements,el-ex, rt, d,234424.90335579167, 1.6829966977639252, -0.4037024022780485, 2.7161567146599266, 0.024800650775432587, -0.12961474061012268, 0.1619890332221985, 0.9138307571411133, 0.39282581210136414, 0.10296458750963211, -0.02384650707244873, 0.07032430171966553, 0.057161226868629456, -0.7422421147005035, 0.02364181005823579, 0.28394063874513714,0.6065440086934257,0.8913421630859375,0.46258544921875,0.1595306396484375
20220119-1819,2022-01-19 18:19:57Z,u01, 12,40,movements,el-ex, rt, d,234424.9283017917, 1.6794169472405573, -0.4002421362603067, 2.715147174244413, -0.0036771302111446857, -0.11581064015626907, 0.10427739471197128, 0.915539026260376, 0.38964134454727173, 0.09983937442302704, -0.013103783130645752, 0.073966383934021, 0.0790090411901474, -0.7411552879898389, 0.024668325551209902, 0.2831045796147137,0.6082204333973966,0.9034576416015625,0.4639739990234375,0.175018310546875
20220119-1819,2022-01-19 18:19:57Z,u01, 13,40,movements,el-ex, rt, d,234424.9532487917, 1.6773545384900337, -0.3983773956187943, 2.716408172847734, -0.08410762995481491, -0.073778435587883, 0.04510948807001114, 0.9164638519287109, 0.38792330026626587, 0.09802805632352829, -0.020681381225585938, 0.07281583547592163, 0.05362904071807861, -0.7405484678223937, 0.024535598013460252, 0.28210754903518187,0.60942703863556,0.896331787109375,0.4590606689453125,0.1481475830078125
20220119-1819,2022-01-19 18:19:57Z,u01, 14,40,movements,el-ex, rt, d,234424.97819479168, 1.6779592680709614, -0.39840292739105415, 2.7178461012439996, 0.009381713345646858, 0.008835749700665474, -0.0009216559119522572, 0.9163946509361267, 0.38794684410095215, 0.09858120232820511, -0.005536437034606934, 0.07944512367248535, 0.05843186378479004, -0.7407501361331471, 0.024079767156941906, 0.28167080227572683,0.6094021809566147,0.908843994140625,0.46673583984375,0.1558380126953125
20220119-1819,2022-01-19 18:19:57Z,u01, 15,40,movements,el-ex, rt, d,234425.00314079167, 1.6801295017794913, -0.4006794803527097, 2.7177810207206687, 0.01203558687120676, 0.07780716568231583, -0.08421940356492996, 0.9152982831001282, 0.39004409313201904, 0.10047313570976257, -0.0032193660736083984, 0.05075180530548096, 0.06056821346282959, -0.7414023354852486, 0.02364621574305778, 0.28244482768517615,0.6082667705060154,0.9120025634765625,0.43927001953125,0.162353515625
20220119-1819,2022-01-19 18:19:57Z,u01, 16,40,movements,el-ex, rt, d,234425.02808779167, 1.6851944682948319, -0.4049891114553008, 2.7196964178006207, -0.054321132600307465, 0.1094491109251976, -0.12134906649589539, 0.9130991101264954, 0.3940087556838989, 0.10491491109132767, -0.011030018329620361, 0.027820438146591187, 0.04303430765867233, -0.7429429555868757, 0.022208563986343965, 0.2832839378077018,0.606046825156035,0.90447998046875,0.421905517578125,0.1459503173828125
20220119-1819,2022-01-19 18:19:57Z,u01, 17,40,movements,el-ex, rt, d,234425.0530337917, 1.6904380484417356, -0.40951836189722035, 2.722602834977149, -0.10290078818798065, 0.16066037118434906, -0.16342781484127045, 0.9107553958892822, 0.39816755056381226, 0.10948725044727325, -0.013248562812805176, 0.02924644947052002, 0.04427565634250641, -0.7445328442811989, 0.020358478645901762, 0.28390630165264974,0.603865631382216,0.897247314453125,0.4289398193359375,0.154876708984375
20220119-1819,2022-01-19 18:19:57Z,u01, 18,40,movements,el-ex, rt, d,234425.07797979168, 1.6990628460434682, -0.41562427768346966, 2.727049769276388, -0.11636589467525482, 0.24362441897392273, -0.25039979815483093, 0.9073488116264343, 0.4037611484527588, 0.11702495813369751, 0.004714667797088623, 0.04617473483085632, 0.04766319692134857, -0.7471226778743223, 0.017893660779615267, 0.28459068256627007,0.6004128361312722,0.908721923828125,0.4456634521484375,0.1685333251953125
20220119-1819,2022-01-19 18:19:57Z,u01, 19,40,movements,el-ex, rt, d,234425.10292679167, 1.7079931931300112, -0.4221796570934269, 2.7306800821756867, -0.027544844895601273, 0.28119543194770813, -0.28763777017593384, 0.9036264419555664, 0.40974971652030945, 0.12475847452878952, 0.01396089792251587, 0.02541571855545044, 0.0031408071517944336, -0.7497564534347825, 0.015636406647086293, 0.28569862993933054,0.5966549679848488,0.9165191650390625,0.4358978271484375,0.1287078857421875
20220119-1819,2022-01-19 18:19:57Z,u01, 20,40,movements,el-ex, rt, d,234425.1278727917, 1.716839193174203, -0.4298532935662799, 2.732259685731334, -0.03205367922782898, 0.307001531124115, -0.31412097811698914, 0.8993499875068665, 0.41673743724823, 0.132285475730896, -0.011776745319366455, 0.025675863027572632, 0.03051052987575531, -0.7522983614219695, 0.013780834064032521, 0.28782908476996893,0.5924623570721499,0.8884124755859375,0.436309814453125,0.1582183837890625
20220119-1819,2022-01-19 18:19:58Z,u01, 21,40,movements,el-ex, rt, d,234425.15281879168, 1.7272881110416038, -0.4376534989892302, 2.7372167090521686, -0.1946844458580017, 0.3251309394836426, -0.35743948817253113, 0.8946805000305176, 0.4238152801990509, 0.1411643922328949, 0.0062288641929626465, 0.03127807378768921, 0.04729698598384857, -0.755290842541644, 0.010859985170567438, 0.2890206087711221,0.5881197959177488,0.902191162109375,0.4553985595703125,0.1902618408203125
20220119-1819,2022-01-19 18:19:58Z,u01, 22,40,movements,el-ex, rt, d,234425.177765625, 1.7395501807182188, -0.4465759039257757, 2.745232461879209, -0.2650294899940491, 0.41085323691368103, -0.44613802433013916, 0.8891192078590393, 0.43187975883483887, 0.15148299932479858, 0.008830070495605469, 0.03305554389953613, 0.04100668430328369, -0.7587468190762726, 0.006690508960212643, 0.28974467248162483,0.5833580328399606,0.8968963623046875,0.4667205810546875,0.1957244873046875
20220119-1819,2022-01-19 18:19:58Z,u01, 23,40,movements,el-ex, rt, d,234425.20271162502, 1.7549371111612553, -0.45694350354743224, 2.7546867226680805, -0.23738662898540497, 0.48717814683914185, -0.5047155022621155, 0.8822339177131653, 0.44120725989341736, 0.16431666910648346, 0.014876246452331543, 0.030960798263549805, 0.02936328947544098, -0.7629904629112878, 0.001971319450986664, 0.29062204783153345,0.5773912952703192,0.8965911865234375,0.4735565185546875,0.1939544677734375
20220119-1819,2022-01-19 18:19:58Z,u01, 24,40,movements,el-ex, rt, d,234425.22765762502, 1.7713511574325569, -0.46856238901829017, 2.762252992753439, -0.13289061188697815, 0.5646460056304932, -0.4987975060939789, 0.8743351697921753, 0.45160409808158875, 0.17774160206317902, 0.010781526565551758, 0.031031429767608643, 0.015312671661376953, -0.7673758608284698, -0.002256376242511321, 0.29257457331892744,0.5705518654277798,0.88507080078125,0.4842376708984375,0.1898345947265625
20220119-1819,2022-01-19 18:19:58Z,u01, 25,40,movements,el-ex, rt, d,234425.252604625, 1.7885037679695877, -0.4799000942663465, 2.768505267916078, -0.1241658627986908, 0.5708971619606018, -0.5073583126068115, 0.8661026954650879, 0.4616905450820923, 0.19159355759620667, 0.02476644515991211, 0.014307349920272827, 0.02448628842830658, -0.7718573622410253, -0.005743937929117177, 0.2948861317378783,0.5632454449465314,0.89154052734375,0.47705078125,0.21728515625
20220119-1819,2022-01-19 18:19:58Z,u01, 26,40,movements,el-ex, rt, d,234425.277550625, 1.8062895478981975, -0.4922135801788435, 2.7760839037314895, -0.19326147437095642, 0.5814996361732483, -0.5768215656280518, 0.8569649457931519, 0.472577840089798, 0.20562466979026794, 0.01797407865524292, 0.047518014907836914, 0.02940654754638672, -0.7763465944416392, -0.009914708508816622, 0.29726303196931525,0.5557179532595646,0.8770751953125,0.5145721435546875,0.231719970703125
20220119-1819,2022-01-19 18:19:58Z,u01, 27,40,movements,el-ex, rt, d,234425.30249662502, 1.8265318679143423, -0.5053175090223748, 2.7868024186535916, -0.29550209641456604, 0.6463236808776855, -0.6267331838607788, 0.8465632200241089, 0.4840852916240692, 0.2213427871465683, 0.02352362871170044, 0.02290332317352295, 0.038468748331069946, -0.7813079634995894, -0.015141448716850497, 0.29918013316622516,0.5475582590240913,0.869903564453125,0.50531005859375,0.2612457275390625
20220119-1819,2022-01-19 18:19:58Z,u01, 28,40,movements,el-ex, rt, d,234425.32744362502, 1.849958721067301, -0.5193013791694687, 2.8001613931075586, -0.2970576882362366, 0.7312589883804321, -0.6939668655395508, 0.834556519985199, 0.4962737262248993, 0.2392236888408661, 0.028373777866363525, 0.03482368588447571, 0.026920080184936523, -0.7868701095264816, -0.02114896195967192, 0.3008762412495477,0.5383880852431879,0.8649444580078125,0.5257415771484375,0.2610931396484375
20220119-1819,2022-01-19 18:19:58Z,u01, 29,40,movements,el-ex, rt, d,234425.352389625, 1.8758711738662948, -0.5343670470321584, 2.813514977792444, -0.225653737783432, 0.8039221167564392, -0.7292294502258301, 0.820853054523468, 0.5092964172363281, 0.2584911286830902, 0.028924226760864258, 0.058010101318359375, 0.03595781326293945, -0.7927886377286447, -0.027050712116032077, 0.303188280673348,0.5280448738498824,0.84906005859375,0.569549560546875,0.295196533203125
20220119-1819,2022-01-19 18:19:58Z,u01, 30,40,movements,el-ex, rt, d,234425.377335625, 1.9019082346987157, -0.551100304481263, 2.823939020525795, -0.08224494010210037, 0.8546963334083557, -0.7789080739021301, 0.8056724667549133, 0.5236249566078186, 0.2769641578197479, 0.022788405418395996, 0.07876163721084595, 0.035307079553604126, -0.7984024545489, -0.03218077592584101, 0.3070847963999462,0.5169303339437948,0.832672119140625,0.5987548828125,0.3056488037109375
20220119-1819,2022-01-19 18:19:58Z,u01, 31,40,movements,el-ex, rt, d,234425.402282625, 1.9290203831060244, -0.5693523332910221, 2.8342547076075904, -0.11834704875946045, 0.8879801630973816, -0.8164696097373962, 0.7887852787971497, 0.539086639881134, 0.2953028082847595, 0.026644527912139893, 0.06066012382507324, 0.02549806237220764, -0.8038972635398975, -0.037424431828250726, 0.3117807306635742,0.5051153765217542,0.8148651123046875,0.599609375,0.321319580078125
20220119-1819,2022-01-19 18:19:58Z,u01, 32,40,movements,el-ex, rt, d,234425.42722862502, 1.95814829385277, -0.5867216852351899, 2.8467525629149826, -0.1562420129776001, 0.9030945897102356, -0.802627444267273, 0.7710633277893066, 0.5536339282989502, 0.31456515192985535, 0.031549155712127686, 0.02484208345413208, 0.023539215326309204, -0.809596858086114, -0.04284282064562708, 0.31583507166805147,0.4929156036771021,0.8061370849609375,0.57293701171875,0.3347320556640625
20220119-1819,2022-01-19 18:19:58Z,u01, 33,40,movements,el-ex, rt, d,234425.452174625, 1.9878549597206467, -0.6043535611951417, 2.8597625252077887, -0.07857437431812286, 0.8880027532577515, -0.8441378474235535, 0.7523367404937744, 0.5682302713394165, 0.3333221971988678, 0.03614586591720581, 0.05086451768875122, 0.012502998113632202, -0.8150624144310366, -0.048315243912902456, 0.3200980172321833,0.48049570761672034,0.7875823974609375,0.62176513671875,0.3461151123046875
20220119-1819,2022-01-19 18:19:58Z,u01, 34,40,movements,el-ex, rt, d,234425.477121625, 2.0179713986487435, -0.623123610303746, 2.8734392015445773, -0.12637118995189667, 0.8972787857055664, -0.8881646990776062, 0.7322115898132324, 0.5835745334625244, 0.35115087032318115, 0.05393648147583008, 0.02792137861251831, 0.01252719759941101, -0.8201479413580846, -0.054155244216896936, 0.32488183808996407,0.4678422221179359,0.7848358154296875,0.6266326904296875,0.3611602783203125
20220119-1819,2022-01-19 18:19:58Z,u01, 35,40,movements,el-ex, rt, d,234425.50206762503, 2.0516000595438415, -0.6407064416925429, 2.8920544901367644, -0.29101401567459106, 0.9068548679351807, -0.9100549221038818, 0.7107828855514526, 0.5977619290351868, 0.3707676827907562, 0.06526392698287964, -0.021178007125854492, 0.012456893920898438, -0.8256304017517185, -0.06097773341871085, 0.32842070535627665,0.45470440814321816,0.77532958984375,0.5747833251953125,0.38330078125
20220119-1819,2022-01-19 18:19:58Z,u01, 36,40,movements,el-ex, rt, d,234425.52701362502, 2.0874000386964986, -0.6570828652054688, 2.913398818362641, -0.25294655561447144, 0.9283377528190613, -0.8869395852088928, 0.6884520053863525, 0.6108097434043884, 0.39108264446258545, 0.061624348163604736, 0.011214852333068848, -0.0058743953704833984, -0.8312046753091633, -0.06811839049934174, 0.3312611664613768,0.4412763692909856,0.755279541015625,0.616607666015625,0.3829345703125
20220119-1819,2022-01-19 18:19:58Z,u01, 37,40,movements,el-ex, rt, d,234425.55196062502, 2.122560175737925, -0.6739867104379091, 2.932593157141744, -0.1274447739124298, 0.9318419694900513, -0.8999404907226562, 0.6653900146484375, 0.6241059303283691, 0.4095706343650818, 0.0728302001953125, 0.01465749740600586, -0.013116717338562012, -0.8362064669296019, -0.0744584714475238, 0.3350931602585396,0.4277000141667354,0.7379302978515625,0.639068603515625,0.3958740234375
20220119-1819,2022-01-19 18:19:58Z,u01, 38,40,movements,el-ex, rt, d,234425.576906625, 2.1580849222292002, -0.6906950997689022, 2.952209379237654, -0.19903649389743805, 0.9209819436073303, -0.9026198983192444, 0.6416525840759277, 0.6370730996131897, 0.42710691690444946, 0.07981353998184204, -0.019961774349212646, -0.017332017421722412, -0.8408572889534773, -0.08069995030153831, 0.3390819842256919,0.4140895075032819,0.7270660400390625,0.6214599609375,0.40484619140625
20220119-1819,2022-01-19 18:19:58Z,u01, 39,40,movements,el-ex, rt, d,234425.60185262503, 2.1973547229050876, -0.7052521373593449, 2.9761142598027654, -0.3041888177394867, 0.9777371883392334, -0.8993706703186035, 0.6168116331100464, 0.6482258439064026, 0.4464832544326782, 0.07872980833053589, -0.012666702270507812, 0.009068399667739868, -0.8459279565735833, -0.0874500781855416, 0.3418028756396785,0.39991172580873274,0.6943511962890625,0.636932373046875,0.45654296875
20220119-1819,2022-01-19 18:19:58Z,u01, 40,40,movements,el-ex, rt, d,234425.62679962502, 2.2384683652643234, -0.7189868548247568, 3.0006810547712806, -0.22113125026226044, 1.011181116104126, -0.8798475861549377, 0.5908912420272827, 0.6586226224899292, 0.4659011960029602, 0.06546556949615479, 0.025657713413238525, -0.0017134249210357666, -0.8509666186873425, -0.09384245688151804, 0.34450835160545146,0.3851797661178528,0.6619110107421875,0.6803131103515625,0.4647979736328125
20220119-1819,2022-01-19 18:19:58Z,u01, 41,40,movements,el-ex, rt, d,234425.65174562501, 2.279001464924104, -0.73349757204437, 3.0231583159066475, -0.1309916377067566, 1.0469391345977783, -0.8606904745101929, 0.5642076730728149, 0.6694718599319458, 0.4831945300102234, 0.05934268236160278, 0.02420783042907715, 0.004247456789016724, -0.8553982156815297, -0.0994543280011096, 0.34826998021722533,0.3702846025615054,0.6230316162109375,0.694427490234375,0.4919586181640625
20220119-1819,2022-01-19 18:19:58Z,u01, 42,40,movements,el-ex, rt, d,234425.676691625, 2.3211707129311776, -0.7466660329273587, 3.0471682984702744, -0.2493244707584381, 1.063907265663147, -0.8680014610290527, 0.5368411540985107, 0.6791955232620239, 0.5004948973655701, 0.07584500312805176, 0.0008581876754760742, 0.014199376106262207, -0.8597814818310655, -0.10499162355088748, 0.3516146169326181,0.3551334589657803,0.6154327392578125,0.6798858642578125,0.510406494140625
20220119-1819,2022-01-19 18:19:58Z,u01, 43,40,movements,el-ex, rt, d,234425.701638625, 2.3652691609789995, -0.7581315961219814, 3.07361795490229, -0.18679852783679962, 1.0537347793579102, -0.8606255650520325, 0.5087653398513794, 0.6875659823417664, 0.518083930015564, 0.0821617841720581, 0.013499081134796143, -0.01169043779373169, -0.8641610381255092, -0.11075943666493696, 0.3542736655701815,0.33977673606500935,0.58807373046875,0.702301025390625,0.50653076171875
20220119-1819,2022-01-19 18:19:58Z,u01, 44,40,movements,el-ex, rt, d,234425.72658462502, 2.4081788943575475, -0.7707364082387611, 3.097474173516563, -0.03374961018562317, 1.047450065612793, -0.8259052038192749, 0.4802331030368805, 0.6966637372970581, 0.5329503417015076, 0.0675269365310669, 0.007941365242004395, -0.003470182418823242, -0.8678117579876921, -0.11566295084774941, 0.3581510657654989,0.32442676151268907,0.5572967529296875,0.709197998046875,0.525115966796875
20220119-1819,2022-01-19 18:19:58Z,u01, 45,40,movements,el-ex, rt, d,234425.751530625, 2.450420195829779, -0.7845167979268651, 3.1191696787736944, 0.051063746213912964, 1.075805902481079, -0.8543564677238464, 0.4511359930038452, 0.7064833045005798, 0.5453052520751953, 0.0603996217250824, -0.004090726375579834, -0.004381120204925537, -0.8708128021375389, -0.11974005965490056, 0.3631616758789913,0.30896766769273193,0.5129241943359375,0.702239990234375,0.5413360595703125
20220119-1819,2022-01-19 18:19:58Z,u01, 46,40,movements,el-ex, rt, d,234425.776477625, 2.492567334975297, -0.7967325077415679, -3.1412319268639153, -0.10257730633020401, 1.0354198217391968, -0.8147860765457153, 0.4225112199783325, 0.7150757908821106, 0.5569121837615967, 0.07429972290992737, -0.04602360725402832, -0.01990950107574463, -0.8735669038587536, -0.1238424463269516, 0.36761335957228725,0.2939462810545735,0.5014190673828125,0.669525146484375,0.5411376953125
20220119-1819,2022-01-19 18:19:58Z,u01, 47,40,movements,el-ex, rt, d,234425.801423625, 2.5357975037312426, -0.8053926479964851, -3.1155647553412114, -0.11976971477270126, 1.0001485347747803, -0.7851485013961792, 0.39450743794441223, 0.7211027145385742, 0.5695391893386841, 0.09227848052978516, -0.04962444305419922, -0.04323291778564453, -0.876529793192491, -0.1283165062273455, 0.37045663563364933,0.27927108457616007,0.4828948974609375,0.67376708984375,0.52569580078125
20220119-1819,2022-01-19 18:19:58Z,u01, 48,40,movements,el-ex, rt, d,234425.82636962502, 2.5777000930308773, -0.8142699286466184, -3.090994387894655, -0.016363464295864105, 0.9573871493339539, -0.7717480063438416, 0.3668670058250427, 0.7272246479988098, 0.580132007598877, 0.07876595854759216, -0.01709580421447754, -0.05587047338485718, -0.8789331618575174, -0.13244807417915547, 0.37376058093542897,0.26502285485811017,0.4514007568359375,0.708038330078125,0.5294342041015625
20220119-1819,2022-01-19 18:19:58Z,u01, 49,40,movements,el-ex, rt, d,234425.85131662502, 2.6161936793415013, -0.8243174135415252, -3.069293088111278, 0.08642975986003876, 0.9102422595024109, -0.685563325881958, 0.3405872881412506, 0.73408442735672, 0.5874696373939514, 0.08472093939781189, -0.03626948595046997, -0.06931149959564209, -0.8804858310452118, -0.1359393550897721, 0.3779925763359828,0.2517674955544432,0.4212493896484375,0.694091796875,0.5188751220703125
20220119-1819,2022-01-19 18:19:58Z,u01, 50,40,movements,el-ex, rt, d,234425.876262625, 2.6533778027250725, -0.8328447574484974, -3.0488020720546705, -0.06375601142644882, 0.88491290807724, -0.6155685782432556, 0.31556469202041626, 0.739848256111145, 0.5941749215126038, 0.07504504919052124, -0.08060747385025024, -0.03786987066268921, -0.8819399632838198, -0.1388141652326718, 0.38182564697485194,0.23900171211146237,0.3948822021484375,0.6656494140625,0.55584716796875
20220119-1819,2022-01-19 18:19:58Z,u01, 51,40,movements,el-ex, rt, d,234425.901208625, 2.689887429573628, -0.8371982131681152, -3.027244964446958, -0.1102592721581459, 0.8297033309936523, -0.5733970403671265, 0.2922574281692505, 0.7427701354026794, 0.6023939847946167, 0.09714692831039429, -0.05470550060272217, -0.05596137046813965, -0.8837991434733123, -0.14176059876999714, 0.3838188397807289,0.2269057410854107,0.385498046875,0.6891021728515625,0.54876708984375
20220119-1819,2022-01-19 18:19:58Z,u01, 52,40,movements,el-ex, rt, d,234425.92615462502, 2.724460892586497, -0.841667716020031, -3.0070009635585078, -0.02853471040725708, 0.7667784690856934, -0.5456939935684204, 0.26991236209869385, 0.7457551956176758, 0.6090950965881348, 0.08618199825286865, -0.003094613552093506, -0.05068427324295044, -0.8852590520093407, -0.14444357259501484, 0.38605515924258305,0.2154390557721169,0.3634033203125,0.739349365234375,0.55517578125
20220119-1819,2022-01-19 18:19:58Z,u01, 53,40,movements,el-ex, rt, d,234425.95110162502, 2.757833973319277, -0.8471648635873105, -2.9881729283274576, 0.03797367587685585, 0.7446751594543457, -0.551726222038269, 0.2478998452425003, 0.7494062185287476, 0.6139514446258545, 0.08652707934379578, 0.008147060871124268, -0.02900564670562744, -0.8862532513658081, -0.14673413214219339, 0.38897598090293745,0.20425987319034114,0.3344573974609375,0.7576751708984375,0.584808349609375
20220119-1819,2022-01-19 18:19:58Z,u01, 54,40,movements,el-ex, rt, d,234425.976047625, 2.7900536389165977, -0.8522808965626656, -2.970199253271912, 0.006526937708258629, 0.7459337115287781, -0.5121439099311829, 0.22667008638381958, 0.7527837753295898, 0.618010938167572, 0.0503227561712265, -0.020361781120300293, -0.02705317735671997, -0.8870613588587025, -0.14875357779000217, 0.3918684436593602,0.1934780173465745,0.2812042236328125,0.7344512939453125,0.5963897705078125
20220119-1819,2022-01-19 18:19:58Z,u01, 55,40,movements,el-ex, rt, d,234426.00099362503, 2.8224450380017037, -0.8561920210147372, -2.952207070591476, -0.010460468009114265, 0.7648354768753052, -0.49401479959487915, 0.2056111842393875, 0.7553526163101196, 0.6222276091575623, 0.04863075911998749, -0.023815691471099854, -0.009907126426696777, -0.887938586684496, -0.15059507924173623, 0.3943606209076964,0.1826639410944214,0.2540435791015625,0.730499267578125,0.6132354736328125
20220119-1819,2022-01-19 18:19:58Z,u01, 56,40,movements,el-ex, rt, d,234426.02594062503, 2.8542641826723516, -0.859171201795486, -2.934462663029209, -0.07726679742336273, 0.7294929027557373, -0.44751518964767456, 0.1850731074810028, 0.7573015689849854, 0.6262929439544678, 0.061905667185783386, -0.0022202730178833008, 0.011082112789154053, -0.8887870566788602, -0.15232867705318826, 0.3965385817037616,0.17207805812247523,0.2518310546875,0.7557830810546875,0.6287689208984375
20220119-1819,2022-01-19 18:19:58Z,u01, 57,40,movements,el-ex, rt, d,234426.05088662502, 2.886306766948107, -0.8610026009205276, -2.9166543568647776, -0.03095715492963791, 0.7543888092041016, -0.4835257828235626, 0.1645628809928894, 0.7584963440895081, 0.6305571794509888, 0.054522767663002014, 0.015429377555847168, 0.013546884059906006, -0.8897065861214214, -0.1539506164653233, 0.39833291892695655,0.16140719199906814,0.2183074951171875,0.7752532958984375,0.6432952880859375
20220119-1819,2022-01-19 18:19:58Z,u01, 58,40,movements,el-ex, rt, d,234426.075832625, 2.919278027026533, -0.8633678511896392, -2.897981389744822, -0.04963483661413193, 0.7590152621269226, -0.4939781725406647, 0.14329104125499725, 0.7600355744361877, 0.6338880062103271, 0.03723569214344025, 0.006856083869934082, 0.025322377681732178, -0.8903298489670399, -0.15574578559742663, 0.4004958654899678,0.15052967923607166,0.1878509521484375,0.769805908203125,0.6584930419921875
20220119-1819,2022-01-19 18:19:58Z,u01, 59,40,movements,el-ex, rt, d,234426.100779625, 2.953048349098948, -0.8637026225699832, -2.8787812184474046, -0.12377527356147766, 0.811674952507019, -0.4987005293369293, 0.1217590793967247, 0.7602530717849731, 0.6381144523620605, 0.025350891053676605, -0.00950545072555542, 0.03611046075820923, -0.8912023016141211, -0.1575299190708671, 0.40190025431115733,0.13935203301093502,0.1455230712890625,0.74859619140625,0.673492431640625
20220119-1819,2022-01-19 18:19:58Z,u01, 60,40,movements,el-ex, rt, d,234426.12572562502, 2.9889841139414615, -0.8625205879662705, -2.858916691922996, -0.12027961015701294, 0.850231945514679, -0.5160249471664429, 0.09889078885316849, 0.7594847083091736, 0.6429646611213684, 0.032762035727500916, 0.01347970962524414, 0.021891355514526367, -0.892275229990517, -0.15914530989957817, 0.4028883819713122,0.12727372367775439,0.130340576171875,0.7683563232421875,0.6765899658203125
20220119-1819,2022-01-19 18:19:59Z,u01, 61,40,movements,el-ex, rt, d,234426.15067162502, 3.0251918865354774, -0.8633570505176614, -2.838456697515152, 0.08674514293670654, 0.7734496593475342, -0.544664740562439, 0.07547694444656372, 0.7600285410881042, 0.6454919576644897, 0.0629812702536583, 0.010936975479125977, -0.03289729356765747, -0.8926571623022627, -0.16096321994730764, 0.4049220209167409,0.1152917718863394,0.1391448974609375,0.7692413330078125,0.6092681884765625
20220119-1819,2022-01-19 18:19:59Z,u01, 62,40,movements,el-ex, rt, d,234426.17561825, 3.0590923909658394, -0.8681186417614272, -2.818966270124729, 0.11077967286109924, 0.7615827322006226, -0.5246523022651672, 0.053256455808877945, 0.7631144523620605, 0.6440654993057251, 0.039150744676589966, -0.03285926580429077, -0.003791332244873047, -0.8919399549722384, -0.16271409930987973, 0.4087347307675892,0.10441861142092346,0.0975494384765625,0.7378692626953125,0.6275177001953125
20220119-1819,2022-01-19 18:19:59Z,u01, 63,40,movements,el-ex, rt, d,234426.20056425, 3.0919489411480194, -0.8678861246049631, -2.799778565889768, -0.19574017822742462, 0.7146913409233093, -0.46438097953796387, 0.03207855299115181, 0.762964129447937, 0.6456446051597595, 0.04661101475358009, -0.06116652488708496, -0.00807124376296997, -0.8920460172346916, -0.16454850274440347, 0.4103684633777418,0.09367766997272108,0.076324462890625,0.7024688720703125,0.64080810546875
20220119-1819,2022-01-19 18:19:59Z,u01, 64,40,movements,el-ex, rt, d,234426.22551025002, 3.1227472424029457, -0.8627574195620502, -2.781588778899297, -0.18754073977470398, 0.680443525314331, -0.4298883378505707, 0.012255298905074596, 0.7596387267112732, 0.650229811668396, 0.049695372581481934, -0.02204418182373047, -0.06685572862625122, -0.8929685716730091, -0.1664993533418193, 0.40981747065156504,0.08327503979383064,0.06439208984375,0.7395477294921875,0.5874786376953125
20220119-1819,2022-01-19 18:19:59Z,u01, 65,40,movements,el-ex, rt, d,234426.25045725002, -3.1327128162853257, -0.8617116135321572, -2.765752390760136, 0.05144251510500908, 0.5886722803115845, -0.4144265949726105, -0.005781937390565872, 0.7589581608772278, 0.6511138677597046, 0.05474740266799927, -0.010789215564727783, -0.08385300636291504, -0.8929501809220198, -0.16791935591233925, 0.4110453851010414,0.07405957143110717,0.049163818359375,0.75,0.5665740966796875
20220119-1819,2022-01-19 18:19:59Z,u01, 66,40,movements,el-ex, rt, d,234426.27540325, -3.1081458686012646, -0.8626507731376446, -2.7524886535059383, 0.008533695712685585, 0.546546459197998, -0.3300458788871765, -0.021750621497631073, 0.7595693469047546, 0.6500627398490906, 0.07329478859901428, -0.05098158121109009, -0.07480627298355103, -0.892501708575774, -0.1687367207767387, 0.41306736794511156,0.06590947915857051,0.0498809814453125,0.7075958251953125,0.576080322265625
20220119-1819,2022-01-19 18:19:59Z,u01, 67,40,movements,el-ex, rt, d,234426.30034925003, -3.087029843522708, -0.8616507041428525, -2.740570658628778, -0.07016590982675552, 0.45490792393684387, -0.2723575830459595, -0.03551291301846504, 0.7589185237884521, 0.6502169966697693, 0.07192035764455795, -0.05754804611206055, -0.07496041059494019, -0.8923547803248174, -0.1697393212357966, 0.4140379759997757,0.0588578319976277,0.034423828125,0.701416015625,0.5749053955078125
20220119-1819,2022-01-19 18:19:59Z,u01, 68,40,movements,el-ex, rt, d,234426.32529625003, -3.0698595401531756, -0.8585766766128997, -2.731522445837525, -0.13384868204593658, 0.37539350986480713, -0.24380141496658325, -0.04683852940797806, 0.7569131851196289, 0.6518351435661316, 0.057550180703401566, -0.03869706392288208, -0.08051532506942749, -0.8926830080440944, -0.1703954770936337, 0.4138818564815277,0.052767142454511334,0.012481689453125,0.7172698974609375,0.5701141357421875
20220119-1819,2022-01-19 18:19:59Z,u01, 69,40,movements,el-ex, rt, d,234426.35024225002, -3.0556962767806515, -0.8553739026898418, -2.723440178408037, -0.07008218765258789, 0.283301442861557, -0.1979755312204361, -0.05627328157424927, 0.7548162341117859, 0.6535178422927856, 0.058577343821525574, -0.01331549882888794, -0.07856673002243042, -0.8929874517366252, -0.17126683395123454, 0.4134694829115825,0.04779123032535168,0.00054931640625,0.743621826171875,0.5760345458984375
20220119-1819,2022-01-19 18:19:59Z,u01, 70,40,movements,el-ex, rt, d,234426.37518825, -3.0442560489289816, -0.854994414369073, -2.7170723953471994, 0.060427118092775345, 0.24947352707386017, -0.13356052339076996, -0.06377368420362473, 0.7545672655105591, 0.6531165838241577, 0.04224351793527603, -0.025609195232391357, -0.07149726152420044, -0.8927790440174288, -0.1717668961700465, 0.414136574697581,0.0439617311683376,-0.0219573974609375,0.7310333251953125,0.57904052734375
20220119-1819,2022-01-19 18:19:59Z,u01, 71,40,movements,el-ex, rt, d,234426.40013525, -3.0354320123312672, -0.8574876790501816, -2.7124516899736957, 0.1552802324295044, 0.18283557891845703, -0.10858280956745148, -0.06933467090129852, 0.7562010288238525, 0.6506555080413818, 0.048597969114780426, -0.024923622608184814, -0.06328374147415161, -0.8920771253019976, -0.17183180291206146, 0.41589752626078696,0.041248770914727576,-0.0210418701171875,0.7314300537109375,0.584228515625
20220119-1819,2022-01-19 18:19:59Z,u01, 72,40,movements,el-ex, rt, d,234426.42508125002, -3.029691673587302, -0.8618408707686716, -2.709006140810095, 0.186428964138031, 0.07469712197780609, -0.030763640999794006, -0.07270026206970215, 0.7590423226356506, 0.6469698548316956, 0.03644534945487976, -0.06418740749359131, -0.10560303926467896, -0.8910359130247185, -0.17187185498162472, 0.41824026043668017,0.03987897421624963,-0.0308837890625,0.705963134765625,0.5452117919921875
20220119-1819,2022-01-19 18:19:59Z,u01, 73,40,movements,el-ex, rt, d,234426.45002725002, -3.0292557828764153, -0.8675848104389793, -2.70897129256533, 0.3262413740158081, -0.06761860847473145, 0.07183637470006943, -0.07249229401350021, 0.762769341468811, 0.6425948739051819, 0.02049032598733902, -0.09582281112670898, -0.08766311407089233, -0.8898994792657318, -0.17139534153446667, 0.42080544358498473,0.040316850549594246,-0.0522003173828125,0.6667633056640625,0.556182861328125
20220119-1819,2022-01-19 18:19:59Z,u01, 74,40,movements,el-ex, rt, d,234426.47497425, -3.0361943768884294, -0.878761757969367, -2.7125261651115604, 0.4703136086463928, -0.2517136037349701, 0.2024923861026764, -0.06713075190782547, 0.7699493169784546, 0.6345642805099487, 0.053336769342422485, -0.12290036678314209, -0.14822077751159668, -0.8878111757221455, -0.17050942806782038, 0.42519958139578906,0.04385522996373914,-0.0166015625,0.66656494140625,0.4940185546875
20220119-1819,2022-01-19 18:19:59Z,u01, 75,40,movements,el-ex, rt, d,234426.49992025, -3.052399106730251, -0.8885641840513638, -2.7224925879460513, 0.1920849084854126, -0.41023561358451843, 0.3625398278236389, -0.05616440996527672, 0.7761672139167786, 0.628020703792572, 0.07941877841949463, -0.21114957332611084, -0.15528815984725952, -0.8862756747074362, -0.16889577072523718, 0.42836314175775086,0.049946668243405115,0.02569580078125,0.564483642578125,0.4759368896484375
20220119-1819,2022-01-19 18:19:59Z,u01, 76,40,movements,el-ex, rt, d,234426.52486625002, -3.078926749554372, -0.8923106867615704, -2.7403659432490732, 0.10813422501087189, -0.5376644134521484, 0.48972761631011963, -0.03930432349443436, 0.7785240411758423, 0.6263830661773682, 0.09994271397590637, -0.11556005477905273, -0.10782831907272339, -0.8862803220368394, -0.1664293221792483, 0.4282705300726611,0.058248627388606616,0.061981201171875,0.6480865478515625,0.5074310302734375
20220119-1819,2022-01-19 18:19:59Z,u01, 77,40,movements,el-ex, rt, d,234426.54981325002, -3.110354612216117, -0.8971161739315062, -2.761762268279042, 0.2023974359035492, -0.5971395373344421, 0.559880256652832, -0.019485197961330414, 0.781531035900116, 0.6235621571540833, 0.05206269025802612, -0.06946438550949097, -0.08666622638702393, -0.8860429883921788, -0.16342855377577126, 0.42847422907224636,0.06803543985026897,0.031402587890625,0.712738037109375,0.53643798828125
20220119-1819,2022-01-19 18:19:59Z,u01, 78,40,movements,el-ex, rt, d,234426.57475925, 3.1376312106214566, -0.9033432715439115, -2.7860451980335372, 0.2870362102985382, -0.6700533628463745, 0.6285691261291504, 0.0024520782753825188, 0.7854007482528687, 0.6189829111099243, 0.03435209393501282, -0.04550206661224365, -0.12412500381469727, -0.8853844320514449, -0.15995581616417576, 0.4292752925833342,0.07893872584420149,0.0324554443359375,0.7335357666015625,0.49505615234375
20220119-1819,2022-01-19 18:19:59Z,u01, 79,40,movements,el-ex, rt, d,234426.59970525, 3.099278201712932, -0.9104480889620574, -2.81288898860996, 0.29497236013412476, -0.7045683264732361, 0.6705667972564697, 0.025947589427232742, 0.7897786498069763, 0.6128426194190979, 0.032859768718481064, -0.02833467721939087, -0.09192287921905518, -0.8843392725963586, -0.1560941177298041, 0.4305330301848872,0.09066369714530692,0.0625152587890625,0.7616424560546875,0.5211334228515625
20220119-1819,2022-01-19 18:19:59Z,u01, 80,40,movements,el-ex, rt, d,234426.62465225, 3.0588089169268233, -0.9151728752373129, -2.841133986570131, 0.1618102639913559, -0.7430923581123352, 0.6692548394203186, 0.05041181668639183, 0.7926679849624634, 0.607566237449646, 0.06421221047639847, -0.008671224117279053, -0.01427382230758667, -0.8835212603387856, -0.1522277788232834, 0.43087801494448036,0.10276777120240618,0.1080474853515625,0.7849884033203125,0.5949249267578125
20220119-1819,2022-01-19 18:19:59Z,u01, 81,40,movements,el-ex, rt, d,234426.64959825002, 3.0174039797631176, -0.9157382882044186, -2.8692244776386415, 0.034378211945295334, -0.7797580361366272, 0.6879783272743225, 0.07546211034059525, 0.7930125594139099, 0.6045137643814087, 0.05469536781311035, -0.00024211406707763672, -0.006659030914306641, -0.8832547140291112, -0.1487211771064195, 0.42954401366756834,0.11504421487977598,0.1308441162109375,0.7939453125,0.596710205078125
20220119-1819,2022-01-19 18:19:59Z,u01, 82,40,movements,el-ex, rt, d,234426.67454425, 2.975469642451239, -0.913872332067726, -2.897727966967882, 0.039120666682720184, -0.73823481798172, 0.6959941983222961, 0.10098271071910858, 0.7918744683265686, 0.6022769808769226, 0.031478822231292725, 0.03356504440307617, 0.00032317638397216797, -0.8832224652548113, -0.14510877301643282, 0.4273592127299966,0.12738005503122368,0.132568359375,0.81854248046875,0.596527099609375
20220119-1819,2022-01-19 18:19:59Z,u01, 83,40,movements,el-ex, rt, d,234426.69949125, 2.936371579751004, -0.9105036297838753, -2.925172806547164, -0.04177185148000717, -0.6521202921867371, 0.680855929851532, 0.12499027699232101, 0.7898127436637878, 0.6004775166511536, 0.028040103614330292, 0.08566021919250488, 0.048692405223846436, -0.8833365692652883, -0.14126313869463755, 0.4248819127731112,0.138696046995603,0.155548095703125,0.8743438720703125,0.647186279296875
20220119-1819,2022-01-19 18:19:59Z,u01, 84,40,movements,el-ex, rt, d,234426.72443725003, 2.8982276064017305, -0.9082615123445529, -2.9537051276839534, 0.2509938180446625, -0.6248825192451477, 0.6826692223548889, 0.14822480082511902, 0.7884355783462524, 0.5969916582107544, -0.0012521445751190186, -0.010374665260314941, 0.032067298889160156, -0.8830697838539002, -0.13668788279969063, 0.42328529855643976,0.14944500821217777,0.14874267578125,0.7862091064453125,0.64501953125
20220119-1819,2022-01-19 18:19:59Z,u01, 85,40,movements,el-ex, rt, d,234426.74938325002, 2.8566753873456396, -0.9138388370473923, -2.9861635633048937, 0.5366871356964111, -0.6616945266723633, 0.753922700881958, 0.17165741324424744, 0.7918539643287659, 0.5860899686813354, -0.005412891507148743, 0.006333410739898682, -0.04573029279708862, -0.8807808601835563, -0.13141560546910197, 0.4255063617873145,0.16093319988503343,0.168243408203125,0.7930755615234375,0.535369873046875
20220119-1819,2022-01-19 18:19:59Z,u01, 86,40,movements,el-ex, rt, d,234426.77433025002, 2.813421677037592, -0.9162570187643588, -3.019654752304852, 0.08126688748598099, -0.6929102540016174, 0.7403208613395691, 0.19622164964675903, 0.7933284640312195, 0.5763046145439148, 0.03696314990520477, -0.06232571601867676, 0.022251904010772705, -0.8787889716115603, -0.12602475281688152, 0.4265923842810185,0.17281967380717875,0.2192840576171875,0.7340545654296875,0.597015380859375
20220119-1819,2022-01-19 18:19:59Z,u01, 87,40,movements,el-ex, rt, d,234426.79927625, 2.7750119938210727, -0.9065320155802142, -3.0448840411446003, -0.31990376114845276, -0.7964507937431335, 0.6704586744308472, 0.22096221148967743, 0.7873705625534058, 0.575520396232605, 0.06698642671108246, -0.037095725536346436, 0.022029221057891846, -0.8790714415817364, -0.12244838976661526, 0.4221452661008962,0.18448115343269833,0.28973388671875,0.751220703125,0.595245361328125
20220119-1819,2022-01-19 18:19:59Z,u01, 88,40,movements,el-ex, rt, d,234426.82422225003, 2.7383548125349844, -0.8933233019124159, -3.0652402397372023, -0.18641968071460724, -0.8406602740287781, 0.684353232383728, 0.2459658533334732, 0.7791591882705688, 0.576552152633667, 0.02460305392742157, 0.011078417301177979, -0.04954385757446289, -0.8796798673632934, -0.12016414396330216, 0.41600549244754453,0.19663047709403064,0.2776031494140625,0.791046142578125,0.53717041015625
20220119-1819,2022-01-19 18:19:59Z,u01, 89,40,movements,el-ex, rt, d,234426.84916925002, 2.698025582029768, -0.8858479474666126, -3.0911881088979105, 0.14220234751701355, -0.7842855453491211, 0.7485805749893188, 0.27150341868400574, 0.774451732635498, 0.5714110732078552, -0.003803253173828125, 0.02556663751602173, -0.04130542278289795, -0.8787170321444503, -0.1164556604217016, 0.4129446448054729,0.20921576264600858,0.2708587646484375,0.801025390625,0.530731201171875
20220119-1819,2022-01-19 18:19:59Z,u01, 90,40,movements,el-ex, rt, d,234426.87411525002, 2.6558060968560024, -0.8819162513136796, -3.1211154663649516, 0.17802172899246216, -0.7603070139884949, 0.7226014137268066, 0.296798437833786, 0.7719584107398987, 0.5621309280395508, 0.06015044450759888, 0.033110618591308594, 0.05556023120880127, -0.8767002661075912, -0.11163386846079495, 0.4120290807307916,0.22173555403218873,0.3449249267578125,0.8038177490234375,0.6107025146484375
20220119-1819,2022-01-19 18:19:59Z,u01, 91,40,movements,el-ex, rt, d,234426.89906125, 2.616911465580484, -0.8754874883921709, 3.1363415387847717, -0.008634405210614204, -0.7419233918190002, 0.6956348419189453, 0.3209117352962494, 0.7678558826446533, 0.5544486045837402, 0.067851722240448, 0.025540173053741455, 0.034677982330322266, -0.8750077315305624, -0.10763720378156427, 0.4100089252652401,0.23381288520331694,0.389251708984375,0.7942657470703125,0.58856201171875
20220119-1819,2022-01-19 18:19:59Z,u01, 92,40,movements,el-ex, rt, d,234426.92400825, 2.5807174522820344, -0.8660942757667266, 3.1143007470603403, -0.007045130245387554, -0.7820614576339722, 0.6797739267349243, 0.34458646178245544, 0.7618045806884766, 0.5485565662384033, 0.020632654428482056, 0.01785862445831299, -0.016375601291656494, -0.8737355130489189, -0.10423309865892014, 0.40663572073274196,0.2457015068584878,0.36859130859375,0.7777252197265625,0.5450897216796875
20220119-1819,2022-01-19 18:19:59Z,u01, 93,40,movements,el-ex, rt, d,234426.94895425002, 2.5426528696983905, -0.8580802143441371, 3.089521734109543, 0.15265622735023499, -0.7573077082633972, 0.7208589911460876, 0.3686424493789673, 0.7565886378288269, 0.5400709509849548, 0.0020698606967926025, 0.02148759365081787, -0.01791512966156006, -0.871792780298774, -0.1000641065282604, 0.4043324268319344,0.2578369393061082,0.372894287109375,0.777862548828125,0.523468017578125
20220119-1819,2022-01-19 18:19:59Z,u01, 94,40,movements,el-ex, rt, d,234426.97390025, 2.50462623154785, -0.8512266877232734, 3.064405128261486, 0.11896439641714096, -0.7664703130722046, 0.6479519009590149, 0.3919827342033386, 0.7520894408226013, 0.529821515083313, 0.036743372678756714, 0.02940458059310913, 0.05545985698699951, -0.8693277364521961, -0.09581251486420783, 0.40282827314457825,0.2698491488319431,0.4185333251953125,0.7813262939453125,0.59063720703125
20220119-1819,2022-01-19 18:19:59Z,u01, 95,40,movements,el-ex, rt, d,234426.99884725, 2.4698914248516872, -0.8422571483272037, 3.0435761302054183, 0.011409910395741463, -0.7605569958686829, 0.6547170281410217, 0.4143274426460266, 0.7461478114128113, 0.5211489200592041, 0.04741871356964111, 0.02252894639968872, 0.022979557514190674, -0.8672054258307218, -0.09235378404332825, 0.4002229375784992,0.28150865142299475,0.461395263671875,0.767333984375,0.5434722900390625
20220119-1819,2022-01-19 18:19:59Z,u01, 96,40,movements,el-ex, rt, d,234427.02379325, 2.435488355846334, -0.8324625592423466, 3.0232200386677426, 0.08548999577760696, -0.7525684833526611, 0.663728654384613, 0.436729371547699, 0.7395910620689392, 0.5121258497238159, 0.0113908052444458, 0.013491332530975342, -0.006296813488006592, -0.8649737175161724, -0.08878852596559209, 0.39742079498534155,0.29324717361330066,0.4475555419921875,0.7543487548828125,0.511199951171875
20220119-1819,2022-01-19 18:19:59Z,u01, 97,40,movements,el-ex, rt, d,234427.04873925002, 2.400601322293916, -0.8236546862053282, 3.0011712981975065, 0.14015550911426544, -0.7277465462684631, 0.6760742664337158, 0.45870596170425415, 0.7336342334747314, 0.5013678669929504, -0.005077391862869263, 0.01487034559249878, 0.03549748659133911, -0.8622749333282046, -0.08465141576602508, 0.39548223499934415,0.3048112642767286,0.455657958984375,0.74798583984375,0.5378570556640625
20220119-1819,2022-01-19 18:19:59Z,u01, 98,40,movements,el-ex, rt, d,234427.07368525, 2.366728078489937, -0.814289253882024, 2.9802928312177666, 0.07303236424922943, -0.7358772158622742, 0.651046872138977, 0.48020845651626587, 0.7272379398345947, 0.4904331564903259, 0.026001811027526855, -0.0019571781158447266, 0.0028834939002990723, -0.8594856045619366, -0.08062925916543312, 0.3933968328879226,0.31626302639136095,0.49652099609375,0.7288360595703125,0.4953155517578125
20220119-1819,2022-01-19 18:19:59Z,u01, 99,40,movements,el-ex, rt, d,234427.09863225, 2.3351014191899546, -0.802927301321253, 2.9626923566060746, -0.0007203556597232819, -0.7781803607940674, 0.6627398729324341, 0.5014092922210693, 0.7193924784660339, 0.48069074749946594, 0.04261237382888794, -0.021150171756744385, 0.0037607550621032715, -0.8569726109606159, -0.07709288864276778, 0.3902533785372489,0.3276539011646398,0.5457611083984375,0.6972198486328125,0.482879638671875
20220119-1819,2022-01-19 18:19:59Z,u01, 100,40,movements,el-ex, rt, d,234427.12357825, 2.3033588870649977, -0.790283847744734, 2.9457375932554326, 0.014976848848164082, -0.7773435711860657, 0.6597211956977844, 0.5231331586837769, 0.7105530500411987, 0.4705807864665985, 0.029372334480285645, 0.010638415813446045, 0.04049718379974365, -0.8543370596904899, -0.07347506975877038, 0.3866598422593763,0.3394169164808024,0.5487518310546875,0.708160400390625,0.5082244873046875
20220119-1819,2022-01-19 18:20:00Z,u01, 101,40,movements,el-ex, rt, d,234427.14852425002, 2.273497414101458, -0.778323317089976, 2.929844948924051, 0.008374473080039024, -0.6954519152641296, 0.634346604347229, 0.5433967113494873, 0.7020864486694336, 0.46021151542663574, 0.034056901931762695, 0.039063453674316406, 0.03173184394836426, -0.851593474871793, -0.06995936854001594, 0.38342154277221957,0.3505455219952552,0.5791778564453125,0.741119384765625,0.4927520751953125
20220119-1819,2022-01-19 18:20:00Z,u01, 102,40,movements,el-ex, rt, d,234427.17347125002, 2.24704080680968, -0.7664602255616768, 2.9165217956223644, 0.007881289348006248, -0.6553166508674622, 0.5755988955497742, 0.5618377923965454, 0.6935896277427673, 0.4508572518825531, 0.023077428340911865, 0.06237667798995972, 0.04578596353530884, -0.849097852922026, -0.06679421500526803, 0.3800497656145271,0.36074052847100047,0.5879364013671875,0.7537841796875,0.50091552734375
20220119-1819,2022-01-19 18:20:00Z,u01, 103,40,movements,el-ex, rt, d,234427.19841812502, 2.2208116062154044, -0.7558172670160586, 2.901945040475414, 0.12607941031455994, -0.6465663909912109, 0.5861915349960327, 0.5793124437332153, 0.685883641242981, 0.4404098391532898, -0.009259343147277832, 0.05535787343978882, 0.02275550365447998, -0.8462903707866583, -0.06322605592725503, 0.3775516186043128,0.3704725271472595,0.569183349609375,0.74029541015625,0.4618377685546875
20220119-1819,2022-01-19 18:20:00Z,u01, 104,40,movements,el-ex, rt, d,234427.223364125, 2.1942206844674117, -0.7459718957299443, 2.8862691464145844, 0.09876378625631332, -0.6308128833770752, 0.6058065891265869, 0.596270740032196, 0.6786859035491943, 0.4287731349468231, -0.0019562840461730957, 0.021143078804016113, 0.01254156231880188, -0.8431263723596457, -0.059367372450536776, 0.37572023016362843,0.3800627155479296,0.5873565673828125,0.70550537109375,0.440887451171875
20220119-1819,2022-01-19 18:20:00Z,u01, 105,40,movements,el-ex, rt, d,234427.248311125, 2.1699845182744144, -0.7350992842369325, 2.873928273075114, -0.016640832647681236, -0.6499804854393005, 0.5493793487548828, 0.6125441193580627, 0.6706607937812805, 0.41833436489105225, 0.02762305736541748, 0.01665598154067993, 0.05212464928627014, -0.840245679716097, -0.05616381408104018, 0.3730552179662206,0.38943877624220885,0.6429901123046875,0.6881561279296875,0.47210693359375
20220119-1819,2022-01-19 18:20:00Z,u01, 106,40,movements,el-ex, rt, d,234427.27325712502, 2.1495958430323454, -0.7231987220738598, 2.8673420932113416, -0.17799507081508636, -0.5898158550262451, 0.48327064514160156, 0.6275825500488281, 0.6617861390113831, 0.41009634733200073, 0.031352877616882324, 0.024203181266784668, 0.04437142610549927, -0.8379116920396287, -0.05433387158702496, 0.36906650493788073,0.39842396263093627,0.6611175537109375,0.69140625,0.455596923828125
20220119-1819,2022-01-19 18:20:00Z,u01, 107,40,movements,el-ex, rt, d,234427.298203125, 2.1332015316906734, -0.7109704794925801, 2.863874928261158, -0.12439199537038803, -0.534622073173523, 0.4576215445995331, 0.6410199403762817, 0.6525694131851196, 0.4040382206439972, -0.0019208192825317383, 0.04245316982269287, 0.044371962547302246, -0.8361934754240367, -0.052911012331110535, 0.36448957751863675,0.4063598818030168,0.638763427734375,0.6962890625,0.4469146728515625
20220119-1819,2022-01-19 18:20:00Z,u01, 108,40,movements,el-ex, rt, d,234427.323150125, 2.115053274622004, -0.7009867608442842, 2.8555488760169965, 0.12311851978302002, -0.5119177103042603, 0.47293514013290405, 0.6537877321243286, 0.6449720859527588, 0.3956926167011261, -0.007379651069641113, 0.04785323143005371, 0.011930704116821289, -0.8338586808857926, -0.05025934156210196, 0.36179645450129594,0.4138321345763244,0.640655517578125,0.6975555419921875,0.41168212890625
20220119-1819,2022-01-19 18:20:00Z,u01, 109,40,movements,el-ex, rt, d,234427.348096125, 2.094429587597871, -0.6926068796721472, 2.8431293231155887, 0.14792264997959137, -0.5178454518318176, 0.47242850065231323, 0.6664661765098572, 0.638545572757721, 0.3848150670528412, 0.005271553993225098, 0.018970966339111328, 0.0077936649322509766, -0.8307985895290629, -0.046703729769274144, 0.3606086528904486,0.4213715094687747,0.6747589111328125,0.6540374755859375,0.39190673828125
20220119-1819,2022-01-19 18:20:00Z,u01, 110,40,movements,el-ex, rt, d,234427.37304212502, 2.075278723451639, -0.6829822693680571, 2.833890693167127, -0.03547690436244011, -0.5513526201248169, 0.4885469675064087, 0.6790618896484375, 0.6311091780662537, 0.37493517994880676, 0.0291290283203125, -0.03783214092254639, 0.016193389892578125, -0.8279765499025556, -0.04384549428740503, 0.3583949117876365,0.42905196013089586,0.7062835693359375,0.5965118408203125,0.388763427734375
20220119-1819,2022-01-19 18:20:00Z,u01, 111,40,movements,el-ex, rt, d,234427.39798912502, 2.05871607239696, -0.6711096917778258, 2.8291995023138425, -0.12879043817520142, -0.5457833409309387, 0.48672303557395935, 0.691748321056366, 0.6218553781509399, 0.36712396144866943, 0.020898103713989258, -0.012785613536834717, 0.02310428023338318, -0.8257225282513938, -0.04176471416185129, 0.35445896503833596,0.436802934684943,0.7132415771484375,0.61041259765625,0.3900604248046875
20220119-1819,2022-01-19 18:20:00Z,u01, 112,40,movements,el-ex, rt, d,234427.422935125, 2.0424761309282258, -0.6595536771052333, 2.8247327900456005, -0.04219818860292435, -0.5314798355102539, 0.4703637361526489, 0.7039739489555359, 0.6127641797065735, 0.35908371210098267, 0.012319386005401611, 0.011381387710571289, 0.01382601261138916, -0.8233850913931547, -0.0397346253020624, 0.35065446354598795,0.44440942881544593,0.71697998046875,0.628173828125,0.378814697265625
20220119-1819,2022-01-19 18:20:00Z,u01, 113,40,movements,el-ex, rt, d,234427.447881125, 2.026377588107484, -0.6484147116875477, 2.8191180831136333, -0.031101763248443604, -0.4921644330024719, 0.4901520013809204, 0.7157484292984009, 0.6039236187934875, 0.3506861925125122, 0.0054582953453063965, 0.0058176517486572266, 0.012473136186599731, -0.8209476854085236, -0.03725578776564886, 0.3473226668750785,0.45169014750310177,0.721771240234375,0.60888671875,0.36285400390625
20220119-1819,2022-01-19 18:20:00Z,u01, 114,40,movements,el-ex, rt, d,234427.47282812503, 2.0102973704142832, -0.637314054599108, 2.81303375199812, -0.013810491189360619, -0.49236011505126953, 0.4749981462955475, 0.7273167371749878, 0.595038890838623, 0.3419633209705353, 0.008446753025054932, 0.009895682334899902, -0.00021213293075561523, -0.81840641587691, -0.0345340702077124, 0.34417218467179134,0.45887229587502887,0.7320556640625,0.605499267578125,0.344024658203125
20220119-1819,2022-01-19 18:20:00Z,u01, 115,40,movements,el-ex, rt, d,234427.49777412502, 1.9944062627682058, -0.6266857239386405, 2.8076029321822906, -0.018488600850105286, -0.514677107334137, 0.4668903946876526, 0.7383829355239868, 0.5864635109901428, 0.3329438269138336, 0.019093990325927734, 0.02098900079727173, 0.008410602807998657, -0.8157451218598348, -0.03212168021466616, 0.34111463322679636,0.4660139913638347,0.7583770751953125,0.608306884765625,0.3407745361328125
20220119-1819,2022-01-19 18:20:00Z,u01, 116,40,movements,el-ex, rt, d,234427.522720125, 1.9782121462076299, -0.6159154933374076, 2.8014754960285586, 0.033483222126960754, -0.5052964687347412, 0.46256935596466064, 0.7494338154792786, 0.5777060389518738, 0.32342737913131714, 0.019151508808135986, 0.01917213201522827, 0.0010203421115875244, -0.8129269191559317, -0.02938559223387871, 0.3382204685141847,0.47317379034691015,0.7668914794921875,0.599395751953125,0.32232666015625
20220119-1819,2022-01-19 18:20:00Z,u01, 117,40,movements,el-ex, rt, d,234427.547667125, 1.9619783157071613, -0.605797817308998, 2.7947527966674746, 0.04221958667039871, -0.4735875427722931, 0.48623156547546387, 0.7599496245384216, 0.5694180727005005, 0.3134315609931946, 0.010130822658538818, 0.007211446762084961, 0.01525801420211792, -0.8099450263317176, -0.02654884977656502, 0.3357781090142404,0.48014288957252726,0.7707672119140625,0.5750274658203125,0.3290557861328125
20220119-1819,2022-01-19 18:20:00Z,u01, 118,40,movements,el-ex, rt, d,234427.57261312503, 1.9465621761886194, -0.5951596469138288, 2.788449195982675, 0.02346414141356945, -0.46650034189224243, 0.43584883213043213, 0.7702829241752625, 0.5606409311294556, 0.3038853704929352, 0.002132415771484375, 0.01907104253768921, 0.012368351221084595, -0.8070860954417984, -0.023552416495231265, 0.3331147890494556,0.4869209462283772,0.7721710205078125,0.5770416259765625,0.3209381103515625
20220119-1819,2022-01-19 18:20:00Z,u01, 119,40,movements,el-ex, rt, d,234427.59755912502, 1.9319012874620185, -0.5856928470876718, 2.7833741338752853, 0.020744256675243378, -0.5074190497398376, 0.3791346549987793, 0.779585599899292, 0.5527768731117249, 0.29442209005355835, 0.018022000789642334, 0.04396390914916992, -0.0028875768184661865, -0.8042144040006584, -0.02121890969409304, 0.33065657416880484,0.49341190453084727,0.79925537109375,0.5978240966796875,0.2914276123046875
20220119-1819,2022-01-19 18:20:00Z,u01, 120,40,movements,el-ex, rt, d,234427.62250612502, 1.9167699336929742, -0.577416009687432, 2.7792015050827854, 0.004633029922842979, -0.5283012390136719, 0.3520776927471161, 0.7882282137870789, 0.5458607077598572, 0.2841344177722931, 0.021433591842651367, 0.04874378442764282, 0.01242026686668396, -0.8010504036080692, -0.019633168484582048, 0.3284597844397659,0.5000469603485025,0.81109619140625,0.59814453125,0.2974395751953125
20220119-1819,2022-01-19 18:20:00Z,u01, 121,40,movements,el-ex, rt, d,234427.647452125, 1.90239319286147, -0.568615804940831, 2.7761842454765198, -0.049718890339136124, -0.4639885127544403, 0.3837807774543762, 0.7967426180839539, 0.5384661555290222, 0.27432650327682495, -0.0008901357650756836, 0.016297519207000732, 0.02260953187942505, -0.7980176317385503, -0.018196535768062516, 0.32582508827334783,0.5066306739605936,0.7955780029296875,0.55267333984375,0.2958984375
20220119-1819,2022-01-19 18:20:00Z,u01, 122,40,movements,el-ex, rt, d,234427.67239812503, 1.8898266816838365, -0.5587306769126936, 2.7724939935798476, 0.09133906662464142, -0.37753504514694214, 0.4167073369026184, 0.805142343044281, 0.5301103591918945, 0.2659494876861572, -0.019314706325531006, 0.040415823459625244, 0.013362765312194824, -0.7954394312952673, -0.015838403540536117, 0.3230132747081984,0.5125307833875261,0.7872314453125,0.558197021484375,0.2841796875
20220119-1819,2022-01-19 18:20:00Z,u01, 123,40,movements,el-ex, rt, d,234427.69734512502, 1.8751943220451064, -0.5508936915576642, 2.761980658067493, 0.3370817303657532, -0.3587195575237274, 0.4028583765029907, 0.8128860592842102, 0.5234488844871521, 0.2553776502609253, -0.00816798210144043, 0.0696602463722229, 0.011056184768676758, -0.7921819575143175, -0.011686222155529696, 0.3227452876687019,0.5178288747765126,0.8066864013671875,0.591552734375,0.2654266357421875
20220119-1819,2022-01-19 18:20:00Z,u01, 124,40,movements,el-ex, rt, d,234427.722291125, 1.8596568566679628, -0.5439305943600602, 2.750622154208561, 0.20135614275932312, -0.4115659296512604, 0.3612172603607178, 0.8202294111251831, 0.5175033211708069, 0.2437494397163391, 0.014334678649902344, -0.00311434268951416, 0.0073949843645095825, -0.7885536717096164, -0.007604266467184012, 0.32308910900718757,0.5232003594769111,0.831817626953125,0.5272369384765625,0.2550048828125
20220119-1819,2022-01-19 18:20:00Z,u01, 125,40,movements,el-ex, rt, d,234427.747237125, 1.8468610769569096, -0.5359795906328829, 2.746621394233456, -0.08682198822498322, -0.4358270466327667, 0.34737759828567505, 0.8272143006324768, 0.5106834769248962, 0.23434855043888092, 0.01755821704864502, -0.039690375328063965, 0.012004643678665161, -0.7855839481554651, -0.005668688117846765, 0.32121846439321233,0.5288143113730979,0.844940185546875,0.4690399169921875,0.2452545166015625
20220119-1819,2022-01-19 18:20:00Z,u01, 126,40,movements,el-ex, rt, d,234427.77218312502, 1.8366892597074884, -0.5265624252781425, 2.747478156662157, -0.10188861936330795, -0.42208075523376465, 0.36524805426597595, 0.8341584205627441, 0.5025643706321716, 0.22717593610286713, 0.01064443588256836, -0.00941556692123413, 0.00906074047088623, -0.7833042196557278, -0.004740286405060301, 0.3175638058446978,0.5343831217324619,0.84381103515625,0.4904327392578125,0.2391815185546875
20220119-1819,2022-01-19 18:20:00Z,u01, 127,40,movements,el-ex, rt, d,234427.79713012502, 1.8247623199187895, -0.5177361913937385, 2.743871629485259, 0.15588480234146118, -0.3878385126590729, 0.3832024335861206, 0.8410694599151611, 0.49491429328918457, 0.21831706166267395, 0.005091607570648193, 0.0023392140865325928, -0.010248154401779175, -0.7804821102781255, -0.002491915057702715, 0.3153332459246913,0.5398208364028173,0.8465576171875,0.496917724609375,0.2059783935546875
20220119-1819,2022-01-19 18:20:00Z,u01, 128,40,movements,el-ex, rt, d,234427.822076125, 1.8114020791878052, -0.5096837082758182, 2.7361189866362294, 0.15304553508758545, -0.3751305639743805, 0.3704545795917511, 0.8477539420127869, 0.4879011809825897, 0.2080039232969284, 0.02214956283569336, -0.02356097102165222, -0.0024221092462539673, -0.7771750738920559, 0.0009290949078704369, 0.3145455693529512,0.5450312967695988,0.8682861328125,0.4720001220703125,0.2039947509765625
20220119-1819,2022-01-19 18:20:00Z,u01, 129,40,movements,el-ex, rt, d,234427.847022125, 1.8001578326151473, -0.5008792535192315, 2.732200546369654, -0.04397362098097801, -0.3656078279018402, 0.3772379755973816, 0.8541893362998962, 0.4801969826221466, 0.1994275599718094, 0.02470153570175171, -0.041613638401031494, 0.025624364614486694, -0.774404222327914, 0.0034465487161768615, 0.31249120870443714,0.550123107553138,0.8787384033203125,0.4390411376953125,0.22509765625
20220119-1819,2022-01-19 18:20:00Z,u01, 130,40,movements,el-ex, rt, d,234427.871969125, 1.7904787791865235, -0.4916103523873074, 2.7314083765898265, -0.027479466050863266, -0.36168497800827026, 0.36297062039375305, 0.8603869080543518, 0.4720461368560791, 0.19211237132549286, 0.012797415256500244, -0.007354915142059326, 0.0013234913349151611, -0.7720294304679172, 0.005171226780401411, 0.309436242836717,0.5551514882076318,0.876708984375,0.4657135009765625,0.196075439453125
20220119-1819,2022-01-19 18:20:00Z,u01, 131,40,movements,el-ex, rt, d,234427.89691512502, 1.7813984909647738, -0.48284086614584515, 2.729616609993134, 0.003251415677368641, -0.290162056684494, 0.3533850908279419, 0.8661105632781982, 0.4642971456050873, 0.18515022099018097, -0.004385769367218018, 0.015835881233215332, 0.024093613028526306, -0.7697549257544144, 0.0072432704035916284, 0.3068543369411743,0.5597010497679422,0.861175537109375,0.4813995361328125,0.209075927734375
20220119-1819,2022-01-19 18:20:00Z,u01, 132,40,movements,el-ex, rt, d,234427.921861125, 1.7738235867497627, -0.4747511987499512, 2.7266901590408477, 0.03928252309560776, -0.219593346118927, 0.30926504731178284, 0.8711386322975159, 0.4571171700954437, 0.17933575809001923, 0.0049141645431518555, 0.030721545219421387, 0.04597555100917816, -0.7678359841778015, 0.009786799754017361, 0.30484675180095433,0.5633831168924371,0.87353515625,0.48681640625,0.22381591796875
20220119-1819,2022-01-19 18:20:00Z,u01, 133,40,movements,el-ex, rt, d,234427.946808125, 1.7675855374615335, -0.46751998381756027, 2.724537798755372, 0.008452968671917915, -0.19348853826522827, 0.2950133979320526, 0.8754593133926392, 0.45067378878593445, 0.17453986406326294, 0.00555264949798584, 0.03531867265701294, 0.011480093002319336, -0.7662417942444291, 0.011976905156239698, 0.3029359818130637,0.5665332230849421,0.8809356689453125,0.48681640625,0.1847991943359375
20220119-1819,2022-01-19 18:20:00Z,u01, 134,40,movements,el-ex, rt, d,234427.97175412503, 1.7613194698762606, -0.4606208727426341, 2.722088954002082, 0.055742982774972916, -0.22623687982559204, 0.26825687289237976, 0.8795679807662964, 0.44450435042381287, 0.1696355789899826, -0.004522144794464111, 0.06248420476913452, 0.026821494102478027, -0.7646022958385758, 0.014181567400172596, 0.301241438681923,0.5695927271545621,0.87646484375,0.507110595703125,0.1941070556640625
20220119-1819,2022-01-19 18:20:00Z,u01, 135,40,movements,el-ex, rt, d,234427.99670012502, 1.7547760786297524, -0.4547875751580709, 2.720155504051369, -0.03281004726886749, -0.2156825065612793, 0.21153688430786133, 0.88319331407547, 0.439271479845047, 0.16434819996356964, -0.02484065294265747, 0.06419229507446289, 0.04822206497192383, -0.7628394210398342, 0.015815160120775884, 0.2997912933287933,0.5726702163607956,0.8574371337890625,0.50311279296875,0.2135772705078125
20220119-1819,2022-01-19 18:20:00Z,u01, 136,40,movements,el-ex, rt, d,234428.02164712502, 1.7501468111102534, -0.4500570621428814, 2.7203174433305866, -5.586445331573486e-05, -0.16350699961185455, 0.16863888502120972, 0.8859792947769165, 0.4350169003009796, 0.16062679886817932, -0.032265305519104004, 0.049113929271698, 0.013537034392356873, -0.7616023822258146, 0.016589386653870025, 0.29812147532428324,0.575161009661993,0.848388671875,0.4857025146484375,0.1838226318359375
20220119-1819,2022-01-19 18:20:00Z,u01, 137,40,movements,el-ex, rt, d,234428.046593125, 1.745115755317, -0.4466353120711016, 2.717615280001241, 0.14433589577674866, -0.15423738956451416, 0.14244742691516876, 0.888236939907074, 0.43193334341049194, 0.1564246118068695, -0.00817108154296875, 0.06040671467781067, 0.0010309070348739624, -0.7601902191314108, 0.017976052707405266, 0.29774401272053735,0.5771795038433363,0.8823699951171875,0.492431640625,0.1569061279296875
20220119-1819,2022-01-19 18:20:00Z,u01, 138,40,movements,el-ex, rt, d,234428.07153912503, 1.739303270200334, -0.44355464016593826, 2.7118510484578837, 0.18947339057922363, -0.12464680522680283, 0.1573975384235382, 0.8904387950897217, 0.42915284633636475, 0.15148159861564636, 0.02493596076965332, 0.010315537452697754, 0.05179606378078461, -0.7585042832198772, 0.02029896390289687, 0.29838883225143603,0.5789847413253004,0.9140625,0.44940185546875,0.2005615234375
20220119-1819,2022-01-19 18:20:00Z,u01, 139,40,movements,el-ex, rt, d,234428.09648612502, 1.7348895693169264, -0.44075142064908757, 2.7072143114905, 0.0754142627120018, -0.060180604457855225, 0.11664731800556183, 0.8922820091247559, 0.42661920189857483, 0.14774593710899353, -0.010110437870025635, -0.012587249279022217, 0.05920909345149994, -0.7572154428965666, 0.022310080770247875, 0.298802649262918,0.580382635834756,0.8789520263671875,0.4135894775390625,0.20953369140625
20220119-1819,2022-01-19 18:20:00Z,u01, 140,40,movements,el-ex, rt, d,234428.12143212502, 1.7329091231954277, -0.4391235721535278, 2.7046279214642364, 0.07913080602884293, -0.01247626356780529, 0.09033761918544769, 0.8932569026947021, 0.42514634132385254, 0.14609040319919586, -0.009818971157073975, -0.002264350652694702, 0.025845617055892944, -0.7566318917974467, 0.023524084947513207, 0.29900986779635025,0.5809886315770815,0.8741912841796875,0.4175872802734375,0.174652099609375
20220119-1819,2022-01-19 18:20:01Z,u01, 141,40,movements,el-ex, rt, d,234428.146378125, 1.7318540726920193, -0.4375281416879508, 2.702809727787858, -0.0030470932833850384, -0.04095384478569031, 0.09242939949035645, 0.8940789103507996, 0.4237017333507538, 0.14525647461414337, 0.030634045600891113, -0.00045353174209594727, 0.01204642653465271, -0.7563228824075102, 0.024575063957385512, 0.2989962349380411,0.5813543428009796,0.9253997802734375,0.423828125,0.157196044921875
20220119-1819,2022-01-19 18:20:01Z,u01, 142,40,movements,el-ex, rt, d,234428.171325125, 1.7341248689467628, -0.4339752153287792, 2.7047499770619843, -0.029505765065550804, -0.055532053112983704, 0.08922288566827774, 0.8952265977859497, 0.4204808473587036, 0.14753024280071259, 0.005301296710968018, 0.026906847953796387, -0.009117618203163147, -0.7570489033761995, 0.025339262453988487, 0.29716771138070847,0.581314202822832,0.9043121337890625,0.443572998046875,0.1349945068359375
20220119-1819,2022-01-19 18:20:01Z,u01, 143,40,movements,el-ex, rt, d,234428.19627100002, 1.7358178529742985, -0.43149219909672976, 2.706373409112142, -0.037020739167928696, -0.04007147252559662, 0.05048893392086029, 0.8960028290748596, 0.4182266891002655, 0.14921671152114868, -0.0013495087623596191, 0.036912500858306885, 0.007842063903808594, -0.757590578285114, 0.025785161606978052, 0.29580859483979666,0.5812822433985791,0.89453125,0.454345703125,0.15625
20220119-1819,2022-01-19 18:20:01Z,u01, 144,40,movements,el-ex, rt, d,234428.221217, 1.7372080440558701, -0.43031394957148117, 2.7076956889527333, -0.03226632997393608, 0.04225136339664459, 0.005843971855938435, 0.8962796330451965, 0.4171561598777771, 0.150543674826622, 0.001898348331451416, 0.021411925554275513, 0.017776116728782654, -0.7580253342419402, 0.02587328743498249, 0.29499500201930506,0.5811248145120613,0.89703369140625,0.4403839111328125,0.169281005859375
20220119-1819,2022-01-19 18:20:01Z,u01, 145,40,movements,el-ex, rt, d,234428.246163, 1.7385095189121138, -0.4312565938326901, 2.708558738603968, -0.028013361617922783, 0.06417270749807358, -0.04279513657093048, 0.8956949710845947, 0.41801267862319946, 0.15164433419704437, 0.0077779293060302734, 0.03880491852760315, 0.0039038509130477905, -0.7584032051547588, 0.02543123912950801, 0.2950570528278973,0.5806196707033922,0.9026947021484375,0.4585418701171875,0.15289306640625
20220119-1819,2022-01-19 18:20:01Z,u01, 146,40,movements,el-ex, rt, d,234428.27111, 1.739485854558486, -0.43390302115491647, 2.708585324089702, 0.01216811127960682, 0.06351271271705627, -0.06834903359413147, 0.8944528698921204, 0.42041534185409546, 0.15233251452445984, -0.003019094467163086, 0.04369601607322693, 0.013545870780944824, -0.7586540368617858, 0.02470442426480829, 0.29596208315878275,0.5798622794436878,0.891387939453125,0.4683990478515625,0.161651611328125
20220119-1819,2022-01-19 18:20:01Z,u01, 147,40,movements,el-ex, rt, d,234428.29605600002, 1.7416372887477305, -0.4365190397662979, 2.7096533171295882, -0.07841608673334122, 0.08133412152528763, -0.12248411029577255, 0.8930361866950989, 0.42278748750686646, 0.15406900644302368, -0.0008394718170166016, 0.025698870420455933, 0.017973899841308594, -0.7592559589691203, 0.02376740122478907, 0.2965412526502208,0.5788167531195005,0.8928070068359375,0.4488983154296875,0.17156982421875
20220119-1819,2022-01-19 18:20:01Z,u01, 148,40,movements,el-ex, rt, d,234428.321002, 1.7461611542178639, -0.4402708841417289, 2.7139840843864733, -0.16690948605537415, 0.13234077394008636, -0.18563838303089142, 0.8907618522644043, 0.4261845350265503, 0.15782952308654785, 0.002960681915283203, 0.02837476134300232, 0.023643359541893005, -0.7605585273867123, 0.021575204430637374, 0.2965519893780003,0.5771847130464471,0.8940887451171875,0.4511260986328125,0.17706298828125
20220119-1819,2022-01-19 18:20:01Z,u01, 149,40,movements,el-ex, rt, d,234428.345949, 1.7517850071583048, -0.445699006246285, 2.7190068052913574, -0.12294503301382065, 0.2041834145784378, -0.23515279591083527, 0.8875713348388672, 0.43108871579170227, 0.1624176800251007, 0.0032519102096557617, 0.04551953077316284, 0.029782041907310486, -0.7621401537704813, 0.018741074162892668, 0.29695354560342,0.5749866856825878,0.890838623046875,0.477813720703125,0.1942596435546875
20220119-1819,2022-01-19 18:20:01Z,u01, 150,40,movements,el-ex, rt, d,234428.370895, 1.7595294888769684, -0.4523120942966293, 2.722956395984164, -0.06308509409427643, 0.27495357394218445, -0.29796943068504333, 0.8834676742553711, 0.4370462894439697, 0.16874803602695465, 0.003510713577270508, 0.049220889806747437, 0.054122015833854675, -0.7642707833373655, 0.01625385351843167, 0.2980808973135932,0.5716414726787634,0.886474609375,0.4899444580078125,0.22021484375
20220119-1819,2022-01-19 18:20:01Z,u01, 151,40,movements,el-ex, rt, d,234428.39584100002, 1.7686950923015403, -0.4597512138519849, 2.72621477632131, -0.05246121436357498, 0.3621598482131958, -0.33514052629470825, 0.8786714673042297, 0.4437251687049866, 0.1761941760778427, -0.010141253471374512, 0.04997292160987854, 0.0648031085729599, -0.76674728165249, 0.013989094264105939, 0.29970976807796146,0.5675182337620721,0.86749267578125,0.493927001953125,0.2413787841796875
20220119-1819,2022-01-19 18:20:01Z,u01, 152,40,movements,el-ex, rt, d,234428.42078800002, 1.7810968461397862, -0.46935804845622653, 2.729550020432002, -0.04308103024959564, 0.509865403175354, -0.4774491786956787, 0.8722096681594849, 0.4523138403892517, 0.18617893755435944, -0.024690747261047363, 0.11332947015762329, 0.10028958320617676, -0.7700370223411848, 0.011508969716730683, 0.3020932427886879,0.5618276070452936,0.8452301025390625,0.554351806640625,0.279876708984375
20220119-1819,2022-01-19 18:20:01Z,u01, 153,40,movements,el-ex, rt, d,234428.445734, 1.79730625017617, -0.48310989656582687, 2.7342616221758433, -0.05285269767045975, 0.6085816621780396, -0.6657405495643616, 0.8629341721534729, 0.4645354151725769, 0.19887606799602509, -0.005374908447265625, 0.13212904334068298, 0.1048959493637085, -0.7741945369062999, 0.007800914292938166, 0.30559659481806456,0.5542316940941159,0.8583984375,0.5975189208984375,0.3038177490234375
20220119-1819,2022-01-19 18:20:01Z,u01, 154,40,movements,el-ex, rt, d,234428.47068000003, 1.8152885320112124, -0.5002836517361035, 2.739910746232004, -0.017215777188539505, 0.619549036026001, -0.7459933757781982, 0.8513516783714294, 0.47967445850372314, 0.21239793300628662, 0.009732365608215332, 0.13682642579078674, 0.05499708652496338, -0.778582044304239, 0.0029947866424176184, 0.3101420059943093,0.5455391923112565,0.863525390625,0.6167144775390625,0.2789154052734375
20220119-1819,2022-01-19 18:20:01Z,u01, 155,40,movements,el-ex, rt, d,234428.49562700003, 1.834355804403278, -0.5182849290522021, 2.7455018954678057, -0.005212010815739632, 0.6980863213539124, -0.7555277943611145, 0.8386739492416382, 0.49539104104042053, 0.22630487382411957, 0.003641784191131592, 0.09639060497283936, 0.03254520893096924, -0.7830384705161921, -0.001786723082174202, 0.31510252338918476,0.5362443710981672,0.8409271240234375,0.5894622802734375,0.2605438232421875
20220119-1819,2022-01-19 18:20:01Z,u01, 156,40,movements,el-ex, rt, d,234428.52057300002, 1.8555660617697156, -0.5366200071015759, 2.75204582686922, -0.0501842126250267, 0.7397987246513367, -0.7987702488899231, 0.8248288035392761, 0.5112339854240417, 0.2414485067129135, 0.012878715991973877, 0.04468947649002075, 0.07157039642333984, -0.7878328907656114, -0.006602207119819348, 0.32004652321784866,0.5261616176361835,0.8343658447265625,0.5565643310546875,0.3125762939453125
20220119-1819,2022-01-19 18:20:01Z,u01, 157,40,movements,el-ex, rt, d,234428.545519, 1.8800129742037366, -0.555556366587228, 2.762471585028017, -0.2047169953584671, 0.7750319838523865, -0.8523664474487305, 0.8093122839927673, 0.5274160504341125, 0.2585461437702179, 0.05987423658370972, 0.0025827884674072266, 0.05401495099067688, -0.7931688581195324, -0.012499249236782806, 0.3243537900428717,0.5152879199469428,0.871337890625,0.5264129638671875,0.313140869140625
20220119-1819,2022-01-19 18:20:01Z,u01, 158,40,movements,el-ex, rt, d,234428.57046500003, 1.9074108835730794, -0.5740867118259702, 2.778867722564312, -0.3224000930786133, 0.7294703722000122, -0.8649967908859253, 0.7925639748573303, 0.5430681109428406, 0.2773437798023224, 0.06263017654418945, -0.0064470767974853516, 0.018798828125, -0.7989177288633276, -0.020058664281706162, 0.3272173070657446,0.5042390580966782,0.86236572265625,0.5341796875,0.303375244140625
20220119-1819,2022-01-19 18:20:01Z,u01, 159,40,movements,el-ex, rt, d,234428.59541200002, 1.934666349970125, -0.5913112048985774, 2.7944973051172317, -0.1795121282339096, 0.7680543065071106, -0.7956570982933044, 0.77585369348526, 0.5574500560760498, 0.2954665422439575, 0.03328937292098999, -0.01959306001663208, -0.009013324975967407, -0.8043705558164091, -0.02685652112320952, 0.33004303020386205,0.49329334962980387,0.807769775390625,0.538360595703125,0.2870025634765625
20220119-1819,2022-01-19 18:20:01Z,u01, 160,40,movements,el-ex, rt, d,234428.62035800001, 1.9609356339902755, -0.6084154784122205, 2.8058502642554095, -0.04499104619026184, 0.8091948628425598, -0.7745903134346008, 0.7588951587677002, 0.5715680122375488, 0.31207117438316345, 0.042893171310424805, -0.012318074703216553, -0.004591226577758789, -0.809329601436504, -0.031955980768051645, 0.334079174364026,0.48203279481324546,0.7969207763671875,0.5536041259765625,0.3054046630859375
20220119-1819,2022-01-19 18:20:01Z,u01, 161,40,movements,el-ex, rt, d,234428.645304, 1.9869205040512758, -0.6263383348610319, 2.816343405365693, -0.08399417251348495, 0.7914149165153503, -0.8254730701446533, 0.7410406470298767, 0.5861821174621582, 0.3274894058704376, 0.06967407464981079, -0.013214588165283203, -0.004140287637710571, -0.8138710714358904, -0.036858988128748466, 0.3388069485481058,0.4706008242011623,0.8096466064453125,0.5750274658203125,0.3271331787109375
20220119-1819,2022-01-19 18:20:01Z,u01, 162,40,movements,el-ex, rt, d,234428.670251, 2.0157630122436636, -0.643904874555372, 2.8324359441822105, -0.2496524155139923, 0.7564020752906799, -0.8884276151657104, 0.7218811511993408, 0.600322961807251, 0.3442378640174866, 0.047756850719451904, -0.016460776329040527, -0.0037990212440490723, -0.818682878289366, -0.04332761670371657, 0.3423476985851643,0.45899784262262394,0.7769317626953125,0.580169677734375,0.345458984375
20220119-1819,2022-01-19 18:20:01Z,u01, 163,40,movements,el-ex, rt, d,234428.69519700002, 2.047390746961932, -0.6605451207126284, 2.8533576899311583, -0.29483282566070557, 0.7562701106071472, -0.8943148255348206, 0.7016604542732239, 0.6135473847389221, 0.36226019263267517, 0.030440986156463623, 0.021233558654785156, -0.03553891181945801, -0.8237331182009209, -0.05092985433583844, 0.3447680910323372,0.4472191528330034,0.72967529296875,0.6368255615234375,0.3257293701171875
20220119-1819,2022-01-19 18:20:01Z,u01, 164,40,movements,el-ex, rt, d,234428.720143, 2.0792482158573193, -0.6769500576131118, 2.873086651217798, -0.1683659702539444, 0.864766538143158, -0.8490933179855347, 0.6808812022209167, 0.6264185309410095, 0.37947413325309753, 0.030071496963500977, 0.0414738655090332, -0.01993122696876526, -0.8284886145537094, -0.05782464297669662, 0.3476751819511532,0.43518376362533556,0.7105560302734375,0.667083740234375,0.349578857421875
20220119-1819,2022-01-19 18:20:01Z,u01, 165,40,movements,el-ex, rt, d,234428.74509, 2.1108627589188136, -0.6944575321809073, 2.8893107359332864, -0.04749621823430061, 0.8836526870727539, -0.8961717486381531, 0.6590381860733032, 0.6399686932563782, 0.3951065242290497, 0.08997005224227905, 0.0452272891998291, 0.020695626735687256, -0.8327829936166915, -0.06344878104772234, 0.352044716703074,0.42250610571469766,0.7491607666015625,0.6865234375,0.4202728271484375
20220119-1819,2022-01-19 18:20:01Z,u01, 166,40,movements,el-ex, rt, d,234428.770036, 2.1451529704771457, -0.7124029922596378, 2.9075249239280927, -0.1394847184419632, 0.9347537159919739, -0.9025601148605347, 0.6353596448898315, 0.6536542177200317, 0.41116178035736084, 0.0730142593383789, 0.012193441390991211, 0.027772605419158936, -0.8371196673311379, -0.06936530420373777, 0.3565253147872274,0.40903388122592943,0.721466064453125,0.66302490234375,0.4369354248046875
20220119-1819,2022-01-19 18:20:01Z,u01, 167,40,movements,el-ex, rt, d,234428.79498200002, 2.1823007822126326, -0.7287890289905897, 2.9276080404184603, -0.08837440609931946, 0.9908234477043152, -0.9083793759346008, 0.6107985973358154, 0.6659667491912842, 0.4282679259777069, 0.046366870403289795, 0.016253650188446045, 0.002762407064437866, -0.8417296893262535, -0.07500059622802568, 0.3604041845722809,0.39493657394693826,0.65594482421875,0.685272216796875,0.4297943115234375
20220119-1819,2022-01-19 18:20:01Z,u01, 168,40,movements,el-ex, rt, d,234428.81992900002, 2.219164829634371, -0.7457431981274327, 2.946621531353208, -0.07329888641834259, 0.9376680850982666, -0.8602682948112488, 0.5855148434638977, 0.6785179376602173, 0.4436055123806, 0.0721237063407898, 0.028162360191345215, 0.007841110229492188, -0.8457977390744779, -0.0801806843032494, 0.36501797135421754,0.3807350228174533,0.6625213623046875,0.7106781005859375,0.446868896484375
20220119-1819,2022-01-19 18:20:01Z,u01, 169,40,movements,el-ex, rt, d,234428.844875, 2.2579905588664704, -0.7615740130789991, 2.968907262000533, -0.1945134699344635, 0.911188542842865, -0.8974071145057678, 0.5594803094863892, 0.6900615096092224, 0.4591263234615326, 0.07874900102615356, -0.019452989101409912, 0.021922320127487183, -0.8498099919565103, -0.08594267405667044, 0.3689453784684073,0.36649170547399473,0.63775634765625,0.6700286865234375,0.482147216796875
20220119-1819,2022-01-19 18:20:01Z,u01, 170,40,movements,el-ex, rt, d,234428.869821, 2.2999549027672868, -0.7749820996218614, 2.9949913291319454, -0.2430185079574585, 0.944561779499054, -0.8651939630508423, 0.5327783823013306, 0.6997032761573792, 0.4759860038757324, 0.06995904445648193, -0.025402069091796875, 0.0019497871398925781, -0.8541185201593134, -0.0920573626723803, 0.3716724677284124,0.3519469204117197,0.6065673828125,0.67291259765625,0.478363037109375
20220119-1819,2022-01-19 18:20:01Z,u01, 171,40,movements,el-ex, rt, d,234428.89476800003, 2.3424595077396835, -0.7872491310939511, 3.0210700924405933, -0.13487567007541656, 0.9616457223892212, -0.8517330288887024, 0.5058811902999878, 0.7084143757820129, 0.49217209219932556, 0.07401382923126221, -0.02280646562576294, -0.014877080917358398, -0.8582201086160313, -0.09769490808308093, 0.3743224164484687,0.3373376997657549,0.58099365234375,0.6848602294921875,0.4782257080078125
20220119-1819,2022-01-19 18:20:01Z,u01, 172,40,movements,el-ex, rt, d,234428.91971400002, 2.381785081857227, -0.8007951956450293, 3.043607263142655, -0.020882882177829742, 0.8985863327980042, -0.7791581153869629, 0.47948598861694336, 0.7179098725318909, 0.5046768188476562, 0.07929086685180664, -0.03161531686782837, -0.020652711391448975, -0.8612983574012084, -0.10248675561303464, 0.37828299258644077,0.3233629627833667,0.5679931640625,0.697113037109375,0.4826812744140625
20220119-1819,2022-01-19 18:20:01Z,u01, 173,40,movements,el-ex, rt, d,234428.94466, 2.4201084299508064, -0.8130114079194108, 3.0645857190604726, -0.06810685247182846, 0.9064149856567383, -0.7213555574417114, 0.4539708197116852, 0.7263602614402771, 0.5160534381866455, 0.08432868123054504, -0.0617789626121521, -0.015305817127227783, -0.8641238551347189, -0.10637989415918589, 0.3821579351439389,0.3097233377394847,0.538848876953125,0.661834716796875,0.4993896484375
20220119-1819,2022-01-19 18:20:01Z,u01, 174,40,movements,el-ex, rt, d,234428.96960600003, 2.4586438442023666, -0.822687585492047, 3.0858833130828587, -0.07879788428544998, 0.9388463497161865, -0.6457737684249878, 0.4292967915534973, 0.7329767346382141, 0.5276832580566406, 0.06986397504806519, -0.07762694358825684, -0.041904449462890625, -0.8670567492986111, -0.10979171318745526, 0.3851578358248826,0.29633070967411546,0.5067901611328125,0.651275634765625,0.483917236328125
20220119-1819,2022-01-19 18:20:01Z,u01, 175,40,movements,el-ex, rt, d,234428.99455300003, 2.4955730871177857, -0.8327041038292552, 3.1041883711312166, 0.12211475521326065, 0.9277905821800232, -0.6190634965896606, 0.40508130192756653, 0.7397536039352417, 0.5372840762138367, 0.08110955357551575, -0.045173466205596924, -0.04126650094985962, -0.8695218761914315, -0.11213267267439614, 0.38887353907720695,0.2830821069304722,0.4853668212890625,0.69708251953125,0.494598388671875
20220119-1819,2022-01-19 18:20:01Z,u01, 176,40,movements,el-ex, rt, d,234429.01949900002, 2.5282945156963255, -0.8472141037709712, 3.1177631060366497, 0.31972312927246094, 0.8609209656715393, -0.6346345543861389, 0.3810681700706482, 0.7494388222694397, 0.5414134860038757, 0.0633593201637268, 0.0027279257774353027, -0.05516159534454346, -0.8705026013590684, -0.1137187923866434, 0.3951268490862483,0.2704959587321668,0.4512176513671875,0.751251220703125,0.4851531982421875
20220119-1819,2022-01-19 18:20:01Z,u01, 177,40,movements,el-ex, rt, d,234429.044445, 2.559144186492128, -0.861952776235374, 3.1301793488761733, 0.24052073061466217, 0.840188205242157, -0.5889336466789246, 0.358071893453598, 0.7591151595115662, 0.5436257123947144, 0.045385777950286865, -0.04189103841781616, -0.056626081466674805, -0.8709720831149768, -0.11498041899065017, 0.40164974089060795,0.2585821091318581,0.40216064453125,0.711883544921875,0.4843902587890625
20220119-1819,2022-01-19 18:20:01Z,u01, 178,40,movements,el-ex, rt, d,234429.069392, 2.592545834780835, -0.8707667986160494, -3.135297736138791, -0.09925685077905655, 0.7405529022216797, -0.5344794988632202, 0.3362124562263489, 0.7648231387138367, 0.549551248550415, 0.07643094658851624, -0.05666285753250122, -0.03438401222229004, -0.8723920569299879, -0.11708003445972606, 0.40518948986553177,0.24707448892775033,0.4122161865234375,0.6975860595703125,0.515838623046875
20220119-1819,2022-01-19 18:20:01Z,u01, 179,40,movements,el-ex, rt, d,234429.09433800002, 2.6254844943100486, -0.8765763711330256, -3.1151037497371554, -0.012281304225325584, 0.631862461566925, -0.5548715591430664, 0.31573379039764404, 0.7685530185699463, 0.556451678276062, 0.08981427550315857, 0.009950339794158936, -0.050317585468292236, -0.8739864196127074, -0.1198898025028165, 0.4072414455697342,0.23649222061704214,0.405487060546875,0.7813262939453125,0.505767822265625
20220119-1819,2022-01-19 18:20:01Z,u01, 180,40,movements,el-ex, rt, d,234429.11928400001, 2.6555982947037196, -0.8848581474292043, -3.097421496796401, 0.1478205770254135, 0.6411118507385254, -0.5513927340507507, 0.2958531081676483, 0.7738251686096191, 0.56005859375, 0.06350663304328918, 0.03934621810913086, -0.033935487270355225, -0.8746754213842375, -0.12236097841965321, 0.41065441942503184,0.22656933447435412,0.36053466796875,0.807525634765625,0.530731201171875
20220119-1819,2022-01-19 18:20:02Z,u01, 181,40,movements,el-ex, rt, d,234429.144231, 2.6845368682223065, -0.8950563800551157, -3.0813751890058088, 0.17711418867111206, 0.675674319267273, -0.5289720296859741, 0.2760271430015564, 0.7802443504333496, 0.5612735748291016, 0.0636335015296936, 0.009687960147857666, -0.03144252300262451, -0.8747316883280163, -0.12442376328956764, 0.4151483236454806,0.216829796781498,0.338470458984375,0.786712646484375,0.530029296875
20220119-1819,2022-01-19 18:20:02Z,u01, 182,40,movements,el-ex, rt, d,234429.169177, 2.7141935083038424, -0.9031001538317872, -3.065048186575729, 0.08085406571626663, 0.6594296097755432, -0.5239278078079224, 0.25665283203125, 0.7852502465248108, 0.5634815692901611, 0.024566620588302612, -0.01606994867324829, -0.016270816326141357, -0.8751198795656248, -0.1261189558663235, 0.41882124064376836,0.20699759646453914,0.28485107421875,0.7663116455078125,0.5497894287109375
20220119-1819,2022-01-19 18:20:02Z,u01, 183,40,movements,el-ex, rt, d,234429.19412225002, 2.743720136173108, -0.9110136402302461, -3.048918874684208, 0.2081056386232376, 0.6694678068161011, -0.4809001684188843, 0.23749063909053802, 0.7901254296302795, 0.5650668144226074, 0.04111960530281067, -0.01104205846786499, -0.018313705921173096, -0.8753546414836723, -0.12762314538447195, 0.42255746938850064,0.19726111190343495,0.2786407470703125,0.7806549072265625,0.547515869140625
20220119-1819,2022-01-19 18:20:02Z,u01, 184,40,movements,el-ex, rt, d,234429.21906925002, 2.772144885107706, -0.920756360291392, -3.0332618466485224, 0.18558700382709503, 0.6012669205665588, -0.47254183888435364, 0.2185446172952652, 0.7960596084594727, 0.5643823146820068, 0.07318812608718872, -0.01990610361099243, -0.01650017499923706, -0.87493334957997, -0.12916183499316042, 0.42717913714412925,0.18795437548110827,0.290313720703125,0.794281005859375,0.5482635498046875
20220119-1819,2022-01-19 18:20:02Z,u01, 185,40,movements,el-ex, rt, d,234429.24401525, 2.802047295021762, -0.9261251805441539, -3.0148508943707935, -0.09896449744701385, 0.611303448677063, -0.4898216426372528, 0.20014673471450806, 0.7992974519729614, 0.5666260719299316, 0.05043309926986694, -0.04540640115737915, 0.00332033634185791, -0.8752763594733625, -0.13116523474185865, 0.4298114745603701,0.17874318891293278,0.249114990234375,0.7528533935546875,0.5696868896484375
20220119-1819,2022-01-19 18:20:02Z,u01, 186,40,movements,el-ex, rt, d,234429.26896125003, 2.833244659590006, -0.9268276162167159, -2.9940279417146938, -0.0889323353767395, 0.579674482345581, -0.47569137811660767, 0.18220454454421997, 0.7997193336486816, 0.5720583200454712, 0.03193730115890503, -0.007772922515869141, -0.01445627212524414, -0.8764565082145429, -0.13361567842535416, 0.430374520376661,0.1695544014932181,0.221588134765625,0.7833709716796875,0.56610107421875
20220119-1819,2022-01-19 18:20:02Z,u01, 187,40,movements,el-ex, rt, d,234429.29390825002, 2.8639145278918776, -0.9296639043238861, -2.9739898559213085, -0.006251275539398193, 0.5726408958435059, -0.5096375346183777, 0.16395430266857147, 0.8014189600944519, 0.5751932263374329, 0.033265575766563416, 0.0330844521522522, 0.003313422203063965, -0.8769958316357459, -0.13592249925564648, 0.4320460507484055,0.16043626063466773,0.19769287109375,0.8344268798828125,0.579132080078125
20220119-1819,2022-01-19 18:20:02Z,u01, 188,40,movements,el-ex, rt, d,234429.31885425, 2.8940014947365187, -0.9329310636455219, -2.953925431414275, -0.04747730493545532, 0.5700317025184631, -0.47324338555336, 0.14593437314033508, 0.8033688068389893, 0.5773231983184814, 0.04179452359676361, 0.006445825099945068, 0.00853806734085083, -0.8772259290774076, -0.13833387320955917, 0.43399366078892154,0.15161796183670673,0.1920623779296875,0.813507080078125,0.5874481201171875
20220119-1819,2022-01-19 18:20:02Z,u01, 189,40,movements,el-ex, rt, d,234429.34380025, 2.9257364189450397, -0.9335862655946839, -2.932853479062838, -0.10666961967945099, 0.5923682451248169, -0.5358150601387024, 0.1274297833442688, 0.8037588000297546, 0.5811482071876526, 0.036022305488586426, 0.017011404037475586, 0.005720019340515137, -0.8779385240580744, -0.1407055520413029, 0.434950188657987,0.14228194580346154,0.163360595703125,0.82281494140625,0.5861358642578125
20220119-1819,2022-01-19 18:20:02Z,u01, 190,40,movements,el-ex, rt, d,234429.36874625002, 2.958612213921204, -0.9338750994816473, -2.909651935609413, -0.07018934190273285, 0.5436511039733887, -0.5484442710876465, 0.10821649432182312, 0.8039305806159973, 0.5847948789596558, 0.040114209055900574, 0.04479396343231201, -0.027864277362823486, -0.8784847572320091, -0.14374276253414708, 0.43582007000169964,0.13290410267897287,0.15753173828125,0.8470001220703125,0.5627899169921875
20220119-1819,2022-01-19 18:20:02Z,u01, 191,40,movements,el-ex, rt, d,234429.39369325002, 2.9899797503066603, -0.9359761517009745, -2.888203480167332, 0.05658847093582153, 0.586193859577179, -0.508971095085144, 0.08956742286682129, 0.8051783442497253, 0.5862303972244263, 0.00837872177362442, 0.009183347225189209, -0.04329198598861694, -0.8784652658200537, -0.14633511549688014, 0.43765039729631694,0.12388347878587158,0.0978851318359375,0.812835693359375,0.545196533203125
20220119-1819,2022-01-19 18:20:02Z,u01, 192,40,movements,el-ex, rt, d,234429.41863925, 3.0212031523107217, -0.9407482632703564, -2.867187060205915, 0.2252129465341568, 0.5388498306274414, -0.5086421370506287, 0.0707603469491005, 0.8079991936683655, 0.5849194526672363, 0.0529884472489357, 0.005965769290924072, -0.02009981870651245, -0.8776935272942091, -0.14870704141916044, 0.44081300765401277,0.11499705578458388,0.1230621337890625,0.8121337890625,0.570037841796875
20220119-1819,2022-01-19 18:20:02Z,u01, 193,40,movements,el-ex, rt, d,234429.44358525, 3.0502847738935928, -0.9515398180805352, -2.848056978878562, 0.5452374815940857, 0.5703479647636414, -0.5033372640609741, 0.052924226969480515, 0.8143102526664734, 0.5780121684074402, 0.05135431885719299, 0.008672595024108887, -0.02314150333404541, -0.875410111040778, -0.15054308271337413, 0.4466936601279306,0.10704554618239322,0.1018218994140625,0.822967529296875,0.5543212890625
20220119-1819,2022-01-19 18:20:02Z,u01, 194,40,movements,el-ex, rt, d,234429.46853225, 3.081034270849799, -0.9665312014231848, -2.827541937457868, 0.4936453402042389, 0.5406826734542847, -0.4896593391895294, 0.03438569977879524, 0.8229198455810547, 0.5671164393424988, 0.06125638261437416, -0.04421788454055786, -0.022407948970794678, -0.8719872642114053, -0.1523037585955746, 0.45455368264951335,0.09911048899476464,0.0921173095703125,0.7917633056640625,0.545013427734375
20220119-1819,2022-01-19 18:20:02Z,u01, 195,40,movements,el-ex, rt, d,234429.49347825002, 3.108869139870633, -0.974971211421247, -2.808864228138647, 0.14607182145118713, 0.45656222105026245, -0.3951277732849121, 0.018360886722803116, 0.8276857137680054, 0.5608912706375122, 0.0691635012626648, -0.10452604293823242, -0.014367222785949707, -0.8699293075120026, -0.15384611466528342, 0.4594832107504349,0.09181223059156084,0.0848236083984375,0.7212371826171875,0.54742431640625
20220119-1819,2022-01-19 18:20:02Z,u01, 196,40,movements,el-ex, rt, d,234429.51842425, 3.1328883412822823, -0.9771051246044794, -2.792872083902658, 0.07308898866176605, 0.4080570638179779, -0.3347375988960266, 0.004869344178587198, 0.8288813829421997, 0.5594033002853394, 0.03523072600364685, -0.07268631458282471, -0.01899796724319458, -0.8692620772906143, -0.15519375737100707, 0.4615608095907933,0.08520563628831748,0.0432281494140625,0.74749755859375,0.54150390625
20220119-1819,2022-01-19 18:20:02Z,u01, 197,40,movements,el-ex, rt, d,234429.54337125, -3.128816845769778, -0.9787552000286246, -2.778382005616113, 0.06585510820150375, 0.35229775309562683, -0.3274710178375244, -0.007129424251616001, 0.8298033475875854, 0.5580106377601624, 0.054721564054489136, -0.026870548725128174, -0.024837970733642578, -0.8686355323536492, -0.15645327176938165, 0.4633550499294057,0.07935284565366688,0.04833984375,0.8041229248046875,0.5349578857421875
20220119-1819,2022-01-19 18:20:02Z,u01, 198,40,movements,el-ex, rt, d,234429.56831725003, -3.109345852557254, -0.9796298038252433, -2.7646389871035684, 0.03453879803419113, 0.3050643503665924, -0.2727557122707367, -0.017968986183404922, 0.8302910923957825, 0.5570399761199951, 0.04734215512871742, -0.041884779930114746, -0.04498565196990967, -0.8681014203355881, -0.15786045700864598, 0.4647366034141625,0.07416073475559315,0.0355377197265625,0.7976226806640625,0.5185699462890625
20220119-1819,2022-01-19 18:20:02Z,u01, 199,40,movements,el-ex, rt, d,234429.59326325002, -3.0919358330552202, -0.9804039287937223, -2.75335597069272, 0.0959227979183197, 0.3147353529930115, -0.22468164563179016, -0.027631977573037148, 0.8307222723960876, 0.5560014247894287, 0.015821658074855804, -0.053073108196258545, -0.04016256332397461, -0.8676557051862661, -0.15866404734705747, 0.46604401645232574,0.06929988570831376,-0.0117340087890625,0.778167724609375,0.5153045654296875
20220119-1819,2022-01-19 18:20:02Z,u01, 200,40,movements,el-ex, rt, d,234429.61821025002, -3.0767990608107407, -0.9852455138186123, -2.743626572513093, 0.28916308283805847, 0.2609301805496216, -0.19726493954658508, -0.03578367456793785, 0.8334078192710876, 0.5514987707138062, 0.02353084459900856, -0.010852336883544922, -0.019439995288848877, -0.866284719797365, -0.15906024228346669, 0.46900469753745966,0.0654613452312006,-0.011627197265625,0.815277099609375,0.5275115966796875
20220119-1819,2022-01-19 18:20:02Z,u01, 201,40,movements,el-ex, rt, d,234429.64315625, -3.0636523864099465, -0.9911239701369309, -2.734772222653016, 0.1705278605222702, 0.19314539432525635, -0.14607805013656616, -0.042648568749427795, 0.8366421461105347, 0.5460871458053589, 0.0382540225982666, -0.025576472282409668, -0.040044546127319336, -0.864653603110885, -0.15942930919352646, 0.47229233321114483,0.06242147772042965,-0.0035858154296875,0.8059539794921875,0.503173828125
20220119-1819,2022-01-19 18:20:02Z,u01, 202,40,movements,el-ex, rt, d,234429.66810225003, -3.055684753406163, -0.9931465904211885, -2.7297762391007216, 0.04346924275159836, 0.10449116677045822, -0.07323286682367325, -0.04685291275382042, 0.8377483487129211, 0.5440430045127869, 0.03882676362991333, -0.11179614067077637, -0.08678281307220459, -0.8640362597881945, -0.15957084207518116, 0.47364049379464124,0.06035945389243497,-0.0059814453125,0.7263946533203125,0.4629364013671875
20220119-1819,2022-01-19 18:20:02Z,u01, 203,40,movements,el-ex, rt, d,234429.69304825002, -3.052696100786758, -0.9946457037326747, -2.7284678190104383, 0.09955558180809021, 0.028666513040661812, 0.01976078562438488, -0.048367079347372055, 0.83856600522995, 0.5426487922668457, 0.040234122425317764, -0.10358071327209473, -0.08999675512313843, -0.8636779082205908, -0.15932626002520603, 0.47448070251373864,0.05952878361047824,-0.0072021484375,0.7362518310546875,0.4546051025390625
20220119-1819,2022-01-19 18:20:02Z,u01, 204,40,movements,el-ex, rt, d,234429.71799525002, -3.055630484945623, -1.0002319605648458, -2.7306600669128507, 0.3467441201210022, -0.10762834548950195, 0.1311476230621338, -0.046371638774871826, 0.8415963053703308, 0.538112998008728, 0.05186477303504944, -0.08930742740631104, -0.14590108394622803, -0.862479439395034, -0.15870008896649426, 0.47670013763287405,0.0608322156349361,0.00640869140625,0.75653076171875,0.400299072265625
20220119-1819,2022-01-19 18:20:02Z,u01, 205,40,movements,el-ex, rt, d,234429.74294125, -3.066034008182109, -1.009807047526364, -2.7387368017438636, 0.3231714963912964, -0.19365869462490082, 0.2638477385044098, -0.04016076773405075, 0.8467292189598083, 0.5305059552192688, 0.050140004605054855, -0.1400948166847229, -0.11777091026306152, -0.8605692163794749, -0.15707829283588126, 0.4802186371259139,0.06431968467265517,0.0108642578125,0.704254150390625,0.4143524169921875
20220119-1819,2022-01-19 18:20:02Z,u01, 206,40,movements,el-ex, rt, d,234429.76788725003, -3.0852383482481516, -1.014579643630965, -2.7537558243539784, 0.03077172115445137, -0.31572601199150085, 0.3873097598552704, -0.0297380443662405, 0.8492586612701416, 0.5271390676498413, 0.08125171065330505, -0.1348421573638916, -0.09558987617492676, -0.859978629542916, -0.15493964581302966, 0.48126063780701406,0.06941722599025113,0.04632568359375,0.70947265625,0.430389404296875
20220119-1819,2022-01-19 18:20:02Z,u01, 207,40,movements,el-ex, rt, d,234429.79283425002, -3.1121944583845056, -1.0152058225546956, -2.774460566487775, 0.03510148823261261, -0.4149223566055298, 0.46660247445106506, -0.015503693372011185, 0.8495891094207764, 0.5272169709205627, 0.06837540864944458, -0.0787457823753357, -0.08086693286895752, -0.8604409090250159, -0.1524792220195514, 0.48021025306478765,0.07608917532811217,0.05126953125,0.774871826171875,0.447357177734375
20220119-1819,2022-01-19 18:20:02Z,u01, 208,40,movements,el-ex, rt, d,234429.81778025, 3.1401610740610635, -1.0172571983484224, -2.797715965522095, 0.09689155220985413, -0.45723775029182434, 0.5048418641090393, 0.0007525829714722931, 0.8506693243980408, 0.5257007479667664, 0.03911861777305603, -0.015235364437103271, -0.0641375184059143, -0.8604748596428032, -0.149777802254552, 0.4796922676889388,0.08393452089316066,0.03985595703125,0.8372955322265625,0.4598236083984375
20220119-1819,2022-01-19 18:20:02Z,u01, 209,40,movements,el-ex, rt, d,234429.84272625, 3.105656698648342, -1.0194014439111194, -2.8237011109128844, 0.09031210839748383, -0.5187540650367737, 0.5726755261421204, 0.018821926787495613, 0.8517946004867554, 0.5235375761985779, 0.0269086342304945, -0.038134992122650146, -0.06974118947982788, -0.8603608520833526, -0.14679239017105228, 0.4792056431101603,0.09269913296798826,0.0452117919921875,0.81280517578125,0.4544525146484375
20220119-1819,2022-01-19 18:20:02Z,u01, 210,40,movements,el-ex, rt, d,234429.86767325, 3.0670910910989706, -1.0212138796338404, -2.853149169953933, 0.11890453845262527, -0.5500316619873047, 0.635187029838562, 0.03887854143977165, 0.8527426719665527, 0.520882785320282, 0.02365199476480484, -0.04698687791824341, -0.04381668567657471, -0.8601757115996687, -0.1433148623110283, 0.47862772808449483,0.10234390071146399,0.0565338134765625,0.804168701171875,0.470703125
20220119-1819,2022-01-19 18:20:02Z,u01, 211,40,movements,el-ex, rt, d,234429.89261925002, 3.025952967467319, -1.0232930927506236, -2.884650131666816, 0.15828439593315125, -0.5910406708717346, 0.6401508450508118, 0.06006301939487457, 0.8538268804550171, 0.5170806646347046, 0.04426131397485733, -0.02516770362854004, -0.018285930156707764, -0.8596838639437843, -0.13958507977039625, 0.47831160786440496,0.11259566118557722,0.107452392578125,0.8303985595703125,0.496826171875
20220119-1819,2022-01-19 18:20:02Z,u01, 212,40,movements,el-ex, rt, d,234429.91756525, 2.9821891964985316, -1.024208592853767, -2.917347612279894, 0.1035710945725441, -0.6698340177536011, 0.6692357063293457, 0.08250358700752258, 0.8543031215667725, 0.5131859183311462, 0.061264701187610626, -0.032113611698150635, -0.02997034788131714, -0.8591267682853095, -0.1359932314534949, 0.47762454192001536,0.12362028836821796,0.1453704833984375,0.8318023681640625,0.490264892578125
20220119-1819,2022-01-19 18:20:02Z,u01, 213,40,movements,el-ex, rt, d,234429.94251225, 2.935574781354102, -1.0240191588576624, -2.9517223559684513, 0.17293162643909454, -0.6799985766410828, 0.7235468029975891, 0.10636018961668015, 0.8542045950889587, 0.5089420676231384, 0.005837664008140564, -0.059679508209228516, -0.05978423357009888, -0.8584605909324287, -0.1323496635686025, 0.4766414167204518,0.1354324574161208,0.11041259765625,0.7939453125,0.447540283203125
20220119-1819,2022-01-19 18:20:02Z,u01, 214,40,movements,el-ex, rt, d,234429.96745825, 2.885644320853118, -1.0260746330186963, -2.9903489500196176, 0.35157671570777893, -0.6664016246795654, 0.7551358342170715, 0.13118401169776917, 0.8552715182304382, 0.5012997388839722, 0.012828424572944641, 0.009840726852416992, -0.012438595294952393, -0.8569307838304748, -0.1277477585021496, 0.4770200356197461,0.14765515666384582,0.132415771484375,0.870758056640625,0.4857330322265625
20220119-1819,2022-01-19 18:20:02Z,u01, 215,40,movements,el-ex, rt, d,234429.99240425002, 2.834541800858765, -1.028824131732143, -3.0299767365921895, 0.25241556763648987, -0.6823858022689819, 0.7410356402397156, 0.15590788424015045, 0.8566930294036865, 0.4917007386684418, 0.03777189552783966, -0.010669589042663574, 0.012846410274505615, -0.8548060725485991, -0.12311354919810946, 0.4780530177117774,0.1600465289230011,0.1959991455078125,0.8449249267578125,0.506072998046875
20220119-1819,2022-01-19 18:20:02Z,u01, 216,40,movements,el-ex, rt, d,234430.01735025, 2.7841392791984774, -1.026247796908496, -3.0676002337098147, 0.08799853175878525, -0.7500641345977783, 0.7841895222663879, 0.18125411868095398, 0.85536128282547, 0.4852878153324127, 0.05856826901435852, -0.054473161697387695, -0.008893013000488281, -0.8535229577018715, -0.1189220906082461, 0.4770222615221308,0.1726439158632816,0.238922119140625,0.8049163818359375,0.4844207763671875
20220119-1819,2022-01-19 18:20:02Z,u01, 217,40,movements,el-ex, rt, d,234430.04229725, 2.73188625175143, -1.0208506881971835, -3.1066191969175097, 0.15950150787830353, -0.7230162024497986, 0.8517350554466248, 0.20818904042243958, 0.8525529503822327, 0.4793865382671356, 0.021669402718544006, -0.049528419971466064, -0.030365943908691406, -0.8524245597642254, -0.11430505481427622, 0.4751564084376366,0.18583145914395788,0.22918701171875,0.8064422607421875,0.4530792236328125
20220119-1819,2022-01-19 18:20:02Z,u01, 218,40,movements,el-ex, rt, d,234430.06724325003, 2.6791681044147153, -1.016329957109642, 3.1351544972107934, 0.24969665706157684, -0.6708744168281555, 0.8142614364624023, 0.23487736284732819, 0.850181519985199, 0.4711945950984955, 0.03566098213195801, 0.04456353187561035, 0.051327526569366455, -0.8507453281708284, -0.10876435557348943, 0.47426877849478144,0.19867546097675465,0.26202392578125,0.8940582275390625,0.5182342529296875
20220119-1819,2022-01-19 18:20:02Z,u01, 219,40,movements,el-ex, rt, d,234430.09218925002, 2.6307458934267127, -1.011945491063068, 3.097422364013499, 0.17678014934062958, -0.634848952293396, 0.7680488228797913, 0.2592291533946991, 0.8478649854660034, 0.4625202417373657, 0.05258414149284363, 0.05272388458251953, 0.051655083894729614, -0.848822602178404, -0.10373188262081043, 0.47370054202358425,0.2105886689448336,0.3128662109375,0.8993377685546875,0.512115478515625
20220119-1819,2022-01-19 18:20:02Z,u01, 220,40,movements,el-ex, rt, d,234430.11713625002, 2.585678023949234, -1.0049114136229413, 3.063034575374573, 0.09747105836868286, -0.6429833173751831, 0.7768462300300598, 0.2829444408416748, 0.8441144824028015, 0.45542699098587036, 0.02152949571609497, 0.011903822422027588, 0.004518866539001465, -0.8473035913961271, -0.09894505733262562, 0.4721812027208927,0.22210718132451113,0.3085784912109375,0.8598785400390625,0.4668121337890625
20220119-1819,2022-01-19 18:20:03Z,u01, 221,40,movements,el-ex, rt, d,234430.14208225, 2.540280918747217, -0.9972890807723446, 3.0278064009183643, 0.2326657921075821, -0.6020765900611877, 0.8186411261558533, 0.3069516718387604, 0.8400031924247742, 0.4474095404148102, -0.007925182580947876, 0.01226121187210083, -0.0013493597507476807, -0.8455323737211947, -0.09370046628818901, 0.4708331296898078,0.23369078544892058,0.2999725341796875,0.8552703857421875,0.45013427734375
20220119-1819,2022-01-19 18:20:03Z,u01, 222,40,movements,el-ex, rt, d,234430.16702825003, 2.495036071814198, -0.9904949999387863, 2.9913994927374365, 0.16863307356834412, -0.5757396817207336, 0.7507647275924683, 0.3303041160106659, 0.8362974524497986, 0.4376133978366852, 0.04283425211906433, 0.047979772090911865, 0.061623573303222656, -0.8432497307873323, -0.08795792197630711, 0.4703314227980887,0.2449113470086699,0.3632659912109375,0.875732421875,0.4951019287109375
20220119-1819,2022-01-19 18:20:03Z,u01, 223,40,movements,el-ex, rt, d,234430.19197604168, 2.4584069800444617, -0.9805949802439153, 2.9647771741630393, -0.05224956199526787, -0.5786930322647095, 0.670342743396759, 0.3513180911540985, 0.8308286666870117, 0.43162447214126587, 0.05929595232009888, 0.03361231088638306, 0.04708969593048096, -0.8419029832663241, -0.08373529841491542, 0.46804130623061996,0.25519642061754333,0.41168212890625,0.863861083984375,0.4754180908203125
20220119-1819,2022-01-19 18:20:03Z,u01, 224,40,movements,el-ex, rt, d,234430.21692204167, 2.427123234680447, -0.9685441300789716, 2.943966381668232, -0.006619690451771021, -0.5683675408363342, 0.6712736487388611, 0.3711802065372467, 0.8240618109703064, 0.4279572665691376, 0.007314056158065796, 0.051441729068756104, 0.0007385015487670898, -0.8411569427461243, -0.08020987666523632, 0.4645748437620523,0.26493698846715896,0.382080078125,0.8770751953125,0.4401092529296875
20220119-1819,2022-01-19 18:20:03Z,u01, 225,40,movements,el-ex, rt, d,234430.2418680417, 2.3917497728736867, -0.9589992301799969, 2.9175740455721053, 0.24561625719070435, -0.5321765542030334, 0.7119784355163574, 0.39142611622810364, 0.8186172246932983, 0.4202994108200073, -0.029869139194488525, 0.016206443309783936, -0.013072729110717773, -0.839305794024474, -0.07560085998968785, 0.46291507269211996,0.2748817366568894,0.36163330078125,0.831573486328125,0.40887451171875
20220119-1819,2022-01-19 18:20:03Z,u01, 226,40,movements,el-ex, rt, d,234430.2668150417, 2.354562990218785, -0.9514816639514534, 2.888112748507149, 0.22026243805885315, -0.532584011554718, 0.6577143669128418, 0.41112858057022095, 0.8142764568328857, 0.40978923439979553, 0.028278768062591553, 0.029580354690551758, 0.017456889152526855, -0.8366208695658367, -0.07042826813488656, 0.46268307124250996,0.28465731695037977,0.4267730712890625,0.8464813232421875,0.42572021484375
20220119-1819,2022-01-19 18:20:03Z,u01, 227,40,movements,el-ex, rt, d,234430.29176104168, 2.324739365434439, -0.9410299490444296, 2.867591489148773, -0.141363263130188, -0.5085923671722412, 0.6020844578742981, 0.4293462038040161, 0.8081651329994202, 0.403151273727417, 0.05356395244598389, 0.010453641414642334, 0.04518243670463562, -0.8349453703264976, -0.06664727785266575, 0.4605055701449351,0.29386898641366255,0.484130859375,0.817230224609375,0.449981689453125
20220119-1819,2022-01-19 18:20:03Z,u01, 228,40,movements,el-ex, rt, d,234430.31670704167, 2.304510498380169, -0.9261517937621293, 2.858888818210256, -0.2629159092903137, -0.5446541905403137, 0.5725817084312439, 0.4462946653366089, 0.7993134260177612, 0.40239205956459045, 0.03170216083526611, 0.020632922649383545, 0.016278743743896484, -0.8348807442818812, -0.0645768747421443, 0.4553014011290395,0.3024974303872233,0.4834136962890625,0.8169097900390625,0.428741455078125
20220119-1819,2022-01-19 18:20:03Z,u01, 229,40,movements,el-ex, rt, d,234430.3416530417, 2.281185698411643, -0.9126326381629146, 2.8463437191226273, 0.03371238335967064, -0.5252565741539001, 0.631997287273407, 0.4637084901332855, 0.7911167740821838, 0.39888477325439453, -0.019967645406723022, 0.03755760192871094, -0.02727210521697998, -0.8340427264652377, -0.06176666727179064, 0.45120475312285474,0.31140329476673,0.4420928955078125,0.826141357421875,0.3695220947265625
20220119-1819,2022-01-19 18:20:03Z,u01, 230,40,movements,el-ex, rt, d,234430.36660004169, 2.25137555514115, -0.9026233020172685, 2.8251196674940275, 0.16301871836185455, -0.5204522609710693, 0.6546570062637329, 0.4815218150615692, 0.7849549055099487, 0.38984960317611694, -0.002411097288131714, -0.03460395336151123, -0.013750821352005005, -0.8316391170571336, -0.057455943504174406, 0.44978455919618227,0.3205761974164278,0.4687652587890625,0.7600250244140625,0.3632965087890625
20220119-1819,2022-01-19 18:20:03Z,u01, 231,40,movements,el-ex, rt, d,234430.39154604168, 2.2262014343520886, -0.8887636685183731, 2.8102259640500074, -0.31819358468055725, -0.5577793717384338, 0.6599924564361572, 0.4997597932815552, 0.7762929797172546, 0.3841995596885681, 0.04293423891067505, -0.07115387916564941, 0.017991602420806885, -0.8301850774233352, -0.05378213167668203, 0.446170283581859,0.3298973840715542,0.544403076171875,0.7014312744140625,0.402984619140625
20220119-1819,2022-01-19 18:20:03Z,u01, 232,40,movements,el-ex, rt, d,234430.4164920417, 2.212535271535227, -0.8672985910705105, 2.812293968640492, -0.6825665235519409, -0.675715446472168, 0.689704179763794, 0.5181944370269775, 0.7625842094421387, 0.38722091913223267, 0.08324599266052246, -0.045009076595306396, -0.01365518569946289, -0.8311622347906484, -0.05272375436230395, 0.43721229744138546,0.3394628290429319,0.6005706787109375,0.7101287841796875,0.3854522705078125
20220119-1819,2022-01-19 18:20:03Z,u01, 233,40,movements,el-ex, rt, d,234430.4414390417, 2.1951178721592535, -0.8457648051621941, 2.8129418462649296, -0.33639711141586304, -0.6983965039253235, 0.7336868047714233, 0.5380608439445496, 0.7484785318374634, 0.38764771819114685, 0.02872687578201294, 0.009181439876556396, -0.06158256530761719, -0.8313522500409434, -0.0517425635102538, 0.4283570306671671,0.3502663328930029,0.563751220703125,0.756622314453125,0.325042724609375
20220119-1819,2022-01-19 18:20:03Z,u01, 234,40,movements,el-ex, rt, d,234430.46638504168, 2.1697892062217443, -0.8281108099973957, 2.8021552069163747, -0.07885453850030899, -0.6823235154151917, 0.7310939431190491, 0.5585330128669739, 0.7366551160812378, 0.3812877833843231, 0.010665595531463623, 0.0017024874687194824, -0.004807591438293457, -0.8296360850250524, -0.04845469546762832, 0.42286053762637693,0.36131033580097227,0.5593109130859375,0.73699951171875,0.364532470703125
20220119-1819,2022-01-19 18:20:03Z,u01, 235,40,movements,el-ex, rt, d,234430.49133104167, 2.145601941399185, -0.810248479675502, 2.791919345777959, -0.2532563805580139, -0.6793478727340698, 0.71356600522995, 0.5785439610481262, 0.7244584560394287, 0.3747631311416626, 0.049187541007995605, -0.004884302616119385, 0.042229264974594116, -0.8278656995582286, -0.04494379965355344, 0.4173463430933369,0.3720761712124526,0.629547119140625,0.7191009521484375,0.4168853759765625
20220119-1819,2022-01-19 18:20:03Z,u01, 236,40,movements,el-ex, rt, d,234430.51627804167, 2.1264440488157907, -0.791544569460135, 2.789108160539221, -0.3723130226135254, -0.684478759765625, 0.6608209609985352, 0.5970253348350525, 0.7114395499229431, 0.3706948161125183, 0.06155925989151001, 0.04182589054107666, 0.0008414983749389648, -0.8267343617071118, -0.04310108046339861, 0.41033138011089987,0.38246673886632543,0.662384033203125,0.74755859375,0.373779296875
20220119-1819,2022-01-19 18:20:03Z,u01, 237,40,movements,el-ex, rt, d,234430.5412240417, 2.108315337477931, -0.7743756912963995, 2.7870527235553975, -0.21426703035831451, -0.6405122876167297, 0.6135616302490234, 0.6140498518943787, 0.6992698907852173, 0.36601191759109497, 0.0019170045852661133, 0.08362811803817749, 0.012757211923599243, -0.8253934686974393, -0.04161220801596269, 0.4038184806447549,0.39233254343662854,0.614288330078125,0.7833709716796875,0.3776092529296875
20220119-1819,2022-01-19 18:20:03Z,u01, 238,40,movements,el-ex, rt, d,234430.56617004168, 2.087250410523371, -0.7604787772056399, 2.778968107175118, 0.038078904151916504, -0.605969250202179, 0.5940459370613098, 0.6300126314163208, 0.6892684102058411, 0.35776087641716003, -0.015007257461547852, 0.06166231632232666, 0.004452168941497803, -0.8230208879149958, -0.03894936378397992, 0.39973437986102817,0.4016614081803976,0.61187744140625,0.7607421875,0.363525390625
20220119-1819,2022-01-19 18:20:03Z,u01, 239,40,movements,el-ex, rt, d,234430.59111704168, 2.0651741270278827, -0.7486600578273294, 2.7677468893768595, 0.025518236681818962, -0.5660567879676819, 0.5611436367034912, 0.6448829770088196, 0.6806577444076538, 0.3476077914237976, -0.00450211763381958, 0.03789389133453369, 0.03392311930656433, -0.820081008889981, -0.03565164423106451, 0.3971506678101028,0.41044792708453703,0.6427001953125,0.7182769775390625,0.3827972412109375
20220119-1819,2022-01-19 18:20:03Z,u01, 240,40,movements,el-ex, rt, d,234430.61606304167, 2.045308104558824, -0.7365008787583636, 2.7594965922555583, -0.023018602281808853, -0.5517139434814453, 0.5117831230163574, 0.658974289894104, 0.6716998219490051, 0.33848538994789124, 0.025061964988708496, 0.03839850425720215, 0.023712515830993652, -0.817407801924906, -0.03297244140427569, 0.3939711756552958,0.41897978039114203,0.6833648681640625,0.713958740234375,0.36041259765625
20220119-1819,2022-01-19 18:20:03Z,u01, 241,40,movements,el-ex, rt, d,234430.6410090417, 2.0272718581439753, -0.7246952000397737, 2.7528972758203802, -0.010209032334387302, -0.5492644906044006, 0.4951152503490448, 0.6720432043075562, 0.6629072427749634, 0.3300181031227112, 0.03662073612213135, 0.04485642910003662, 0.036025047302246094, -0.8149053108034008, -0.030633053151743972, 0.3906863517504213,0.4270306217919286,0.70849609375,0.706573486328125,0.3652801513671875
20220119-1819,2022-01-19 18:20:03Z,u01, 242,40,movements,el-ex, rt, d,234430.66595504168, 2.010069338700481, -0.7135597426202394, 2.7456018862675173, 0.0011945907026529312, -0.45642921328544617, 0.4862889349460602, 0.6842595338821411, 0.6545292139053345, 0.3215285539627075, 0.014394640922546387, 0.013180136680603027, 0.04260730743408203, -0.8123927896532902, -0.027968531981839323, 0.3878819482543172,0.4344921015492788,0.7000274658203125,0.6727752685546875,0.361328125
20220119-1819,2022-01-19 18:20:03Z,u01, 243,40,movements,el-ex, rt, d,234430.69090204168, 1.9936467210598903, -0.7027056082206036, 2.7379555554898736, 0.0648244321346283, -0.43221306800842285, 0.5018036961555481, 0.6958850026130676, 0.6462846994400024, 0.31314530968666077, 0.0006480813026428223, 0.014008820056915283, 0.029216110706329346, -0.8099048519529968, -0.025035614537316703, 0.38533983729548604,0.44152066448321325,0.6966400146484375,0.6622467041015625,0.340423583984375
20220119-1819,2022-01-19 18:20:03Z,u01, 244,40,movements,el-ex, rt, d,234430.71584804167, 1.9761285651785923, -0.6926033150263023, 2.7276764843461394, 0.15747900307178497, -0.447290301322937, 0.5003301501274109, 0.7072279453277588, 0.6385428309440613, 0.3034664988517761, 0.012239217758178711, 0.021689772605895996, 0.008224844932556152, -0.8070159077861601, -0.021414207402566526, 0.38372255158951407,0.4483568392359984,0.7139739990234375,0.663360595703125,0.3134765625
20220119-1819,2022-01-19 18:20:03Z,u01, 245,40,movements,el-ex, rt, d,234430.7407940417, 1.9581138961406352, -0.6819560672715681, 2.7174778037648877, 0.09453605860471725, -0.47219419479370117, 0.5016078948974609, 0.718834400177002, 0.6303128004074097, 0.2932288646697998, 0.007422983646392822, -0.006594479084014893, 0.014525800943374634, -0.8039279491210785, -0.017728191233061658, 0.3819760421426194,0.4554997205618899,0.72613525390625,0.6215057373046875,0.3069305419921875
20220119-1819,2022-01-19 18:20:03Z,u01, 246,40,movements,el-ex, rt, d,234430.7657410417, 1.9424466524689807, -0.6701883714268554, 2.7104622369621656, -0.01937040686607361, -0.4504998028278351, 0.5233970284461975, 0.7302005290985107, 0.6211336255073547, 0.28460511565208435, 0.016564548015594482, -0.03655421733856201, 0.015321671962738037, -0.8013064818315342, -0.01450801115869646, 0.37920185397483797,0.46249683888027926,0.743377685546875,0.584747314453125,0.3018798828125
20220119-1819,2022-01-19 18:20:03Z,u01, 247,40,movements,el-ex, rt, d,234430.79068704168, 1.9278170170536346, -0.6578508887167085, 2.705497149063632, -0.012209765613079071, -0.47513896226882935, 0.5188130736351013, 0.7414101958274841, 0.6114176511764526, 0.2765498757362366, 0.01634138822555542, -0.007489979267120361, -0.0012049376964569092, -0.7988354921350805, -0.011695948176151133, 0.375818162512505,0.4695593035310103,0.758636474609375,0.6046600341796875,0.274505615234375
20220119-1819,2022-01-19 18:20:03Z,u01, 248,40,movements,el-ex, rt, d,234430.81563304167, 1.9118472914121667, -0.6454741569610796, 2.6993314993183843, 0.031857725232839584, -0.4709436297416687, 0.5449437499046326, 0.7528057098388672, 0.6015772819519043, 0.26718562841415405, 0.013429582118988037, -6.0617923736572266e-05, 0.00022467970848083496, -0.7959390773553183, -0.008590853595475761, 0.3727564457727319,0.4769273792475422,0.7643890380859375,0.6014404296875,0.267547607421875
20220119-1819,2022-01-19 18:20:03Z,u01, 249,40,movements,el-ex, rt, d,234430.8405800417, 1.895576696180264, -0.6327487961554787, 2.6922575624198215, 0.05668674036860466, -0.4713476896286011, 0.5773448348045349, 0.764246940612793, 0.5913636088371277, 0.2573243975639343, 0.017186224460601807, -0.0046021342277526855, 0.0019224882125854492, -0.7928662903136736, -0.0050239186612982545, 0.3698590271636187,0.48429552874149323,0.78179931640625,0.585296630859375,0.2595672607421875
20220119-1819,2022-01-19 18:20:03Z,u01, 250,40,movements,el-ex, rt, d,234430.86552604169, 1.8795010746792777, -0.619477164149175, 2.6859156682766403, -0.012520989403128624, -0.4962025284767151, 0.522148609161377, 0.7756940126419067, 0.5806095600128174, 0.24736876785755157, 0.018098652362823486, -0.014111816883087158, 0.007575124502182007, -0.78973549733043, -0.0014936386168303284, 0.36666732399043694,0.4918034914407545,0.7976837158203125,0.562957763671875,0.2523956298828125
20220119-1819,2022-01-19 18:20:03Z,u01, 251,40,movements,el-ex, rt, d,234430.89047204168, 1.8658337902455706, -0.6057451542207903, 2.683201238868907, -0.08921962976455688, -0.5063587427139282, 0.5712003111839294, 0.7865570783615112, 0.5693747997283936, 0.2390403151512146, 0.021777212619781494, -0.00144273042678833, 0.010624036192893982, -0.7870950486117022, 0.0012422799751594105, 0.36248151966213693,0.4990861542942799,0.8090362548828125,0.567901611328125,0.24822998046875
20220119-1819,2022-01-19 18:20:03Z,u01, 252,40,movements,el-ex, rt, d,234430.9154180417, 1.8511842855147824, -0.5928017712263669, 2.67969135456815, 0.02102838270366192, -0.5075429081916809, 0.5114942789077759, 0.7969897985458374, 0.5586869120597839, 0.22951267659664154, 0.016196727752685547, 0.04167008399963379, -0.0001730024814605713, -0.7840541329922911, 0.003931086618927354, 0.3588200847611002,0.5064501806561934,0.810211181640625,0.6002044677734375,0.234619140625
20220119-1819,2022-01-19 18:20:03Z,u01, 253,40,movements,el-ex, rt, d,234430.9403650417, 1.835661292700817, -0.5811114353895123, 2.674170097453576, 0.051564618945121765, -0.4913809299468994, 0.47932758927345276, 0.8067050576210022, 0.5489532947540283, 0.21880872547626495, 0.006405234336853027, 0.03428339958190918, 0.002291172742843628, -0.7806129051507867, 0.006917557228963728, 0.35616781335140835,0.513556336432181,0.81317138671875,0.5836639404296875,0.222198486328125
