SessionID,LoggingTime,UID,RecNo,Hertz,Activity,MoveType,Wrist,Side,TimeStamp,DMRoll,DMPitch,DMYaw,DMRotX,DMRotY,DMRotZ,DMGrvX,DMGrvY,DMGrvZ,DMUAccelX,DMUAccelY,DMUAccelZ,DMQuatX,DMQuatY,DMQuatW,DMQuatZ,AccelroX,AceelroY,AceelroZ
20220119-1822,2022-01-19 18:22:25Z,u01, 1,40,movements,el-ex, rt, d,234572.8595055, 1.8467917040126902, -0.5342762766967153, 2.7334887829386676, 0.2338830977678299, -0.6228283047676086, 0.4794400930404663, 0.8280662298202515, 0.5092183351516724, 0.2345278412103653, 0.016629934310913086, -0.0011768341064453125, 0.003326326608657837, -0.7856614548718597, 0.0, 0.3240698053533194,0.5269866685620506,0.844696044921875,0.5080413818359375,0.23785400390625
20220119-1822,2022-01-19 18:22:25Z,u01, 2,40,movements,el-ex, rt, d,234572.88445150002, 1.828140325454027, -0.5233940205175878, 2.7269588777755684, -0.03361518681049347, -0.5975719690322876, 0.47474655508995056, 0.8376055359840393, 0.4998226761817932, 0.22044068574905396, 0.009455561637878418, -0.028768569231033325, 0.018999993801116943, -0.781160643193843, 0.0028964956592391067, 0.3219066053470266,0.5349352646095906,0.8436737060546875,0.474822998046875,0.2438201904296875
20220119-1822,2022-01-19 18:22:25Z,u01, 3,40,movements,el-ex, rt, d,234572.9093975, 1.8127592971386894, -0.5109787064075061, 2.7258045430507756, -0.06732910871505737, -0.5445170402526855, 0.5242605209350586, 0.8468568921089172, 0.4890311658382416, 0.2090027779340744, -0.01847243309020996, -0.004534095525741577, -0.00854790210723877, -0.7774823771014376, 0.004747945498980416, 0.3178106421064856,0.542674026398689,0.8283843994140625,0.4844970703125,0.2004547119140625
20220119-1822,2022-01-19 18:22:25Z,u01, 4,40,movements,el-ex, rt, d,234572.9343435, 1.7977587196345546, -0.5006315432979617, 2.7226113480590857, 0.09600452333688736, -0.5093543529510498, 0.4190908670425415, 0.8547813296318054, 0.47997966408729553, 0.19740447402000427, 0.012467265129089355, 0.04013141989707947, 0.02343606948852539, -0.7737281056536867, 0.0068595050849688255, 0.315045709918709,0.5495852996697235,0.8853302001953125,0.5134124755859375,0.2071075439453125
20220119-1822,2022-01-19 18:22:25Z,u01, 5,40,movements,el-ex, rt, d,234572.9592905, 1.7827839946985842, -0.49076329259048784, 2.7175431618851067, 0.05094606801867485, -0.4888983964920044, 0.40830790996551514, 0.8622301816940308, 0.4712992310523987, 0.18557029962539673, 0.006635844707489014, 0.03097432851791382, 0.03754377365112305, -0.7698657265662707, 0.009587058224022199, 0.31301676107630855,0.5560894174005806,0.868865966796875,0.5022735595703125,0.223114013671875
20220119-1822,2022-01-19 18:22:25Z,u01, 6,40,movements,el-ex, rt, d,234572.98423650002, 1.7694109331334316, -0.48123049286675024, 2.7144400000553697, 0.02034551464021206, -0.45138174295425415, 0.37043797969818115, 0.8689997792243958, 0.4628702700138092, 0.17490194737911224, -0.005199730396270752, 0.036626219749450684, 0.04226124286651611, -0.7663636659680944, 0.011734940729759835, 0.3106000582274918,0.5622070128662372,0.8624267578125,0.4970855712890625,0.2119598388671875
20220119-1822,2022-01-19 18:22:25Z,u01, 7,40,movements,el-ex, rt, d,234573.0091825, 1.757825962679555, -0.47275306591644556, 2.712945169853838, -0.0637117400765419, -0.42134904861450195, 0.3206658363342285, 0.8747916221618652, 0.45533910393714905, 0.1655467450618744, 0.0018256902694702148, 0.05081012845039368, 0.05779622495174408, -0.7632811700232996, 0.01323750277001659, 0.30812305560712244,0.5677030177794472,0.876617431640625,0.5061492919921875,0.2233428955078125
20220119-1822,2022-01-19 18:22:25Z,u01, 8,40,movements,el-ex, rt, d,234573.0341285, 1.7482455165362443, -0.4652007286189387, 2.713452969233249, -0.04671860486268997, -0.35756468772888184, 0.2649887800216675, 0.8796973824501038, 0.44860219955444336, 0.15776094794273376, -0.016599297523498535, 0.07903140783309937, 0.051589712500572205, -0.7607128718743148, 0.014014187255959404, 0.30540477299569346,0.5725796161878485,0.8653564453125,0.525299072265625,0.2119293212890625
20220119-1822,2022-01-19 18:22:25Z,u01, 9,40,movements,el-ex, rt, d,234573.05907450002, 1.7393335954306721, -0.45936579371541963, 2.711947383640274, 0.04856070876121521, -0.2968128025531769, 0.2096036970615387, 0.8836339116096497, 0.4433797299861908, 0.15035152435302734, -0.013745605945587158, 0.0745798647403717, 0.05220900475978851, -0.7582526400401063, 0.015122634971170335, 0.3038694887381389,0.5766173872281396,0.8698883056640625,0.5179595947265625,0.2025604248046875
20220119-1822,2022-01-19 18:22:25Z,u01, 10,40,movements,el-ex, rt, d,234573.08402150002, 1.7320421754077595, -0.45500563446125397, 2.7107751127898445, -0.04578157514333725, -0.24398325383663177, 0.1480262130498886, 0.8866063356399536, 0.4394673705101013, 0.14421361684799194, -0.005487620830535889, 0.057816535234451294, 0.09135161340236664, -0.756210663580773, 0.015882201670095852, 0.3027504379680248,0.5798580246334208,0.8817138671875,0.4994964599609375,0.2336273193359375
20220119-1822,2022-01-19 18:22:25Z,u01, 11,40,movements,el-ex, rt, d,234573.1089675, 1.7278070063627549, -0.4516632327409629, 2.712661705062838, -0.10930884629487991, -0.1620907187461853, 0.08871635049581528, 0.8886550068855286, 0.4364625811576843, 0.14068631827831268, -0.01687467098236084, 0.0549619197845459, 0.08038316667079926, -0.7550490559050744, 0.015623077944039554, 0.30107680326550534,0.5822452942755678,0.8717803955078125,0.491424560546875,0.2210693359375
20220119-1822,2022-01-19 18:22:26Z,u01, 12,40,movements,el-ex, rt, d,234573.1339135, 1.725140094394637, -0.44974804670456103, 2.7142442990590046, -0.02764371782541275, -0.10008919984102249, 0.03813247010111809, 0.8898515701293945, 0.4347386360168457, 0.13844412565231323, -0.015522897243499756, 0.0609736442565918, 0.05833327770233154, -0.7543138774164131, 0.015252566382072896, 0.29997248598660253,0.5837761300813884,0.8730316162109375,0.4968719482421875,0.192108154296875
20220119-1822,2022-01-19 18:22:26Z,u01, 13,40,movements,el-ex, rt, d,234573.15885950002, 1.7236855018209052, -0.4498392066212584, 2.7153770026832778, -0.07663416117429733, -0.050055332481861115, -0.048959288746118546, 0.8900127410888672, 0.4348207414150238, 0.1371435672044754, -0.008359909057617188, 0.06328719854354858, 0.08095037937164307, -0.7538960661703862, 0.01457750678961131, 0.29968407220625626,0.584480732864511,0.88165283203125,0.49810791015625,0.2180938720703125
20220119-1822,2022-01-19 18:22:26Z,u01, 14,40,movements,el-ex, rt, d,234573.1838055, 1.7264159413102014, -0.45171107092966317, 2.719292476335728, -0.14460638165473938, 0.06606975197792053, -0.12152689695358276, 0.8888291120529175, 0.43650561571121216, 0.13944675028324127, -0.02263355255126953, 0.05230960249900818, 0.08931300044059753, -0.7546900461614614, 0.012895960672514889, 0.2991704154666681,0.5837581324013638,0.8656158447265625,0.48773193359375,0.2357177734375
20220119-1822,2022-01-19 18:22:26Z,u01, 15,40,movements,el-ex, rt, d,234573.2087525, 1.7322973568572793, -0.455444036115645, 2.7241495111912237, -0.09767686575651169, 0.1406850516796112, -0.15580424666404724, 0.8863794803619385, 0.43986111879348755, 0.1444089114665985, -0.010418057441711426, 0.05540871620178223, 0.053329840302467346, -0.756366007266964, 0.010719983826865731, 0.299017229047429,0.5817081756899792,0.8759613037109375,0.495269775390625,0.1977386474609375
20220119-1822,2022-01-19 18:22:26Z,u01, 16,40,movements,el-ex, rt, d,234573.2336985, 1.7395168778485781, -0.4603096203529851, 2.7268439614174445, 9.646918624639511e-05, 0.1967712938785553, -0.19416780769824982, 0.8831933736801147, 0.4442255198955536, 0.15044312179088593, -0.010878920555114746, 0.04831290245056152, 0.05568788945674896, -0.7583778838098952, 0.00919507949670087, 0.2998947415172365,0.5786549810014465,0.8711395263671875,0.4916534423828125,0.19732666015625
20220119-1822,2022-01-19 18:22:26Z,u01, 17,40,movements,el-ex, rt, d,234573.25864450002, 1.748476982354479, -0.465844064096017, 2.730473679152557, -0.1272713840007782, 0.25002166628837585, -0.25181758403778076, 0.8793766498565674, 0.449177086353302, 0.15791352093219757, -0.0006382465362548828, 0.04383435845375061, 0.06770311295986176, -0.7608564232857092, 0.007366406609625259, 0.30074535711530814,0.5749743130036594,0.8787384033203125,0.493011474609375,0.225616455078125
20220119-1822,2022-01-19 18:22:26Z,u01, 18,40,movements,el-ex, rt, d,234573.2835905, 1.7607786537919392, -0.47265075123702954, 2.7380900479573356, -0.24460938572883606, 0.340674489736557, -0.34651628136634827, 0.8743450045585632, 0.45524802803993225, 0.16813786327838898, 0.007521629333496094, 0.03193467855453491, 0.07356144487857819, -0.7642329344664668, 0.004117641803441985, 0.3009197611581341,0.5704195733147964,0.88330078125,0.4860382080078125,0.240631103515625
20220119-1822,2022-01-19 18:22:26Z,u01, 19,40,movements,el-ex, rt, d,234573.3085365, 1.7753252597246192, -0.48085998887309467, 2.7478633835338027, -0.3095368444919586, 0.4629463255405426, -0.43411991000175476, 0.8681180477142334, 0.4625418186187744, 0.18007323145866394, 0.009887993335723877, 0.046872884035110474, 0.07137644290924072, -0.7681384080709188, -6.467653691002995e-05, 0.3010321496635906,0.5651045340930232,0.8780059814453125,0.5094146728515625,0.2514495849609375
20220119-1822,2022-01-19 18:22:26Z,u01, 20,40,movements,el-ex, rt, d,234573.33348225002, 1.7929370527876938, -0.4907623542664329, 2.759086603851974, -0.28112509846687317, 0.524044394493103, -0.5061241984367371, 0.8603019118309021, 0.4712983965873718, 0.19431491196155548, 0.00716012716293335, 0.06565830111503601, 0.05078718066215515, -0.7727442581467856, -0.004874889703337215, 0.3014274166623525,0.5585552647097397,0.8707427978515625,0.53228759765625,0.24652099609375
20220119-1822,2022-01-19 18:22:26Z,u01, 21,40,movements,el-ex, rt, d,234573.35842925002, 1.8108848633527328, -0.5022752793189873, 2.7682624791882007, -0.13578669726848602, 0.5599982142448425, -0.5476191639900208, 0.8513491749763489, 0.4814210534095764, 0.20841924846172333, 0.004897773265838623, 0.07253405451774597, 0.039520978927612305, -0.7772532361197602, -0.00932923561135679, 0.30307662147704245,0.5513030287575016,0.8562469482421875,0.553955078125,0.2479400634765625
20220119-1822,2022-01-19 18:22:26Z,u01, 22,40,movements,el-ex, rt, d,234573.38337525, 1.8289257045032148, -0.5157581651097747, 2.7757095345415155, -0.13031350076198578, 0.5937244296073914, -0.6358678340911865, 0.841097891330719, 0.4931945204734802, 0.22206628322601318, 0.00852668285369873, 0.08308413624763489, 0.04578660428524017, -0.7815666037037587, -0.013666903672198888, 0.3060138208839709,0.5434357334726626,0.8506317138671875,0.570831298828125,0.2659759521484375
20220119-1822,2022-01-19 18:22:26Z,u01, 23,40,movements,el-ex, rt, d,234573.40832125003, 1.8489626897684892, -0.531310811947563, 2.7852198657145864, -0.19672341644763947, 0.6334593296051025, -0.7490057945251465, 0.8290033340454102, 0.5066638588905334, 0.23673857748508453, 0.005591332912445068, 0.05623281002044678, 0.04303142428398132, -0.786133108265323, -0.019079374118270598, 0.30927182038434325,0.5347725073424401,0.8345947265625,0.562896728515625,0.2797698974609375
20220119-1822,2022-01-19 18:22:26Z,u01, 24,40,movements,el-ex, rt, d,234573.43326725002, 1.8725775814965653, -0.5475877081295336, 2.7997685645572408, -0.3991262912750244, 0.6627853512763977, -0.7686105966567993, 0.8151993155479431, 0.5206291675567627, 0.2537626028060913, 0.01252901554107666, 0.032654523849487305, 0.04550814628601074, -0.7913290665843372, -0.026069271327549215, 0.3116517801056804,0.525349314694479,0.83221435546875,0.551483154296875,0.2999114990234375
20220119-1822,2022-01-19 18:22:26Z,u01, 25,40,movements,el-ex, rt, d,234573.45821325, 1.9000795464059914, -0.5626229663731519, 2.8186297889214122, -0.3871796429157257, 0.752376914024353, -0.767564594745636, 0.8004146814346313, 0.533406674861908, 0.2735210657119751, 0.007523000240325928, 0.06205230951309204, 0.04090166091918945, -0.7972595453326745, -0.033730446565127, 0.31272763848717144,0.5152096038490258,0.8079376220703125,0.595458984375,0.314422607421875
20220119-1822,2022-01-19 18:22:26Z,u01, 26,40,movements,el-ex, rt, d,234573.48316025, 1.928280679059406, -0.5782209339802489, 2.833711110016445, -0.1318890005350113, 0.8632606267929077, -0.7660942077636719, 0.784493625164032, 0.5465349555015564, 0.2930346429347992, 0.025107145309448242, 0.0904737114906311, 0.02051827311515808, -0.8030736424534136, -0.039875475394432564, 0.3152473539654023,0.5040851047909091,0.8053131103515625,0.6426849365234375,0.317626953125
20220119-1822,2022-01-19 18:22:26Z,u01, 27,40,movements,el-ex, rt, d,234573.50810625002, 1.9570979787138496, -0.5960045964342648, 2.8449796232457008, -0.10124892741441727, 0.9337923526763916, -0.8393276333808899, 0.7665992379188538, 0.5613404512405396, 0.31180518865585327, 0.06027454137802124, 0.053512394428253174, 0.010964006185531616, -0.8086320766008209, -0.044908381566417355, 0.3197815849118596,0.4917693632967593,0.826873779296875,0.6148529052734375,0.3227691650390625
20220119-1822,2022-01-19 18:22:26Z,u01, 28,40,movements,el-ex, rt, d,234573.53305225002, 1.9886697361632582, -0.6145540251145162, 2.8593755200282267, -0.17293159663677216, 0.9295119047164917, -0.8948915004730225, 0.7467284202575684, 0.5765942335128784, 0.3315655589103699, 0.062490880489349365, 0.03812128305435181, 0.028313130140304565, -0.8143701739279958, -0.05083301338420346, 0.32413174526700855,0.47870222222663816,0.8153228759765625,0.609893798828125,0.3598175048828125
20220119-1822,2022-01-19 18:22:26Z,u01, 29,40,movements,el-ex, rt, d,234573.55799825, 2.022359850259561, -0.6328900257259634, 2.877290486363038, -0.26014548540115356, 0.9439441561698914, -0.9176889657974243, 0.7255005240440369, 0.5914775133132935, 0.3518567979335785, 0.04473257064819336, 0.04284554719924927, 0.027751535177230835, -0.820125900426173, -0.05763591761290701, 0.32789800437652367,0.46535411150722905,0.770233154296875,0.6343231201171875,0.379608154296875
20220119-1822,2022-01-19 18:22:26Z,u01, 30,40,movements,el-ex, rt, d,234573.58294425003, 2.059029872579519, -0.6498913078230304, 2.897918102660083, -0.2906985282897949, 1.0067681074142456, -0.9014437794685364, 0.703129768371582, 0.6050998568534851, 0.3734471797943115, 0.04787731170654297, 0.025790035724639893, 0.028911828994750977, -0.8261690974578443, -0.06456165694242791, 0.330933438110375,0.4513972927282407,0.7514801025390625,0.632049560546875,0.4036102294921875
20220119-1822,2022-01-19 18:22:26Z,u01, 31,40,movements,el-ex, rt, d,234573.60789125002, 2.0974073245794913, -0.66661889998384, 2.9191969833126095, -0.24339309334754944, 1.0334844589233398, -0.9369682669639587, 0.6794371604919434, 0.6183322668075562, 0.39500680565834045, 0.07343143224716187, 0.025466501712799072, 0.005261868238449097, -0.8321210570389286, -0.07125975597706269, 0.334127952364223,0.4368696781790547,0.75286865234375,0.643798828125,0.4002685546875
20220119-1822,2022-01-19 18:22:26Z,u01, 32,40,movements,el-ex, rt, d,234573.63283725, 2.1377714700240174, -0.6833845538797001, 2.941739282396711, -0.2499081790447235, 1.0717494487762451, -0.9476714134216309, 0.6541065573692322, 0.6314211487770081, 0.41647565364837646, 0.07660633325576782, 0.014819025993347168, 0.019849509000778198, -0.8379458544993352, -0.07800366683932425, 0.33750952852629135,0.421722057330758,0.7324371337890625,0.655914306640625,0.436920166015625
20220119-1822,2022-01-19 18:22:26Z,u01, 33,40,movements,el-ex, rt, d,234573.65778325, 2.180824232966907, -0.6995154356323481, 2.966410227620141, -0.30483752489089966, 1.1062899827957153, -0.9671930074691772, 0.6271448731422424, 0.6438469886779785, 0.4383494257926941, 0.07854348421096802, 0.006223082542419434, 0.02065029740333557, -0.8437845737292424, -0.08486643843743846, 0.34069927495218166,0.4058931460247865,0.7056884765625,0.6500701904296875,0.4589996337890625
20220119-1822,2022-01-19 18:22:26Z,u01, 34,40,movements,el-ex, rt, d,234573.68272925002, 2.224785269893787, -0.7148589583730672, 2.9921022463527964, -0.2079867571592331, 1.0864949226379395, -0.9398847222328186, 0.5993632674217224, 0.6555109024047852, 0.45942258834838867, 0.05433851480484009, 0.01955312490463257, -0.0065416693687438965, -0.8492999673758344, -0.09165620907759228, 0.3438277810066156,0.3899630201435064,0.6658172607421875,0.6695556640625,0.451019287109375
20220119-1822,2022-01-19 18:22:26Z,u01, 35,40,movements,el-ex, rt, d,234573.70767525, 2.2674606589734023, -0.7312543266792885, 3.014482302170115, 0.024437595158815384, 1.1356440782546997, -0.9171023964881897, 0.5708970427513123, 0.6678038239479065, 0.47761374711990356, 0.05884838104248047, 0.012066841125488281, -0.01757633686065674, -0.8540144327979997, -0.09729447811392944, 0.34837856541540607,0.3739326106349199,0.6297454833984375,0.67987060546875,0.4600372314453125
20220119-1822,2022-01-19 18:22:26Z,u01, 36,40,movements,el-ex, rt, d,234573.73262125, 2.3064860310937347, -0.7504096728607283, 3.030660006110775, 0.22286786139011383, 1.1346555948257446, -0.8806397318840027, 0.5422437191009521, 0.6819384694099426, 0.49084800481796265, 0.09085863828659058, -0.007850944995880127, -0.023852646350860596, -0.8574241083801375, -0.10123192733766376, 0.3553803536523471,0.3581631411226427,0.6379852294921875,0.6769561767578125,0.4591522216796875
20220119-1822,2022-01-19 18:22:26Z,u01, 37,40,movements,el-ex, rt, d,234573.75756825, 2.3456637340322266, -0.7705550320920126, 3.0464903152664276, 0.15331445634365082, 1.1123976707458496, -0.877685010433197, 0.5126811265945435, 0.6965336203575134, 0.5019953846931458, 0.0896444320678711, -0.027878105640411377, 0.006778538227081299, -0.8602320559320377, -0.10487378385736254, 0.3631260909809194,0.342259927062815,0.602325439453125,0.6686553955078125,0.5087738037109375
20220119-1822,2022-01-19 18:22:26Z,u01, 38,40,movements,el-ex, rt, d,234573.78251425002, 2.3874641518067294, -0.7863446236869341, 3.0665655846875643, -0.04051849991083145, 1.087852954864502, -0.8738515973091125, 0.483664870262146, 0.7077757120132446, 0.5148998498916626, 0.08150538802146912, -0.038357436656951904, -0.018455088138580322, -0.8634944028266345, -0.1087535325689164, 0.3687109159448535,0.3265001459285284,0.57464599609375,0.6612396240234375,0.509674072265625
20220119-1822,2022-01-19 18:22:26Z,u01, 39,40,movements,el-ex, rt, d,234573.80746025, 2.4302405470753126, -0.7992240364638005, 3.089477574236353, -0.017126593738794327, 1.0489442348480225, -0.8130555152893066, 0.4552144706249237, 0.7168152332305908, 0.5281630754470825, 0.07765305042266846, -0.023028433322906494, -0.05408751964569092, -0.8667913535591603, -0.11293488746971048, 0.3729442740834942,0.3111771450332597,0.532867431640625,0.69378662109375,0.4740753173828125
20220119-1822,2022-01-19 18:22:26Z,u01, 40,40,movements,el-ex, rt, d,234573.83240625, 2.4719471075796093, -0.8125253671151116, 3.111315387978323, 0.019063469022512436, 1.0393136739730835, -0.7762033343315125, 0.4268406331539154, 0.7260261178016663, 0.5391597747802734, 0.06092178821563721, -0.03608471155166626, -0.029180467128753662, -0.8694591105594591, -0.11670797607413574, 0.377760843219378,0.29617035806790637,0.495697021484375,0.6934661865234375,0.495758056640625
20220119-1822,2022-01-19 18:22:26Z,u01, 41,40,movements,el-ex, rt, d,234573.85735225002, 2.514928471139821, -0.823046603749555, 3.135779641053689, -0.15112344920635223, 0.99654620885849, -0.7702181339263916, 0.39877793192863464, 0.7332208752632141, 0.5507845878601074, 0.08863362669944763, -0.014898061752319336, -0.004336655139923096, -0.8722439430084923, -0.12075924272638439, 0.3813497816619669,0.28138971001661917,0.4874114990234375,0.71832275390625,0.54644775390625
20220119-1822,2022-01-19 18:22:26Z,u01, 42,40,movements,el-ex, rt, d,234573.88229925002, 2.558234678590494, -0.8301120997636321, -3.1201152802660554, -0.19502441585063934, 0.9249303936958313, -0.7496081590652466, 0.3716959059238434, 0.7380070090293884, 0.5631940364837646, 0.06554466485977173, -0.02064567804336548, -0.05254340171813965, -0.8751465886370188, -0.12536129252011763, 0.38336127453653635,0.2672770649014408,0.451446533203125,0.7186431884765625,0.5132904052734375
20220119-1822,2022-01-19 18:22:26Z,u01, 43,40,movements,el-ex, rt, d,234573.90724525, 2.5994366398531525, -0.836687098119372, -3.0947466320685137, -0.09866176545619965, 0.880328357219696, -0.6956478953361511, 0.34567105770111084, 0.7424278259277344, 0.573857307434082, 0.059037744998931885, -0.021343350410461426, -0.06100940704345703, -0.8776057659135037, -0.12937073235134558, 0.38557446385355454,0.25377862632991743,0.4047088623046875,0.7210845947265625,0.512847900390625
20220119-1822,2022-01-19 18:22:26Z,u01, 44,40,movements,el-ex, rt, d,234573.93219125, 2.6399866572833903, -0.842651558262439, -3.0700165458157507, -0.13916894793510437, 0.8503586053848267, -0.6832848787307739, 0.31998851895332336, 0.7464103102684021, 0.5835057497024536, 0.07768604159355164, -0.020931243896484375, -0.03800398111343384, -0.8797993398745619, -0.13306390721545122, 0.3878182177849508,0.24050809159160824,0.404052734375,0.7265777587890625,0.5479583740234375
20220119-1822,2022-01-19 18:22:26Z,u01, 45,40,movements,el-ex, rt, d,234573.95713725002, 2.680739804617332, -0.8471454726940153, -3.045019647572749, -0.1322231888771057, 0.8089537620544434, -0.653365969657898, 0.29445526003837585, 0.7493934035301208, 0.5930483341217041, 0.08515289425849915, -0.0198858380317688, -0.032501161098480225, -0.8819657450984929, -0.13660372459736392, 0.38964018082539076,0.22728085317450486,0.379608154296875,0.7295074462890625,0.560546875
20220119-1822,2022-01-19 18:22:26Z,u01, 46,40,movements,el-ex, rt, d,234573.98208325, 2.718577491005464, -0.8519368414573231, -3.022052445754701, -0.05175308138132095, 0.8023852109909058, -0.6493831276893616, 0.270332932472229, 0.7525572776794434, 0.6004810929298401, 0.06119471788406372, -0.00798952579498291, -0.04323005676269531, -0.8835742907904766, -0.13977485822036867, 0.3918537537926327,0.21496524290279695,0.329132080078125,0.7450408935546875,0.5618743896484375
20220119-1822,2022-01-19 18:22:26Z,u01, 47,40,movements,el-ex, rt, d,234574.00702925, 2.75457720465396, -0.8571346534475355, -3.0003651742486275, -0.02341644838452339, 0.8238959312438965, -0.6352090835571289, 0.2470656931400299, 0.7559700012207031, 0.6061915159225464, 0.04591831564903259, -0.014545440673828125, -0.036443471908569336, -0.8847229802066245, -0.14269202676071338, 0.3944546526167598,0.20324822857874567,0.2929840087890625,0.741424560546875,0.5697479248046875
20220119-1822,2022-01-19 18:22:26Z,u01, 48,40,movements,el-ex, rt, d,234574.03197625, 2.7897485033883713, -0.8619045348849036, -2.979324164579035, -0.04388187453150749, 0.7568383812904358, -0.5734711289405823, 0.22435155510902405, 0.7590837478637695, 0.611112654209137, 0.06002652645111084, -0.03210914134979248, -0.028013169765472412, -0.8856772966649512, -0.1453687135272283, 0.3970483147405383,0.1918240183071866,0.2924346923828125,0.7279205322265625,0.5752716064453125
20220119-1822,2022-01-19 18:22:26Z,u01, 49,40,movements,el-ex, rt, d,234574.05692225002, 2.8245153720755884, -0.8635294746760341, -2.957678758675561, -0.18027380108833313, 0.7098727822303772, -0.5192741751670837, 0.20258894562721252, 0.760140597820282, 0.6173690557479858, 0.06720171868801117, -0.038857460021972656, -0.01725590229034424, -0.8869827956768261, -0.14814203220359695, 0.39831334823592746,0.18072664524008145,0.2697906494140625,0.721282958984375,0.6001129150390625
20220119-1822,2022-01-19 18:22:26Z,u01, 50,40,movements,el-ex, rt, d,234574.08186825, 2.857647567858368, -0.8639049206273016, -2.9371435110412967, -0.07839351147413254, 0.7009578347206116, -0.5172416567802429, 0.1819467544555664, 0.7603845000267029, 0.623467206954956, 0.04067899286746979, -0.0014275908470153809, -0.04509758949279785, -0.8882750554738977, -0.15066864307183112, 0.3991561383897284,0.17012037814631795,0.230316162109375,0.7587738037109375,0.5773773193359375
20220119-1822,2022-01-19 18:22:26Z,u01, 51,40,movements,el-ex, rt, d,234574.10681425, 2.889545323411485, -0.8668796853120094, -2.9179854277414217, 0.004507029429078102, 0.699246346950531, -0.5127738118171692, 0.16140544414520264, 0.762313187122345, 0.6267591118812561, 0.03132830560207367, -0.02549678087234497, -0.043217241764068604, -0.888818333748639, -0.15291022500337242, 0.40133622359570187,0.1598427135759829,0.1927337646484375,0.73681640625,0.5835418701171875
20220119-1822,2022-01-19 18:22:27Z,u01, 52,40,movements,el-ex, rt, d,234574.13176025002, 2.921625114362526, -0.8696489381927784, -2.8987119733427344, -0.020843833684921265, 0.6723740696907043, -0.4940384030342102, 0.1407584697008133, 0.7641025185585022, 0.6295514106750488, 0.0657082051038742, -0.003619551658630371, -0.026127159595489502, -0.8892238286142766, -0.15510219326785832, 0.403562730009799,0.149537937696062,0.203643798828125,0.7556304931640625,0.609161376953125
20220119-1822,2022-01-19 18:22:27Z,u01, 53,40,movements,el-ex, rt, d,234574.15670725002, 2.9512402721056445, -0.8712878784229239, -2.880360294845592, -0.0383327454328537, 0.597204327583313, -0.46661704778671265, 0.12181803584098816, 0.7651587724685669, 0.6322124600410461, 0.061287425458431244, -0.01282423734664917, -0.022928893566131592, -0.8895845534930193, -0.15730720678109664, 0.4052845889129871,0.14013643078921423,0.18310546875,0.7523345947265625,0.609283447265625
20220119-1822,2022-01-19 18:22:27Z,u01, 54,40,movements,el-ex, rt, d,234574.18165325, 2.9800437588012, -0.871207564916321, -2.862730451399862, -0.10402417927980423, 0.6011766195297241, -0.43435850739479065, 0.10356996953487396, 0.7651070356369019, 0.6355190873146057, 0.03485773503780365, -0.007584571838378906, -0.018728196620941162, -0.8901578688891075, -0.15930632417430296, 0.40633381839272353,0.13089423164698083,0.14105224609375,0.7523040771484375,0.6284027099609375
20220119-1822,2022-01-19 18:22:27Z,u01, 55,40,movements,el-ex, rt, d,234574.20659925003, 3.0082392538055602, -0.8712137478882425, -2.845140151342478, -0.03613054379820824, 0.5836933851242065, -0.4237464666366577, 0.08561179786920547, 0.7651110291481018, 0.6381818056106567, 0.050939083099365234, -0.00017267465591430664, -0.03368949890136719, -0.8905283145303078, -0.16140079070631347, 0.4074854389068844,0.12192130011209068,0.1365509033203125,0.7649383544921875,0.6044921875
20220119-1822,2022-01-19 18:22:27Z,u01, 56,40,movements,el-ex, rt, d,234574.23154525002, 3.034851086462996, -0.8730942109945199, -2.8294303209566407, 0.06277972459793091, 0.5876044034957886, -0.42576393485069275, 0.06844691187143326, 0.766320526599884, 0.6388022899627686, 0.030231669545173645, 0.0016087889671325684, -0.012352526187896729, -0.8904203357863606, -0.16295024744442213, 0.4095636875099424,0.1133868545843037,0.102142333984375,0.7633056640625,0.617706298828125
20220119-1822,2022-01-19 18:22:27Z,u01, 57,40,movements,el-ex, rt, d,234574.25649125, 3.061081696270367, -0.8743103504327527, -2.8134237828196453, -0.05960311368107796, 0.5377205610275269, -0.4001993238925934, 0.0515940822660923, 0.7671012282371521, 0.639447808265686, 0.05982556194067001, 0.0030096769332885742, 0.0015434026718139648, -0.8902838693215318, -0.16467708554791105, 0.41138333474711003,0.10507036348077133,0.111419677734375,0.770111083984375,0.6409912109375
20220119-1822,2022-01-19 18:22:27Z,u01, 58,40,movements,el-ex, rt, d,234574.28143725, 3.0865236297353467, -0.8728215028074159, -2.7976854265857733, -0.06955611705780029, 0.5416423678398132, -0.4036584794521332, 0.035373177379369736, 0.7661452889442444, 0.6416930556297302, 0.02605869621038437, 0.00819242000579834, -0.0153961181640625, -0.8905795526416052, -0.16647702457319039, 0.4120285950136417,0.0968806013900094,0.070343017578125,0.7719573974609375,0.6244964599609375
20220119-1822,2022-01-19 18:22:27Z,u01, 59,40,movements,el-ex, rt, d,234574.30638425003, 3.113184668759207, -0.8727466977296443, -2.7814354020742806, 0.013647131621837616, 0.5848654508590698, -0.4113273620605469, 0.018256068229675293, 0.7660971879959106, 0.6424657702445984, 0.02970227785408497, 0.009308815002441406, -0.006403028964996338, -0.8904703111833732, -0.16821269529726385, 0.4134733988690892,0.08835725170794133,0.0479583740234375,0.7754058837890625,0.6360626220703125
20220119-1822,2022-01-19 18:22:27Z,u01, 60,40,movements,el-ex, rt, d,234574.3313302917, 3.13932293422332, -0.8739677405309805, -2.766198920073391, 0.0702674388885498, 0.5858926773071289, -0.39126119017601013, 0.0014566790778189898, 0.7668814063072205, 0.6417871117591858, 0.03522542119026184, 0.0027871131896972656, 0.001035153865814209, -0.8900290150356258, -0.16953436071889139, 0.4155835788300771,0.07997945539837091,0.0416412353515625,0.769927978515625,0.6345672607421875
20220119-1822,2022-01-19 18:22:27Z,u01, 61,40,movements,el-ex, rt, d,234574.35627629168, -3.1177552298439415, -0.8752809177497499, -2.7506590499750994, 0.00776054710149765, 0.5571404695510864, -0.4074890613555908, -0.015273126773536205, 0.767723560333252, 0.6405991911888123, 0.042113304138183594, -0.011391162872314453, 0.013087332248687744, -0.8894239259447436, -0.17095224252464447, 0.4178001968346469,0.07171756369775384,0.0268402099609375,0.7563323974609375,0.6536865234375
20220119-1822,2022-01-19 18:22:27Z,u01, 62,40,movements,el-ex, rt, d,234574.38122229167, -3.0910451266888193, -0.8724525155596364, -2.7346471551753235, -0.21359963715076447, 0.5994192957878113, -0.4303312301635742, -0.03248568996787071, 0.7659080624580383, 0.6421287059783936, 0.02842682972550392, 0.01323610544204712, 0.04906386137008667, -0.889529335349834, -0.17263233558129343, 0.418302036714908,0.06292047913342252,-0.0010833740234375,0.77227783203125,0.69537353515625
20220119-1822,2022-01-19 18:22:27Z,u01, 63,40,movements,el-ex, rt, d,234574.4061682917, -3.063408554076049, -0.8655732593014348, -2.71851372096369, -0.21057552099227905, 0.6215903162956238, -0.4372251331806183, -0.050627585500478745, 0.7614669799804688, 0.646223247051239, 0.02580152079463005, 0.0160597562789917, 0.016359031200408936, -0.8903280236577478, -0.17443520633579085, 0.4171892343786288,0.05330473375210405,-0.0248260498046875,0.77752685546875,0.6625823974609375
20220119-1822,2022-01-19 18:22:27Z,u01, 64,40,movements,el-ex, rt, d,234574.4311152917, -3.0356437251508996, -0.8632764846850939, -2.70289966286048, 0.12219514697790146, 0.6460251212120056, -0.4470311105251312, -0.06873288005590439, 0.7599762082099915, 0.6463067531585693, 0.0136638805270195, 0.02411210536956787, 0.00786823034286499, -0.890095589452445, -0.1757362275742247, 0.4182272289741781,0.043962958033284316,-0.0536956787109375,0.7793731689453125,0.6446075439453125
20220119-1822,2022-01-19 18:22:27Z,u01, 65,40,movements,el-ex, rt, d,234574.45606129168, -3.0066196148060214, -0.8659622866641733, -2.6858228785559564, 0.11037847399711609, 0.6199171543121338, -0.4110652804374695, -0.08718478679656982, 0.7617191076278687, 0.6420149803161621, 0.04502473026514053, -0.0008699893951416016, -0.002442657947540283, -0.888630579888831, -0.17704002210551484, 0.421629578392516,0.0349446843860244,-0.0421600341796875,0.7608489990234375,0.6395721435546875
20220119-1822,2022-01-19 18:22:27Z,u01, 66,40,movements,el-ex, rt, d,234574.48100729167, -2.9802922826852036, -0.8644048249159582, -2.67058375081225, -0.11425071209669113, 0.5528980493545532, -0.3659086227416992, -0.10424555093050003, 0.7607090473175049, 0.6406674385070801, 0.05083976686000824, -0.07856488227844238, -0.04929780960083008, -0.8879843187502501, -0.17837479545118162, 0.4230549666382759,0.026283763084368958,-0.0566253662109375,0.6890411376953125,0.60302734375
20220119-1822,2022-01-19 18:22:27Z,u01, 67,40,movements,el-ex, rt, d,234574.5059532917, -2.959159689350442, -0.8604548038004887, -2.658433749553026, -0.06281528621912003, 0.42053377628326416, -0.3188970386981964, -0.11830447614192963, 0.7581391930580139, 0.641271710395813, 0.059329211711883545, -0.044714391231536865, -0.09273332357406616, -0.8878988098771818, -0.17964283321942262, 0.4230886718853765,0.018980325976030485,-0.0589752197265625,0.7134246826171875,0.5485382080078125
20220119-1822,2022-01-19 18:22:27Z,u01, 68,40,movements,el-ex, rt, d,234574.53089929168, -2.9422889467767144, -0.8584674286269305, -2.64845106211272, -0.027919752523303032, 0.33247819542884827, -0.23240049183368683, -0.1294039487838745, 0.756841778755188, 0.6406604051589966, 0.05269794166088104, -0.06667131185531616, -0.0922134518623352, -0.887515040594099, -0.18068554245793156, 0.4236646793852015,0.013349756677544011,-0.0757598876953125,0.6934967041015625,0.5512542724609375
20220119-1822,2022-01-19 18:22:27Z,u01, 69,40,movements,el-ex, rt, d,234574.55584629168, -2.929784253768981, -0.8565827642959943, -2.641373274047594, -0.05010797828435898, 0.24818308651447296, -0.16932319104671478, -0.13770444691181183, 0.7556086182594299, 0.6403853297233582, 0.06090693175792694, -0.06310373544692993, -0.09387636184692383, -0.8873005240552744, -0.18135720890683857, 0.423940401536435,0.009052656058131756,-0.0767974853515625,0.6925048828125,0.5465087890625
20220119-1822,2022-01-19 18:22:27Z,u01, 70,40,movements,el-ex, rt, d,234574.58079229167, -2.920424129797751, -0.8539231505040795, -2.6365234430703595, -0.1386788934469223, 0.21811087429523468, -0.1367783546447754, -0.1441327929496765, 0.7538638114929199, 0.6410269737243652, 0.059736400842666626, -0.008517622947692871, -0.029805481433868408, -0.8873930192283505, -0.181788635686074, 0.4236220505342308,0.0055705608866506995,-0.0832977294921875,0.73504638671875,0.606475830078125
20220119-1822,2022-01-19 18:22:27Z,u01, 71,40,movements,el-ex, rt, d,234574.6057382917, -2.9130211267419712, -0.8487490426282817, -2.6335236223474174, -0.2075667381286621, 0.17256203293800354, -0.1116626188158989, -0.14975611865520477, 0.7504541873931885, 0.6437327861785889, 0.054098740220069885, -0.0034601688385009766, -0.026453614234924316, -0.8880959332191528, -0.1820769481944365, 0.42205306406696536,0.0022160606925019366,-0.0956573486328125,0.7469940185546875,0.617279052734375
20220119-1822,2022-01-19 18:22:27Z,u01, 72,40,movements,el-ex, rt, d,234574.63068429168, -2.9077054275190846, -0.8461763958859767, -2.631229022845493, 0.0865570530295372, 0.12121768295764923, -0.05032675340771675, -0.15362286567687988, 0.7487514019012451, 0.6448038220405579, -0.006350353360176086, -0.013613283634185791, -0.12367016077041626, -0.8883642732978418, -0.18223835782800715, 0.42142410877854614,-1.3276861147742958e-05,-0.148193359375,0.7404327392578125,0.5388031005859375
20220119-1822,2022-01-19 18:22:27Z,u01, 73,40,movements,el-ex, rt, d,234574.65563029167, -2.9037169212158855, -0.8525000027811467, -2.628982183236212, 0.3736642897129059, 0.062034718692302704, 0.035767585039138794, -0.15507449209690094, 0.7529280185699463, 0.6395710706710815, -0.01171933114528656, -0.03692471981048584, -0.11672866344451904, -0.8869933970113745, -0.18173675514352808, 0.42451646358275175,-0.00043630380210815667,-0.1667938232421875,0.71600341796875,0.5228424072265625
20220119-1822,2022-01-19 18:22:27Z,u01, 74,40,movements,el-ex, rt, d,234574.6805762917, -2.9039806061345956, -0.859477627979272, -2.628869977779444, 0.09482377767562866, -0.09024636447429657, 0.0730857253074646, -0.1536654382944107, 0.7575016617774963, 0.6344902515411377, 0.04882228374481201, -0.11528986692428589, -0.08482307195663452, -0.885687795090573, -0.1811139694211426, 0.4274977505785202,0.0006696452061765723,-0.1080169677734375,0.6586456298828125,0.553009033203125
20220119-1822,2022-01-19 18:22:27Z,u01, 75,40,movements,el-ex, rt, d,234574.7055232917, -2.9107624985166467, -0.858987883958451, -2.6332771478895505, -0.11492938548326492, -0.1896553784608841, 0.18102644383907318, -0.1494438201189041, 0.7571818232536316, 0.6358791589736938, 0.03524699807167053, -0.12194323539733887, -0.1113734245300293, -0.886172257885559, -0.1806607742782326, 0.4266770927573804,0.0026652909896874993,-0.11419677734375,0.6352386474609375,0.524505615234375
20220119-1822,2022-01-19 18:22:27Z,u01, 76,40,movements,el-ex, rt, d,234574.73046929168, -2.9257124100966787, -0.8607669406006638, -2.6434577308454146, 0.1435922384262085, -0.3510041832923889, 0.33992353081703186, -0.13963240385055542, 0.7583427429199219, 0.6367256045341492, 0.05189429223537445, -0.060207247734069824, -0.12544924020767212, -0.8867161994156602, -0.17915683149314016, 0.42612572499481166,0.007361020079448374,-0.0796661376953125,0.680328369140625,0.4898834228515625
20220119-1822,2022-01-19 18:22:27Z,u01, 77,40,movements,el-ex, rt, d,234574.75541529167, -2.9452566907540563, -0.8707086305386778, -2.6560282733624714, 0.45179373025894165, -0.43963876366615295, 0.43750837445259094, -0.12568511068820953, 0.7647857069969177, 0.6319065690040588, 0.048796072602272034, -0.07298284769058228, -0.11878401041030884, -0.8858285370208272, -0.17680802088882583, 0.4287568577607646,0.01463612550604794,-0.0768890380859375,0.691802978515625,0.51312255859375
20220119-1822,2022-01-19 18:22:27Z,u01, 78,40,movements,el-ex, rt, d,234574.7803612917, -2.967994177561817, -0.8793500394630919, -2.671338425968301, 0.0289759561419487, -0.4668521583080292, 0.44577229022979736, -0.1101403534412384, 0.7703245878219604, 0.6280683875083923, 0.08905263245105743, -0.07015961408615112, -0.02609354257583618, -0.885275311604119, -0.17413160616134943, 0.4306503749067919,0.02250109421892192,-0.035369873046875,0.67816162109375,0.59796142578125
20220119-1822,2022-01-19 18:22:27Z,u01, 79,40,movements,el-ex, rt, d,234574.80530729168, -2.9970726519292965, -0.8803781842530047, -2.6906505434599093, -0.07391943037509918, -0.6306057572364807, 0.515458881855011, -0.09171885997056961, 0.7709797620773315, 0.6302202343940735, 0.08213631808757782, -0.04649263620376587, -0.08943355083465576, -0.8863494966586846, -0.17174012947235942, 0.42884350916992764,0.03135355534782065,-0.00958251953125,0.7244873046875,0.5407867431640625
20220119-1822,2022-01-19 18:22:27Z,u01, 80,40,movements,el-ex, rt, d,234574.83025429168, -3.0299966176150366, -0.8826825653539206, -2.7124233025635736, 0.12718890607357025, -0.6054271459579468, 0.551994264125824, -0.07072553038597107, 0.7724453210830688, 0.6311307549476624, 0.008652739226818085, -0.0063169002532958984, -0.062054216861724854, -0.8871398514490072, -0.16896226860074756, 0.4274439474763014,0.0415482795030236,-0.0616607666015625,0.75909423828125,0.5505828857421875
20220119-1822,2022-01-19 18:22:27Z,u01, 81,40,movements,el-ex, rt, d,234574.85520029167, -3.061702591683317, -0.8901141207814776, -2.733845440048256, 0.33336424827575684, -0.6089804768562317, 0.5773993134498596, -0.050223227590322495, 0.7771435976028442, 0.6273162364959717, 0.01985817402601242, 0.0055255889892578125, -0.035961806774139404, -0.8866689874796838, -0.1657595621933717, 0.42855473437543695,0.05179546330568807,-0.030364990234375,0.7826690673828125,0.5913543701171875
20220119-1822,2022-01-19 18:22:27Z,u01, 82,40,movements,el-ex, rt, d,234574.8801462917, -3.095134292549891, -0.898489327163716, -2.7569439195251535, 0.1804661750793457, -0.6175172328948975, 0.5946041941642761, -0.028923507779836655, 0.7823869585990906, 0.6221204400062561, 0.04184768348932266, -0.020286858081817627, 0.014674544334411621, -0.8858569287155339, -0.16222735584844447, 0.43016232851752906,0.06245065259750816,0.002227783203125,0.767669677734375,0.6386260986328125
20220119-1822,2022-01-19 18:22:27Z,u01, 83,40,movements,el-ex, rt, d,234574.90509229168, -3.130762148823171, -0.8998345975416714, -2.7814540389819067, -0.08120264858007431, -0.6891779899597168, 0.6182464957237244, -0.0067336224019527435, 0.7832241058349609, 0.6217031478881836, 0.04594865441322327, -0.04121971130371094, 0.009354650974273682, -0.8863322331239918, -0.15895519654096257, 0.42872648356577325,0.0730894001740805,0.039215087890625,0.74200439453125,0.6310577392578125
20220119-1822,2022-01-19 18:22:27Z,u01, 84,40,movements,el-ex, rt, d,234574.93003829167, 3.115128205261923, -0.8991355568424275, -2.8063987946488864, 0.029586251825094223, -0.7072824835777283, 0.6130183339118958, 0.016466567292809486, 0.7827892899513245, 0.6220694184303284, 0.03072884865105152, 0.026506483554840088, -0.014952480792999268, -0.8869789021016711, -0.1558945989132374, 0.42646172835901947,0.08423691231778109,0.0478515625,0.8054046630859375,0.6098175048828125
20220119-1822,2022-01-19 18:22:27Z,u01, 85,40,movements,el-ex, rt, d,234574.9549842917, 3.0784420444609477, -0.8998123789535271, -2.8313525133669297, 0.04849549010396004, -0.6762436628341675, 0.6168431639671326, 0.03923824802041054, 0.783210277557373, 0.6205177307128906, 0.011451423168182373, -0.006232738494873047, 0.026256680488586426, -0.8871111710406822, -0.15261928808830344, 0.42505308163394323,0.09524220394057781,0.050689697265625,0.7769775390625,0.6467742919921875
20220119-1822,2022-01-19 18:22:27Z,u01, 86,40,movements,el-ex, rt, d,234574.9799312917, 3.0404793434703272, -0.9007619690941611, -2.857671475069518, 0.17965824902057648, -0.7039689421653748, 0.6800704598426819, 0.06268575042486191, 0.7838003039360046, 0.6178412437438965, 0.026120394468307495, -0.016985177993774414, -0.07694756984710693, -0.8869738506978515, -0.14898998514023593, 0.42394199395326926,0.1065487859439716,0.083984375,0.76507568359375,0.5586395263671875
20220119-1822,2022-01-19 18:22:27Z,u01, 87,40,movements,el-ex, rt, d,234575.00487729168, 2.9986026960468033, -0.9082769338490038, -2.88823855142179, 0.5515498518943787, -0.6829992532730103, 0.7204018235206604, 0.08765444159507751, 0.7884450554847717, 0.608827531337738, 0.020667657256126404, -0.010887742042541504, -0.05761909484863281, -0.8852022053623055, -0.14432890821040756, 0.42595132035899763,0.11896073972358899,0.1083221435546875,0.777557373046875,0.55120849609375
20220119-1822,2022-01-19 18:22:27Z,u01, 88,40,movements,el-ex, rt, d,234575.02982329167, 2.95684048802155, -0.9168999269260827, -2.9196253811262123, 0.2848942279815674, -0.6520373225212097, 0.6781420111656189, 0.11174345761537552, 0.7937197089195251, 0.5979316234588623, 0.0595516562461853, 0.006054341793060303, 0.0962669849395752, -0.8829011313880527, -0.1394683099858081, 0.4287989213310115,0.13101760424229186,0.1631927490234375,0.80987548828125,0.6788482666015625
20220119-1822,2022-01-19 18:22:27Z,u01, 89,40,movements,el-ex, rt, d,234575.0547692917, 2.919778111864712, -0.9138966444173509, -2.945874458355159, -0.22491097450256348, -0.653215765953064, 0.6049178838729858, 0.13434623181819916, 0.7918893098831177, 0.595703125, 0.05063602328300476, -0.015369653701782227, 0.07635498046875, -0.8828511900045422, -0.13573992817514496, 0.42669858341266353,0.14169222344659455,0.1849822998046875,0.776519775390625,0.67205810546875
20220119-1822,2022-01-19 18:22:27Z,u01, 90,40,movements,el-ex, rt, d,234575.07971529168, 2.8859351237741193, -0.904369761008657, -2.9680596452468078, -0.13071797788143158, -0.6069187521934509, 0.641498327255249, 0.15632671117782593, 0.7860357165336609, 0.5980887413024902, -0.012115880846977234, 0.022054672241210938, -0.05774444341659546, -0.883972690003566, -0.1328031005140095, 0.42179974335738385,0.1517916432077197,0.1571502685546875,0.8039093017578125,0.5552978515625
20220119-1822,2022-01-19 18:22:27Z,u01, 91,40,movements,el-ex, rt, d,234575.10466229168, 2.851647493440651, -0.9022353748218394, -2.993987031224059, 0.18734388053417206, -0.5394067764282227, 0.6273087859153748, 0.17721699178218842, 0.7847144603729248, 0.5939841270446777, -0.054658442735672, 0.039336323738098145, 0.0020394325256347656, -0.8834513936234514, -0.12847452506587279, 0.42063733223521643,0.16146861750227176,0.12255859375,0.8240509033203125,0.5960235595703125
20220119-1822,2022-01-19 18:22:27Z,u01, 92,40,movements,el-ex, rt, d,234575.12960829167, 2.8186341639587194, -0.8977546831252816, -3.018130933252182, -0.30437907576560974, -0.5952705144882202, 0.588180661201477, 0.19784021377563477, 0.7819292545318604, 0.5911394953727722, 0.06302399933338165, -0.002342522144317627, 0.09089791774749756, -0.883216180306055, -0.12449468361395172, 0.41855694634495844,0.1709980252980613,0.2404937744140625,0.7965240478515625,0.684234619140625
20220119-1822,2022-01-19 18:22:28Z,u01, 93,40,movements,el-ex, rt, d,234575.1545542917, 2.7915598276509836, -0.8791838319084814, -3.031432409751449, -0.690474808216095, -0.7350347638130188, 0.5343278646469116, 0.21871310472488403, 0.7702186107635498, 0.5991061925888062, 0.07697167992591858, -0.0033270716667175293, 0.0236966609954834, -0.8856706724198481, -0.12304691859142422, 0.40975894157366727,0.18040128797248367,0.295684814453125,0.7668914794921875,0.622802734375
20220119-1822,2022-01-19 18:22:28Z,u01, 94,40,movements,el-ex, rt, d,234575.17950029168, 2.76138075606818, -0.865898399900516, -3.0460524614462225, 0.01754133775830269, -0.7167529463768005, 0.5465999841690063, 0.24046780169010162, 0.7616776823997498, 0.6016832590103149, -0.02733302116394043, 0.0853378176689148, -0.06584018468856812, -0.8865763406676712, -0.12175398652797789, 0.4033303691623566,0.19100552845140487,0.22650146484375,0.860748291015625,0.530670166015625
20220119-1822,2022-01-19 18:22:28Z,u01, 95,40,movements,el-ex, rt, d,234575.20444629167, 2.726561365107198, -0.8669077252791949, -3.0700343916792816, 0.4496566653251648, -0.6158404350280762, 0.5564653873443604, 0.26095783710479736, 0.7623313069343567, 0.5922432541847229, -0.03804221749305725, 0.05137413740158081, 0.0093650221824646, -0.8843865869545614, -0.11824549343438026, 0.40404535423597737,0.20155830068569078,0.2229156494140625,0.8137054443359375,0.6016082763671875
20220119-1822,2022-01-19 18:22:28Z,u01, 96,40,movements,el-ex, rt, d,234575.2293932917, 2.691367914137403, -0.8707798696345435, -3.0963378665019947, 0.2707127034664154, -0.5969752073287964, 0.5323682427406311, 0.28034839034080505, 0.7648316025733948, 0.5800324082374573, 0.055680692195892334, 0.0009917616844177246, 0.0627288818359375, -0.8814723047404168, -0.11411736360885608, 0.40643802312620764,0.2116411635406491,0.324371337890625,0.7700653076171875,0.643157958984375
20220119-1822,2022-01-19 18:22:28Z,u01, 97,40,movements,el-ex, rt, d,234575.25433929169, 2.6623149691897856, -0.8653955368571885, -3.1144084749500474, -0.20579417049884796, -0.6423075199127197, 0.510043740272522, 0.2989738881587982, 0.7613517642021179, 0.5752893090248108, 0.07298952341079712, -0.02555781602859497, 0.041379332542419434, -0.8804609815770897, -0.11150393350160898, 0.4043725447096404,0.22099341403309866,0.3719635009765625,0.7357940673828125,0.616668701171875
20220119-1822,2022-01-19 18:22:28Z,u01, 98,40,movements,el-ex, rt, d,234575.27928529168, 2.634775331272461, -0.854626232707883, -3.1282656447338635, -0.0907459557056427, -0.7045137882232666, 0.5256681442260742, 0.3186635375022888, 0.7543255686759949, 0.5739744901657104, 0.013428747653961182, 0.006157219409942627, -0.0433347225189209, -0.8803058368493543, -0.10976733298143335, 0.399662375012804,0.23083073103463547,0.3477935791015625,0.7624359130859375,0.5369415283203125
20220119-1822,2022-01-19 18:22:28Z,u01, 99,40,movements,el-ex, rt, d,234575.3042312917, 2.6035721099605227, -0.8493078618716802, 3.1360980260568962, 0.20307877659797668, -0.6608221530914307, 0.5392910838127136, 0.33846646547317505, 0.750823438167572, 0.5671905279159546, -0.03345853090286255, 0.017609238624572754, -0.010824322700500488, -0.8787077962861185, -0.10708808843511708, 0.39785123289954144,0.2410794060191367,0.3050079345703125,0.7684326171875,0.556365966796875
20220119-1822,2022-01-19 18:22:28Z,u01, 100,40,movements,el-ex, rt, d,234575.329177875, 2.5706956453389442, -0.8466779458832325, 3.114633707244192, 0.15399961173534393, -0.6794036626815796, 0.5420963168144226, 0.3579929769039154, 0.7490837574005127, 0.5574175715446472, 0.03508862853050232, -0.012404799461364746, 0.0016187429428100586, -0.8763096474397905, -0.10387583946568407, 0.3976085268535086,0.2513933373004628,0.3773956298828125,0.7522430419921875,0.5593414306640625
20220119-1822,2022-01-19 18:22:28Z,u01, 101,40,movements,el-ex, rt, d,234575.354123875, 2.5406692507681234, -0.8395801514803061, 3.0976353048413223, -0.13679629564285278, -0.7004991769790649, 0.5268784165382385, 0.3775632679462433, 0.7443628311157227, 0.5507906675338745, 0.0471193790435791, -0.026299357414245605, 0.0033629536628723145, -0.8747046018732945, -0.10142576549569537, 0.39515516755501795,0.26164325100920954,0.4246826171875,0.7180633544921875,0.5541534423828125
20220119-1822,2022-01-19 18:22:28Z,u01, 102,40,movements,el-ex, rt, d,234575.379070875, 2.5131179997881135, -0.8287525509713282, 3.0845175303759187, -0.08222353458404541, -0.7272821068763733, 0.5525078177452087, 0.3973080813884735, 0.7370889186859131, 0.5466681718826294, 0.031204432249069214, 0.011003673076629639, -0.02391725778579712, -0.8737406844707124, -0.09955551592666473, 0.3908209799182785,0.27189122850826997,0.431915283203125,0.7432708740234375,0.5334014892578125
20220119-1822,2022-01-19 18:22:28Z,u01, 103,40,movements,el-ex, rt, d,234575.40401687502, 2.481451766705783, -0.8218432242744809, 3.0651883089984366, 0.23073206841945648, -0.6732032895088196, 0.6104700565338135, 0.4175300896167755, 0.7324020862579346, 0.5378250479698181, -0.004062771797180176, 0.00807642936706543, -0.008863747119903564, -0.8715782401413841, -0.09624917067113967, 0.3889641279345168,0.28247897147674295,0.4134674072265625,0.740478515625,0.528961181640625
20220119-1822,2022-01-19 18:22:28Z,u01, 104,40,movements,el-ex, rt, d,234575.428962875, 2.4474888657811102, -0.8172353744213832, 3.041323324355396, 0.25228822231292725, -0.6506096124649048, 0.6376755237579346, 0.43770644068717957, 0.7292569279670715, 0.525925874710083, 0.0396343469619751, -0.021447300910949707, -0.0020456314086914062, -0.8686474711281499, -0.09173060248435402, 0.38882369470745337,0.29300752475456987,0.465240478515625,0.7091064453125,0.5287017822265625
20220119-1822,2022-01-19 18:22:28Z,u01, 105,40,movements,el-ex, rt, d,234575.453908875, 2.4160532354809323, -0.8087294475910098, 3.020342539185635, -0.040661148726940155, -0.6289006471633911, 0.6686517596244812, 0.45811957120895386, 0.7234105467796326, 0.5165306925773621, 0.04546630382537842, -0.03262978792190552, 0.04834979772567749, -0.8663988516780148, -0.08728329604759114, 0.38691988588464227,0.30336077379998955,0.5035858154296875,0.6907806396484375,0.56488037109375
20220119-1822,2022-01-19 18:22:28Z,u01, 106,40,movements,el-ex, rt, d,234575.47885487502, 2.3882911749003686, -0.7963027152112799, 3.0046599751718253, -0.02468850649893284, -0.6800009608268738, 0.6715946793556213, 0.4783935546875, 0.7147752642631531, 0.510132908821106, 0.04306018352508545, 0.013587594032287598, 0.018401026725769043, -0.8649118699001103, -0.0836295290067742, 0.3828866947651926,0.31357809210049453,0.52398681640625,0.7287139892578125,0.52972412109375
20220119-1822,2022-01-19 18:22:28Z,u01, 107,40,movements,el-ex, rt, d,234575.50380187502, 2.357790394271144, -0.7871792850313583, 2.9858754078147376, 0.19570434093475342, -0.6739930510520935, 0.6254839897155762, 0.4983116388320923, 0.7083650827407837, 0.49990469217300415, 0.01091998815536499, 0.038461148738861084, 0.0022011399269104004, -0.8623273885564602, -0.07964811783893114, 0.3807928906495188,0.32410573876155824,0.5092315673828125,0.746826171875,0.502105712890625
20220119-1822,2022-01-19 18:22:28Z,u01, 108,40,movements,el-ex, rt, d,234575.528747875, 2.326260027602536, -0.7796902239177953, 2.965813099481425, 0.1437600553035736, -0.6757736802101135, 0.581114649772644, 0.5176706910133362, 0.7030591368675232, 0.4875703454017639, 0.004774868488311768, 0.0027360916137695312, 0.014245480298995972, -0.8591136621773365, -0.07555723342805962, 0.37974268644162384,0.3346794151077013,0.5194091796875,0.7069091796875,0.5007781982421875
20220119-1822,2022-01-19 18:22:28Z,u01, 109,40,movements,el-ex, rt, d,234575.553693875, 2.298524811031583, -0.7701289912407299, 2.950443026371197, 0.022168181836605072, -0.6685585379600525, 0.5661755204200745, 0.5359879732131958, 0.6962278485298157, 0.47747689485549927, 0.010093629360198975, 0.028991997241973877, 0.018464386463165283, -0.8564537177893241, -0.07228750666331318, 0.3773606756566914,0.34476171676887263,0.54608154296875,0.7252197265625,0.495941162109375
20220119-1822,2022-01-19 18:22:28Z,u01, 110,40,movements,el-ex, rt, d,234575.57863987502, 2.2725178638305557, -0.7603349823512835, 2.9366493983918547, 0.07031447440385818, -0.6496331691741943, 0.5516324043273926, 0.5534040927886963, 0.6891642212867737, 0.46775680780410767, 0.018190085887908936, 0.041930198669433594, 0.017899632453918457, -0.8538643767433669, -0.06923897466569134, 0.37481388721479925,0.35445182108991596,0.566680908203125,0.7350921630859375,0.4858551025390625
20220119-1822,2022-01-19 18:22:28Z,u01, 111,40,movements,el-ex, rt, d,234575.603585875, 2.247179964084477, -0.7509315731068821, 2.922566028743059, 0.07684064656496048, -0.6154509782791138, 0.5291038751602173, 0.5701060891151428, 0.6823200583457947, 0.45762279629707336, 0.006035268306732178, 0.024146616458892822, 0.024082064628601074, -0.8511533301009372, -0.06595000728931938, 0.37263448050151815,0.3637750003253627,0.576141357421875,0.7064666748046875,0.4817047119140625
20220119-1822,2022-01-19 18:22:28Z,u01, 112,40,movements,el-ex, rt, d,234575.628531875, 2.2246951046425867, -0.7416267178022242, 2.9112369249309413, -0.0004313364624977112, -0.5999395847320557, 0.47688305377960205, 0.5852646231651306, 0.675488293170929, 0.44853195548057556, 0.02646017074584961, 0.04617607593536377, 0.033783167600631714, -0.8486840261190105, -0.06325668277450686, 0.3702053127347439,0.37240040280512027,0.6027984619140625,0.7193450927734375,0.4851226806640625
20220119-1822,2022-01-19 18:22:28Z,u01, 113,40,movements,el-ex, rt, d,234575.65347887503, 2.2032835635233177, -0.7326300275370157, 2.901651306201632, 0.0216628797352314, -0.6018661856651306, 0.4713420271873474, 0.5996109247207642, 0.6688271760940552, 0.4394735097885132, 0.01084744930267334, 0.05059415102005005, 0.024027526378631592, -0.8461691516144425, -0.06111068934085062, 0.3677026853092123,0.3808647677952423,0.6104583740234375,0.71942138671875,0.4635009765625
20220119-1822,2022-01-19 18:22:28Z,u01, 114,40,movements,el-ex, rt, d,234575.67842487502, 2.1812550334747867, -0.7241609874183893, 2.890836789121906, 0.07942095398902893, -0.5535799860954285, 0.4545366168022156, 0.6137650609016418, 0.6625072360038757, 0.42939117550849915, -0.010234236717224121, 0.022444546222686768, 0.020850032567977905, -0.8433617029426471, -0.05862275402226064, 0.3657169692623982,0.3893013700665681,0.6012725830078125,0.686981201171875,0.4457550048828125
20220119-1822,2022-01-19 18:22:28Z,u01, 115,40,movements,el-ex, rt, d,234575.703370875, 2.160204576820254, -0.7157406823040773, 2.880635839109635, 0.04011625424027443, -0.5839166641235352, 0.45837414264678955, 0.6272825002670288, 0.6561765074729919, 0.4194631278514862, 0.015173614025115967, 0.015561163425445557, 0.019944310188293457, -0.8405806292447103, -0.056176258594913236, 0.36375082844053525,0.39743409055424367,0.6424560546875,0.6717376708984375,0.4394073486328125
20220119-1822,2022-01-19 18:22:28Z,u01, 116,40,movements,el-ex, rt, d,234575.728316875, 2.1407722383171217, -0.7067735169412622, 2.8720537222681686, 0.010475372895598412, -0.5514175891876221, 0.4094049632549286, 0.640242874622345, 0.649383544921875, 0.41035380959510803, 0.020493268966674805, 0.011428892612457275, 0.01471036672592163, -0.8380142849618223, -0.053934739279187405, 0.3613712757671347,0.4052578979304473,0.655181884765625,0.653045654296875,0.4272003173828125
20220119-1822,2022-01-19 18:22:28Z,u01, 117,40,movements,el-ex, rt, d,234575.75326287502, 2.12170392981623, -0.6978806819561922, 2.8637312781815525, 0.04458567500114441, -0.552310585975647, 0.42862656712532043, 0.6528456211090088, 0.6425952911376953, 0.4010787606239319, 0.020494282245635986, 0.010938704013824463, 0.014906466007232666, -0.8353838502237526, -0.05170298900315218, 0.359051669224422,0.41296805987540547,0.67333984375,0.653533935546875,0.415985107421875
20220119-1822,2022-01-19 18:22:28Z,u01, 118,40,movements,el-ex, rt, d,234575.77820987502, 2.102406316044146, -0.6884987562876634, 2.855184779696349, 0.025941714644432068, -0.5624129176139832, 0.49866408109664917, 0.6656308174133301, 0.6353786587715149, 0.3914453387260437, 0.011798322200775146, -0.018526852130889893, -0.008144557476043701, -0.8326448737784006, -0.04924620338498681, 0.35665430485428523,0.42080279279762284,0.677337646484375,0.6227874755859375,0.3919677734375
20220119-1822,2022-01-19 18:22:28Z,u01, 119,40,movements,el-ex, rt, d,234575.803155875, 2.082855278142045, -0.6784616988142876, 2.8465673480162423, 0.03495258465409279, -0.5909789800643921, 0.49909910559654236, 0.6786816120147705, 0.6275961399078369, 0.3814631700515747, 0.02451956272125244, -0.018907904624938965, -0.01679331064224243, -0.829796019507948, -0.046584893502274405, 0.35408867781639375,0.4288234410666809,0.7032012939453125,0.6086883544921875,0.3646697998046875
20220119-1822,2022-01-19 18:22:28Z,u01, 120,40,movements,el-ex, rt, d,234575.82810187503, 2.062133697498907, -0.6676520782471256, 2.837518759537343, 0.02157343178987503, -0.5890582203865051, 0.4983132779598236, 0.6923815608024597, 0.6191439032554626, 0.370498389005661, 0.016267240047454834, -0.04228532314300537, -0.01014670729637146, -0.8266438770044834, -0.04369310791238523, 0.35137526753562554,0.43736300838148234,0.7058258056640625,0.5741729736328125,0.356689453125
20220119-1822,2022-01-19 18:22:28Z,u01, 121,40,movements,el-ex, rt, d,234575.85304787502, 2.0423528166716918, -0.6555391888361974, 2.830776911078719, -0.06281934678554535, -0.6450831294059753, 0.5442221164703369, 0.7062039971351624, 0.609586775302887, 0.36011144518852234, 0.05041837692260742, -0.029767990112304688, -0.011737942695617676, -0.823626172104042, -0.04117836701417962, 0.34775920596007304,0.446103048464592,0.756622314453125,0.5798187255859375,0.3483734130859375
20220119-1822,2022-01-19 18:22:28Z,u01, 122,40,movements,el-ex, rt, d,234575.877993875, 2.022171395980776, -0.6426692765209685, 2.824459677347076, -0.02762896940112114, -0.6549269556999207, 0.5415439009666443, 0.7203276753425598, 0.5993342995643616, 0.3491803705692291, 0.02480494976043701, -0.008086681365966797, -0.007718950510025024, -0.820425646380351, -0.03862578778788403, 0.3438280250014851,0.4551838212010386,0.7491302490234375,0.58819580078125,0.33978271484375
20220119-1822,2022-01-19 18:22:28Z,u01, 123,40,movements,el-ex, rt, d,234575.902940875, 2.0020846467218587, -0.6303046816673316, 2.8175654154425476, 0.008911964483559132, -0.6024773716926575, 0.5607675909996033, 0.7338719367980957, 0.5893909335136414, 0.3377140760421753, 0.011199593544006348, -0.00020319223403930664, -0.009085386991500854, -0.8170495506916027, -0.03587583585316975, 0.3403068890186308,0.4640413168062531,0.7450714111328125,0.5891876220703125,0.3286285400390625
20220119-1822,2022-01-19 18:22:28Z,u01, 124,40,movements,el-ex, rt, d,234575.92788687503, 1.983359509774785, -0.6178841363766272, 2.811130247699035, -0.07569033652544022, -0.5859272480010986, 0.5319001078605652, 0.7467157244682312, 0.5793117880821228, 0.32682400941848755, 0.01967233419418335, -0.0014308691024780273, 0.010578423738479614, -0.813832610677632, -0.03299227843092162, 0.33676431881634916,0.4724171433761312,0.7625885009765625,0.5858917236328125,0.3368072509765625
20220119-1822,2022-01-19 18:22:28Z,u01, 125,40,movements,el-ex, rt, d,234575.95283287502, 1.968679095178874, -0.6046759918361642, 2.810729787678814, -0.343862920999527, -0.6094629764556885, 0.453758180141449, 0.7584207653999329, 0.5684955716133118, 0.3187640607357025, 0.03805738687515259, 0.001893162727355957, 0.022910743951797485, -0.8114086853656597, -0.031590699555413826, 0.3316159419185386,0.48025903960137367,0.796478271484375,0.5703887939453125,0.3416748046875
20220119-1822,2022-01-19 18:22:28Z,u01, 126,40,movements,el-ex, rt, d,234575.977778875, 1.9561934738085147, -0.590018932509267, 2.818368114142952, -0.5362656116485596, -0.7113401889801025, 0.4269661009311676, 0.7699806690216064, 0.5563767552375793, 0.3123691976070404, 0.04616612195968628, 0.02463209629058838, 0.01961594820022583, -0.8093960492959611, -0.03259810784589287, 0.3240164676864009,0.4887010168104413,0.826629638671875,0.583740234375,0.3355255126953125
20220119-1822,2022-01-19 18:22:28Z,u01, 127,40,movements,el-ex, rt, d,234576.00272487503, 1.9438353690300965, -0.57476033125919, 2.8278138981723604, -0.460949569940567, -0.6840705275535583, 0.47263097763061523, 0.7815975546836853, 0.5436336398124695, 0.3058887720108032, -0.0029262304306030273, 0.04540139436721802, 0.004490256309509277, -0.8073317755081525, -0.03405574933033084, 0.3157043946742645,0.49737957017349954,0.7786712646484375,0.5890350341796875,0.3103790283203125
20220119-1822,2022-01-19 18:22:28Z,u01, 128,40,movements,el-ex, rt, d,234576.02767087502, 1.9281762173296302, -0.5615311988958099, 2.8293212382858077, -0.011955632828176022, -0.6306429505348206, 0.4483100175857544, 0.7929599285125732, 0.5324828624725342, 0.29610273241996765, -0.02908957004547119, 0.0630524754524231, -0.00401875376701355, -0.804326553908204, -0.03331896966728984, 0.3100599315123842,0.5057782203757338,0.7678070068359375,0.5945587158203125,0.2872467041015625
20220119-1822,2022-01-19 18:22:28Z,u01, 129,40,movements,el-ex, rt, d,234576.05261787502, 1.9098984095483382, -0.5512381787406876, 2.8235342493769133, 0.04183452948927879, -0.6270015239715576, 0.4450141489505768, 0.8033656477928162, 0.5237423777580261, 0.28336867690086365, -0.013326525688171387, 0.0509645938873291, 0.020205020904541016, -0.8004584520649838, -0.030831953651553223, 0.30736662670875153,0.5136550481401416,0.7900390625,0.57470703125,0.3035736083984375
20220119-1822,2022-01-19 18:22:28Z,u01, 130,40,movements,el-ex, rt, d,234576.077563875, 1.8928072122899404, -0.541143118953572, 2.8205978541429575, -0.12219245731830597, -0.6239039897918701, 0.41522809863090515, 0.8130651116371155, 0.5151160955429077, 0.2712569236755371, 0.02523738145828247, 0.01976543664932251, 0.037077516317367554, -0.7967242584781775, -0.029307225967319217, 0.3040902429061666,0.5214408901775223,0.83148193359375,0.5428466796875,0.3092193603515625
20220119-1822,2022-01-19 18:22:28Z,u01, 131,40,movements,el-ex, rt, d,234576.10250987503, 1.877562262862608, -0.5301805082029687, 2.821047830912954, -0.14483781158924103, -0.5915520787239075, 0.41371041536331177, 0.8224400281906128, 0.5056890845298767, 0.26052045822143555, 0.01595407724380493, 0.007616519927978516, 0.030601948499679565, -0.7933763826695458, -0.02853311576481274, 0.29966589938199223,0.5290936757227773,0.8383941650390625,0.5133056640625,0.2911224365234375
20220119-1822,2022-01-19 18:22:28Z,u01, 132,40,movements,el-ex, rt, d,234576.12745587502, 1.8625276787302665, -0.5193398368386435, 2.8189205501483143, 0.08555397391319275, -0.5283105373382568, 0.4561915695667267, 0.8314654231071472, 0.4963071346282959, 0.24968849122524261, -0.005629360675811768, 0.012497127056121826, -0.012597233057022095, -0.790020503153932, -0.026680453815723093, 0.29600091210936924,0.5362267920646924,0.8271636962890625,0.504669189453125,0.24200439453125
20220119-1822,2022-01-19 18:22:29Z,u01, 133,40,movements,el-ex, rt, d,234576.152401875, 1.8449689798241293, -0.5100042736418948, 2.808786168137664, 0.3471551835536957, -0.4981692135334015, 0.45474860072135925, 0.8401452302932739, 0.4881809651851654, 0.23629556596279144, 0.001255035400390625, 0.03543969988822937, 0.017198830842971802, -0.7859030606415661, -0.02245354818908682, 0.2950740036270633,0.5429398360133554,0.841400146484375,0.52362060546875,0.2534942626953125
20220119-1822,2022-01-19 18:22:29Z,u01, 134,40,movements,el-ex, rt, d,234576.17734787503, 1.8264498808904799, -0.501596539450966, 2.79635959098893, 0.2525884509086609, -0.49259495735168457, 0.42035388946533203, 0.8483178615570068, 0.4808260202407837, 0.22172726690769196, 0.011575818061828613, 0.0014737248420715332, 0.03239259123802185, -0.7813763236278011, -0.01773908820865011, 0.29520310534502797,0.5495374844601688,0.85699462890625,0.491424560546875,0.2550506591796875
20220119-1822,2022-01-19 18:22:29Z,u01, 135,40,movements,el-ex, rt, d,234576.20229487502, 1.8116060574569561, -0.49253739815672304, 2.790085121382119, 0.018522614613175392, -0.4628601372241974, 0.3940722644329071, 0.8557109832763672, 0.47286319732666016, 0.21014131605625153, 0.022417187690734863, -0.02408689260482788, 0.045077353715896606, -0.7777245259362453, -0.014670253935237909, 0.29352258959998934,0.5556743215816499,0.8781280517578125,0.4487762451171875,0.255218505859375
20220119-1822,2022-01-19 18:22:29Z,u01, 136,40,movements,el-ex, rt, d,234576.227240875, 1.798907434228989, -0.4831380196578546, 2.7871706864988015, 0.05472599342465401, -0.43593430519104004, 0.3872486650943756, 0.8626019358634949, 0.46456030011177063, 0.20025457441806793, 0.017311453819274902, 0.02770349383354187, 0.0030689239501953125, -0.7745786785148185, -0.01245636520462029, 0.29084964830287785,0.5614973623222939,0.8823699951171875,0.4794464111328125,0.2065582275390625
20220119-1822,2022-01-19 18:22:29Z,u01, 137,40,movements,el-ex, rt, d,234576.252186875, 1.785316380406506, -0.4743200624202122, 2.780921816113795, 0.20030197501182556, -0.42138147354125977, 0.3880438804626465, 0.8692126870155334, 0.45673367381095886, 0.18937747180461884, 0.008183002471923828, 0.025627166032791138, 0.0017695426940917969, -0.7711053471481687, -0.00923482267934217, 0.28936377494155374,0.5670801743738838,0.8773956298828125,0.48236083984375,0.1911468505859375
20220119-1822,2022-01-19 18:22:29Z,u01, 138,40,movements,el-ex, rt, d,234576.27713287502, 1.7721050775912817, -0.46606164702484176, 2.774733882084706, 0.06036713719367981, -0.4109492897987366, 0.36468639969825745, 0.8753044605255127, 0.44937145709991455, 0.1786259412765503, -0.005828261375427246, 0.011337071657180786, 0.03405115008354187, -0.7676426801997046, -0.0061388187390365445, 0.2881180315718017,0.5724289904408649,0.86761474609375,0.4624481201171875,0.2136993408203125
20220119-1822,2022-01-19 18:22:29Z,u01, 139,40,movements,el-ex, rt, d,234576.30207887501, 1.7612226036538077, -0.45772255913452087, 2.772406036460809, 0.00199010968208313, -0.3653658330440521, 0.318987101316452, 0.8808456659317017, 0.44190624356269836, 0.169793501496315, -0.00465548038482666, 0.036502569913864136, 0.03311800956726074, -0.7647742165248318, -0.004141212849791576, 0.2857861119811831,0.5774336213716177,0.876190185546875,0.4784088134765625,0.202911376953125
20220119-1822,2022-01-19 18:22:29Z,u01, 140,40,movements,el-ex, rt, d,234576.3270255, 1.7513806788654904, -0.4504728713629303, 2.7703067277450293, 0.061986636370420456, -0.3394659459590912, 0.27817288041114807, 0.8856022953987122, 0.43539127707481384, 0.16168732941150665, 0.009523928165435791, 0.042590200901031494, 0.010935395956039429, -0.7621271945732127, -0.0024089552616888, 0.28380283705422965,0.5819039327189564,0.8980712890625,0.4801788330078125,0.1720123291015625
20220119-1822,2022-01-19 18:22:29Z,u01, 141,40,movements,el-ex, rt, d,234576.3519715, 1.741395763323775, -0.44448425660593366, 2.7661632990511897, 0.14080984890460968, -0.3252235949039459, 0.25141245126724243, 0.8897263407707214, 0.42999231815338135, 0.1532766968011856, -0.0025193095207214355, 0.04342687129974365, 0.029523715376853943, -0.7593670094742903, -0.0003099964055657545, 0.2828862839897588,0.5859496896133837,0.88720703125,0.473419189453125,0.18280029296875
20220119-1822,2022-01-19 18:22:29Z,u01, 142,40,movements,el-ex, rt, d,234576.37691750002, 1.7317251978679225, -0.43895306351589103, 2.7620398972251023, 0.04961824789643288, -0.29676005244255066, 0.23250874876976013, 0.8935011029243469, 0.42499202489852905, 0.14504441618919373, -0.010566413402557373, 0.026775002479553223, 0.04256249964237213, -0.7566500944725156, 0.00168610944575745, 0.282152188734616,0.5898034215961643,0.8793792724609375,0.4541778564453125,0.18255615234375
20220119-1822,2022-01-19 18:22:29Z,u01, 143,40,movements,el-ex, rt, d,234576.4018635, 1.7247539071127571, -0.43393097716331497, 2.761921135684767, -0.0926133245229721, -0.2558341920375824, 0.15984012186527252, 0.8965880870819092, 0.4204407036304474, 0.13913759589195251, 0.0020171403884887695, 0.03906241059303284, 0.05667850375175476, -0.7546940282364835, 0.002391659725794415, 0.28043005349907996,0.593118959767132,0.8986053466796875,0.459503173828125,0.1958160400390625
20220119-1822,2022-01-19 18:22:29Z,u01, 144,40,movements,el-ex, rt, d,234576.4268095, 1.7198719458617155, -0.43026526818311667, 2.7638626609594565, -0.06227745860815048, -0.20049943029880524, 0.11170788109302521, 0.8987748026847839, 0.41711190342903137, 0.13498686254024506, 0.007627725601196289, 0.04005664587020874, 0.023231610655784607, -0.7533184465011429, 0.002179159050442081, 0.27857297584019114,0.5957379158355856,0.9076080322265625,0.4605865478515625,0.1631622314453125
20220119-1822,2022-01-19 18:22:29Z,u01, 145,40,movements,el-ex, rt, d,234576.45175650003, 1.715376553279669, -0.42776008882025784, 2.7639049917060015, 0.03226279467344284, -0.15466102957725525, 0.09021677076816559, 0.9004039168357849, 0.41483375430107117, 0.13109531998634338, -0.007169604301452637, 0.05205467343330383, 0.035149335861206055, -0.752025323447338, 0.002361379710949102, 0.27768807598637696,0.5977807135876961,0.8932342529296875,0.466888427734375,0.1662445068359375
20220119-1822,2022-01-19 18:22:29Z,u01, 146,40,movements,el-ex, rt, d,234576.47670250002, 1.711726498205474, -0.4261615102216872, 2.762499381721523, 0.028896460309624672, -0.09699580818414688, 0.043201133608818054, 0.9015316367149353, 0.41337868571281433, 0.1279008984565735, -0.015621721744537354, 0.04369831085205078, 0.0574476420879364, -0.7509607060124053, 0.002909335924070028, 0.27755453428761667,0.5991769201209544,0.883636474609375,0.4551544189453125,0.1888885498046875
20220119-1822,2022-01-19 18:22:29Z,u01, 147,40,movements,el-ex, rt, d,234576.5016485, 1.7104469885584135, -0.42594478165283867, 2.7631126781998794, -0.08136234432458878, -0.029657114297151566, -0.031315580010414124, 0.9017834663391113, 0.413181334733963, 0.12675976753234863, -0.004688680171966553, 0.031017303466796875, 0.04938781261444092, -0.7505819491463429, 0.002573128626661758, 0.2772967781528858,0.5997722325290776,0.8970947265625,0.4441986083984375,0.1761474609375
20220119-1822,2022-01-19 18:22:29Z,u01, 148,40,movements,el-ex, rt, d,234576.52659450003, 1.7127095355279467, -0.42827682139399414, 2.766326471319818, -0.06606457382440567, 0.02186926268041134, -0.07979756593704224, 0.9005377888679504, 0.41530388593673706, 0.1286630928516388, -0.00594562292098999, 0.053369760513305664, 0.060896843671798706, -0.7512194875420589, 0.0009112563754673786, 0.2771464618545446,0.5990477387887182,0.8970794677734375,0.4675445556640625,0.1860809326171875
20220119-1822,2022-01-19 18:22:29Z,u01, 149,40,movements,el-ex, rt, d,234576.55154050002, 1.7164427287744601, -0.4309384868302161, 2.768473250073265, -0.023249465972185135, 0.10730719566345215, -0.11021752655506134, 0.8989543914794922, 0.417723685503006, 0.13186319172382355, -0.013990461826324463, 0.04364106059074402, 0.04863308370113373, -0.7522842108442617, -0.0002541043858542147, 0.27743502471657866,0.5975769528341801,0.8849639892578125,0.46136474609375,0.1804962158203125
20220119-1822,2022-01-19 18:22:29Z,u01, 150,40,movements,el-ex, rt, d,234576.5764865, 1.7227344091342263, -0.4344908014406361, 2.7703721193405566, -0.016222216188907623, 0.18097415566444397, -0.16256654262542725, 0.8966346383094788, 0.4209485650062561, 0.1372910439968109, -0.01183849573135376, 0.032557904720306396, 0.05562591552734375, -0.7540848292912351, -0.0012613463881905873, 0.2781169920447353,0.59498362669572,0.8869171142578125,0.45440673828125,0.1917572021484375
20220119-1822,2022-01-19 18:22:29Z,u01, 151,40,movements,el-ex, rt, d,234576.6014335, 1.730266744254762, -0.43936414327662143, 2.7727732665651144, -0.056577496230602264, 0.2356155514717102, -0.2239135205745697, 0.8935389518737793, 0.42536407709121704, 0.1437133550643921, -0.0035243630409240723, 0.045659422874450684, 0.04802869260311127, -0.7562071938220154, -0.002712202209542436, 0.27912581707331174,0.5918041166435726,0.8900146484375,0.4710235595703125,0.191741943359375
20220119-1822,2022-01-19 18:22:29Z,u01, 152,40,movements,el-ex, rt, d,234576.62637950003, 1.7398831044308727, -0.4459278483742017, 2.7767424379359302, -0.09630333632230759, 0.2775843143463135, -0.28267911076545715, 0.8893443942070007, 0.4312951862812042, 0.15182606875896454, 0.005034267902374268, 0.033380746841430664, 0.04112136363983154, -0.7588728241355829, -0.005006843347145601, 0.2802900490060168,0.587813337398305,0.89849853515625,0.4645843505859375,0.1889801025390625
20220119-1822,2022-01-19 18:22:29Z,u01, 153,40,movements,el-ex, rt, d,234576.65132550002, 1.7500429471162116, -0.452879458742231, 2.780839089875964, -0.06918037682771683, 0.3361815810203552, -0.3066914975643158, 0.8847843408584595, 0.43755653500556946, 0.16031523048877716, -0.004825234413146973, 0.025868147611618042, 0.032021865248680115, -0.7616449643201837, -0.0073867690363566, 0.28158471016812525,0.583568709037446,0.8799591064453125,0.4634246826171875,0.1923370361328125
20220119-1822,2022-01-19 18:22:29Z,u01, 154,40,movements,el-ex, rt, d,234576.6762715, 1.7610734935763366, -0.4604400839472755, 2.784402978087962, -0.06929745525121689, 0.4003828763961792, -0.35353416204452515, 0.8796885013580322, 0.44434240460395813, 0.16943439841270447, -0.00018715858459472656, 0.03823205828666687, 0.0498039573431015, -0.7646075037617104, -0.009621069906299545, 0.28328565559725133,0.57881953022563,0.8832244873046875,0.4798736572265625,0.212066650390625
20220119-1822,2022-01-19 18:22:29Z,u01, 155,40,movements,el-ex, rt, d,234576.70121750003, 1.7749761380785622, -0.46986222270410843, 2.790695794548608, -0.26079505681991577, 0.48828914761543274, -0.4800190031528473, 0.8731095194816589, 0.4527634382247925, 0.18079069256782532, -0.00688326358795166, 0.04366600513458252, 0.06963670253753662, -0.7682607680851881, -0.013066808698616567, 0.284920634980757,0.5730837502597268,0.8662261962890625,0.496429443359375,0.25042724609375
20220119-1822,2022-01-19 18:22:29Z,u01, 156,40,movements,el-ex, rt, d,234576.72616450003, 1.7946560216293352, -0.48073247603136027, 2.805696749970599, -0.6028356552124023, 0.5317167043685913, -0.5753078460693359, 0.8645325303077698, 0.4624287486076355, 0.19683299958705902, 0.023864686489105225, 0.041858941316604614, 0.07230161130428314, -0.7733284856237155, -0.019482071000207435, 0.28472347077855154,0.566141381208295,0.8858795166015625,0.4991607666015625,0.2684783935546875
20220119-1822,2022-01-19 18:22:29Z,u01, 157,40,movements,el-ex, rt, d,234576.75111050002, 1.8172604897977496, -0.49085865002845125, 2.8261379909116786, -0.4846392571926117, 0.5224211812019348, -0.5341942310333252, 0.8552775979042053, 0.47138333320617676, 0.21516981720924377, 0.008675038814544678, 0.05904269218444824, -0.0009821802377700806, -0.7789968149266875, -0.027365567804042423, 0.28292420416659647,0.5588998210611454,0.86395263671875,0.530426025390625,0.2141876220703125
20220119-1822,2022-01-19 18:22:29Z,u01, 158,40,movements,el-ex, rt, d,234576.7760565, 1.8353319984682943, -0.5016112920812476, 2.835796732326666, 6.041582673788071e-05, 0.5543846487998962, -0.48110392689704895, 0.8463083505630493, 0.48083895444869995, 0.2292514592409134, -0.02572113275527954, 0.05184537172317505, -0.014132976531982422, -0.7833320856876063, -0.03188380240677971, 0.2844601490940043,0.5517759966229402,0.8201751708984375,0.548736572265625,0.20501708984375
20220119-1822,2022-01-19 18:22:29Z,u01, 159,40,movements,el-ex, rt, d,234576.80100250003, 1.8510881408266178, -0.5136824357381896, 2.8396350674853497, -0.0946807786822319, 0.5587005019187927, -0.5256595015525818, 0.8369520902633667, 0.4913877546787262, 0.24093365669250488, 0.01998138427734375, 0.005148440599441528, 0.01712295413017273, -0.7869276677085636, -0.03480908246962228, 0.28813231405928175,0.5445299443081295,0.85693359375,0.4965362548828125,0.258056640625
20220119-1822,2022-01-19 18:22:29Z,u01, 160,40,movements,el-ex, rt, d,234576.82594850002, 1.8710694122463893, -0.5252725643647048, 2.8514279879169524, -0.43360814452171326, 0.5837039351463318, -0.608488142490387, 0.826475203037262, 0.5014488697052002, 0.25590604543685913, 0.06622505187988281, -0.022628068923950195, 0.054991841316223145, -0.7914215580796988, -0.04006175868528927, 0.28962944568227444,0.5368070399258609,0.8908843994140625,0.480377197265625,0.3079376220703125
20220119-1822,2022-01-19 18:22:29Z,u01, 161,40,movements,el-ex, rt, d,234576.8508945, 1.8971986455986964, -0.5360249650057474, 2.8725591834013744, -0.6094909310340881, 0.6599100232124329, -0.6440595388412476, 0.8143528699874878, 0.5107225179672241, 0.27566662430763245, 0.05912131071090698, -0.012263655662536621, 0.03617739677429199, -0.7972094795500312, -0.04785762687787218, 0.2886175992862765,0.5280782580830828,0.87347412109375,0.4984588623046875,0.3118438720703125
20220119-1822,2022-01-19 18:22:29Z,u01, 162,40,movements,el-ex, rt, d,234576.8758415, 1.9251541515239072, -0.5467570344065423, 2.891590478531691, -0.31619057059288025, 0.7937867045402527, -0.5970296263694763, 0.801142156124115, 0.519919753074646, 0.2964024841785431, 0.004537105560302734, 0.021278858184814453, -0.0057683587074279785, -0.8032592853489207, -0.05455052685567363, 0.28843485538303815,0.5182702095743676,0.8122406005859375,0.5381622314453125,0.284088134765625
20220119-1822,2022-01-19 18:22:29Z,u01, 163,40,movements,el-ex, rt, d,234576.90078750002, 1.9511418211147087, -0.5588155328210773, 2.9020711932001038, -0.0024895938113331795, 0.8408458828926086, -0.5689758062362671, 0.7872908115386963, 0.5301823019981384, 0.3147694170475006, 0.01542818546295166, 0.0358424186706543, 0.003971517086029053, -0.8086842627167659, -0.05843346294324506, 0.2911125957851495,0.5078077431825493,0.8027191162109375,0.5660247802734375,0.3187408447265625
20220119-1822,2022-01-19 18:22:29Z,u01, 164,40,movements,el-ex, rt, d,234576.92573350001, 1.9740298134994956, -0.5733068470652968, 2.9057271043473376, 0.17600610852241516, 0.8368410468101501, -0.614036500453949, 0.7727326154708862, 0.5424131155014038, 0.32965540885925293, 0.03752446174621582, 0.05129116773605347, 0.010417252779006958, -0.8131150698554639, -0.060593663978740664, 0.2964840244807923,0.49726217576974824,0.8103790283203125,0.5908660888671875,0.3416595458984375
20220119-1822,2022-01-19 18:22:29Z,u01, 165,40,movements,el-ex, rt, d,234576.9506795, 1.99705258749114, -0.5895674288699206, 2.909918609318943, 0.04167543724179268, 0.828947901725769, -0.6750136017799377, 0.7568073272705078, 0.5560015439987183, 0.34366437792778015, 0.05328184366226196, 0.04763615131378174, 0.006418108940124512, -0.8172050999241899, -0.06330892815989289, 0.3024971319337041,0.4864806106809294,0.810089111328125,0.6036376953125,0.3500823974609375
20220119-1822,2022-01-19 18:22:29Z,u01, 166,40,movements,el-ex, rt, d,234576.97562550002, 2.023605953477984, -0.6047988498963912, 2.920020403170135, -0.09912855178117752, 0.8432834148406982, -0.7092040777206421, 0.7397145628929138, 0.568596601486206, 0.3598896265029907, 0.02684122323989868, 0.012549638748168945, 0.03355836868286133, -0.8218208631064131, -0.0674928763645335, 0.3069065961382994,0.47525112548224124,0.7731170654296875,0.575653076171875,0.392059326171875
20220119-1822,2022-01-19 18:22:29Z,u01, 167,40,movements,el-ex, rt, d,234577.00057250002, 2.0518260507284194, -0.6202624382498749, 2.9318666296692584, -0.010787471197545528, 0.8820329904556274, -0.7354313135147095, 0.7213835716247559, 0.5812487602233887, 0.3765047788619995, 0.034033358097076416, 0.05481386184692383, 0.02188706398010254, -0.8264733791287145, -0.07207038649526426, 0.3112202879354612,0.46356187725659886,0.7554168701171875,0.6360626220703125,0.3983917236328125
20220119-1822,2022-01-19 18:22:29Z,u01, 168,40,movements,el-ex, rt, d,234577.0255185, 2.0794565803553864, -0.6379950654081757, 2.9402519155642146, 0.17266567051410675, 0.9471871256828308, -0.7835344672203064, 0.7015932202339172, 0.5955861210823059, 0.3912091553211212, 0.04797959327697754, 0.06724053621292114, 0.03687626123428345, -0.8305828347695527, -0.07574120819425495, 0.3173815141189905,0.45129209611449767,0.7479095458984375,0.6628875732421875,0.42303466796875
20220119-1822,2022-01-19 18:22:29Z,u01, 169,40,movements,el-ex, rt, d,234577.0504645, 2.1085066199984155, -0.6573746904275084, 2.9485270986539343, 0.07183230668306351, 0.9704851508140564, -0.8211967945098877, 0.6798916459083557, 0.6110407710075378, 0.4054339826107025, 0.07081025838851929, 0.017880737781524658, 0.01923346519470215, -0.8345171901792967, -0.07936026183006958, 0.32443191841824454,0.4382088704247238,0.750701904296875,0.6289215087890625,0.4246673583984375
20220119-1822,2022-01-19 18:22:29Z,u01, 170,40,movements,el-ex, rt, d,234577.07541050002, 2.142083931406939, -0.6740097516137026, 2.9637415272743595, -0.15821833908557892, 0.9482852220535278, -0.8149133324623108, 0.6572552919387817, 0.6241239309310913, 0.4224749505519867, 0.04828065633773804, -0.03141146898269653, 0.006373465061187744, -0.8391283647496097, -0.08426779621556027, 0.3292392778091914,0.4246929805135616,0.712554931640625,0.579864501953125,0.434356689453125
20220119-1822,2022-01-19 18:22:29Z,u01, 171,40,movements,el-ex, rt, d,234577.1003565, 2.1775634057086672, -0.6886639810449462, 2.9828380495212348, -0.15114665031433105, 0.9345826506614685, -0.8158093690872192, 0.6342736482620239, 0.6355062127113342, 0.44026046991348267, 0.05414193868637085, 0.0008158683776855469, -0.00036472082138061523, -0.8438341119867668, -0.08985672616491808, 0.3327648528352004,0.41126329719736215,0.68841552734375,0.636322021484375,0.4398956298828125
20220119-1822,2022-01-19 18:22:29Z,u01, 172,40,movements,el-ex, rt, d,234577.1253025, 2.213341735006878, -0.7036229247836069, 3.001602393872257, -0.07949139922857285, 0.9533288478851318, -0.8079277873039246, 0.6104397177696228, 0.6469843983650208, 0.4569188952445984, 0.08293503522872925, 0.012881994247436523, -0.010629713535308838, -0.848175767022899, -0.09516989900538403, 0.33677991633880905,0.3976430158253458,0.690093994140625,0.6612396240234375,0.4537811279296875
20220119-1822,2022-01-19 18:22:30Z,u01, 173,40,movements,el-ex, rt, d,234577.1502495, 2.2486907081826337, -0.7196747562317897, 3.018271719684993, 0.05773615837097168, 1.0244033336639404, -0.8189697265625, 0.5857448577880859, 0.6591401100158691, 0.47163280844688416, 0.06698042154312134, 0.005898952484130859, -0.014982938766479492, -0.851980945345041, -0.09972395992317626, 0.3419073196772255,0.3837747425616022,0.6527252197265625,0.6650390625,0.4566497802734375
20220119-1822,2022-01-19 18:22:30Z,u01, 174,40,movements,el-ex, rt, d,234577.17519550002, 2.2840237076223024, -0.7361286242805691, 3.0325461000504172, 0.06793716549873352, 1.1121474504470825, -0.7235850691795349, 0.5604398250579834, 0.6714239716529846, 0.4848679006099701, 0.04377758502960205, -0.027533650398254395, 0.0037337839603424072, -0.8554518980208513, -0.10313097439379579, 0.3478910220914415,0.36951025969139306,0.6130218505859375,0.652862548828125,0.4782257080078125
20220119-1822,2022-01-19 18:22:30Z,u01, 175,40,movements,el-ex, rt, d,234577.2001415, 2.3217643143212365, -0.7505782229149119, 3.049275378669418, -0.014353442937135696, 1.068114995956421, -0.7365703582763672, 0.5345975160598755, 0.6820617318153381, 0.49899664521217346, 0.10947597026824951, -0.01758718490600586, -0.009158849716186523, -0.8591541159398841, -0.1065482071023719, 0.3529265641068912,0.3548868020538894,0.644073486328125,0.6644744873046875,0.489837646484375
20220119-1822,2022-01-19 18:22:30Z,u01, 176,40,movements,el-ex, rt, d,234577.2250875, 2.358877251107756, -0.7648547412445427, 3.066803611347954, 0.05806972086429596, 1.0183149576187134, -0.8126692175865173, 0.5087950825691223, 0.6924322247505188, 0.5115323662757874, 0.06806343793869019, 0.0371667742729187, -0.011333882808685303, -0.8623375074484902, -0.11018260256646423, 0.3579479401653212,0.3407449695688309,0.595855712890625,0.718963623046875,0.4887237548828125
20220119-1822,2022-01-19 18:22:30Z,u01, 177,40,movements,el-ex, rt, d,234577.25003350002, 2.397220010334949, -0.7793968914620688, 3.0857208469988837, 0.00352688692510128, 0.9982591867446899, -0.8162789940834045, 0.48193874955177307, 0.7028505206108093, 0.5231981873512268, 0.06852206587791443, 0.008209049701690674, -0.01762855052947998, -0.8652142604216098, -0.11403229657285416, 0.36315676838639693,0.3263711508952789,0.5504608154296875,0.7110595703125,0.5055694580078125
20220119-1822,2022-01-19 18:22:30Z,u01, 178,40,movements,el-ex, rt, d,234577.27498050002, 2.4374066453376484, -0.7917139462872769, 3.107552518358711, -0.0582008957862854, 0.9654179811477661, -0.7729664444923401, 0.45489007234573364, 0.7115585803985596, 0.5354989767074585, 0.0649767518043518, -0.015407025814056396, -0.025824904441833496, -0.868201332726206, -0.11821988925572108, 0.36730669180994335,0.3119875314078857,0.52349853515625,0.6936492919921875,0.50311279296875
20220119-1822,2022-01-19 18:22:30Z,u01, 179,40,movements,el-ex, rt, d,234577.2999265, 2.4762080396706887, -0.8035249130307581, 3.128497448253532, 0.026180000975728035, 0.9158391356468201, -0.778801441192627, 0.4285564124584198, 0.7198074460029602, 0.5460922718048096, 0.07754707336425781, 0.0041915178298950195, -0.041514575481414795, -0.8707235059198342, -0.12201117501496656, 0.37155906129626165,0.29815729080835646,0.506103515625,0.7239990234375,0.50457763671875
20220119-1822,2022-01-19 18:22:30Z,u01, 180,40,movements,el-ex, rt, d,234577.3248725, 2.51547886528844, -0.8153926170113114, -3.132404421248797, -0.014069383963942528, 0.8704012036323547, -0.8011133074760437, 0.40175139904022217, 0.7279947996139526, 0.5555349588394165, 0.07943442463874817, 0.004320085048675537, -0.029717087745666504, -0.8728467098737513, -0.12611935242554698, 0.37592165036954434,0.2844562445493116,0.4867706298828125,0.7292022705078125,0.5290679931640625
20220119-1822,2022-01-19 18:22:30Z,u01, 181,40,movements,el-ex, rt, d,234577.34981829167, 2.5552928786275766, -0.8256916983678426, -3.1083299698960856, -0.0646061971783638, 0.918727457523346, -0.7644400596618652, 0.37515270709991455, 0.735016942024231, 0.564810574054718, 0.07359308004379272, -0.014023840427398682, -0.04566067457199097, -0.874856110850576, -0.1305069650283646, 0.37964597903178776,0.2710420619574526,0.4487457275390625,0.7209930419921875,0.5191497802734375
20220119-1822,2022-01-19 18:22:30Z,u01, 182,40,movements,el-ex, rt, d,234577.3747642917, 2.5977953486540466, -0.8339261329082985, -3.0818159920497923, -0.1438966542482376, 0.9257045388221741, -0.7915118932723999, 0.3476718068122864, 0.7405753135681152, 0.5750413537025452, 0.04470795392990112, -0.021871089935302734, -0.03222513198852539, -0.8770897197169358, -0.13503441756360418, 0.3825952572291207,0.2570996202615469,0.3923797607421875,0.72161865234375,0.552734375
20220119-1822,2022-01-19 18:22:30Z,u01, 183,40,movements,el-ex, rt, d,234577.39971029168, 2.6397874942677593, -0.8403116488826443, -3.0553391044673512, -0.13776858150959015, 0.8842878937721252, -0.7357631921768188, 0.3209439814090729, 0.7448511123657227, 0.5849717259407043, 0.06911644339561462, -0.03814035654067993, -0.058497607707977295, -0.8792488169707103, -0.13931037827848133, 0.3849902231337043,0.2435091420210172,0.3900604248046875,0.7067108154296875,0.5264739990234375
20220119-1822,2022-01-19 18:22:30Z,u01, 184,40,movements,el-ex, rt, d,234577.42465729167, 2.6811471570937324, -0.8447158015562858, -3.02949675463379, -0.17082802951335907, 0.8462262153625488, -0.6675620675086975, 0.2950216829776764, 0.7477824687957764, 0.5947973132133484, 0.0881417989730835, -0.023768126964569092, -0.03724104166030884, -0.8814246486257838, -0.14314065319889782, 0.38681046144068076,0.23017185887032404,0.3852386474609375,0.7240447998046875,0.5529022216796875
20220119-1822,2022-01-19 18:22:30Z,u01, 185,40,movements,el-ex, rt, d,234577.4496032917, 2.7199870574364446, -0.8487837229622058, -3.005278944266213, -0.10003752261400223, 0.8142562508583069, -0.6185868382453918, 0.2704560458660126, 0.750477135181427, 0.603023886680603, 0.09024646878242493, -0.03427529335021973, -0.03393208980560303, -0.8831795392616679, -0.14664875718078363, 0.3887303198954272,0.2176622525807682,0.3607025146484375,0.7162017822265625,0.569091796875
20220119-1822,2022-01-19 18:22:30Z,u01, 186,40,movements,el-ex, rt, d,234577.47454929168, 2.7568562914534938, -0.8519069590986087, -2.9828938671641905, -0.13010694086551666, 0.7888223528862, -0.5808910131454468, 0.24716342985630035, 0.7525376081466675, 0.6104080080986023, 0.06469571590423584, -0.021137893199920654, -0.004816949367523193, -0.8847735792638305, -0.14959847867624743, 0.3904911794498054,0.20570076229717194,0.3232574462890625,0.73016357421875,0.6025848388671875
20220119-1822,2022-01-19 18:22:30Z,u01, 187,40,movements,el-ex, rt, d,234577.49949529167, 2.791523010248251, -0.8545146386100425, -2.960885182030144, -0.11094257235527039, 0.7156099677085876, -0.5327101945877075, 0.225184366106987, 0.7542523145675659, 0.6167619228363037, 0.07674126327037811, -0.005381584167480469, -0.054872334003448486, -0.8860328529269338, -0.1527309791002302, 0.392079808675731,0.19465972646185464,0.3019256591796875,0.748870849609375,0.5618896484375
20220119-1822,2022-01-19 18:22:30Z,u01, 188,40,movements,el-ex, rt, d,234577.5244412917, 2.8234496619635547, -0.856780808555838, -2.941030995740722, -0.056581124663352966, 0.6902410984039307, -0.5021960735321045, 0.2048468291759491, 0.7557383179664612, 0.6220113635063171, 0.055483415722846985, -0.008271098136901855, -0.04225337505340576, -0.887051594117491, -0.1553870658256163, 0.39367686072567426,0.18442636947967433,0.257354736328125,0.73394775390625,0.5704345703125
20220119-1822,2022-01-19 18:22:30Z,u01, 189,40,movements,el-ex, rt, d,234577.54938729168, 2.8538608160312573, -0.8614748137147173, -2.923386375348029, 0.124104805290699, 0.6685233116149902, -0.5132534503936768, 0.18483012914657593, 0.7588039636611938, 0.6245436072349548, 0.058501750230789185, 0.006271719932556152, -0.012406587600708008, -0.8874057419569359, -0.1574257523488004, 0.39658520412685627,0.17449491787677654,0.2433319091796875,0.76507568359375,0.6121368408203125
20220119-1822,2022-01-19 18:22:30Z,u01, 190,40,movements,el-ex, rt, d,234577.57433429168, 2.8834527185951684, -0.8673374778959447, -2.9070592266831285, 0.06590058654546738, 0.6625681519508362, -0.48199811577796936, 0.1651318371295929, 0.7626093626022339, 0.6254263520240784, 0.06338375806808472, -0.017522811889648438, -0.0034781694412231445, -0.8873740880285624, -0.158998167274791, 0.4001806158165019,0.1647489019257395,0.2239990234375,0.7442474365234375,0.625244140625
20220119-1822,2022-01-19 18:22:30Z,u01, 191,40,movements,el-ex, rt, d,234577.59928029167, 2.91226459257851, -0.870434394873822, -2.8903430670718664, -0.020797427743673325, 0.62328040599823, -0.4616374671459198, 0.1465086042881012, 0.7646089792251587, 0.6276213526725769, 0.061819642782211304, -0.02968466281890869, -0.006390094757080078, -0.8876812256959175, -0.16072562376756772, 0.4025391636301461,0.1554078831820664,0.2083282470703125,0.73492431640625,0.6212310791015625
20220119-1822,2022-01-19 18:22:30Z,u01, 192,40,movements,el-ex, rt, d,234577.6242262917, 2.9413435646477195, -0.8719830230352241, -2.8725100154249614, -0.026470493525266647, 0.5986890196800232, -0.4372791349887848, 0.12796294689178467, 0.765606164932251, 0.6304544806480408, 0.05660732090473175, 0.009402930736541748, -0.01293116807937622, -0.88809914933265, -0.16281013019634946, 0.40424342207442976,0.14615079748463847,0.19256591796875,0.769317626953125,0.625213623046875
20220119-1822,2022-01-19 18:22:30Z,u01, 193,40,movements,el-ex, rt, d,234577.64917229168, 2.9699826571908563, -0.8740535985523837, -2.854804436143256, 0.0004073595628142357, 0.6184444427490234, -0.47016429901123047, 0.10958640277385712, 0.7669365406036377, 0.632297158241272, 0.027544334530830383, 0.01097196340560913, -0.019381940364837646, -0.8882330159541852, -0.16489597060651842, 0.4062667041063876,0.13710922811033965,0.1371307373046875,0.7779083251953125,0.6129150390625
20220119-1822,2022-01-19 18:22:30Z,u01, 194,40,movements,el-ex, rt, d,234577.67411829167, 2.99860674060615, -0.8758178812626097, -2.836939428532981, -0.02818906493484974, 0.590121865272522, -0.4497646391391754, 0.09125206619501114, 0.768067479133606, 0.6338340640068054, 0.04372715950012207, -0.014756381511688232, -0.028624534606933594, -0.8882707958927314, -0.16700901263345666, 0.40824955398144036,0.12812240378596312,0.1309051513671875,0.75628662109375,0.6056671142578125
20220119-1822,2022-01-19 18:22:30Z,u01, 195,40,movements,el-ex, rt, d,234577.69906529167, 3.0275213626212194, -0.8758167963289741, -2.818809915402181, -0.08830393105745316, 0.6096135377883911, -0.47077909111976624, 0.07288951426744461, 0.7680668234825134, 0.6362081170082092, 0.0586107075214386, 0.0012966394424438477, -0.002785205841064453, -0.8885336737322425, -0.16915077224841674, 0.40955908254063506,0.1189847880893708,0.131500244140625,0.7693634033203125,0.6334228515625
20220119-1822,2022-01-19 18:22:30Z,u01, 196,40,movements,el-ex, rt, d,234577.7240112917, 3.056199766111051, -0.874537599262985, -2.8004782058293447, -0.09736982733011246, 0.5910878777503967, -0.4406733512878418, 0.054700370877981186, 0.7672470211982727, 0.6390151381492615, 0.04632805287837982, -0.009632706642150879, -0.013831794261932373, -0.8888857147298048, -0.17143444669084945, 0.4103789908777094,0.10991658405184213,0.112152099609375,0.7564544677734375,0.629150390625
20220119-1822,2022-01-19 18:22:30Z,u01, 197,40,movements,el-ex, rt, d,234577.74895729168, 3.083607595615605, -0.8733901685801967, -2.7833311872367923, -0.06442473083734512, 0.5561683177947998, -0.43638870120048523, 0.03721897676587105, 0.7665106058120728, 0.6411523222923279, 0.04545313119888306, -0.022553086280822754, -0.050499796867370605, -0.8890957554292542, -0.17344997139695242, 0.4113242241343955,0.10117432532365893,0.082672119140625,0.74395751953125,0.5906524658203125
20220119-1822,2022-01-19 18:22:30Z,u01, 198,40,movements,el-ex, rt, d,234577.77390329167, 3.1094482266040147, -0.8715455161727963, -2.767295422970739, -0.14333540201187134, 0.53536456823349, -0.387126088142395, 0.02068602293729782, 0.765324592590332, 0.6433120369911194, 0.052754491567611694, -0.020100653171539307, -0.009599268436431885, -0.8893374931526652, -0.175313574689953, 0.41197612577982123,0.09284216529891798,0.081390380859375,0.7432861328125,0.6194000244140625
20220119-1822,2022-01-19 18:22:30Z,u01, 199,40,movements,el-ex, rt, d,234577.7988492917, 3.1346323868870445, -0.8664710591484832, -2.7525012257233494, -0.20285581052303314, 0.5466500520706177, -0.34638285636901855, 0.0045068757608532906, 0.762048602104187, 0.6475043296813965, 0.045084148645401, 0.010778665542602539, -0.000592648983001709, -0.8902028528446239, -0.17689275200262697, 0.41127699425572894,0.08425647807425614,0.049591064453125,0.7728271484375,0.64691162109375
20220119-1822,2022-01-19 18:22:30Z,u01, 200,40,movements,el-ex, rt, d,234577.82379529168, -3.125679761198126, -0.8663733281735513, -2.7394975308172524, 0.20227773487567902, 0.4920281171798706, -0.3240111470222473, -0.010304661467671394, 0.7619853615760803, 0.6475121974945068, 0.030537784099578857, 0.0321429967880249, -0.07893925905227661, -0.8899898709671612, -0.1779722455011239, 0.4127393940702312,0.07674674540489199,0.0257415771484375,0.8002471923828125,0.5683135986328125
20220119-1822,2022-01-19 18:22:30Z,u01, 201,40,movements,el-ex, rt, d,234577.84874229168, -3.1025892077919877, -0.8715758516090033, -2.727293276061122, 0.13633660972118378, 0.5763401985168457, -0.3399990499019623, -0.025097094476222992, 0.7653441429138184, 0.6431320905685425, 0.0416681133210659, -0.02460610866546631, 0.0024827122688293457, -0.8886813454023926, -0.17835778695052998, 0.4166575130681973,0.06950248816691579,0.016571044921875,0.7407379150390625,0.6456146240234375
20220119-1822,2022-01-19 18:22:30Z,u01, 202,40,movements,el-ex, rt, d,234577.87368829167, -3.077910972368878, -0.8723251219396368, -2.7132224088161023, -0.03312716633081436, 0.5640724897384644, -0.3878643810749054, -0.04092270880937576, 0.7658261656761169, 0.6417446136474609, 0.03971722349524498, -0.015841305255889893, 0.02837580442428589, -0.88807852788477, -0.17941248079253244, 0.4187349324802018,0.061554149002905165,0.0150604248046875,0.7472686767578125,0.6634368896484375
20220119-1822,2022-01-19 18:22:30Z,u01, 203,40,movements,el-ex, rt, d,234577.8986342917, -3.053545140512175, -0.8694567595607475, -2.698889523714614, -0.1101047694683075, 0.47506996989250183, -0.34822535514831543, -0.05673857033252716, 0.7639785408973694, 0.6427424550056458, 0.05524319410324097, -0.00836324691772461, 0.008151769638061523, -0.8880676297821279, -0.1808511094345437, 0.41925368336886115,0.05343422755922457,-0.001495361328125,0.755615234375,0.6508941650390625
20220119-1822,2022-01-19 18:22:30Z,u01, 204,40,movements,el-ex, rt, d,234577.92358029168, -3.0334480201963383, -0.8664548691857887, -2.686730911436383, -0.061704181134700775, 0.42280495166778564, -0.2979988753795624, -0.06989075988531113, 0.7620381712913513, 0.6437497735023499, 0.022832617163658142, -0.03552126884460449, -0.04362136125564575, -0.8880669614350385, -0.18224152436368815, 0.4194542852285221,0.04672688977841853,-0.0354156494140625,0.7361602783203125,0.6018524169921875
20220119-1822,2022-01-19 18:22:30Z,u01, 205,40,movements,el-ex, rt, d,234577.94852629167, -3.015276312726515, -0.864335007359103, -2.6763196533377966, -0.05345390737056732, 0.3963540494441986, -0.257160484790802, -0.08177988231182098, 0.7606637477874756, 0.6439741849899292, 0.025627501308918, -0.04530125856399536, -0.051521122455596924, -0.8879315143517382, -0.18320675642636766, 0.419957901176864,0.04059905991995226,-0.05615234375,0.715362548828125,0.5924530029296875
20220119-1822,2022-01-19 18:22:30Z,u01, 206,40,movements,el-ex, rt, d,234577.97347329167, -2.9985250572157485, -0.8615587245582867, -2.667201717838161, -0.07681715488433838, 0.3780674338340759, -0.2452537715435028, -0.0928560271859169, 0.7588586211204529, 0.6446017622947693, 0.05423600226640701, -0.03635507822036743, -0.030206501483917236, -0.887953671407117, -0.1839541999423865, 0.4201093367027972,0.034746030047536375,-0.04296875,0.720306396484375,0.6163177490234375
20220119-1822,2022-01-19 18:22:30Z,u01, 207,40,movements,el-ex, rt, d,234577.9984192917, -2.984647316687595, -0.8600238296539366, -2.6597900341190615, -0.003097193781286478, 0.3038833737373352, -0.1484338790178299, -0.10197439789772034, 0.7578580975532532, 0.6444011330604553, 0.05758655071258545, -0.0423429012298584, -0.06084376573562622, -0.8877934460391887, -0.18445420709257285, 0.4205975440741422,0.029954925168053426,-0.0443878173828125,0.71551513671875,0.58355712890625
20220119-1822,2022-01-19 18:22:30Z,u01, 208,40,movements,el-ex, rt, d,234578.02336529168, -2.9742924237033637, -0.8608827390853518, -2.6547246861878864, 0.11431728303432465, 0.23621238768100739, -0.10979121923446655, -0.10853306204080582, 0.7584182024002075, 0.6426684856414795, 0.035107746720314026, -0.05782616138458252, -0.09777688980102539, -0.8873067538608542, -0.1844476958295475, 0.42185522107903917,0.02653387979285811,-0.0674591064453125,0.706817626953125,0.552490234375
20220119-1822,2022-01-19 18:22:30Z,u01, 209,40,movements,el-ex, rt, d,234578.04831129167, -2.965980757813912, -0.8636559690646951, -2.6517994474438678, 0.10078639537096024, 0.2370978146791458, -0.026022881269454956, -0.11350301653146744, 0.7602227926254272, 0.6396709084510803, 0.028908222913742065, -0.08178633451461792, -0.05745631456375122, -0.8866079982180131, -0.18374358564318413, 0.42378934347253555,0.023817814071675228,-0.0845947265625,0.678436279296875,0.58221435546875
20220119-1822,2022-01-19 18:22:30Z,u01, 210,40,movements,el-ex, rt, d,234578.0732572917, -2.961970368864845, -0.8645426541145638, -2.652031607592491, -0.04298735409975052, 0.1194341629743576, 0.037972480058670044, -0.1159469410777092, 0.7607985138893127, 0.6385470032691956, 0.08170618116855621, -0.06237310171127319, -0.051205575466156006, -0.8865045562065471, -0.1827106623971632, 0.42454448664284733,0.022104040365914165,-0.026885986328125,0.687286376953125,0.578521728515625
20220119-1822,2022-01-19 18:22:30Z,u01, 211,40,movements,el-ex, rt, d,234578.09820329168, -2.9613406779225233, -0.8632359897012367, -2.65366621562508, -0.05055845528841019, 0.0222889743745327, 0.026766162365674973, -0.11652713268995285, 0.7599498629570007, 0.6394513845443726, 0.035808101296424866, -0.0023050904273986816, -0.05400198698043823, -0.8869118373980296, -0.1819700008543984, 0.42405221045556263,0.021311265390881226,-0.080718994140625,0.7576446533203125,0.58544921875
20220119-1822,2022-01-19 18:22:30Z,u01, 212,40,movements,el-ex, rt, d,234578.12315029168, -2.963073605432711, -0.8635293178381042, -2.6555137995310782, 0.08469730615615845, -0.06463354080915451, 0.07613198459148407, -0.1153792291879654, 0.7601404786109924, 0.6394328474998474, -0.004387035965919495, -0.03171640634536743, -0.11060881614685059, -0.8870046043882511, -0.18149171831719627, 0.4240420742488166,0.021725379223996658,-0.11773681640625,0.7379913330078125,0.5354766845703125
20220119-1822,2022-01-19 18:22:31Z,u01, 213,40,movements,el-ex, rt, d,234578.14809629167, -2.9690443894073972, -0.8685380872316557, -2.6592865373623775, 0.2567161023616791, -0.17288751900196075, 0.18140894174575806, -0.11090411990880966, 0.7633854150772095, 0.6363511085510254, 0.009463682770729065, -0.0732458233833313, -0.15943771600723267, -0.8863089919147393, -0.18064311475842068, 0.4257212487816814,0.02420324395955989,-0.1014404296875,0.6901397705078125,0.4769134521484375
20220119-1822,2022-01-19 18:22:31Z,u01, 214,40,movements,el-ex, rt, d,234578.1730422917, -2.9813780923420614, -0.874526501783586, -2.6672019195234595, 0.09141908586025238, -0.3289632499217987, 0.2908625900745392, -0.10231616348028183, 0.7672399282455444, 0.6331461071968079, 0.08525680750608444, -0.14236199855804443, -0.10841184854507446, -0.8856877084105649, -0.17924933508918933, 0.4273194331903174,0.028721909200025528,-0.0298004150390625,0.6287994384765625,0.5125885009765625
20220119-1822,2022-01-19 18:22:31Z,u01, 215,40,movements,el-ex, rt, d,234578.19798829168, -3.001343298720876, -0.875226233096458, -2.6801475503961054, -0.08323926478624344, -0.4652326703071594, 0.3659176826477051, -0.0895807147026062, 0.767688512802124, 0.6345312595367432, 0.09519591182470322, -0.08884012699127197, -0.10779780149459839, -0.8863873755219511, -0.17771619388701015, 0.4260483465511558,0.0348891835227019,0.005615234375,0.6788482666015625,0.5267333984375
20220119-1822,2022-01-19 18:22:31Z,u01, 216,40,movements,el-ex, rt, d,234578.22293429167, -3.0253903080814672, -0.8758719672187703, -2.695445641526535, 0.06736945360898972, -0.5071641206741333, 0.41154488921165466, -0.07424017786979675, 0.7681021094322205, 0.6360088586807251, 0.05956120789051056, -0.011342644691467285, -0.1144024133682251, -0.8871467513723571, -0.17599736753204342, 0.42449977395047717,0.04237264452624387,-0.011444091796875,0.7519073486328125,0.528778076171875
20220119-1822,2022-01-19 18:22:31Z,u01, 217,40,movements,el-ex, rt, d,234578.24788129167, -3.0507068969194666, -0.8819950414705704, -2.711941754767512, 0.28864017128944397, -0.5025461316108704, 0.4700033664703369, -0.05768859386444092, 0.77200847864151, 0.6329888105392456, 0.028071261942386627, -0.01810234785079956, -0.06478196382522583, -0.8867605472163795, -0.17363791242421997, 0.4253572354464684,0.050762120979638614,-0.0296173095703125,0.75390625,0.568206787109375
20220119-1822,2022-01-19 18:22:31Z,u01, 218,40,movements,el-ex, rt, d,234578.2728272917, -3.0786778333631886, -0.8909395894696279, -2.73107557948772, 0.288920521736145, -0.5476803183555603, 0.524071455001831, -0.03952731564640999, 0.7776628136634827, 0.6274380087852478, 0.0436319075524807, -0.049238622188568115, -0.014492332935333252, -0.8857904567298084, -0.17057044889551512, 0.4274131878135492,0.05999206715662908,-0.0023345947265625,0.725921630859375,0.6135711669921875
20220119-1822,2022-01-19 18:22:31Z,u01, 219,40,movements,el-ex, rt, d,234578.29777329168, -3.1105610197627795, -0.8971560428236701, -2.7530877048498503, 0.14325359463691711, -0.6285192370414734, 0.5898188352584839, -0.01935552805662155, 0.7815558910369873, 0.62353515625, 0.04958316683769226, -0.047119855880737305, -0.03598010540008545, -0.885310215332658, -0.16731229384783167, 0.4281754204342835,0.06998817661291115,0.0302276611328125,0.73443603515625,0.587554931640625
20220119-1822,2022-01-19 18:22:31Z,u01, 220,40,movements,el-ex, rt, d,234578.32271929167, 3.13690473096384, -0.900810036419321, -2.777440852280255, 0.1811787337064743, -0.6944409608840942, 0.6122298240661621, 0.002911074087023735, 0.7838301658630371, 0.6209686398506165, 0.04931974411010742, -0.02018880844116211, -0.05009150505065918, -0.8852021688479568, -0.16401654861444206, 0.4277508543838718,0.08090101718908671,0.0523834228515625,0.757049560546875,0.5639801025390625
20220119-1822,2022-01-19 18:22:31Z,u01, 221,40,movements,el-ex, rt, d,234578.3476659167, 3.0996568032066856, -0.9068148226592019, -2.802951221959578, 0.3340916335582733, -0.6762281060218811, 0.6389608979225159, 0.025835707783699036, 0.787544846534729, 0.6157156825065613, 0.02247360348701477, 0.011832594871520996, -0.018242478370666504, -0.8843618036463893, -0.1605055599998551, 0.42849606634905263,0.09237605495781102,0.048309326171875,0.79937744140625,0.59747314453125
20220119-1822,2022-01-19 18:22:31Z,u01, 222,40,movements,el-ex, rt, d,234578.37261191668, 3.060513441170738, -0.9154159038843623, -2.8308094793175314, 0.3809703290462494, -0.6931540966033936, 0.6773306131362915, 0.04936052858829498, 0.792816162109375, 0.607459306716919, 0.030549712479114532, -0.036804020404815674, -0.02077382802963257, -0.8827591365096911, -0.15641593757059816, 0.43058316988191114,0.10425305315675196,0.073150634765625,0.760406494140625,0.593902587890625
20220119-1822,2022-01-19 18:22:31Z,u01, 223,40,movements,el-ex, rt, d,234578.39755891668, 3.018272970977113, -0.9225407754611188, -2.8612316426122772, 0.2668810486793518, -0.744552493095398, 0.7198294401168823, 0.07427148520946503, 0.7971382737159729, 0.5992117524147034, 0.027596183121204376, -0.06131356954574585, -0.01862996816635132, -0.8811867102044039, -0.15203900397406703, 0.43217260917676226,0.11670947250702125,0.10186767578125,0.7358245849609375,0.5805816650390625
20220119-1822,2022-01-19 18:22:31Z,u01, 224,40,movements,el-ex, rt, d,234578.42250491667, 2.9743845245180727, -0.9226876335438957, -2.892006552274417, -0.048525262624025345, -0.7823966145515442, 0.7271895408630371, 0.10047053545713425, 0.7972269654273987, 0.5952607989311218, 0.06908514350652695, -0.018525004386901855, -0.00811767578125, -0.8807614505348227, -0.14795160284269654, 0.43083989473052337,0.12940929733237078,0.1565399169921875,0.761260986328125,0.5839691162109375
20220119-1822,2022-01-19 18:22:31Z,u01, 225,40,movements,el-ex, rt, d,234578.4474509167, 2.931295555307926, -0.9183662989412986, -2.9206608500244786, 0.026072543114423752, -0.8246558904647827, 0.6837570667266846, 0.12673646211624146, 0.794610857963562, 0.5937439203262329, 0.07249754667282104, 0.043050944805145264, -0.01259756088256836, -0.8809022173333962, -0.14451040042142413, 0.42770967525980724,0.14210059269475833,0.1992340087890625,0.8376617431640625,0.581146240234375
20220119-1822,2022-01-19 18:22:31Z,u01, 226,40,movements,el-ex, rt, d,234578.47239691668, 2.887960586280092, -0.9180694222761417, -2.9496592429787247, 0.26687684655189514, -0.7806618809700012, 0.6930714249610901, 0.1523984670639038, 0.7944305539131165, 0.5879244208335876, 0.011664032936096191, 0.031115710735321045, -0.03175663948059082, -0.8798200950677102, -0.1409921886326144, 0.4266380534475481,0.15497698895656395,0.16802978515625,0.8408355712890625,0.5579833984375
20220119-1822,2022-01-19 18:22:31Z,u01, 227,40,movements,el-ex, rt, d,234578.49734291667, 2.8436834734864678, -0.9214193122664041, -2.9815667012773712, 0.36003759503364563, -0.7290867567062378, 0.7031358480453491, 0.1774900108575821, 0.7964606881141663, 0.5780551433563232, -0.002929478883743286, 0.01350635290145874, 0.010125398635864258, -0.8777110182734127, -0.13656848763389245, 0.42762938471975886,0.16764709692520852,0.174560546875,0.809967041015625,0.5881805419921875
20220119-1822,2022-01-19 18:22:31Z,u01, 228,40,movements,el-ex, rt, d,234578.52228991667, 2.799949565707622, -0.9221235884404455, -3.0133480721879606, 0.1335403472185135, -0.7329623103141785, 0.7260972261428833, 0.20240499079227448, 0.7968863248825073, 0.5692142844200134, 0.06387615203857422, -0.011073827743530273, 0.036407291889190674, -0.8758859889263948, -0.13202600589428076, 0.4277674957429436,0.18002220629708246,0.253692626953125,0.7863616943359375,0.59844970703125
20220119-1822,2022-01-19 18:22:31Z,u01, 229,40,movements,el-ex, rt, d,234578.5472359167, 2.758532498801129, -0.9167520748890533, -3.041380478666267, -0.009677265770733356, -0.7868899703025818, 0.6940580606460571, 0.22739651799201965, 0.7936297655105591, 0.5643078088760376, 0.06955480575561523, 0.020747244358062744, 0.023872971534729004, -0.8750503881352629, -0.12822134511164593, 0.42530565465326386,0.1922535291939254,0.2969512939453125,0.8143768310546875,0.5881805419921875
20220119-1822,2022-01-19 18:22:31Z,u01, 230,40,movements,el-ex, rt, d,234578.57218191668, 2.7177215337326106, -0.9113434623260085, -3.068277149405422, 0.13018442690372467, -0.760887622833252, 0.6702846884727478, 0.25199222564697266, 0.7903275489807129, 0.558463990688324, 0.014029443264007568, 0.05284243822097778, 0.0135117769241333, -0.8738917550675614, -0.12468040805561947, 0.42300768760868607,0.20452976928219574,0.2724151611328125,0.839202880859375,0.573211669921875
20220119-1822,2022-01-19 18:22:31Z,u01, 231,40,movements,el-ex, rt, d,234578.59712791667, 2.6777621055981515, -0.9081154674439638, -3.09565059846844, 0.17857946455478668, -0.708320140838623, 0.6602002382278442, 0.27524101734161377, 0.7883456945419312, 0.5502303242683411, 0.0035675466060638428, 0.03808552026748657, 0.019929587841033936, -0.8720690733202706, -0.12087473917150587, 0.422016144352775,0.21630350177744623,0.27880859375,0.8264312744140625,0.570159912109375
20220119-1822,2022-01-19 18:22:31Z,u01, 232,40,movements,el-ex, rt, d,234578.6220739167, 2.639424454297961, -0.9034583581156951, -3.121805577545324, 0.08213338255882263, -0.6949166655540466, 0.6585906744003296, 0.2978919446468353, 0.7854719758033752, 0.5424885749816895, 0.03224712610244751, 0.01013648509979248, 0.018271803855895996, -0.8703668005740858, -0.11707229550886289, 0.4206020333840453,0.22770493386850507,0.3267364501953125,0.7990570068359375,0.5642852783203125
20220119-1822,2022-01-19 18:22:31Z,u01, 233,40,movements,el-ex, rt, d,234578.64701991668, 2.602836032107797, -0.8967157093425915, 3.1364629108217836, 0.1187746524810791, -0.677579939365387, 0.6526590585708618, 0.32024723291397095, 0.7812811136245728, 0.5357627272605896, 0.029270589351654053, 0.0004571676254272461, 0.025577664375305176, -0.8689542899864355, -0.11313629100542721, 0.4184669883757665,0.23875526929968507,0.349517822265625,0.78173828125,0.56134033203125
20220119-1822,2022-01-19 18:22:31Z,u01, 234,40,movements,el-ex, rt, d,234578.67196691668, 2.566856595187357, -0.8918766551631192, 3.111887952518897, 0.16530969738960266, -0.6660091876983643, 0.6416333913803101, 0.34136325120925903, 0.778251588344574, 0.5270629525184631, 0.03795492649078369, 0.03090667724609375, 0.01398313045501709, -0.8669298076655587, -0.10938090040570281, 0.4173703923560747,0.24954036609972652,0.3722686767578125,0.818023681640625,0.55084228515625
20220119-1822,2022-01-19 18:22:31Z,u01, 235,40,movements,el-ex, rt, d,234578.69691291667, 2.5322027902989093, -0.8856390202025883, 3.0889887855485605, 0.049115411937236786, -0.6763306260108948, 0.5829841494560242, 0.3621910810470581, 0.7743195295333862, 0.5188902020454407, 0.016699880361557007, 0.00918877124786377, 0.0369112491607666, -0.8650109689396818, -0.10583531791169187, 0.4157392491944674,0.26022264315045074,0.3788909912109375,0.78350830078125,0.5558013916015625
20220119-1822,2022-01-19 18:22:31Z,u01, 236,40,movements,el-ex, rt, d,234578.7218589167, 2.5005771154229794, -0.8770478586217068, 3.069503018790188, -0.026849927380681038, -0.6566714644432068, 0.6064372658729553, 0.3823816180229187, 0.768854558467865, 0.5124910473823547, 0.019702762365341187, -0.0024513602256774902, 0.006460428237915039, -0.8635360441423161, -0.102718170441161, 0.4129982057192587,0.2705309536781375,0.3986358642578125,0.7738800048828125,0.52459716796875
20220119-1822,2022-01-19 18:22:31Z,u01, 237,40,movements,el-ex, rt, d,234578.74680491668, 2.469744631901628, -0.8677341046281419, 3.050896497678388, 0.05185996741056442, -0.659372866153717, 0.6255870461463928, 0.4024386703968048, 0.7628658413887024, 0.50604248046875, 0.011394917964935303, -0.020815670490264893, -0.0035399794578552246, -0.8620331214871638, -0.09959990238166774, 0.41003676749089846,0.2808000615491982,0.4138336181640625,0.7420501708984375,0.50250244140625
20220119-1822,2022-01-19 18:22:31Z,u01, 238,40,movements,el-ex, rt, d,234578.77175091667, 2.4362795602787544, -0.8608360912448989, 3.0285425147819036, 0.21299129724502563, -0.6538218259811401, 0.612824022769928, 0.4225460886955261, 0.7583878040313721, 0.4962887763977051, 0.027420252561569214, 0.015293717384338379, 0.02284577488899231, -0.8596426132124593, -0.09570246736823812, 0.40868031273408406,0.2912661121546476,0.439239501953125,0.7594146728515625,0.5174102783203125
20220119-1822,2022-01-19 18:22:31Z,u01, 239,40,movements,el-ex, rt, d,234578.79669791667, 2.402345208042539, -0.8534539010340786, 3.0061072518172307, 0.07450103014707565, -0.7245371341705322, 0.6257216930389404, 0.44290095567703247, 0.753555417060852, 0.4857912063598633, 0.05421513319015503, 0.005111575126647949, 0.01851189136505127, -0.8570195417713379, -0.09172301835292088, 0.40731666516526654,0.30198936663585985,0.4971160888671875,0.7586669921875,0.504302978515625
20220119-1822,2022-01-19 18:22:31Z,u01, 240,40,movements,el-ex, rt, d,234578.8216439167, 2.3715125149992486, -0.8429599808489654, 2.9880886826335185, 0.012325105257332325, -0.6838887929916382, 0.6514371037483215, 0.46314626932144165, 0.7466155290603638, 0.47755712270736694, 0.029041171073913574, -0.03764641284942627, -0.016695797443389893, -0.8549679654903298, -0.08836476910370128, 0.4043204464154173,0.3126442460290737,0.4891815185546875,0.709197998046875,0.4676055908203125
20220119-1822,2022-01-19 18:22:31Z,u01, 241,40,movements,el-ex, rt, d,234578.84658991668, 2.340158392099572, -0.833084227870964, 2.9682860608733326, 0.22181884944438934, -0.6677065491676331, 0.6857040524482727, 0.4831629693508148, 0.7400093078613281, 0.46791017055511475, 0.007208704948425293, 0.009853363037109375, -0.019988298416137695, -0.8525483292516843, -0.08435893938772324, 0.40202364759305625,0.32314388323846566,0.4903717041015625,0.7498626708984375,0.4479217529296875
20220119-1822,2022-01-19 18:22:31Z,u01, 242,40,movements,el-ex, rt, d,234578.87153591667, 2.303392920781891, -0.8258696354628929, 2.9413463738595134, 0.39526915550231934, -0.6916245222091675, 0.6931629776954651, 0.503991425037384, 0.7351375818252563, 0.45339301228523254, 0.02951681613922119, -0.010955512523651123, 0.005209982395172119, -0.8488099536452877, -0.07885536725620493, 0.4019901553469174,0.33422652888928417,0.5264129638671875,0.7317352294921875,0.452728271484375
20220119-1822,2022-01-19 18:22:31Z,u01, 243,40,movements,el-ex, rt, d,234578.8964819167, 2.267847725503542, -0.8171186378133899, 2.9165613225284543, 0.13609755039215088, -0.7261784076690674, 0.698382556438446, 0.5246981978416443, 0.7291770577430725, 0.4393090009689331, 0.04260820150375366, -0.01694267988204956, 0.021872669458389282, -0.8451194219903234, -0.07367266069283729, 0.4012938115441593,0.34541091894041664,0.5673065185546875,0.7122344970703125,0.461181640625
20220119-1822,2022-01-19 18:22:31Z,u01, 244,40,movements,el-ex, rt, d,234578.92142791668, 2.2378702578718257, -0.8034994981025448, 2.8999952216779836, -0.06644607335329056, -0.7178141474723816, 0.7254352569580078, 0.5453817844390869, 0.7197898030281067, 0.4294895529747009, 0.06251305341720581, -0.020479559898376465, -0.017547905445098877, -0.8425463932363941, -0.06971620557808703, 0.39764849238908256,0.3565541949688704,0.6037139892578125,0.6935272216796875,0.4150543212890625
20220119-1822,2022-01-19 18:22:31Z,u01, 245,40,movements,el-ex, rt, d,234578.94637491668, 2.209149421627649, -0.7890689094316184, 2.885168547511232, 0.03480185195803642, -0.7031641006469727, 0.7281911373138428, 0.5657740235328674, 0.7096976041793823, 0.41979703307151794, 0.03758913278579712, 0.023487389087677002, -0.011425882577896118, -0.8399716707207902, -0.06592504917181963, 0.39359654874179895,0.36767298773370755,0.603363037109375,0.733184814453125,0.4083709716796875
20220119-1822,2022-01-19 18:22:31Z,u01, 246,40,movements,el-ex, rt, d,234578.9713209167, 2.1782750410010734, -0.775982325911303, 2.8664628130292016, 0.1908385008573532, -0.7185922861099243, 0.7101070284843445, 0.5860391855239868, 0.7004175186157227, 0.4073983430862427, 0.018132567405700684, 0.02393239736557007, -0.006916075944900513, -0.836639029323171, -0.0611089554876052, 0.39092301557577064,0.3787875850144965,0.6002960205078125,0.7244720458984375,0.4083099365234375
20220119-1822,2022-01-19 18:22:31Z,u01, 247,40,movements,el-ex, rt, d,234578.99626691669, 2.1475320684433545, -0.7634900608215511, 2.8475720295197706, 0.11774356663227081, -0.7149331569671631, 0.730219304561615, 0.6055727005004883, 0.6914469599723816, 0.39393287897109985, 0.02283000946044922, 0.009755492210388184, -0.006924033164978027, -0.832949445763567, -0.05622866208161614, 0.38874886412167975,0.38975375355499775,0.6284027099609375,0.701202392578125,0.3870086669921875
20220119-1822,2022-01-19 18:22:31Z,u01, 248,40,movements,el-ex, rt, d,234579.02121291668, 2.1193379572119544, -0.7492197623364484, 2.8328455361512463, 0.0005403514951467514, -0.7354912757873535, 0.7136043310165405, 0.6247936487197876, 0.6810676455497742, 0.3818116784095764, 0.04616588354110718, 0.0038994550704956055, 0.007669031620025635, -0.8295761150610285, -0.05205099341354022, 0.38534653073339686,0.40075225096390915,0.6581573486328125,0.6870880126953125,0.389312744140625
20220119-1822,2022-01-19 18:22:31Z,u01, 249,40,movements,el-ex, rt, d,234579.0461589167, 2.0934877827838974, -0.7343552142019588, 2.8214045804260395, -0.02174368128180504, -0.7139788269996643, 0.6707111597061157, 0.6431553363800049, 0.6701086759567261, 0.3705482482910156, 0.026034176349639893, 0.0314599871635437, 0.011379390954971313, -0.8263898705359356, -0.0485170535084094, 0.3812832109777493,0.41152053490895907,0.669189453125,0.701568603515625,0.381927490234375
20220119-1822,2022-01-19 18:22:31Z,u01, 250,40,movements,el-ex, rt, d,234579.0711049167, 2.0687536711039294, -0.719997030425827, 2.8103184754019463, 0.061927977949380875, -0.7084726095199585, 0.6361479759216309, 0.6605083346366882, 0.6593824625015259, 0.35908743739128113, 0.024489223957061768, 0.03988206386566162, 0.004392385482788086, -0.8231189878558086, -0.0449316307461641, 0.37751249499044653,0.42183015881313035,0.6826934814453125,0.6940765380859375,0.37078857421875
20220119-1822,2022-01-19 18:22:31Z,u01, 251,40,movements,el-ex, rt, d,234579.09605191668, 2.0435177211779845, -0.7064910020597708, 2.7977925008141993, 0.10967326164245605, -0.685784101486206, 0.6302226781845093, 0.677226722240448, 0.6491686701774597, 0.34632986783981323, 0.017963767051696777, 0.032929837703704834, 0.02252092957496643, -0.8194426675922013, -0.040971224603100764, 0.37450681131673236,0.43194891706067606,0.6951904296875,0.682098388671875,0.3688507080078125
20220119-1822,2022-01-19 18:22:31Z,u01, 252,40,movements,el-ex, rt, d,234579.12099791667, 2.01889509967931, -0.6929647085536873, 2.786306106193452, 0.018581703305244446, -0.688844621181488, 0.5960516333580017, 0.6933990120887756, 0.6388208866119385, 0.33332547545433044, 0.017980992794036865, 0.014178991317749023, 0.012499809265136719, -0.815645077176534, -0.03722696765374117, 0.3714306731829513,0.44201425737081673,0.7116241455078125,0.6552276611328125,0.347320556640625
