SessionID,LoggingTime,UID,RecNo,Hertz,Activity,MoveType,Wrist,Side,TimeStamp,DMRoll,DMPitch,DMYaw,DMRotX,DMRotY,DMRotZ,DMGrvX,DMGrvY,DMGrvZ,DMUAccelX,DMUAccelY,DMUAccelZ,DMQuatX,DMQuatY,DMQuatW,DMQuatZ,AccelroX,AceelroY,AceelroZ
20220119-1341,2022-01-19 13:41:38Z,u01, 1,40,movements,el-ex, rt, d,230667.39123862502, 1.715245417496878, -0.4333747592752898, 2.7652234585562243, 0.002061747945845127, 0.27024397253990173, -0.2995607852935791, 0.8981020450592041, 0.4199359714984894, 0.130639910697937, -0.029709041118621826, 0.08302426338195801, 0.08199143409729004, -0.7518776204887663, 0.0, 0.27925818769522404,0.5972395023167218,0.870361328125,0.510498046875,0.2117462158203125
20220119-1341,2022-01-19 13:41:38Z,u01, 2,40,movements,el-ex, rt, d,230667.41618362503, 1.7241199288332965, -0.4416241993427252, 2.7677192092465464, -0.05532994121313095, 0.3515947163105011, -0.3717426359653473, 0.8934532999992371, 0.4274083971977234, 0.13807110488414764, -0.016332149505615234, 0.07054701447486877, 0.06514562666416168, -0.7543406238351797, -0.002403738744227668, 0.28140938456621756,0.5931048561200298,0.8771209716796875,0.497955322265625,0.203216552734375
20220119-1341,2022-01-19 13:41:38Z,u01, 3,40,movements,el-ex, rt, d,230667.44112962502, 1.7349383310622224, -0.45167736395956504, 2.769614279302416, 0.05237944796681404, -0.009243715554475784, -0.14097130298614502, 0.887623131275177, 0.43647530674934387, 0.14701898396015167, 0.1702534556388855, 0.06007620692253113, 0.018096551299095154, -0.757288421401028, -0.004871906438156659, 0.28440093818488166,0.5878832083709434,0.7279815673828125,0.54901123046875,0.2648468017578125
20220119-1341,2022-01-19 13:41:38Z,u01, 4,40,movements,el-ex, rt, d,230667.466075625, 1.7469954552275107, -0.4640258677068631, 2.7730596234351403, -0.13106393814086914, 0.4527437388896942, -0.5672095417976379, 0.8804123997688293, 0.4475518763065338, 0.15675345063209534, -0.00831151008605957, 0.07439029216766357, 0.0624544620513916, -0.7604637697533805, -0.008460699286515772, 0.2877865545058921,0.5820672611636748,0.872100830078125,0.521942138671875,0.219207763671875
20220119-1341,2022-01-19 13:41:38Z,u01, 5,40,movements,el-ex, rt, d,230667.49102162503, 1.7627201830813928, -0.47756148020424866, 2.7815845621866666, -0.23133888840675354, 0.5133639574050903, -0.6244730949401855, 0.8718116879463196, 0.4596148431301117, 0.16940660774707794, 0.00195235013961792, 0.0681408941745758, 0.08584259450435638, -0.7645344954135321, -0.013795285058049334, 0.29020232460981965,0.5753949395501003,0.87420654296875,0.523345947265625,0.2521820068359375
20220119-1341,2022-01-19 13:41:38Z,u01, 6,40,movements,el-ex, rt, d,230667.51596762502, 1.7815744595262586, -0.4924410339534411, 2.7905331703924414, -0.13135449588298798, 0.6546526551246643, -0.6700578927993774, 0.8616796731948853, 0.4727782905101776, 0.18436159193515778, 0.023818492889404297, 0.06933599710464478, 0.06997203826904297, -0.7692928393341989, -0.01921772072183381, 0.2931076426674831,0.567368715351016,0.885498046875,0.5421142578125,0.25433349609375
20220119-1341,2022-01-19 13:41:38Z,u01, 7,40,movements,el-ex, rt, d,230667.540913625, 1.8021770415663925, -0.509101935050688, 2.7967991142631763, -0.014480110257863998, 0.7493370175361633, -0.7257214784622192, 0.8499129414558411, 0.48739326000213623, 0.20023970305919647, 0.016923606395721436, 0.02710258960723877, 0.03924703598022461, -0.7743071462594244, -0.02383890468055666, 0.29754981198730207,0.5579823748279279,0.8715667724609375,0.5222625732421875,0.244384765625
20220119-1341,2022-01-19 13:41:38Z,u01, 8,40,movements,el-ex, rt, d,230667.565859625, 1.8235803211692514, -0.5273609772590824, 2.8021416166995117, -0.01923668384552002, 0.7241213321685791, -0.779274046421051, 0.8366757035255432, 0.5032545924186707, 0.21612133085727692, 0.026208698749542236, 0.00995945930480957, 0.00857970118522644, -0.7792659851665008, -0.02837586103934142, 0.30295316809803635,0.5478673925098851,0.862884521484375,0.513214111328125,0.224700927734375
20220119-1341,2022-01-19 13:41:38Z,u01, 9,40,movements,el-ex, rt, d,230667.59080562502, 1.845039982643383, -0.5453887962423122, 2.81011192271102, -0.12083441019058228, 0.6741271615028381, -0.7579202651977539, 0.8229773044586182, 0.5187505483627319, 0.2315300554037094, 0.022985100746154785, 0.011141419410705566, 0.023658007383346558, -0.7839811644093289, -0.03374252806866407, 0.3076833594011994,0.5381132790562194,0.8501434326171875,0.5286407470703125,0.2538299560546875
20220119-1341,2022-01-19 13:41:38Z,u01, 10,40,movements,el-ex, rt, d,230667.615751625, 1.866332265878509, -0.5622709207814539, 2.8188380220968745, -0.05685919150710106, 0.6755244135856628, -0.7123344540596008, 0.8093674182891846, 0.5331088900566101, 0.24641332030296326, 0.036625683307647705, 0.011523127555847168, 0.0008707046508789062, -0.7884715134690528, -0.038978661481902044, 0.31192951326656015,0.5286713731637445,0.8459930419921875,0.5446319580078125,0.247283935546875
20220119-1341,2022-01-19 13:41:38Z,u01, 11,40,movements,el-ex, rt, d,230667.640697625, 1.8866488144751694, -0.5792344375648796, 2.825469360547865, 0.043746378272771835, 0.6617702841758728, -0.7301536798477173, 0.7954830527305603, 0.5473834276199341, 0.25995805859565735, 0.028934061527252197, 0.023341059684753418, -0.008386284112930298, -0.7925213070812434, -0.04346274575818926, 0.3168670054121621,0.519245902312839,0.8325653076171875,0.566436767578125,0.2487030029296875
20220119-1341,2022-01-19 13:41:38Z,u01, 12,40,movements,el-ex, rt, d,230667.66564362502, 1.906317538296211, -0.597385410984017, 2.8308840729212013, 0.049302298575639725, 0.6771628856658936, -0.7616998553276062, 0.780705451965332, 0.5624826550483704, 0.27223634719848633, 0.021693289279937744, -0.00045561790466308594, 0.0028949975967407227, -0.796136207688344, -0.04780499328579013, 0.3226532312209053,0.5096830822213557,0.802398681640625,0.5620269775390625,0.2751312255859375
20220119-1341,2022-01-19 13:41:38Z,u01, 13,40,movements,el-ex, rt, d,230667.690588625, 1.9280791442507978, -0.6152221954553885, 2.839145732456835, -0.08242902904748917, 0.6910708546638489, -0.7621188759803772, 0.7650746703147888, 0.5771399736404419, 0.2856053411960602, 0.028275609016418457, 0.0018090009689331055, 0.015435457229614258, -0.8000138789664875, -0.05273005985173751, 0.3277658854623994,0.4997668947684047,0.7879791259765625,0.5732879638671875,0.2983245849609375
20220119-1341,2022-01-19 13:41:38Z,u01, 14,40,movements,el-ex, rt, d,230667.71553462502, 1.952103497196454, -0.6316980155515667, 2.85050643457665, -0.12114357203245163, 0.6974093317985535, -0.7464912533760071, 0.7490646243095398, 0.5905159711837769, 0.30032187700271606, 0.04968726634979248, 0.00887984037399292, -0.0006086826324462891, -0.8042356594222946, -0.058016771757564756, 0.3318068250341637,0.4896359108329055,0.7987518310546875,0.599395751953125,0.299713134765625
20220119-1341,2022-01-19 13:41:38Z,u01, 15,40,movements,el-ex, rt, d,230667.740480625, 1.9765040054552199, -0.6482136052129983, 2.861882263921901, -0.03822771832346916, 0.7172151803970337, -0.7642716765403748, 0.7324525713920593, 0.6037633419036865, 0.3146158754825592, 0.0474088191986084, 0.03211617469787598, 0.005467861890792847, -0.8082825837213363, -0.06314427053412358, 0.3360382321488124,0.47934372647544404,0.7855377197265625,0.6311798095703125,0.3148040771484375
20220119-1341,2022-01-19 13:41:38Z,u01, 16,40,movements,el-ex, rt, d,230667.765426625, 2.0002045906073644, -0.66647722912901, 2.871031874054996, 0.0919518917798996, 0.7400203943252563, -0.8140106797218323, 0.714644730091095, 0.6182209253311157, 0.32723939418792725, 0.041901230812072754, 0.015278100967407227, 0.0004889369010925293, -0.8117987570482296, -0.0678415765457216, 0.3416025364455979,0.4687087895319117,0.7565460205078125,0.6334991455078125,0.327728271484375
20220119-1341,2022-01-19 13:41:38Z,u01, 17,40,movements,el-ex, rt, d,230667.79037262502, 2.024679293122271, -0.685782987021463, 2.880015135055874, 0.009257642552256584, 0.7763575315475464, -0.817736804485321, 0.695564866065979, 0.6332792043685913, 0.33933350443840027, 0.049460768699645996, 0.002997100353240967, 0.016227006912231445, -0.8151168533128006, -0.07246560640181365, 0.3477789513077844,0.4575840319123436,0.7450714111328125,0.640380859375,0.34832763671875
20220119-1341,2022-01-19 13:41:38Z,u01, 18,40,movements,el-ex, rt, d,230667.815318625, 2.0530585344911914, -0.7025176855638106, 2.8942811222031475, -0.1405947059392929, 0.761508047580719, -0.785086452960968, 0.676171600818634, 0.6461412906646729, 0.3539687991142273, 0.06375765800476074, -0.0028306245803833008, 0.011357337236404419, -0.8191112233556058, -0.07772519580247778, 0.35208048890414634,0.44615594007610887,0.73992919921875,0.643310546875,0.365325927734375
20220119-1341,2022-01-19 13:41:38Z,u01, 19,40,movements,el-ex, rt, d,230667.840264625, 2.082854820666568, -0.71849757067072, 2.910019741906153, -0.07286752015352249, 0.8051265478134155, -0.7962547540664673, 0.6562402844429016, 0.6582543849945068, 0.3688493072986603, 0.06708729267120361, 0.013712108135223389, 0.006852686405181885, -0.8231254157484384, -0.08300122778834501, 0.3560342015738081,0.4345284687138383,0.724609375,0.67071533203125,0.373779296875
20220119-1341,2022-01-19 13:41:38Z,u01, 20,40,movements,el-ex, rt, d,230667.86521062502, 2.1126261989972672, -0.7359590080889887, 2.9238646129304127, 0.01790129765868187, 0.8459307551383972, -0.8295921683311462, 0.6350246071815491, 0.6712982654571533, 0.3822338581085205, 0.07476848363876343, 0.002865612506866455, -0.0025339126586914062, -0.8266937075287126, -0.08771793790062138, 0.36119431362500587,0.42240012755306067,0.7097930908203125,0.674163818359375,0.37969970703125
20220119-1341,2022-01-19 13:41:38Z,u01, 21,40,movements,el-ex, rt, d,230667.890156625, 2.1440921741562393, -0.7536700201869905, 2.9387773673771127, -0.013261182233691216, 0.8641600012779236, -0.840344250202179, 0.61259925365448, 0.6843194961547852, 0.3955114483833313, 0.042674243450164795, 0.0016394853591918945, 0.011379539966583252, -0.8301863008840433, -0.09244690384331827, 0.3665177728667468,0.40976714810539117,0.666473388671875,0.6776275634765625,0.40008544921875
20220119-1341,2022-01-19 13:41:38Z,u01, 22,40,movements,el-ex, rt, d,230667.915102625, 2.1772056714961083, -0.7706198817137456, 2.955800893693799, -0.04611819609999657, 0.8566091656684875, -0.8372398018836975, 0.5895522832870483, 0.6965801119804382, 0.40890616178512573, 0.029862940311431885, 0.013792753219604492, 0.008376061916351318, -0.8336490271301475, -0.09737750152714864, 0.3714187844762171,0.3969823966701123,0.619415283203125,0.7103729248046875,0.4172821044921875
20220119-1341,2022-01-19 13:41:38Z,u01, 23,40,movements,el-ex, rt, d,230667.94004862502, 2.2116801597408986, -0.7866050615858792, 2.9748932427737995, -0.09669768810272217, 0.8252388834953308, -0.8270780444145203, 0.5661097764968872, 0.7079596519470215, 0.4222717583179474, 0.041022300720214844, -0.004132568836212158, 0.002411097288131714, -0.8370351238733331, -0.10250894330804339, 0.3758464518852851,0.38419237639909365,0.608367919921875,0.7037506103515625,0.4215240478515625
20220119-1341,2022-01-19 13:41:38Z,u01, 24,40,movements,el-ex, rt, d,230667.964993625, 2.247400449007035, -0.8011602329821113, 2.9960929694942937, -0.14126980304718018, 0.8456051349639893, -0.8268653154373169, 0.5425757765769958, 0.7181639671325684, 0.4357210099697113, 0.0429803729057312, -0.020928621292114258, 0.0077606141567230225, -0.8403810505443099, -0.10779703374750754, 0.37963037712522346,0.37151114883061165,0.5855560302734375,0.697235107421875,0.4434814453125
20220119-1341,2022-01-19 13:41:38Z,u01, 25,40,movements,el-ex, rt, d,230667.98993962503, 2.2858924066780215, -0.81446297336473, 3.0196234013417946, -0.1272079199552536, 0.8790764808654785, -0.8340233564376831, 0.5181465148925781, 0.7273571491241455, 0.44997334480285645, 0.052883148193359375, 0.012495756149291992, 0.023430705070495605, -0.8439149653479636, -0.11311145996564687, 0.3829168913215584,0.35831282686817556,0.5702362060546875,0.73333740234375,0.4726715087890625
20220119-1341,2022-01-19 13:41:38Z,u01, 26,40,movements,el-ex, rt, d,230668.014885375, 2.3239042677068795, -0.8284011707867514, 3.0419666951614355, -0.024200815707445145, 0.8664215207099915, -0.8050294518470764, 0.493227481842041, 0.7368513941764832, 0.4623606204986572, 0.07363665103912354, 0.007442057132720947, 0.0003472566604614258, -0.846913563084402, -0.11797338840402077, 0.3869508918617677,0.34509265729278565,0.566864013671875,0.744293212890625,0.46270751953125
20220119-1341,2022-01-19 13:41:38Z,u01, 27,40,movements,el-ex, rt, d,230668.039831375, 2.361121600899219, -0.8431024535793391, 3.062520281659224, -0.01248030923306942, 0.8672916889190674, -0.8220362663269043, 0.4680089056491852, 0.7467103004455566, 0.47264364361763, 0.04708218574523926, -0.008810341358184814, 0.019483089447021484, -0.849349457882626, -0.1221774391484679, 0.3918380792649767,0.33187544922734385,0.5175933837890625,0.740142822265625,0.4888916015625
20220119-1341,2022-01-19 13:41:38Z,u01, 28,40,movements,el-ex, rt, d,230668.06477737502, 2.401348897948648, -0.8552329867258741, 3.087022774729557, -0.1408330500125885, 0.8985878825187683, -0.7734777331352234, 0.4424799382686615, 0.7547237873077393, 0.4843592643737793, 0.058664470911026, -0.03228110074996948, 0.006561994552612305, -0.8521142929510559, -0.12681036469503282, 0.3954567429007582,0.31848776837039766,0.5011444091796875,0.722442626953125,0.4909210205078125
20220119-1341,2022-01-19 13:41:38Z,u01, 29,40,movements,el-ex, rt, d,230668.08972337501, 2.442432736570633, -0.8656138215313771, 3.1130517346868847, -0.1183163970708847, 0.8497088551521301, -0.7709385752677917, 0.4171479046344757, 0.7614932656288147, 0.49610066413879395, 0.04458308219909668, -0.025302469730377197, -0.009070515632629395, -0.8548488784603143, -0.13146759792205853, 0.39844928119744893,0.30526695723008507,0.469940185546875,0.7439117431640625,0.4852447509765625
20220119-1341,2022-01-19 13:41:38Z,u01, 30,40,movements,el-ex, rt, d,230668.114669375, 2.4828149103367827, -0.875912495276331, 3.137787770241291, -0.057156700640916824, 0.8170607686042786, -0.787094235420227, 0.391958087682724, 0.7681280970573425, 0.5063087940216064, 0.054254770278930664, 0.002425670623779297, -0.03615480661392212, -0.8571938330611403, -0.13554752665596698, 0.401847025785436,0.29217244494625766,0.4462127685546875,0.7705535888671875,0.47015380859375
20220119-1341,2022-01-19 13:41:38Z,u01, 31,40,movements,el-ex, rt, d,230668.13961537502, 2.52265912899114, -0.8850090754560859, -3.1201141827087393, -0.12110209465026855, 0.784593403339386, -0.7787052392959595, 0.3674095869064331, 0.7739207148551941, 0.5158072113990784, 0.048392415046691895, -0.018198668956756592, -0.012709617614746094, -0.8593035555061577, -0.13964603875983883, 0.40488363564860175,0.27958128932448106,0.416748046875,0.7467498779296875,0.4987335205078125
20220119-1341,2022-01-19 13:41:38Z,u01, 32,40,movements,el-ex, rt, d,230668.16456137502, 2.562886611438641, -0.8921393253117313, -3.093811076688422, -0.10886779427528381, 0.7708648443222046, -0.7364435195922852, 0.3433414697647095, 0.7784165143966675, 0.5255329012870789, 0.059688955545425415, -0.020222365856170654, -0.025563180446624756, -0.8614588301602772, -0.14371891085143157, 0.4072210432952769,0.2672166027442952,0.4030303955078125,0.7581939697265625,0.499969482421875
20220119-1341,2022-01-19 13:41:38Z,u01, 33,40,movements,el-ex, rt, d,230668.189507375, 2.6020460614129752, -0.8997644901107195, -3.068269698936038, -0.04206087067723274, 0.7478245496749878, -0.670355498790741, 0.3194449841976166, 0.7831804752349854, 0.5334632992744446, 0.053998589515686035, -0.008690237998962402, -0.03521806001663208, -0.8630973055107665, -0.14763021270813298, 0.41005301525089954,0.2551956881623865,0.38336181640625,0.774169921875,0.49566650390625
20220119-1341,2022-01-19 13:41:38Z,u01, 34,40,movements,el-ex, rt, d,230668.21445237502, 2.639725180580321, -0.9074590482489742, -3.0440709197890956, -0.031217677518725395, 0.7595962882041931, -0.6075490713119507, 0.2962148189544678, 0.7879416942596436, 0.5398191213607788, 0.06164953112602234, -0.03885728120803833, -0.03418856859207153, -0.8643286990583889, -0.15114716098746872, 0.41320995221569545,0.2436144119024002,0.3578643798828125,0.74908447265625,0.5056304931640625
20220119-1341,2022-01-19 13:41:38Z,u01, 35,40,movements,el-ex, rt, d,230668.239398375, 2.675519190234366, -0.9140568189039883, -3.0214953955524755, -0.022144654765725136, 0.689788818359375, -0.5996907949447632, 0.2743648588657379, 0.7919871211051941, 0.5454179048538208, 0.05971109867095947, -0.041315674781799316, -0.02423858642578125, -0.8654222495345016, -0.1541210079593463, 0.41614495294063564,0.23262529172875765,0.336090087890625,0.7592010498046875,0.5221099853515625
20220119-1341,2022-01-19 13:41:38Z,u01, 36,40,movements,el-ex, rt, d,230668.26434437503, 2.71091859579883, -0.9190060482527057, -2.9982610895252404, -0.1431140899658203, 0.6665633916854858, -0.5927236676216125, 0.25325000286102295, 0.7949990630149841, 0.5512179732322693, 0.05169689655303955, -0.021515727043151855, -0.02195143699645996, -0.8665399765572368, -0.15721789688727578, 0.4184344464505352,0.22204444174389515,0.3049468994140625,0.7734832763671875,0.529266357421875
20220119-1341,2022-01-19 13:41:38Z,u01, 37,40,movements,el-ex, rt, d,230668.28929037502, 2.7474601588671157, -0.9202978098031223, -2.973352094656304, -0.19638420641422272, 0.6510670185089111, -0.5879416465759277, 0.2325485795736313, 0.7957820296287537, 0.5591536164283752, 0.056117236614227295, -0.005025625228881836, -0.019907772541046143, -0.8682324848710821, -0.1604654462527233, 0.41920678538165235,0.21139786672123104,0.2878875732421875,0.7864990234375,0.5455322265625
20220119-1341,2022-01-19 13:41:38Z,u01, 38,40,movements,el-ex, rt, d,230668.314236375, 2.7823879053177616, -0.9222531865420049, -2.9495711196873584, -0.0506911426782608, 0.6423814296722412, -0.5373846888542175, 0.21233326196670532, 0.7969646453857422, 0.5654752850532532, 0.06429335474967957, 0.00041407346725463867, -0.03781098127365112, -0.8694687716186666, -0.16359004937827548, 0.4204475444725734,0.201212131593732,0.2766265869140625,0.7973785400390625,0.5276641845703125
20220119-1341,2022-01-19 13:41:38Z,u01, 39,40,movements,el-ex, rt, d,230668.33918237503, 2.814332618449171, -0.9272992415128213, -2.929048559208645, 0.040582574903964996, 0.6189224720001221, -0.5270383358001709, 0.19286879897117615, 0.80000239610672, 0.5681529641151428, 0.029207557439804077, -0.009597182273864746, -0.009696543216705322, -0.869772862052869, -0.16604717111314632, 0.42329739259339205,0.1916842194978748,0.233856201171875,0.790863037109375,0.5453948974609375
20220119-1341,2022-01-19 13:41:39Z,u01, 40,40,movements,el-ex, rt, d,230668.36412837502, 2.846665738253786, -0.9317415473658511, -2.908583727429626, -0.0027824416756629944, 0.6642716526985168, -0.5024144053459167, 0.17336642742156982, 0.8026598691940308, 0.5706853270530701, 0.03163538873195648, -0.02328658103942871, -0.003714263439178467, -0.87007159145794, -0.16827978000548127, 0.426054466581855,0.18203050101461354,0.2050018310546875,0.7793731689453125,0.5669708251953125
20220119-1341,2022-01-19 13:41:39Z,u01, 41,40,movements,el-ex, rt, d,230668.389074375, 2.878719199579508, -0.9347621965476153, -2.888215929906506, -0.0400504507124424, 0.5845164060592651, -0.5164936780929565, 0.15435728430747986, 0.8044578433036804, 0.573604166507721, 0.048172593116760254, -0.012145161628723145, -0.006114482879638672, -0.87049728307683, -0.17040120335178133, 0.42830065382549154,0.17250093058198665,0.2079010009765625,0.7929229736328125,0.567474365234375
20220119-1341,2022-01-19 13:41:39Z,u01, 42,40,movements,el-ex, rt, d,230668.41402037503, 2.9094331420371153, -0.9359779332260308, -2.868093867680011, -0.0951278805732727, 0.5958825945854187, -0.45447099208831787, 0.13644444942474365, 0.8051794171333313, 0.5771214365959167, 0.041976556181907654, -0.013690769672393799, -0.014560282230377197, -0.8710731572153886, -0.1726043722673144, 0.42978254478798894,0.1634817556991302,0.1784210205078125,0.7914886474609375,0.56256103515625
20220119-1341,2022-01-19 13:41:39Z,u01, 43,40,movements,el-ex, rt, d,230668.43896637502, 2.94068966111519, -0.9358242360172039, -2.847996468504879, -0.11066916584968567, 0.6020755171775818, -0.4642886817455292, 0.11836662888526917, 0.805088222026825, 0.5812249183654785, 0.03383978456258774, -0.002231776714324951, 0.02753978967666626, -0.8718459243051876, -0.17463429267751523, 0.43083184205416913,0.15418014224395601,0.161224365234375,0.8089752197265625,0.595672607421875
20220119-1341,2022-01-19 13:41:39Z,u01, 44,40,movements,el-ex, rt, d,230668.463912375, 2.971728677986796, -0.935358935521608, -2.828901931415991, -0.1016923040151596, 0.6977381110191345, -0.41731348633766174, 0.10033517330884933, 0.8048121929168701, 0.584987461566925, 0.01686757057905197, -0.04280346632003784, 0.03297823667526245, -0.8725965690316543, -0.17626391479755626, 0.43192193938683643,0.1447402438143969,0.1172027587890625,0.7620086669921875,0.6179656982421875
20220119-1341,2022-01-19 13:41:39Z,u01, 45,40,movements,el-ex, rt, d,230668.48885737502, 3.0042185319051855, -0.9346458830597648, -2.8089562499329754, -0.10117246210575104, 0.6270479559898376, -0.42221370339393616, 0.08135798573493958, 0.8043887615203857, 0.5885064601898193, 0.07522770017385483, -0.003409147262573242, -0.01285320520401001, -0.8732632130798081, -0.1779454358708068, 0.4330897275009442,0.13483372667240612,0.1587066650390625,0.8065643310546875,0.580352783203125
20220119-1341,2022-01-19 13:41:39Z,u01, 46,40,movements,el-ex, rt, d,230668.513803375, 3.033469921322638, -0.9333091572633805, -2.7912019076298678, -0.0950823426246643, 0.6025506258010864, -0.46540510654449463, 0.06422696262598038, 0.8035938739776611, 0.5917024612426758, 0.027386777102947235, -0.013936340808868408, -0.036114633083343506, -0.8738855029500698, -0.17937490392272154, 0.43395568628391984,0.12582225145203688,0.09161376953125,0.7896575927734375,0.5555877685546875
20220119-1341,2022-01-19 13:41:39Z,u01, 47,40,movements,el-ex, rt, d,230668.538749375, 3.0633582542346334, -0.9325380453407204, -2.77195603603809, -0.054987356066703796, 0.5837410092353821, -0.4279966950416565, 0.04656432196497917, 0.8031346797943115, 0.5939750671386719, 0.008962415158748627, -0.008579134941101074, -0.019740939140319824, -0.8741368938724248, -0.18130696439885347, 0.43514308801509666,0.11688859434488039,0.06304931640625,0.7899932861328125,0.57061767578125
20220119-1341,2022-01-19 13:41:39Z,u01, 48,40,movements,el-ex, rt, d,230668.56369537502, 3.091914448917094, -0.9321947576029637, -2.7542072273206335, -0.03146751597523689, 0.5707677602767944, -0.44951528310775757, 0.02959967963397503, 0.8029301166534424, 0.5953380465507507, 0.020861119031906128, -0.024365603923797607, -0.025803565979003906, -0.8742050246473798, -0.1828513068873126, 0.43659285622402577,0.10824853599524814,0.0504608154296875,0.778564453125,0.5695343017578125
20220119-1341,2022-01-19 13:41:39Z,u01, 49,40,movements,el-ex, rt, d,230668.588641375, 3.117378686295294, -0.9316283176564489, -2.738293586203152, -0.020113494247198105, 0.486467570066452, -0.321363627910614, 0.014442892745137215, 0.8025923371315002, 0.5963529348373413, 0.03153180703520775, -0.01478111743927002, -0.03981912136077881, -0.874199278428063, -0.18426091824825014, 0.4378507862128268,0.1005494246618889,0.057464599609375,0.7892913818359375,0.5583953857421875
20220119-1341,2022-01-19 13:41:39Z,u01, 50,40,movements,el-ex, rt, d,230668.613587375, 3.1400408880867743, -0.9309941219794444, -2.724734395692503, -0.05123629420995712, 0.4429652988910675, -0.3170134425163269, 0.0009264611871913075, 0.8022138476371765, 0.5970363616943359, 0.04880189895629883, -0.026273906230926514, -0.048467397689819336, -0.8741863086179859, -0.18524707368177568, 0.4390086349384976,0.09355934166825519,0.0497283935546875,0.77593994140625,0.5485687255859375
20220119-1341,2022-01-19 13:41:39Z,u01, 51,40,movements,el-ex, rt, d,230668.63853337502, -3.1222339567439454, -0.9294932684768819, -2.7120080553871646, -0.03833610936999321, 0.4092211127281189, -0.29630130529403687, -0.011580429971218109, 0.8013169169425964, 0.5981282591819763, 0.02256673574447632, -0.05590975284576416, -0.05177187919616699, -0.8742769361406069, -0.18628998578848727, 0.43972078205872445,0.08707236818177425,0.0196533203125,0.754241943359375,0.548828125
20220119-1341,2022-01-19 13:41:39Z,u01, 52,40,movements,el-ex, rt, d,230668.663479375, -3.1038592244564205, -0.9285343930096832, -2.70124549935212, 0.0027443505823612213, 0.35141721367836, -0.19772279262542725, -0.022597279399633408, 0.8007428646087646, 0.5985820889472961, 0.01972860097885132, -0.06581854820251465, -0.08098852634429932, -0.8742544296248198, -0.1870032722344231, 0.4405646732736029,0.0813131661763595,-0.00286865234375,0.73492431640625,0.5175933837890625
20220119-1341,2022-01-19 13:41:39Z,u01, 53,40,movements,el-ex, rt, d,230668.688425375, -3.090921721342475, -0.9316447248018018, -2.6948899478934036, 0.29480618238449097, 0.24412588775157928, -0.06881967186927795, -0.03021302819252014, 0.8026021122932434, 0.5957491397857666, 0.05952513590455055, -0.09189355373382568, -0.15132158994674683, -0.8735003889893613, -0.18673953702739404, 0.4428736372319393,0.07738462954713543,0.032196044921875,0.7176513671875,0.4473724365234375
20220119-1341,2022-01-19 13:41:39Z,u01, 54,40,movements,el-ex, rt, d,230668.71337137502, -3.084945745847615, -0.9404651948612589, -2.694557225787612, 0.3334204852581024, 0.2135908305644989, 0.07459653913974762, -0.03337055817246437, 0.8078323602676392, 0.5884674191474915, 0.06751968711614609, -0.10269302129745483, -0.07697737216949463, -0.8717823767330612, -0.18501131188133357, 0.4472411360943176,0.07577509151756498,0.034149169921875,0.70513916015625,0.5114898681640625
20220119-1341,2022-01-19 13:41:39Z,u01, 55,40,movements,el-ex, rt, d,230668.738317375, -3.0843007119243993, -0.9443754698085243, -2.6989664003014533, -0.03616902977228165, 0.1237836480140686, 0.13043764233589172, -0.033568982034921646, 0.8101309537887573, 0.5852872729301453, 0.08387717604637146, -0.13349521160125732, 0.0008029937744140625, -0.8713575180677808, -0.1827011508726099, 0.44915947354511265,0.07491467168208152,0.058013916015625,0.6769256591796875,0.5943603515625
20220119-1341,2022-01-19 13:41:39Z,u01, 56,40,movements,el-ex, rt, d,230668.76326237503, -3.087004790458595, -0.9404535706505301, -2.7045305102666, -0.20708470046520233, 0.028387082740664482, 0.11751890927553177, -0.03215932473540306, 0.80782550573349, 0.5885442495346069, 0.048013173043727875, -0.042688608169555664, -0.07238495349884033, -0.8726204893325356, -0.18112320842799262, 0.44742215919256634,0.0744411528332505,0.0158538818359375,0.76513671875,0.5161590576171875
20220119-1341,2022-01-19 13:41:39Z,u01, 57,40,movements,el-ex, rt, d,230668.78820837502, -3.0922944909793806, -0.9385689755263616, -2.710196818604506, 0.07623597234487534, -0.08673491328954697, 0.1474475860595703, -0.02912062592804432, 0.8067132830619812, 0.5902254581451416, 0.015265639871358871, -0.020885467529296875, -0.12834173440933228, -0.8733456032551088, -0.17994496649031988, 0.4463389716598806,0.0752922305395409,-0.0127105712890625,0.7840728759765625,0.462738037109375
20220119-1341,2022-01-19 13:41:39Z,u01, 58,40,movements,el-ex, rt, d,230668.813154375, -3.1015850628385775, -0.9441633712624691, -2.7175455196029827, 0.30337971448898315, -0.1752481311559677, 0.21744810044765472, -0.02345503494143486, 0.8100066184997559, 0.5859518051147461, -0.005109459161758423, -0.03260183334350586, -0.09794497489929199, -0.8724199440866405, -0.17849185960365033, 0.4482181891280011,0.07826022411777972,-0.028564453125,0.77740478515625,0.488006591796875
20220119-1341,2022-01-19 13:41:39Z,u01, 59,40,movements,el-ex, rt, d,230668.83810037503, -3.115414419332642, -0.9494828737552112, -2.7276910424117315, 0.05279846489429474, -0.26853635907173157, 0.2607741951942444, -0.01523671019822359, 0.813114583492279, 0.5819043517112732, 0.009529919363558292, -0.07645076513290405, -0.07076531648635864, -0.8715875372022074, -0.17688231404571159, 0.4497083770372331,0.08252424501794456,-0.012237548828125,0.740203857421875,0.512542724609375
20220119-1341,2022-01-19 13:41:39Z,u01, 60,40,movements,el-ex, rt, d,230668.86304637502, -3.133223556316779, -0.9482247519928035, -2.739770088405417, -0.0927330031991005, -0.38223567605018616, 0.30718278884887695, -0.00488018523901701, 0.8123815655708313, 0.5831060409545898, 0.027005404233932495, -0.0502966046333313, -0.09329867362976074, -0.872175836929199, -0.17567677378344332, 0.4481044936897073,0.08746110129437734,0.022125244140625,0.7620849609375,0.48980712890625
20220119-1341,2022-01-19 13:41:39Z,u01, 61,40,movements,el-ex, rt, d,230668.887992375, 3.1263167506721787, -0.9492002222400288, -2.755332159115999, 0.22829751670360565, -0.4915993809700012, 0.4162254333496094, 0.008895325474441051, 0.8129500150680542, 0.5822656154632568, 0.02739003300666809, -0.0588148832321167, -0.14590990543365479, -0.8722432792314243, -0.17413923665163245, 0.44716965474426196,0.09437441001372973,0.0339813232421875,0.752838134765625,0.4393463134765625
20220119-1341,2022-01-19 13:41:39Z,u01, 62,40,movements,el-ex, rt, d,230668.91293837503, 3.096889586934443, -0.9609240905678704, -2.775571048673936, 0.603618323802948, -0.5265042185783386, 0.4711857736110687, 0.02559571899473667, 0.8197212219238281, 0.5721904635429382, 0.029000189155340195, -0.0286598801612854, -0.07673752307891846, -0.869874648766188, -0.17150311252518108, 0.4507500668132065,0.10358147511007088,0.054595947265625,0.7910614013671875,0.495452880859375
20220119-1341,2022-01-19 13:41:39Z,u01, 63,40,movements,el-ex, rt, d,230668.93788437502, 3.0636174759700423, -0.9732468849267724, -2.799028329428135, 0.3514343798160553, -0.575023353099823, 0.5195301175117493, 0.04382581636309624, 0.8267168402671814, 0.5609087347984314, 0.08794906735420227, -0.08617734909057617, 0.0007826685905456543, -0.8672138927460276, -0.16850648658220008, 0.45457838844112547,0.11359633015792961,0.122894287109375,0.7523040771484375,0.5571136474609375
20220119-1341,2022-01-19 13:41:39Z,u01, 64,40,movements,el-ex, rt, d,230668.962830375, 3.0278036106398143, -0.9752898596695034, -2.8233999343979144, -0.014365660026669502, -0.666261613368988, 0.5600466728210449, 0.06368982791900635, 0.8278645277023315, 0.5573006272315979, 0.09178193658590317, -0.07467544078826904, -0.0380592942237854, -0.8666492842529724, -0.16604012106170113, 0.45392207416944763,0.12371116012951497,0.1554718017578125,0.7531890869140625,0.5192413330078125
20220119-1341,2022-01-19 13:41:39Z,u01, 65,40,movements,el-ex, rt, d,230668.98777637503, 2.987878691076593, -0.9755832122332377, -2.8509382333764743, 0.253202885389328, -0.6638946533203125, 0.6212612390518188, 0.08584616333246231, 0.8280290365219116, 0.5540744066238403, 0.0483090803027153, 0.02942335605621338, -0.03587061166763306, -0.8662665235272922, -0.16315490462489352, 0.45254435203175897,0.13478289973818175,0.137664794921875,0.841827392578125,0.5215911865234375
20220119-1341,2022-01-19 13:41:39Z,u01, 66,40,movements,el-ex, rt, d,230669.012722, 2.9436030105125854, -0.9839784198143906, -2.884196199933589, 0.6619300246238708, -0.6468124389648438, 0.6841335296630859, 0.10891477763652802, 0.832706868648529, 0.542896568775177, 0.0330682173371315, 0.0057634711265563965, -0.04748940467834473, -0.8638340366926673, -0.15886795737145804, 0.4549996989090822,0.14672061400800507,0.1419830322265625,0.838470458984375,0.4954071044921875
20220119-1341,2022-01-19 13:41:39Z,u01, 67,40,movements,el-ex, rt, d,230669.03766700003, 2.894872664147465, -0.9971596096951398, -2.9230346627374426, 0.6103132963180542, -0.629771888256073, 0.7029439806938171, 0.13253840804100037, 0.839932918548584, 0.526257336139679, 0.02950991690158844, -0.03260546922683716, 0.018039166927337646, -0.8599725153046586, -0.15354456048929477, 0.4599281310610108,0.1591779591992344,0.1564483642578125,0.8005523681640625,0.524932861328125
20220119-1341,2022-01-19 13:41:39Z,u01, 68,40,movements,el-ex, rt, d,230669.06261300002, 2.848083377167505, -1.0011462009046805, -2.959673346156035, 0.12066210061311722, -0.6534746289253235, 0.7368337512016296, 0.1560375988483429, 0.8420897126197815, 0.5162729024887085, 0.0486895889043808, -0.04774749279022217, 0.02826768159866333, -0.85791502616404, -0.1487221220956061, 0.46115391000221295,0.17088241031372103,0.2047271728515625,0.794342041015625,0.5445404052734375
20220119-1341,2022-01-19 13:41:39Z,u01, 69,40,movements,el-ex, rt, d,230669.087559, 2.8024608699718723, -0.994912144884818, -2.99288810833074, -0.020862743258476257, -0.7454558610916138, 0.7782178521156311, 0.18116357922554016, 0.838711142539978, 0.5135599374771118, 0.03839513659477234, -0.03571724891662598, -0.038904666900634766, -0.8578206925109253, -0.1446500430405459, 0.45803170164605006,0.18283085666857005,0.2257232666015625,0.8037567138671875,0.484954833984375
20220119-1341,2022-01-19 13:41:39Z,u01, 70,40,movements,el-ex, rt, d,230669.11250500003, 2.752898340136886, -0.9915156769049509, -3.0294888708916123, 0.3108904957771301, -0.7349162101745605, 0.7796776294708252, 0.20746228098869324, 0.8368566632270813, 0.5065869688987732, -0.010059326887130737, -0.00412362813949585, -0.021708369255065918, -0.8565467301357924, -0.14007565571677816, 0.45649300401870846,0.1957566231467397,0.1974029541015625,0.832733154296875,0.4848785400390625
20220119-1341,2022-01-19 13:41:39Z,u01, 71,40,movements,el-ex, rt, d,230669.13745100002, 2.7035918467649487, -0.9899105302074523, -3.066924578674512, 0.11668000370264053, -0.690636396408081, 0.7465460300445557, 0.23274758458137512, 0.8359768986701965, 0.4969622790813446, 0.029047459363937378, 0.028692960739135742, 0.07571554183959961, -0.854521242656554, -0.1351835105326808, 0.45618809794222825,0.2083539744863867,0.248748779296875,0.856170654296875,0.5541839599609375
20220119-1341,2022-01-19 13:41:39Z,u01, 72,40,movements,el-ex, rt, d,230669.162397, 2.6628345488572776, -0.9807419950282047, -3.0950939879083887, -0.1604457050561905, -0.6930784583091736, 0.6937718391418457, 0.25632375478744507, 0.8309104442596436, 0.4938483238220215, 0.06124216318130493, 0.030188798904418945, 0.050707459449768066, -0.8541763839789307, -0.13155553886112215, 0.45253809891170627,0.21973888904545855,0.31756591796875,0.8610992431640625,0.5445556640625
20220119-1341,2022-01-19 13:41:39Z,u01, 73,40,movements,el-ex, rt, d,230669.18734300003, 2.6228568572983915, -0.9718549136468637, -3.122219658742538, 0.2002975046634674, -0.7040219902992249, 0.7118260860443115, 0.27950671315193176, 0.8259328603744507, 0.4896030128002167, 0.024341583251953125, 0.022074341773986816, -0.03426527976989746, -0.8534660369585381, -0.1280516558388799, 0.44918972198804136,0.23114317161823247,0.31353759765625,0.852935791015625,0.467376708984375
20220119-1341,2022-01-19 13:41:39Z,u01, 74,40,movements,el-ex, rt, d,230669.21228900002, 2.5728235420498784, -0.9720296896531345, 3.1214094795094685, 0.6636033654212952, -0.6853578686714172, 0.8020515441894531, 0.30356526374816895, 0.8260313868522644, 0.4748896062374115, -0.02995997667312622, -0.03056025505065918, -0.0506037175655365, -0.8499662600814679, -0.12248327567938644, 0.4508250332254915,0.24354043778613613,0.2736053466796875,0.79547119140625,0.424285888671875
20220119-1341,2022-01-19 13:41:39Z,u01, 75,40,movements,el-ex, rt, d,230669.237235, 2.520088053918849, -0.9712489092211262, 3.077366365537705, 0.33452117443084717, -0.6453880667686462, 0.8517093658447266, 0.32855096459388733, 0.8255910873413086, 0.4587528705596924, -0.0030961930751800537, -0.08759951591491699, 0.09259313344955444, -0.8461735476620345, -0.11561474798616256, 0.45285805442888083,0.25601433060545997,0.3000030517578125,0.74822998046875,0.5535888671875
20220119-1341,2022-01-19 13:41:39Z,u01, 76,40,movements,el-ex, rt, d,230669.26218100003, 2.478905358778574, -0.9590991620147025, 3.047427728377998, -0.27685680985450745, -0.6894708275794983, 0.8251344561576843, 0.35330507159233093, 0.8186745643615723, 0.4527115225791931, 0.054226696491241455, -0.06611108779907227, 0.04915022850036621, -0.8450789032741219, -0.11044188710677466, 0.44938374302761064,0.26776591530101873,0.40753173828125,0.7525634765625,0.501861572265625
20220119-1341,2022-01-19 13:41:39Z,u01, 77,40,movements,el-ex, rt, d,230669.287126, 2.444363732239076, -0.9403965591782403, 3.0280171297965004, -0.1471787691116333, -0.7952002286911011, 0.8280659914016724, 0.3784947097301483, 0.8077919483184814, 0.45190033316612244, 0.07783454656600952, 0.017769575119018555, -0.08553677797317505, -0.8452866704940087, -0.10696077799040637, 0.44240754277315686,0.27986672412114966,0.456756591796875,0.8202056884765625,0.3799896240234375
20220119-1341,2022-01-19 13:41:39Z,u01, 78,40,movements,el-ex, rt, d,230669.312072, 2.399783332320399, -0.9284146508854864, 2.998390786669805, 0.2756379544734955, -0.8362306356430054, 0.8672197461128235, 0.4047686457633972, 0.8006711602210999, 0.44168809056282043, 0.027909576892852783, 0.014972209930419922, -0.051749587059020996, -0.842846640289397, -0.1022428170752554, 0.43938651247851646,0.2934204494383023,0.43267822265625,0.815643310546875,0.3899383544921875
20220119-1341,2022-01-19 13:41:39Z,u01, 79,40,movements,el-ex, rt, d,230669.33701800002, 2.355231870811975, -0.9171287261599658, 2.9671039259328325, 0.008712894283235073, -0.7396566867828369, 0.8080860376358032, 0.4304068088531494, 0.7938588857650757, 0.4295789897441864, 0.05320519208908081, 0.03562408685684204, 0.12658876180648804, -0.8398946052542007, -0.09678088950287972, 0.4372634429491309,0.3066124624165476,0.462066650390625,0.8393402099609375,0.5452728271484375
20220119-1341,2022-01-19 13:41:40Z,u01, 80,40,movements,el-ex, rt, d,230669.361964, 2.3270149198285788, -0.8987363911697994, 2.9537418967360183, -0.5121375918388367, -0.6864980459213257, 0.6826695799827576, 0.45290109515190125, 0.7825407981872559, 0.4272124767303467, 0.08391833305358887, 0.06432187557220459, 0.11719077825546265, -0.8395339782928694, -0.09374934459976947, 0.43056687624257384,0.3178143154393991,0.5368194580078125,0.84686279296875,0.544403076171875
20220119-1341,2022-01-19 13:41:40Z,u01, 81,40,movements,el-ex, rt, d,230669.38691, 2.307342506901696, -0.8792438262645454, 2.9496113646539746, -0.2838854491710663, -0.6299270391464233, 0.6014683842658997, 0.4724290370941162, 0.7702568769454956, 0.428387314081192, 0.02543485164642334, 0.13040858507156372, -0.005718648433685303, -0.8400402351722738, -0.09233668069117851, 0.4224514032937643,0.32762986948405837,0.5102691650390625,0.9039764404296875,0.429931640625
20220119-1341,2022-01-19 13:41:40Z,u01, 82,40,movements,el-ex, rt, d,230669.41185600002, 2.2821936896467157, -0.8670344813378114, 2.9360901363759973, 0.1314256191253662, -0.5626960396766663, 0.6173669695854187, 0.49013882875442505, 0.7624133229255676, 0.4224807024002075, -0.03869229555130005, 0.09262818098068237, -0.015177726745605469, -0.8385929575640503, -0.08945506038762346, 0.4186412146096947,0.3368964533981668,0.451446533203125,0.85504150390625,0.4073028564453125
20220119-1341,2022-01-19 13:41:40Z,u01, 83,40,movements,el-ex, rt, d,230669.436802, 2.2485801760042916, -0.8595511976754414, 2.9107562382561594, 0.4558202624320984, -0.58998703956604, 0.6770468354225159, 0.5084905624389648, 0.7575496435165405, 0.40933623909950256, -0.042243003845214844, -0.004497885704040527, -0.033466339111328125, -0.8352014368418859, -0.08430109193346003, 0.4185234508288039,0.34665562936454286,0.45855712890625,0.763519287109375,0.371978759765625
20220119-1341,2022-01-19 13:41:40Z,u01, 84,40,movements,el-ex, rt, d,230669.461748, 2.213382494399064, -0.8511294291099273, 2.8837907757109424, 0.16480831801891327, -0.624024510383606, 0.6873055100440979, 0.5276690721511841, 0.752025306224823, 0.3949979841709137, 0.0022686123847961426, -0.011562049388885498, 0.041479796171188354, -0.8314603169382146, -0.07856675040470606, 0.4185109792063607,0.35686080227015665,0.529937744140625,0.7404632568359375,0.4364776611328125
20220119-1341,2022-01-19 13:41:40Z,u01, 85,40,movements,el-ex, rt, d,230669.48669400002, 2.1885010022486737, -0.8361238385418596, 2.8716151038479927, -0.3318610191345215, -0.6540026664733887, 0.6519218683242798, 0.5464714169502258, 0.7420503497123718, 0.38824033737182617, 0.08531874418258667, -0.02622997760772705, 0.04803919792175293, -0.8297332288111152, -0.0752524990495097, 0.4138912174610407,0.36684327430800523,0.6193695068359375,0.7054901123046875,0.446136474609375
20220119-1341,2022-01-19 13:41:40Z,u01, 86,40,movements,el-ex, rt, d,230669.51164, 2.170988880684017, -0.8182012686859409, 2.869479798810417, -0.26040399074554443, -0.6407873034477234, 0.594087541103363, 0.564071774482727, 0.7299175262451172, 0.38606172800064087, 0.06636035442352295, 0.03883552551269531, 0.02360638976097107, -0.8292100685808097, -0.07376670677900804, 0.40665233293919223,0.3763018549094114,0.63043212890625,0.7687530517578125,0.40966796875
20220119-1341,2022-01-19 13:41:40Z,u01, 87,40,movements,el-ex, rt, d,230669.536586, 2.1489396224866413, -0.8049792241953594, 2.8595376456011863, 0.09538190811872482, -0.5740171074867249, 0.586103618144989, 0.5804787278175354, 0.7208162546157837, 0.3787727952003479, 0.00613027811050415, 0.02881765365600586, -0.00928109884262085, -0.8272554151144953, -0.07095684002796859, 0.40261180819564757,0.3853796606541805,0.5869140625,0.761688232421875,0.371490478515625
20220119-1341,2022-01-19 13:41:40Z,u01, 88,40,movements,el-ex, rt, d,230669.561531, 2.1229458080414703, -0.7938772735128531, 2.842607747330534, 0.18986207246780396, -0.5499134063720703, 0.6562313437461853, 0.5969039797782898, 0.7130769491195679, 0.36773261427879333, 0.0060471296310424805, -0.01687932014465332, 0.003819018602371216, -0.8242859971388883, -0.06647476692815174, 0.4007364252869159,0.39439084584340867,0.6029510498046875,0.696197509765625,0.371551513671875
20220119-1341,2022-01-19 13:41:40Z,u01, 89,40,movements,el-ex, rt, d,230669.586477, 2.0983756177779695, -0.781799817007187, 2.8271644350639282, 0.020812366157770157, -0.5412492156028748, 0.6366068124771118, 0.6131547689437866, 0.7045577764511108, 0.3572668135166168, 0.031223833560943604, -0.0009140372276306152, 0.02755996584892273, -0.8214553000950197, -0.06200484761553465, 0.39840667729353096,0.40328492300568736,0.6389617919921875,0.703125,0.3894500732421875
20220119-1341,2022-01-19 13:41:40Z,u01, 90,40,movements,el-ex, rt, d,230669.61142300002, 2.078318716938742, -0.7677132939837112, 2.818470609521301, -0.10571824759244919, -0.5471760034561157, 0.5865660905838013, 0.6288087368011475, 0.6944917440414429, 0.3496870696544647, 0.02527451515197754, 0.02790510654449463, 0.014158964157104492, -0.8193807022162554, -0.05881156380276181, 0.3942187348937796,0.41200504268012583,0.654083251953125,0.7223968505859375,0.3638458251953125
20220119-1341,2022-01-19 13:41:40Z,u01, 91,40,movements,el-ex, rt, d,230669.636369, 2.058784614217792, -0.7539728936625818, 2.81037232837168, 0.016134589910507202, -0.5583958625793457, 0.584248423576355, 0.6438874006271362, 0.6845402717590332, 0.3417798578739166, 0.002047598361968994, 0.022475600242614746, -0.006910383701324463, -0.8171789090354833, -0.05575445160668996, 0.3901476828759092,0.420588652007657,0.6502532958984375,0.70977783203125,0.3384246826171875
20220119-1341,2022-01-19 13:41:40Z,u01, 92,40,movements,el-ex, rt, d,230669.661315, 2.0370991065366253, -0.7417570905440924, 2.7989833619470836, 0.10421505570411682, -0.5578967928886414, 0.5888354182243347, 0.6585678458213806, 0.6755844354629517, 0.33147257566452026, 0.00036770105361938477, -0.0036484599113464355, -0.007421523332595825, -0.8142621769750555, -0.05209031847452039, 0.38738900234013085,0.42917765470891567,0.658935546875,0.67193603515625,0.3240509033203125
20220119-1341,2022-01-19 13:41:40Z,u01, 93,40,movements,el-ex, rt, d,230669.68626100002, 2.0154577691042013, -0.728941086747844, 2.7877932345237637, 0.027640044689178467, -0.576646625995636, 0.6118505597114563, 0.6733483076095581, 0.6660801768302917, 0.3208421468734741, 0.020819902420043945, -0.004519999027252197, 0.021412640810012817, -0.8112285096816487, -0.0482636914032567, 0.38448573120707835,0.43789245653336134,0.687286376953125,0.6545257568359375,0.341552734375
20220119-1341,2022-01-19 13:41:40Z,u01, 94,40,movements,el-ex, rt, d,230669.71120700001, 1.9964892813149515, -0.7147747537033746, 2.780702966655068, -0.11692143231630325, -0.5585854053497314, 0.5917521715164185, 0.6878377795219421, 0.6554473042488098, 0.3118782639503479, 0.038755178451538086, 0.02375185489654541, 0.023449033498764038, -0.808641912170843, -0.04513738774727705, 0.38035158402987174,0.44653507555832767,0.726593017578125,0.67919921875,0.3353271484375
20220119-1341,2022-01-19 13:41:40Z,u01, 95,40,movements,el-ex, rt, d,230669.736153, 1.9805390680387795, -0.7002417278591307, 2.7774080103518015, -0.14362932741641998, -0.5224569439888, 0.5476877689361572, 0.7013885378837585, 0.6444025635719299, 0.304630845785141, 0.03306281566619873, 0.02674013376235962, 0.02796509861946106, -0.8065264288687822, -0.04278486931059594, 0.3753696849939918,0.45473329261253675,0.73956298828125,0.66900634765625,0.33111572265625
20220119-1341,2022-01-19 13:41:40Z,u01, 96,40,movements,el-ex, rt, d,230669.76109900002, 1.9654095051324663, -0.6870009231112553, 2.773438246656302, -0.036069225519895554, -0.4883155822753906, 0.515363335609436, 0.7137314081192017, 0.6342213153839111, 0.2972390353679657, 0.00402677059173584, 0.030909359455108643, 0.033846259117126465, -0.8043607317407804, -0.04029066743608817, 0.37108502990875797,0.46225152022817095,0.7177581787109375,0.665130615234375,0.331085205078125
20220119-1341,2022-01-19 13:41:40Z,u01, 97,40,movements,el-ex, rt, d,230669.78604500002, 1.9500300103576556, -0.6748746263478137, 2.76787065377254, -0.008495653979480267, -0.46370476484298706, 0.520370602607727, 0.7253096699714661, 0.6247994303703308, 0.28905361890792847, 0.0007646679878234863, 0.01983875036239624, 0.014245539903640747, -0.8019502679290846, -0.037451039733575386, 0.36762975615052024,0.46938441626519,0.72247314453125,0.65478515625,0.3063812255859375
20220119-1341,2022-01-19 13:41:40Z,u01, 98,40,movements,el-ex, rt, d,230669.81099000003, 1.9352328198409476, -0.6627865432619451, 2.7625054978582226, -0.04002821445465088, -0.4609224200248718, 0.5104108452796936, 0.7365102171897888, 0.6153157949447632, 0.280961275100708, 0.009354650974273682, 0.022150635719299316, 0.014510124921798706, -0.799554663587802, -0.0345394685038215, 0.3642108237392189,0.47630858854179464,0.7458648681640625,0.6374664306640625,0.29547119140625
20220119-1341,2022-01-19 13:41:40Z,u01, 99,40,movements,el-ex, rt, d,230669.83593600002, 1.9215820873980756, -0.6502990458801897, 2.758918492671424, -0.08773361146450043, -0.45939257740974426, 0.5039322376251221, 0.7474347949028015, 0.6054244637489319, 0.2735007703304291, 0.009675800800323486, -0.0020308494567871094, 0.022123217582702637, -0.797326178930268, -0.03195845931164221, 0.3602933810168051,0.48315462255486424,0.757415771484375,0.6097412109375,0.29571533203125
20220119-1341,2022-01-19 13:41:40Z,u01, 100,40,movements,el-ex, rt, d,230669.860882, 1.9077147161734331, -0.6382287068270748, 2.7549789655584243, 0.042363062500953674, -0.46038979291915894, 0.4920155704021454, 0.7579973340034485, 0.5957737565040588, 0.2655063271522522, -0.004640460014343262, 0.011876940727233887, 0.030071794986724854, -0.7949164729686788, -0.029342191700659936, 0.3566549311678417,0.4899429277987568,0.75335693359375,0.6076507568359375,0.2955780029296875
20220119-1341,2022-01-19 13:41:40Z,u01, 101,40,movements,el-ex, rt, d,230669.88582800003, 1.8908280908270039, -0.6274783251781715, 2.7444322349768897, 0.3084230422973633, -0.36670204997062683, 0.5530468225479126, 0.7684081792831421, 0.5871053338050842, 0.2546694278717041, -0.01511228084564209, 0.03288984298706055, 0.03268420696258545, -0.7916505316996227, -0.024982882993025035, 0.35514149663797867,0.4965278639516702,0.746795654296875,0.624542236328125,0.283721923828125
20220119-1341,2022-01-19 13:41:40Z,u01, 102,40,movements,el-ex, rt, d,230669.91077400002, 1.873725001405828, -0.6165537374009223, 2.7280157702899634, 0.4163275957107544, -0.25651228427886963, 0.5887439250946045, 0.7787269353866577, 0.5782268643379211, 0.24338960647583008, 0.024022817611694336, 0.007588624954223633, 0.023624062538146973, -0.788264694211892, -0.01826400231388381, 0.35513660465842495,0.5021786119331391,0.8027496337890625,0.5858154296875,0.2670135498046875
20220119-1341,2022-01-19 13:41:40Z,u01, 103,40,movements,el-ex, rt, d,230669.93572, 1.8576887316192678, -0.6063530928498123, 2.7118382821381424, 0.3076959252357483, -0.306730180978775, 0.4985349476337433, 0.7881459593772888, 0.5698744654655457, 0.2325279414653778, 0.03155624866485596, 0.022670090198516846, 0.010437965393066406, -0.7849382323324838, -0.01165956777361804, 0.35547009227628823,0.507323489067861,0.8256072998046875,0.5890960693359375,0.242156982421875
20220119-1341,2022-01-19 13:41:40Z,u01, 104,40,movements,el-ex, rt, d,230669.96066600003, 1.842550035481469, -0.5964818955069708, 2.7007564793750203, 0.20504075288772583, -0.40016061067581177, 0.4589262306690216, 0.7969558238983154, 0.5617353916168213, 0.22206942737102509, -0.00020295381546020508, 0.009584188461303711, -0.01822713017463684, -0.7816558846074737, -0.0069851457599166555, 0.35473999531212375,0.5129569739996312,0.7967529296875,0.571319580078125,0.2038421630859375
20220119-1341,2022-01-19 13:41:40Z,u01, 105,40,movements,el-ex, rt, d,230669.98561200002, 1.8267309359621846, -0.5861864749264315, 2.6920651003321634, 0.13141897320747375, -0.47459709644317627, 0.4926939606666565, 0.8059214353561401, 0.553188145160675, 0.21088798344135284, 0.010851085186004639, -0.0007131695747375488, -0.023830413818359375, -0.7780961795474034, -0.0032134256996404487, 0.3533306475029584,0.5193395376142874,0.816650390625,0.56317138671875,0.1866912841796875
20220119-1341,2022-01-19 13:41:40Z,u01, 106,40,movements,el-ex, rt, d,230670.0105584167, 1.8110504274654429, -0.5739662837736066, 2.6855310487268973, 0.06253527849912643, -0.47122251987457275, 0.5604299306869507, 0.8156342506408691, 0.5429670214653015, 0.19981901347637177, -0.0021882057189941406, -0.02958500385284424, -0.024663209915161133, -0.7745381600725901, 0.0003764797619866256, 0.35076602326003686,0.5263589283020751,0.813446044921875,0.5133819580078125,0.1751556396484375
20220119-1341,2022-01-19 13:41:40Z,u01, 107,40,movements,el-ex, rt, d,230670.03550441668, 1.796480916036399, -0.5605298903283458, 2.6796573560138914, 0.08516063541173935, -0.46711501479148865, 0.5526637434959412, 0.8254953026771545, 0.531635046005249, 0.1895303726196289, 0.02126067876815796, -0.015399694442749023, 0.009337544441223145, -0.7711980372416116, 0.0043327150550692695, 0.34767717853262836,0.5332499002107661,0.841705322265625,0.5109710693359375,0.20135498046875
20220119-1341,2022-01-19 13:41:40Z,u01, 108,40,movements,el-ex, rt, d,230670.06045041667, 1.7818198085267072, -0.5478915734691242, 2.67480582457447, -0.0001957472413778305, -0.489917129278183, 0.5126928091049194, 0.8346890807151794, 0.5208885669708252, 0.17880097031593323, 0.031003296375274658, 0.018494486808776855, 0.0072954148054122925, -0.7676858693955599, 0.007673828843636821, 0.3446587494345428,0.5401944992981045,0.865692138671875,0.5393829345703125,0.18609619140625
20220119-1341,2022-01-19 13:41:40Z,u01, 109,40,movements,el-ex, rt, d,230670.08539541668, 1.7694766360097387, -0.5359348085979759, 2.674009664417146, -0.12441693246364594, -0.46058034896850586, 0.4423951208591461, 0.8428778648376465, 0.5106450319290161, 0.16970206797122955, 0.03013855218887329, 0.016530930995941162, 0.01666891574859619, -0.764694178134596, 0.009687473149602222, 0.3408155197062695,0.5468032919861223,0.869873046875,0.5268096923828125,0.1930389404296875
20220119-1341,2022-01-19 13:41:40Z,u01, 110,40,movements,el-ex, rt, d,230670.11034141667, 1.759114175369806, -0.5248853423582488, 2.674671286123166, -0.06960894167423248, -0.40637409687042236, 0.4156796336174011, 0.8500818610191345, 0.501113772392273, 0.1620052307844162, 0.025894641876220703, 0.023574888706207275, 0.02232109010219574, -0.762152483111485, 0.011234192527586062, 0.3368961596948742,0.5527190279540755,0.8759765625,0.524688720703125,0.184326171875
20220119-1341,2022-01-19 13:41:40Z,u01, 111,40,movements,el-ex, rt, d,230670.1352874167, 1.7491557774043427, -0.5150665167129388, 2.673781470117326, -0.04714328050613403, -0.3525605797767639, 0.3747903108596802, 0.8564543128013611, 0.4925927221775055, 0.15439744293689728, 0.0026308298110961914, 0.030020833015441895, 0.03713095188140869, -0.7596233725167101, 0.01307874876191023, 0.3338419618171485,0.5579882737382823,0.8610992431640625,0.526397705078125,0.1920318603515625
20220119-1341,2022-01-19 13:41:40Z,u01, 112,40,movements,el-ex, rt, d,230670.16023341668, 1.741006314560561, -0.5063299846878284, 2.673999283987499, -0.10369081050157547, -0.31079816818237305, 0.31525516510009766, 0.8618927597999573, 0.48497098684310913, 0.14813609421253204, -0.00823974609375, 0.04272371530532837, 0.030544519424438477, -0.757534387469925, 0.014481017197251478, 0.33085213483571757,0.5625557118140824,0.8536529541015625,0.5276947021484375,0.178680419921875
20220119-1341,2022-01-19 13:41:40Z,u01, 113,40,movements,el-ex, rt, d,230670.18517941667, 1.7341252142889634, -0.4982694649934218, 2.675093225300128, -0.051458001136779785, -0.29137420654296875, 0.3025304973125458, 0.8667206168174744, 0.47790613770484924, 0.14283286035060883, 0.01206362247467041, 0.05308446288108826, 0.01743030548095703, -0.755760684183898, 0.015563465263215726, 0.32784482698063905,0.5666581013303444,0.8767547607421875,0.5316314697265625,0.1613006591796875
20220119-1341,2022-01-19 13:41:40Z,u01, 114,40,movements,el-ex, rt, d,230670.2101254167, 1.7266544862249409, -0.4910474693368711, 2.6738581508024444, 0.038369320333004, -0.26057934761047363, 0.27340930700302124, 0.871150553226471, 0.4715498387813568, 0.1368861198425293, 0.002049088478088379, 0.050682276487350464, 0.030136719346046448, -0.7537560203944127, 0.01717332734039323, 0.32579700096667497,0.5704501809345505,0.873199462890625,0.5222320556640625,0.167022705078125
20220119-1341,2022-01-19 13:41:40Z,u01, 115,40,movements,el-ex, rt, d,230670.23507141668, 1.7205626877205429, -0.4855365057947124, 2.672778434731037, -0.05127707123756409, -0.19205354154109955, 0.17712458968162537, 0.8745244741439819, 0.46668291091918945, 0.13196246325969696, -0.018231749534606934, 0.05249735713005066, 0.06086300313472748, -0.7520921880142025, 0.018400335077186303, 0.32428648277480454,0.5734606215688582,0.855316162109375,0.5186920166015625,0.1892547607421875
20220119-1341,2022-01-19 13:41:40Z,u01, 116,40,movements,el-ex, rt, d,230670.26001741667, 1.7182268975501969, -0.48210593809678065, 2.6763909474851837, -0.2405974417924881, -0.1374373733997345, 0.04874137416481972, 0.8764087557792664, 0.4636461138725281, 0.1301538050174713, -0.011113345623016357, 0.06641370058059692, 0.07439039647579193, -0.7515053322022035, 0.0177943783171699, 0.32210453777445097,0.5754752538118008,0.86529541015625,0.530059814453125,0.2045440673828125
20220119-1341,2022-01-19 13:41:40Z,u01, 117,40,movements,el-ex, rt, d,230670.2849634167, 1.7186345219260142, -0.48056276141135346, 2.684167366016146, -0.23523452877998352, -0.11216723918914795, 0.012495952658355236, 0.8770622611045837, 0.4622782766819, 0.13061627745628357, -0.02662891149520874, 0.06685075163841248, 0.0114126056432724, -0.7517110985051312, 0.015445567291093698, 0.3193359545503266,0.5768157663518886,0.8582305908203125,0.53009033203125,0.144317626953125
20220119-1341,2022-01-19 13:41:40Z,u01, 118,40,movements,el-ex, rt, d,230670.30990941668, 1.7176423743072182, -0.4802824601784062, 2.687154660280576, 0.003038829192519188, -0.0670640766620636, -0.01845889911055565, 0.8773196935653687, 0.46202969551086426, 0.12976501882076263, -0.0485384464263916, 0.0675266683101654, 0.015178337693214417, -0.7514514242823775, 0.014257127217855992, 0.3183856180761663,0.5777094584328986,0.8287811279296875,0.5295562744140625,0.1449432373046875
20220119-1341,2022-01-19 13:41:40Z,u01, 119,40,movements,el-ex, rt, d,230670.33485541667, 1.7170669095498228, -0.4810084037689019, 2.6873007435023113, -0.02420387789607048, 0.003183659166097641, -0.04097359627485275, 0.8770620822906494, 0.4626733958721161, 0.1292112022638321, -0.004366159439086914, 0.0274847149848938, 0.05926547944545746, -0.7512743715667511, 0.013871417429428712, 0.31859474645758823,0.5778337474841004,0.8583984375,0.4961090087890625,0.191619873046875
20220119-1341,2022-01-19 13:41:41Z,u01, 120,40,movements,el-ex, rt, d,230670.35980041669, 1.7196196379648307, -0.48367906762129426, 2.68947368550366, -0.050127916038036346, 0.032472774386405945, -0.09405925124883652, 0.8755043148994446, 0.46503934264183044, 0.13126599788665771, 0.025038957595825195, 0.03453344106674194, 0.051427602767944336, -0.7519805096931401, 0.012582179506123448, 0.31886071591247567,0.576797130812842,0.900543212890625,0.49957275390625,0.1826934814453125
20220119-1341,2022-01-19 13:41:41Z,u01, 121,40,movements,el-ex, rt, d,230670.38474641668, 1.7210557019367785, -0.4884973826223673, 2.6909195558046797, -0.024810444563627243, 0.06661902368068695, -0.10897215455770493, 0.8730891942977905, 0.4692995548248291, 0.132186159491539, 0.014468789100646973, 0.04052707552909851, 0.04904256761074066, -0.7523157311209736, 0.010682809380615443, 0.32007852604038917,0.5757227125195181,0.8897857666015625,0.5127410888671875,0.179931640625
20220119-1341,2022-01-19 13:41:41Z,u01, 122,40,movements,el-ex, rt, d,230670.4096924167, 1.7248108288368915, -0.49221491066301926, 2.691933075860842, 0.023237375542521477, 0.12615318596363068, -0.14640794694423676, 0.870856761932373, 0.4725790321826935, 0.13519522547721863, 0.0032735466957092285, 0.02803131937980652, 0.04762040078639984, -0.7533285298032978, 0.009681953719305414, 0.3210362804453774,0.573879922356908,0.8741302490234375,0.5006103515625,0.1828155517578125
20220119-1341,2022-01-19 13:41:41Z,u01, 123,40,movements,el-ex, rt, d,230670.4346384167, 1.7312546286324637, -0.4962079327607225, 2.693080587514477, -0.005176423117518425, 0.2090427428483963, -0.21401335299015045, 0.8680977821350098, 0.47609424591064453, 0.14050139486789703, -0.01288837194442749, 0.015330344438552856, 0.06920027732849121, -0.7550960957821262, 0.008976928157417297, 0.3220423576123486,0.5709974589039598,0.8549346923828125,0.4917449951171875,0.20233154296875
20220119-1341,2022-01-19 13:41:41Z,u01, 124,40,movements,el-ex, rt, d,230670.45958441668, 1.7403611390854272, -0.5021857234165805, 2.6977048287418146, -0.21534626185894012, 0.28125202655792236, -0.3018627166748047, 0.8639616370201111, 0.4813425540924072, 0.14791788160800934, 0.000982820987701416, 0.010478764772415161, 0.07736299932003021, -0.7575707459248876, 0.0067456394856688084, 0.322739990148212,0.5673446925799226,0.8649444580078125,0.4918212890625,0.22528076171875
20220119-1341,2022-01-19 13:41:41Z,u01, 125,40,movements,el-ex, rt, d,230670.48453041667, 1.7530713586682387, -0.5091635345865884, 2.706574510391353, -0.23052619397640228, 0.3340025246143341, -0.360920250415802, 0.8586876392364502, 0.487447053194046, 0.15827405452728271, 0.012436509132385254, 0.055796295404434204, 0.04253169894218445, -0.7610039468197922, 0.003165701850410485, 0.3226071410865407,0.5628388042376598,0.8739166259765625,0.5375213623046875,0.1955718994140625
20220119-1341,2022-01-19 13:41:41Z,u01, 126,40,movements,el-ex, rt, d,230670.5094764167, 1.7657339232751104, -0.5179147495992812, 2.714015440019291, -0.13397294282913208, 0.37587153911590576, -0.4257718324661255, 0.8523970246315002, 0.4950694441795349, 0.1683015078306198, 0.002964794635772705, 0.06765934824943542, 0.03779909014701843, -0.7642974259790521, -0.00044449481929875745, 0.3235478253027869,0.5578225408795039,0.8553619384765625,0.5627288818359375,0.2061004638671875
20220119-1341,2022-01-19 13:41:41Z,u01, 127,40,movements,el-ex, rt, d,230670.53442241668, 1.7787968200774733, -0.5284223035769429, 2.7204024641091187, -0.14310435950756073, 0.409684956073761, -0.4746551215648651, 0.8449892997741699, 0.5041714906692505, 0.17833751440048218, -0.003451824188232422, 0.05062282085418701, 0.041618093848228455, -0.767562179391141, -0.004130268512053226, 0.32545252129517205,0.552188301078421,0.8428955078125,0.55517578125,0.2220916748046875
20220119-1341,2022-01-19 13:41:41Z,u01, 128,40,movements,el-ex, rt, d,230670.55936841667, 1.7930713737880628, -0.5398040086900466, 2.727524130352862, -0.15465529263019562, 0.43687903881073, -0.5305279493331909, 0.836706280708313, 0.5139678716659546, 0.18910352885723114, -0.0017909407615661621, 0.04721999168395996, 0.034621044993400574, -0.7710287640992739, -0.008149337118633693, 0.32752860061170175,0.5460526376778546,0.8349151611328125,0.561187744140625,0.223724365234375
20220119-1341,2022-01-19 13:41:41Z,u01, 129,40,movements,el-ex, rt, d,230670.5843144167, 1.8086801324268296, -0.5519310175837644, 2.7355404962655996, -0.12904579937458038, 0.49054574966430664, -0.5388540625572205, 0.8275343179702759, 0.5243324637413025, 0.20065633952617645, 0.008861124515533447, 0.05304497480392456, 0.04824523627758026, -0.7747077154316311, -0.012494940775623409, 0.3297066975569238,0.5394122562616429,0.8343658447265625,0.5773773193359375,0.243896484375
20220119-1341,2022-01-19 13:41:41Z,u01, 130,40,movements,el-ex, rt, d,230670.60925941667, 1.8244018294080577, -0.5645261568829661, 2.7397695071016024, 0.12750962376594543, 0.5926975607872009, -0.5126921534538269, 0.8178191781044006, 0.5350155830383301, 0.211967334151268, 0.026602208614349365, 0.04768705368041992, 0.03932975232601166, -0.7782961105674799, -0.015454158320127698, 0.3331457917827977,0.5320058553116096,0.84442138671875,0.58270263671875,0.2512969970703125
20220119-1341,2022-01-19 13:41:41Z,u01, 131,40,movements,el-ex, rt, d,230670.6342054167, 1.8383543496626384, -0.5789823516626279, 2.7369694710660872, 0.29569703340530396, 0.644115149974823, -0.5689937472343445, 0.8072384595870972, 0.5471724271774292, 0.2212889939546585, 0.015942871570587158, 0.04149651527404785, 0.02375200390815735, -0.781263650440709, -0.01648045746439264, 0.33913534940471224,0.5237775178060158,0.8302001953125,0.5872802734375,0.2361297607421875
20220119-1341,2022-01-19 13:41:41Z,u01, 132,40,movements,el-ex, rt, d,230670.65915141668, 1.8535094924572193, -0.5953722061905841, 2.7353067266539903, 0.12771624326705933, 0.6389033198356628, -0.6687275767326355, 0.7950724959373474, 0.5608169436454773, 0.23096390068531036, 0.017839550971984863, 0.01392066478729248, 0.044777870178222656, -0.784314206845685, -0.018253091835767288, 0.3455374894583547,0.5148999926440274,0.8129119873046875,0.574737548828125,0.2757415771484375
20220119-1341,2022-01-19 13:41:41Z,u01, 133,40,movements,el-ex, rt, d,230670.68409741667, 1.8732153214898155, -0.611833998701864, 2.741908058873698, -0.11971728503704071, 0.6429206728935242, -0.7010704278945923, 0.7814472913742065, 0.5743697285652161, 0.2438027262687683, 0.023255467414855957, 0.024430930614471436, 0.03200004994869232, -0.788288802395222, -0.022408135175561228, 0.34994170911689426,0.5056080631190344,0.8087615966796875,0.590911865234375,0.279815673828125
20220119-1341,2022-01-19 13:41:41Z,u01, 134,40,movements,el-ex, rt, d,230670.7090434167, 1.8948455476920851, -0.6279864181323882, 2.751607497944674, -0.060343172401189804, 0.639286994934082, -0.7288996577262878, 0.7670959830284119, 0.5875165462493896, 0.257659375667572, 0.02361452579498291, 0.04015380144119263, 0.0031287670135498047, -0.7925190100866972, -0.02726373818685296, 0.35359662879208004,0.4961248257604175,0.79071044921875,0.6276702880859375,0.2607879638671875
20220119-1341,2022-01-19 13:41:41Z,u01, 135,40,movements,el-ex, rt, d,230670.73398941668, 1.9159319920944162, -0.6451961470470465, 2.759980361044131, -0.011176658794283867, 0.6561667323112488, -0.756402850151062, 0.7518654465675354, 0.6013551950454712, 0.2703149616718292, 0.03213101625442505, 0.02503335475921631, 0.008478373289108276, -0.7963287277895108, -0.03190682195496186, 0.35808973970533237,0.48643005472671497,0.785430908203125,0.6249847412109375,0.2751617431640625
20220119-1341,2022-01-19 13:41:41Z,u01, 136,40,movements,el-ex, rt, d,230670.75893541667, 1.9380659197590164, -0.6631287814854024, 2.7685702617087973, 0.016801178455352783, 0.6964832544326782, -0.7819671034812927, 0.735514760017395, 0.6155855655670166, 0.2829711437225342, 0.04660499095916748, 0.0263516902923584, 0.005877941846847534, -0.80009360602716, -0.03654846394599026, 0.36294202045246743,0.47622220502394064,0.7821197509765625,0.641937255859375,0.288848876953125
20220119-1341,2022-01-19 13:41:41Z,u01, 137,40,movements,el-ex, rt, d,230670.7838814167, 1.959834013581347, -0.6822977240719157, 2.7751247882275254, 0.1830211877822876, 0.7140251994132996, -0.8108365535736084, 0.718129575252533, 0.6305779814720154, 0.29438316822052, 0.049189209938049316, 0.04233461618423462, -0.02222728729248047, -0.8034535383715509, -0.0406693666931201, 0.3688507929335034,0.46557229414892953,0.770477294921875,0.6680908203125,0.27789306640625
20220119-1341,2022-01-19 13:41:41Z,u01, 138,40,movements,el-ex, rt, d,230670.80882741668, 1.9786617078828042, -0.704061158634717, 2.777480900272239, 0.3348711431026459, 0.6609694957733154, -0.8532966375350952, 0.6996943354606628, 0.6473184823989868, 0.30233490467071533, 0.04006695747375488, 0.029835939407348633, -0.06025415658950806, -0.8057361547805236, -0.04423464657345272, 0.3767212205123511,0.45487756151823405,0.7397613525390625,0.677154541015625,0.2420806884765625
20220119-1341,2022-01-19 13:41:41Z,u01, 139,40,movements,el-ex, rt, d,230670.83377341667, 1.9954139466016108, -0.7272953422075235, 2.7790844990681522, 0.3000115156173706, 0.6245737671852112, -0.8853378295898438, 0.6806411147117615, 0.6648517847061157, 0.3077331781387329, 0.01787567138671875, 0.015507102012634277, -0.0013366341590881348, -0.8071855511036636, -0.04814644350921443, 0.38531428778815546,0.4445967550409389,0.7046661376953125,0.674591064453125,0.2899627685546875
20220119-1341,2022-01-19 13:41:41Z,u01, 140,40,movements,el-ex, rt, d,230670.8587194167, 2.0157532492793426, -0.7496409468865268, 2.7851784602345564, 0.13306041061878204, 0.6691123247146606, -0.8954896330833435, 0.6606647968292236, 0.6813759803771973, 0.31503820419311523, 0.04430657625198364, 0.00885540246963501, 0.035380005836486816, -0.8091562593016456, -0.052775409034324317, 0.39274357605488136,0.4338588372091425,0.7049713134765625,0.6902313232421875,0.3504180908203125
20220119-1341,2022-01-19 13:41:41Z,u01, 141,40,movements,el-ex, rt, d,230670.88366441667, 2.0411171255035105, -0.7708541442396806, 2.796893975920005, 0.009265899658203125, 0.7058186531066895, -0.9441919326782227, 0.639431893825531, 0.6967481970787048, 0.3250676989555359, 0.0721006989479065, 0.012648224830627441, 0.021718978881835938, -0.8118776905921324, -0.05821056053357043, 0.39881178378823806,0.42239246128385816,0.712982177734375,0.70037841796875,0.3495025634765625
20220119-1341,2022-01-19 13:41:41Z,u01, 142,40,movements,el-ex, rt, d,230670.9086104167, 2.0704217561259997, -0.7911200623311577, 2.813726905194937, -0.07998651266098022, 0.7110844850540161, -0.9412755370140076, 0.6171103119850159, 0.7111411690711975, 0.3368288278579712, 0.07232767343521118, 0.016565978527069092, 0.009332269430160522, -0.8150176760910492, -0.06450274435828895, 0.4037819253266386,0.410543496769055,0.6894378662109375,0.7277069091796875,0.346160888671875
20220119-1341,2022-01-19 13:41:41Z,u01, 143,40,movements,el-ex, rt, d,230670.93355641668, 2.101713869472212, -0.8112028687466851, 2.8323552964073837, 0.0005414830520749092, 0.7362048029899597, -0.9639036655426025, 0.5938321948051453, 0.7251160144805908, 0.3486686944961548, 0.05964064598083496, 0.03683149814605713, 0.013742834329605103, -0.8181132600267975, -0.07088747366434078, 0.4086487528507774,0.3983362403993144,0.6593170166015625,0.7554168701171875,0.361724853515625
20220119-1341,2022-01-19 13:41:41Z,u01, 144,40,movements,el-ex, rt, d,230670.95850241667, 2.132378158003547, -0.8326155314659026, 2.849379061756006, 0.06515532732009888, 0.7403389811515808, -0.9894540905952454, 0.5695887804031372, 0.7396939992904663, 0.35835981369018555, 0.07103627920150757, 0.04367703199386597, 0.014778763055801392, -0.8205312468944412, -0.07686596312478566, 0.4145882782541924,0.3859232849593225,0.640625,0.7833709716796875,0.373138427734375
20220119-1341,2022-01-19 13:41:41Z,u01, 145,40,movements,el-ex, rt, d,230670.9834484167, 2.166469550597566, -0.8532950316343804, 2.8699515790459253, -0.08752173185348511, 0.7647638320922852, -1.0033414363861084, 0.5442628860473633, 0.7534509897232056, 0.36890336871147156, 0.05787944793701172, -0.011477112770080566, 0.038643836975097656, -0.8231241629246768, -0.08317627570489605, 0.41998140248147137,0.3730469228779909,0.609405517578125,0.737548828125,0.4033050537109375
20220119-1341,2022-01-19 13:41:41Z,u01, 146,40,movements,el-ex, rt, d,230671.00839404168, 2.205656781337993, -0.871914898168241, 2.8959541601694556, -0.1222759485244751, 0.7853178977966309, -0.9979583621025085, 0.5180054306983948, 0.7655622959136963, 0.38155534863471985, 0.06338483095169067, -0.0011276006698608398, 0.017019540071487427, -0.8262505547764405, -0.08993159891145519, 0.424131562586989,0.35963129268778754,0.581390380859375,0.764434814453125,0.3985748291015625
20220119-1341,2022-01-19 13:41:41Z,u01, 147,40,movements,el-ex, rt, d,230671.03334004167, 2.2457814909922034, -0.8902795166496841, 2.922512423082311, -0.04548013582825661, 0.796686589717865, -0.9881545305252075, 0.49122264981269836, 0.7772476673126221, 0.3931749165058136, 0.056384772062301636, 0.00679469108581543, 0.018583625555038452, -0.8290294500809277, -0.09642419297878202, 0.42851435161175644,0.3461040829611285,0.5538787841796875,0.7851409912109375,0.4103851318359375
20220119-1341,2022-01-19 13:41:41Z,u01, 148,40,movements,el-ex, rt, d,230671.0582860417, 2.2865492063554957, -0.9084706740973416, 2.9488273651449357, -0.059016983956098557, 0.8167575001716614, -0.9646420478820801, 0.4640430212020874, 0.7885642051696777, 0.4035232365131378, 0.06699347496032715, -0.012563049793243408, 0.021144330501556396, -0.8314315738811796, -0.10238727998510139, 0.43328464875828154,0.3324198309678145,0.531036376953125,0.7760009765625,0.4246673583984375
20220119-1341,2022-01-19 13:41:41Z,u01, 149,40,movements,el-ex, rt, d,230671.08323204168, 2.3307724705440913, -0.9240868032530587, 2.9787515263513087, -0.14297659695148468, 0.8504830002784729, -0.9418312311172485, 0.4367697536945343, 0.7980708479881287, 0.4151086211204529, 0.06562584638595581, -0.04256248474121094, 0.03990858793258667, -0.8341577096309208, -0.10832927057972891, 0.4369996604627098,0.31855455481033995,0.508026123046875,0.748382568359375,0.4459075927734375
20220119-1341,2022-01-19 13:41:41Z,u01, 150,40,movements,el-ex, rt, d,230671.10817804167, 2.3774017136903023, -0.9396176429700199, 3.0088280219361745, 0.018835868686437607, 0.9395420551300049, -0.9667954444885254, 0.4083193838596344, 0.8073325157165527, 0.4260159730911255, 0.0851040780544281, 0.021906375885009766, 0.061578720808029175, -0.836728506873718, -0.11354907872384229, 0.4411969184496397,0.3038706035049552,0.4934234619140625,0.8292388916015625,0.4875946044921875
20220119-1341,2022-01-19 13:41:41Z,u01, 151,40,movements,el-ex, rt, d,230671.13312304168, 2.4244747641330284, -0.9565228342152952, 3.0391035991579813, -0.01682375743985176, 0.8849631547927856, -0.9772422909736633, 0.3787960410118103, 0.8171923756599426, 0.4344083070755005, 0.04645121097564697, 0.02436041831970215, 0.0058994293212890625, -0.8385172582931211, -0.11871375816823537, 0.44635939985765644,0.2890662238935878,0.4503173828125,0.85211181640625,0.4397430419921875
20220119-1341,2022-01-19 13:41:41Z,u01, 152,40,movements,el-ex, rt, d,230671.15806904167, 2.47394496152868, -0.9720092807248063, 3.0719147547744385, 0.03686822950839996, 0.9041855931282043, -0.9616931676864624, 0.34897297620773315, 0.8260198831558228, 0.44261616468429565, 0.012584000825881958, -0.04315251111984253, 0.008662641048431396, -0.8402187618407034, -0.12385685939658408, 0.4511350440952814,0.2741698638812291,0.3615570068359375,0.782867431640625,0.4512786865234375
20220119-1341,2022-01-19 13:41:41Z,u01, 153,40,movements,el-ex, rt, d,230671.1830150417, 2.5247756410642026, -0.9883201613193984, 3.104290068248367, 0.10079412162303925, 0.9573655128479004, -0.9640529155731201, 0.318197101354599, 0.8351030945777893, 0.4487244784832001, 0.066721111536026, -0.010853767395019531, 0.02211606502532959, -0.8413689541279923, -0.12829856302025844, 0.4568194942445624,0.2587542964273019,0.3679656982421875,0.817962646484375,0.459228515625
20220119-1341,2022-01-19 13:41:41Z,u01, 154,40,movements,el-ex, rt, d,230671.20796104168, 2.5763631321061364, -1.001608935500453, 3.1389435618856387, -0.11363309621810913, 0.8250724673271179, -0.9149157404899597, 0.2886657416820526, 0.8423392176628113, 0.45512306690216064, 0.1339416801929474, -0.028954148292541504, -0.013045310974121094, -0.8425744805808445, -0.13277719544948613, 0.46140790586270986,0.24401085363893796,0.422607421875,0.813385009765625,0.44207763671875
20220119-1341,2022-01-19 13:41:41Z,u01, 155,40,movements,el-ex, rt, d,230671.23290704167, 2.63168626861853, -1.007690780583427, -3.102333876057607, -0.33673086762428284, 0.7615659832954407, -0.8670152425765991, 0.2605525553226471, 0.8456013798713684, 0.4659081995487213, 0.07086828351020813, -0.06708288192749023, -0.024700254201889038, -0.8448712911572658, -0.13837125774600245, 0.4627652415930517,0.22998732339644434,0.3435821533203125,0.772552490234375,0.4456024169921875
20220119-1341,2022-01-19 13:41:41Z,u01, 156,40,movements,el-ex, rt, d,230671.2578530417, 2.6857325955183136, -1.010858961911791, -3.060923573511924, -0.2121138572692871, 0.7623201012611389, -0.7642556428909302, 0.23382335901260376, 0.8472883701324463, 0.4768955111503601, 0.06584396958351135, -0.059354960918426514, -0.07758808135986328, -0.8472318272782517, -0.1436871356530584, 0.4633044530857961,0.21656713814397474,0.2996673583984375,0.787933349609375,0.3993072509765625
20220119-1341,2022-01-19 13:41:41Z,u01, 157,40,movements,el-ex, rt, d,230671.28279904168, 2.733504173725851, -1.0156607874366537, -3.0272054007940294, -0.042911820113658905, 0.7742235660552979, -0.7110081911087036, 0.20916612446308136, 0.8498290181159973, 0.48377716541290283, 0.055024534463882446, -0.06630539894104004, -0.03295612335205078, -0.8486430321004023, -0.147287438844159, 0.4652948831349144,0.2039905455934121,0.2686767578125,0.783447265625,0.4411163330078125
20220119-1341,2022-01-19 13:41:41Z,u01, 158,40,movements,el-ex, rt, d,230671.30774504167, 2.7788217319987782, -1.0213601146608928, -2.996131675513236, -0.05597681924700737, 0.7303065657615662, -0.6659572720527649, 0.18531352281570435, 0.8528190851211548, 0.48822006583213806, 0.09984269738197327, -0.04305034875869751, -0.0229489803314209, -0.8494246238896298, -0.1502925135645829, 0.46804521772643704,0.19189513782706313,0.28515625,0.8097686767578125,0.46527099609375
20220119-1341,2022-01-19 13:41:41Z,u01, 159,40,movements,el-ex, rt, d,230671.3326910417, 2.823570612386829, -1.023602902504242, -2.9643572075692357, -0.23448555171489716, 0.6796860694885254, -0.6445555090904236, 0.16268949210643768, 0.8539881110191345, 0.49420303106307983, 0.11488308012485504, -0.06231635808944702, -0.038026124238967896, -0.8506234834278736, -0.1534314478132066, 0.4694547186371345,0.1803075850354957,0.2755584716796875,0.79901123046875,0.4606475830078125
20220119-1341,2022-01-19 13:41:42Z,u01, 160,40,movements,el-ex, rt, d,230671.35763704168, 2.865332527029526, -1.0208422758485354, -2.933494294064301, -0.28172433376312256, 0.621070921421051, -0.5503869652748108, 0.14255724847316742, 0.8525485396385193, 0.5028305053710938, 0.0732477456331253, -0.07123750448226929, -0.049674928188323975, -0.8525675735129499, -0.15666459496523, 0.4687964160684528,0.16974892226526914,0.2158050537109375,0.78131103515625,0.453155517578125
20220119-1341,2022-01-19 13:41:42Z,u01, 161,40,movements,el-ex, rt, d,230671.38258304168, 2.9042881418171214, -1.0194637287742108, -2.9059442813992296, -0.13116437196731567, 0.5849466919898987, -0.5373889207839966, 0.12314215302467346, 0.8518272042274475, 0.5091428756713867, 0.07561880350112915, -0.02123028039932251, -0.04576385021209717, -0.8539392075794949, -0.15924596926821538, 0.4690071314413033,0.15956471998751343,0.201416015625,0.835357666015625,0.456390380859375
20220119-1341,2022-01-19 13:41:42Z,u01, 162,40,movements,el-ex, rt, d,230671.4075280417, 2.940913750601814, -1.0184821187261994, -2.8799690286760176, -0.213185116648674, 0.5639769434928894, -0.49535948038101196, 0.10458264499902725, 0.8513126373291016, 0.5141295194625854, 0.06894025951623917, -0.027231335639953613, -0.01872241497039795, -0.8549310816108888, -0.1617331136232345, 0.46951013701710476,0.14998479174565035,0.17352294921875,0.8240814208984375,0.4954071044921875
20220119-1341,2022-01-19 13:41:42Z,u01, 163,40,movements,el-ex, rt, d,230671.43247404168, 2.9757076994997176, -1.014254652520825, -2.855977471693469, -0.2883159816265106, 0.5468556880950928, -0.4613608419895172, 0.08722784370183945, 0.8490870594978333, 0.5210012197494507, 0.06230826675891876, -0.0316585898399353, -0.039098143577575684, -0.8565436770654855, -0.16380945008914205, 0.46876452033774507,0.14056723765507184,0.1426544189453125,0.81610107421875,0.4883880615234375
20220119-1341,2022-01-19 13:41:42Z,u01, 164,40,movements,el-ex, rt, d,230671.45742004167, 3.0061312995368272, -1.0096120288986403, -2.8361983275338627, -0.18097329139709473, 0.5553503632545471, -0.36223477125167847, 0.07187085598707199, 0.8466254472732544, 0.527314305305481, 0.03904528170824051, -0.03439992666244507, -0.04679960012435913, -0.8581219626125581, -0.16517822827530776, 0.4679039405137959,0.13194274832568473,0.1109161376953125,0.812225341796875,0.4805145263671875
20220119-1341,2022-01-19 13:41:42Z,u01, 165,40,movements,el-ex, rt, d,230671.4823660417, 3.0344627805796374, -1.0078859331624141, -2.818771256069174, -0.07921003550291061, 0.533322811126709, -0.34412211179733276, 0.05706055834889412, 0.8457055687904358, 0.5305905342102051, 0.04781308397650719, -0.02026611566543579, -0.0484432578086853, -0.8589083536317794, -0.16604733920884934, 0.46838706559563514,0.12376722634872431,0.10137939453125,0.8285675048828125,0.48870849609375
20220119-1341,2022-01-19 13:41:42Z,u01, 166,40,movements,el-ex, rt, d,230671.50731204168, 3.059506476770682, -1.0074972939729652, -2.803644729568814, -0.024630215018987656, 0.4588431417942047, -0.31858915090560913, 0.043783076107501984, 0.8454980850219727, 0.532180905342102, 0.037851426750421524, -0.028954386711120605, -0.037216126918792725, -0.8592484331859945, -0.16668105069363193, 0.46939308393873724,0.11653261989732391,0.081634521484375,0.8165435791015625,0.494964599609375
20220119-1341,2022-01-19 13:41:42Z,u01, 167,40,movements,el-ex, rt, d,230671.53225804167, 3.081873809693599, -1.0069959937347275, -2.789886339760433, -0.08855880051851273, 0.4115058481693268, -0.28069862723350525, 0.031894929707050323, 0.8452303409576416, 0.5334497690200806, 0.031184881925582886, -0.028732478618621826, -0.037493228912353516, -0.8594872582109552, -0.16735152857244712, 0.47026452197355506,0.11012024873969681,0.063690185546875,0.826904296875,0.4994659423828125
20220119-1341,2022-01-19 13:41:42Z,u01, 168,40,movements,el-ex, rt, d,230671.5572040417, 3.10272047439807, -1.0024700317615527, -2.7762783142903498, -0.28546449542045593, 0.3360963761806488, -0.25810059905052185, 0.020916612818837166, 0.8428030014038086, 0.5378158688545227, 0.047625839710235596, -0.05909627676010132, -0.04913783073425293, -0.8605415278167533, -0.16845244482836508, 0.46933024459215167,0.10402534955530571,0.06854248046875,0.7837066650390625,0.488677978515625
20220119-1341,2022-01-19 13:41:42Z,u01, 169,40,movements,el-ex, rt, d,230671.58215004168, 3.120152100498799, -0.9957028375158028, -2.764777139080697, -0.21761243045330048, 0.30621424317359924, -0.22892099618911743, 0.011660920456051826, 0.8391414284706116, 0.5437888503074646, 0.013622882775962353, -0.023177504539489746, -0.04008066654205322, -0.8620542218169396, -0.16957873721974326, 0.4672970571552431,0.09868764991697584,0.02996826171875,0.8093414306640625,0.4984588623046875
20220119-1341,2022-01-19 13:41:42Z,u01, 170,40,movements,el-ex, rt, d,230671.60709604167, 3.1356175129878556, -0.9925814509907394, -2.7549030498052183, -0.04401882737874985, 0.2737065553665161, -0.2089228481054306, 0.0032655736431479454, 0.8374395966529846, 0.5465201735496521, 0.040801793336868286, 0.009819865226745605, -0.04534512758255005, -0.8626926877331316, -0.17035671393507545, 0.4667877786432335,0.09406967287382423,0.0440673828125,0.847259521484375,0.5011749267578125
20220119-1341,2022-01-19 13:41:42Z,u01, 171,40,movements,el-ex, rt, d,230671.6320420417, -3.1343337603477166, -0.9920911827210876, -2.7464342794898444, -0.03645661473274231, 0.22282001376152039, -0.16918708384037018, -0.003970147110521793, 0.8371715545654297, 0.5469260215759277, 0.04692363739013672, -0.01849186420440674, -0.03140765428543091, -0.8626945327514745, -0.17094195746513602, 0.4673151682556643,0.09029696259681705,0.0514678955078125,0.8260345458984375,0.51043701171875
20220119-1341,2022-01-19 13:41:42Z,u01, 172,40,movements,el-ex, rt, d,230671.65698704167, -3.122127699046207, -0.9895037316087956, -2.7385416795380424, -0.1640910655260086, 0.21606981754302979, -0.17084744572639465, -0.010687624104321003, 0.8357535600662231, 0.5490007400512695, 0.04131200909614563, -0.022109270095825195, -0.029637157917022705, -0.8631598356049912, -0.17162595287377697, 0.4668966106187039,0.08664416540092945,0.0306243896484375,0.8136444091796875,0.5193634033203125
20220119-1341,2022-01-19 13:41:42Z,u01, 173,40,movements,el-ex, rt, d,230671.6819330417, -3.111536588840385, -0.9864100958566245, -2.731914971566398, -0.03554428368806839, 0.19718189537525177, -0.13627082109451294, -0.016579069197177887, 0.8340508341789246, 0.5514386892318726, 0.02176705002784729, -0.02240532636642456, -0.007935762405395508, -0.8637552366043362, -0.17218081768330323, 0.46619334381731703,0.08333381188801564,0.012115478515625,0.81231689453125,0.533233642578125
20220119-1341,2022-01-19 13:41:42Z,u01, 174,40,movements,el-ex, rt, d,230671.70687904168, -3.10167516245807, -0.9877208000966228, -2.725716589152295, 0.11588392406702042, 0.18401215970516205, -0.11782696843147278, -0.02197251282632351, 0.8347732424736023, 0.5501558780670166, 0.029189882799983025, 0.0016679763793945312, -0.039398133754730225, -0.8633237229129699, -0.1724821286509216, 0.4673526167116191,0.0806461301396538,0.0072174072265625,0.8364410400390625,0.5107574462890625
20220119-1341,2022-01-19 13:41:42Z,u01, 175,40,movements,el-ex, rt, d,230671.73182504167, -3.093606145111318, -0.9893825225641182, -2.7208827074804205, -0.024407807737588882, 0.14124606549739838, -0.10144266486167908, -0.026344384998083115, 0.8356870412826538, 0.5485742092132568, 0.027839720249176025, -0.03662991523742676, -0.014089107513427734, -0.8628454943027803, -0.17258260001944625, 0.46856996435773524,0.07845533271635813,0.0046539306640625,0.7958831787109375,0.5256805419921875
20220119-1341,2022-01-19 13:41:42Z,u01, 176,40,movements,el-ex, rt, d,230671.7567710417, -3.08783863339055, -0.9868831848990975, -2.7172913935788086, -0.15420947968959808, 0.0913405492901802, -0.060185506939888, -0.029619965702295303, 0.8343117833137512, 0.5504970550537109, 0.02018999680876732, -0.050101399421691895, -0.02557927370071411, -0.8633321755343089, -0.17293378132640563, 0.4678567195976104,0.07656178100932756,-0.009429931640625,0.784210205078125,0.5249176025390625
20220119-1341,2022-01-19 13:41:42Z,u01, 177,40,movements,el-ex, rt, d,230671.78171704168, -3.086296968894329, -0.983913250310401, -2.7175004321166494, -0.11691834032535553, 0.0633394718170166, -0.00486665777862072, -0.03060539998114109, 0.8326707482337952, 0.5529220104217529, 0.009395664557814598, -0.06143057346343994, -0.02064955234527588, -0.8640876612991041, -0.17266591237426243, 0.466723408037912,0.07555312470079723,-0.0249176025390625,0.7560272216796875,0.545196533203125
20220119-1341,2022-01-19 13:41:42Z,u01, 178,40,movements,el-ex, rt, d,230671.80666304167, -3.0874853717303865, -0.984107703036552, -2.7198869447499785, 0.08614985644817352, 0.0014559347182512283, 0.06983160972595215, -0.029939547181129456, 0.8327784538269043, 0.5527966618537903, 0.041612472385168076, -0.02410823106765747, -0.07821756601333618, -0.8642040417983368, -0.17190024401961945, 0.46679461510560993,0.07552884729754294,0.0116729736328125,0.8086700439453125,0.474578857421875
20220119-1341,2022-01-19 13:41:42Z,u01, 179,40,movements,el-ex, rt, d,230671.8316090417, -3.092188532636745, -0.9870726240001363, -2.723864917648233, 0.12458570301532745, -0.0996895283460617, 0.11294932663440704, -0.027217263355851173, 0.8344161510467529, 0.550462543964386, 0.03663191199302673, -0.0773056149482727, -0.09834450483322144, -0.8636871513030715, -0.17110161688705205, 0.4678161780087939,0.07692076041147705,0.0100555419921875,0.7625579833984375,0.454498291015625
20220119-1341,2022-01-19 13:41:42Z,u01, 180,40,movements,el-ex, rt, d,230671.85655504168, -3.102042182591782, -0.990365845630753, -2.7312602765339586, 0.15563106536865234, -0.18949511647224426, 0.21916145086288452, -0.02168319933116436, 0.8362266421318054, 0.5479553937911987, 0.026657551527023315, -0.11453163623809814, -0.08967280387878418, -0.8631741322272183, -0.17002383026312967, 0.4686801019294984,0.07975816638103309,0.004974365234375,0.7216949462890625,0.458282470703125
20220119-1341,2022-01-19 13:41:42Z,u01, 181,40,movements,el-ex, rt, d,230671.88150104167, -3.1172577747002173, -0.9940084326732354, -2.7429454558423183, 0.10220449417829514, -0.24563980102539062, 0.3017994165420532, -0.013269335962831974, 0.838218629360199, 0.545172929763794, 0.05184352770447731, -0.07962805032730103, -0.055182576179504395, -0.8626959456833541, -0.16835130688229522, 0.46943725710079476,0.08391798752024884,0.0288543701171875,0.7564697265625,0.4861907958984375
20220119-1341,2022-01-19 13:41:42Z,u01, 182,40,movements,el-ex, rt, d,230671.90644604168, -3.1364107020024057, -0.9959455284334808, -2.7574562918346546, 0.017044294625520706, -0.31495368480682373, 0.3256452679634094, -0.0028174661565572023, 0.8392734527587891, 0.5437027215957642, 0.06687381863594055, -0.041864216327667236, -0.048005521297454834, -0.8626308887379224, -0.1664911308825877, 0.46929520461020513,0.08894274156787149,0.064056396484375,0.7974090576171875,0.495697021484375
20220119-1341,2022-01-19 13:41:42Z,u01, 183,40,movements,el-ex, rt, d,230671.93139204168, 3.1241513617997563, -0.9962985281819624, -2.7738790943766247, 0.026993032544851303, -0.39446189999580383, 0.3866105377674103, 0.009477361105382442, 0.839465320110321, 0.5433313250541687, 0.05769181251525879, -0.05420202016830444, -0.08575046062469482, -0.8628681383461034, -0.16469441061278506, 0.4683291138975409,0.09488108846633386,0.0695648193359375,0.7914886474609375,0.465972900390625
20220119-1341,2022-01-19 13:41:42Z,u01, 184,40,movements,el-ex, rt, d,230671.9563380417, 3.096134480696709, -0.9979160914755302, -2.7945581137650874, 0.1645495593547821, -0.44138309359550476, 0.5137338638305664, 0.024632353335618973, 0.8403432369232178, 0.5414952039718628, 0.03571614995598793, -0.06794315576553345, -0.09210842847824097, -0.8627951691620765, -0.16227170693667559, 0.4677581382096342,0.10224916772157114,0.0603485107421875,0.77239990234375,0.4493865966796875
20220119-1341,2022-01-19 13:41:42Z,u01, 185,40,movements,el-ex, rt, d,230671.98128404169, 3.0652383661679927, -1.0012412427253912, -2.818568894457594, 0.12843096256256104, -0.429832398891449, 0.48658162355422974, 0.04113462567329407, 0.8421409726142883, 0.5376863479614258, 0.050631698220968246, -0.0029381513595581055, 0.030993640422821045, -0.8622903791870675, -0.15905492559872836, 0.46799362533060457,0.11017634726923117,0.0760955810546875,0.833831787109375,0.5758209228515625
20220119-1341,2022-01-19 13:41:42Z,u01, 186,40,movements,el-ex, rt, d,230672.00623004168, 3.0352745889060024, -0.9996971844111969, -2.8408169682341518, -0.15743030607700348, -0.47478118538856506, 0.4727005064487457, 0.057362835854291916, 0.8413073420524597, 0.5375054478645325, 0.07340497523546219, -0.0018296241760253906, 0.0009469389915466309, -0.862707979283386, -0.15648532864441955, 0.4662267161845096,0.11781397711111999,0.130767822265625,0.8394775390625,0.5384521484375
20220119-1341,2022-01-19 13:41:42Z,u01, 187,40,movements,el-ex, rt, d,230672.03117637502, 3.004689001544112, -0.9945536093533183, -2.8623286305098583, -0.01850751042366028, -0.5211706161499023, 0.5326209664344788, 0.07436295598745346, 0.8385158181190491, 0.539779543876648, 0.00817183405160904, -0.028273940086364746, -0.09779328107833862, -0.8637516654694923, -0.15434645618628368, 0.46291807483890735,0.12576675336858384,0.0926666259765625,0.816131591796875,0.4607696533203125
20220119-1341,2022-01-19 13:41:42Z,u01, 188,40,movements,el-ex, rt, d,230672.056122375, 2.966053326868046, -0.9994114944645183, -2.8925269107183613, 0.6332188248634338, -0.5380586385726929, 0.6750372052192688, 0.09444443881511688, 0.8411528468132019, 0.5324867963790894, -0.03211230784654617, -0.1083037257194519, -0.10081559419631958, -0.8623567353616228, -0.15028058018124973, 0.4640696960040064,0.1356316701389141,0.0623321533203125,0.73284912109375,0.431671142578125
20220119-1341,2022-01-19 13:41:42Z,u01, 189,40,movements,el-ex, rt, d,230672.081068375, 2.922522061828687, -1.011032568910764, -2.929087225182566, 0.3885345160961151, -0.5063830018043518, 0.6711646318435669, 0.11539528518915176, 0.8473805785179138, 0.5182956457138062, 0.06503990292549133, -0.04756057262420654, 0.0824277400970459, -0.8591624846035452, -0.1448711697842351, 0.4684991001113148,0.1461535590950003,0.1483612060546875,0.8210601806640625,0.5926666259765625
20220119-1341,2022-01-19 13:41:42Z,u01, 190,40,movements,el-ex, rt, d,230672.10601437502, 2.886099778355186, -1.0039811185316139, -2.9562908830190144, -0.6399293541908264, -0.5863277316093445, 0.5806037187576294, 0.13569879531860352, 0.8436152935028076, 0.519518256187439, 0.1177496612071991, -0.028780698776245117, 0.06721282005310059, -0.8600826747755124, -0.14148118412554467, 0.4648710770746362,0.15535705250025728,0.253448486328125,0.8148345947265625,0.58673095703125
20220119-1341,2022-01-19 13:41:42Z,u01, 191,40,movements,el-ex, rt, d,230672.130960375, 2.854882782144815, -0.9845163784470167, -2.9742383604284783, -0.40609386563301086, -0.6815783977508545, 0.6041396260261536, 0.15646256506443024, 0.8330045938491821, 0.5306816697120667, 0.04344281554222107, 0.05433976650238037, -0.08095920085906982, -0.863532961053376, -0.14018436885633462, 0.45560965044033563,0.16455727478428492,0.2260284423828125,0.8880767822265625,0.4741973876953125
20220119-1341,2022-01-19 13:41:42Z,u01, 192,40,movements,el-ex, rt, d,230672.155906375, 2.8151567114670746, -0.9800578323881609, -3.0024397202678323, 0.4487156569957733, -0.6196233034133911, 0.6904954314231873, 0.17860454320907593, 0.8305295705795288, 0.5275612473487854, -0.04525798559188843, -0.024529874324798584, -0.11407864093780518, -0.8631695834474069, -0.13681700637910243, 0.4533053828897017,0.17530988021910773,0.1333465576171875,0.805999755859375,0.413482666015625
20220119-1341,2022-01-19 13:41:42Z,u01, 193,40,movements,el-ex, rt, d,230672.18085137501, 2.766828379273762, -0.9890957482153184, -3.0430612960022754, 0.6963595747947693, -0.5646140575408936, 0.7396052479743958, 0.20112642645835876, 0.8355295062065125, 0.5113110542297363, 0.010467201471328735, -0.015583157539367676, 0.016215920448303223, -0.8593726454096533, -0.13089762305299657, 0.4576848720223988,0.1867328201893463,0.1786346435546875,0.8358154296875,0.529876708984375
20220119-1341,2022-01-19 13:41:42Z,u01, 194,40,movements,el-ex, rt, d,230672.205797375, 2.7221240596720513, -0.9895179038714338, -3.0792835783192243, -0.08270643651485443, -0.6166353225708008, 0.701896071434021, 0.22363175451755524, 0.8357613682746887, 0.5014892220497131, 0.0916910469532013, -0.04393720626831055, 0.06905204057693481, -0.8573001293238298, -0.12562285120200317, 0.45848152088945365,0.1976106473572372,0.3153228759765625,0.7918243408203125,0.5705413818359375
20220119-1341,2022-01-19 13:41:42Z,u01, 195,40,movements,el-ex, rt, d,230672.23074337502, 2.68685283946833, -0.9750715368664191, -3.1014077880485558, -0.3844764530658722, -0.7134458422660828, 0.6807419657707214, 0.2464551031589508, 0.8277420401573181, 0.504086434841156, 0.0829363465309143, 0.01342916488647461, -0.026440441608428955, -0.8584559539555305, -0.12286823707087774, 0.4523001771548539,0.20828194237230246,0.3403167724609375,0.825408935546875,0.49310302734375
20220119-1341,2022-01-19 13:41:42Z,u01, 196,40,movements,el-ex, rt, d,230672.25568937502, 2.64820619807771, -0.9633693034402984, -3.126260601170145, 0.10806814581155777, -0.7318674921989441, 0.7401195764541626, 0.2703167796134949, 0.8211192488670349, 0.5026848912239075, 0.004432946443557739, 0.005128920078277588, -0.06500178575515747, -0.8584932791204749, -0.11971527708870427, 0.4475750880892654,0.2198502518775897,0.274749755859375,0.8262481689453125,0.43768310546875
20220119-1341,2022-01-19 13:41:42Z,u01, 197,40,movements,el-ex, rt, d,230672.280635375, 2.6019824714715467, -0.9602447589551409, 3.122104231842513, 0.36801430583000183, -0.685611367225647, 0.7713194489479065, 0.29457253217697144, 0.8193319439888, 0.49185606837272644, 0.0024550557136535645, 0.007999598979949951, 0.013332098722457886, -0.8560105862651112, -0.11477764620442982, 0.4474603617522186,0.2320587086783326,0.278961181640625,0.83697509765625,0.502044677734375
20220119-1341,2022-01-19 13:41:42Z,u01, 198,40,movements,el-ex, rt, d,230672.30558137503, 2.557569532327244, -0.9543131739675523, 3.08908493673047, 0.0162680484354496, -0.7192991375923157, 0.7687035202980042, 0.31879374384880066, 0.8159168362617493, 0.48233845829963684, 0.05904436111450195, -0.016798794269561768, 0.00411185622215271, -0.8538770211656441, -0.10983289102770566, 0.44637484032086283,0.2440907853327358,0.377838134765625,0.7991180419921875,0.4864501953125
20220119-1341,2022-01-19 13:41:42Z,u01, 199,40,movements,el-ex, rt, d,230672.33052737502, 2.5169054222638367, -0.9422767645425052, 3.062248748382657, -0.021901607513427734, -0.8008660674095154, 0.7981484532356262, 0.34385767579078674, 0.8088988065719604, 0.4769118130207062, 0.06671056151390076, -0.007354557514190674, -0.06272709369659424, -0.8528043253861108, -0.10573874597412714, 0.4424592772681467,0.2564643794204674,0.4179534912109375,0.792938232421875,0.416961669921875
20220119-1341,2022-01-19 13:41:43Z,u01, 200,40,movements,el-ex, rt, d,230672.355473375, 2.472762299825499, -0.9319111151523367, 3.032777783584916, 0.179678812623024, -0.8258661031723022, 0.8199065327644348, 0.3697476387023926, 0.8027610182762146, 0.4678264558315277, 0.013614177703857422, -0.038967013359069824, -0.03571271896362305, -0.850671135597583, -0.10135012634928808, 0.43970569037275553,0.2697141578465944,0.38336181640625,0.7637939453125,0.4321136474609375
20220119-1341,2022-01-19 13:41:43Z,u01, 201,40,movements,el-ex, rt, d,230672.38041937503, 2.427816769556618, -0.9211701418866715, 3.0023785310066273, 0.015550493262708187, -0.8144567608833313, 0.8239766955375671, 0.3960164785385132, 0.7963099479675293, 0.45723286271095276, 0.04177352786064148, 0.002594590187072754, 0.041256725788116455, -0.8481148979458171, -0.09652744800477414, 0.43722311512554435,0.2832308143218979,0.425811767578125,0.7997894287109375,0.489044189453125
20220119-1341,2022-01-19 13:41:43Z,u01, 202,40,movements,el-ex, rt, d,230672.40536537502, 2.3931447714266763, -0.9048598533566515, 2.9841217685385995, -0.36436882615089417, -0.7923042178153992, 0.7338253855705261, 0.4204117953777313, 0.7863385677337646, 0.4526877701282501, 0.08062586188316345, 0.020851552486419678, 0.05732226371765137, -0.8471179707560048, -0.09346136607835659, 0.4314962209167658,0.29574880447941443,0.50103759765625,0.80718994140625,0.510009765625
20220119-1341,2022-01-19 13:41:43Z,u01, 203,40,movements,el-ex, rt, d,230672.43031037503, 2.3643062883245145, -0.8865834968929012, 2.9723573950197806, -0.18021655082702637, -0.7995967268943787, 0.7047561407089233, 0.4432961344718933, 0.7749168276786804, 0.4505469799041748, 0.09466767311096191, 0.052216291427612305, -0.008484423160552979, -0.8467223654603943, -0.0912947207890567, 0.4244390704768334,0.3075354215802789,0.54290771484375,0.8288726806640625,0.4506378173828125
20220119-1341,2022-01-19 13:41:43Z,u01, 204,40,movements,el-ex, rt, d,230672.45525637502, 2.3283514244249837, -0.8747706382987412, 2.9505678968150684, 0.33364349603652954, -0.7468689680099487, 0.7667866349220276, 0.46582379937171936, 0.7673964500427246, 0.44058018922805786, 0.02695879340171814, 0.03358316421508789, -0.024350911378860474, -0.8441850306476071, -0.08741700749903042, 0.42142998000316567,0.31954137042188463,0.4927825927734375,0.8009796142578125,0.416229248046875
20220119-1341,2022-01-19 13:41:43Z,u01, 205,40,movements,el-ex, rt, d,230672.480202375, 2.284061620019847, -0.8685235475311778, 2.9156097603246267, 0.5317639112472534, -0.6758390069007874, 0.7809376120567322, 0.48848995566368103, 0.7633760571479797, 0.4226524233818054, 0.007146120071411133, 0.01471555233001709, 0.03723245859146118, -0.8395241438201184, -0.08078008494180733, 0.4227401958967939,0.33160924837127803,0.4821319580078125,0.7774505615234375,0.450836181640625
20220119-1341,2022-01-19 13:41:43Z,u01, 206,40,movements,el-ex, rt, d,230672.50514837503, 2.246478662643641, -0.8586707505936201, 2.8877426064306757, 0.015981292352080345, -0.6699576377868652, 0.716296911239624, 0.5098696947097778, 0.7569746375083923, 0.40868350863456726, 0.04358172416687012, -0.006455898284912109, 0.09444469213485718, -0.8358984984004598, -0.07493638359046645, 0.4220580182589744,0.3428195467483425,0.5534515380859375,0.750518798828125,0.5031280517578125
20220119-1341,2022-01-19 13:41:43Z,u01, 207,40,movements,el-ex, rt, d,230672.53009437502, 2.2218414526263497, -0.8429720673629248, 2.877038577717348, -0.2014106810092926, -0.649364173412323, 0.618939995765686, 0.5291712284088135, 0.7466235756874084, 0.40315163135528564, 0.05874991416931152, 0.08032649755477905, 0.030915260314941406, -0.8344880405295503, -0.07214935586996568, 0.41682528410873354,0.3531018605499259,0.597412109375,0.812713623046875,0.4429779052734375
20220119-1341,2022-01-19 13:41:43Z,u01, 208,40,movements,el-ex, rt, d,230672.555040375, 2.196752567795609, -0.8300990526173034, 2.8646293350144467, 0.11659251898527145, -0.6151280403137207, 0.6147006154060364, 0.5468623042106628, 0.7379981875419617, 0.39534831047058105, 0.0006077885627746582, 0.06939005851745605, 0.03064674139022827, -0.8323933754267783, -0.06924901345428691, 0.4131120139679167,0.36285577022063187,0.5474700927734375,0.8073883056640625,0.425994873046875
20220119-1341,2022-01-19 13:41:43Z,u01, 209,40,movements,el-ex, rt, d,230672.579986375, 2.1679690988422147, -0.820381031557093, 2.8453957934529184, 0.2585456073284149, -0.5594960451126099, 0.6408844590187073, 0.5639181137084961, 0.7314057350158691, 0.3834611177444458, -0.02973836660385132, 0.00975954532623291, 0.024559080600738525, -0.8291661222215723, -0.06491612653711909, 0.4119013234246205,0.37229946446580364,0.52880859375,0.746185302734375,0.4057769775390625
20220119-1341,2022-01-19 13:41:43Z,u01, 210,40,movements,el-ex, rt, d,230672.60493237502, 2.1404115577607423, -0.810153546051138, 2.826891286844547, 0.08603331446647644, -0.5664035677909851, 0.6110087633132935, 0.580538809299469, 0.7243930101394653, 0.3717920780181885, 0.0009124875068664551, 0.014452755451202393, 0.040180057287216187, -0.8259789615646604, -0.060454859852012544, 0.41058482962591136,0.3814761401235103,0.581451416015625,0.7388458251953125,0.4119720458984375
20220119-1341,2022-01-19 13:41:43Z,u01, 211,40,movements,el-ex, rt, d,230672.629878375, 2.1194263694330946, -0.7969577041472135, 2.817398676852392, -0.16070349514484406, -0.5683756470680237, 0.5397798418998718, 0.5963172912597656, 0.7152332067489624, 0.36448216438293457, 0.041683197021484375, 0.03485840559005737, 0.04967200756072998, -0.82397060569064, -0.057563242867727904, 0.4067514960293652,0.39027190908206033,0.6341400146484375,0.7454681396484375,0.4210357666015625
20220119-1341,2022-01-19 13:41:43Z,u01, 212,40,movements,el-ex, rt, d,230672.654824375, 2.10273783731147, -0.7839621132510591, 2.8130302079783327, -0.10814158618450165, -0.5272539854049683, 0.495465487241745, 0.6102761030197144, 0.7060906291007996, 0.35916459560394287, 0.03765779733657837, 0.05370551347732544, 0.029186934232711792, -0.8224723473636051, -0.055870683533323084, 0.40219077417974575,0.398321879714875,0.6479339599609375,0.759796142578125,0.3883514404296875
20220119-1341,2022-01-19 13:41:43Z,u01, 213,40,movements,el-ex, rt, d,230672.67977037502, 2.0843005462891564, -0.7733186408990741, 2.804961721902533, 0.04884772747755051, -0.49884292483329773, 0.4860716462135315, 0.6233049035072327, 0.6985138654708862, 0.3515242636203766, -0.0013262033462524414, 0.011141836643218994, 0.020012080669403076, -0.8203026608806723, -0.05353201477693326, 0.39927217645994895,0.4059797788048883,0.6235198974609375,0.7235870361328125,0.375274658203125
20220119-1341,2022-01-19 13:41:43Z,u01, 214,40,movements,el-ex, rt, d,230672.704715375, 2.0647229050758447, -0.7629251353008213, 2.7946494814247522, 0.060875363647937775, -0.49889644980430603, 0.5300633311271667, 0.6364251971244812, 0.6910387277603149, 0.34267836809158325, -0.010326623916625977, -0.016325652599334717, 0.0041235387325286865, -0.8177947956001141, -0.050505979101791276, 0.3969562771665375,0.413626107144227,0.6260986328125,0.674713134765625,0.3468017578125
20220119-1341,2022-01-19 13:41:43Z,u01, 215,40,movements,el-ex, rt, d,230672.72966137502, 2.045336612703298, -0.7513164667092099, 2.7848412676768524, -0.00208452669903636, -0.5258060097694397, 0.5480892658233643, 0.6500407457351685, 0.6826013922691345, 0.33392003178596497, 0.01795858144760132, -0.03579658269882202, 0.00026285648345947266, -0.8153070830946061, -0.04726924882461192, 0.3941786710456472,0.421501177699332,0.6621246337890625,0.646881103515625,0.333953857421875
20220119-1341,2022-01-19 13:41:43Z,u01, 216,40,movements,el-ex, rt, d,230672.754607375, 2.0272906782781175, -0.7385753651469464, 2.7781224029220697, -0.08304502069950104, -0.5587764978408813, 0.5434204936027527, 0.6637135744094849, 0.6732351779937744, 0.3259432017803192, 0.03603929281234741, -0.014116466045379639, -0.0035552978515625, -0.8130051902587114, -0.044656026475326294, 0.3904427307276751,0.4296312227396451,0.6997528076171875,0.65911865234375,0.3223876953125
20220119-1341,2022-01-19 13:41:43Z,u01, 217,40,movements,el-ex, rt, d,230672.779553375, 2.009515690310836, -0.7256526039950435, 2.7724708627934542, -0.03972877562046051, -0.5603393912315369, 0.5330411791801453, 0.6772220730781555, 0.6636237502098083, 0.3177641034126282, 0.03571432828903198, -0.005115389823913574, 0.0036776065826416016, -0.8106126543892804, -0.04229871947419289, 0.3864851056573912,0.4378896197389131,0.7140655517578125,0.6652069091796875,0.3193206787109375
20220119-1341,2022-01-19 13:41:43Z,u01, 218,40,movements,el-ex, rt, d,230672.80449937502, 1.9906612918795505, -0.7137141001106455, 2.7645995560880072, 0.04061240330338478, -0.5369288921356201, 0.5342590808868408, 0.690278172492981, 0.6546459197998047, 0.30814749002456665, 0.024489283561706543, -0.0053997039794921875, 0.010761350393295288, -0.8077855694757674, -0.03944890414762203, 0.38342985046744904,0.44599084737261063,0.7147674560546875,0.6492462158203125,0.31890869140625
20220119-1341,2022-01-19 13:41:43Z,u01, 219,40,movements,el-ex, rt, d,230672.829445375, 1.9730725110562772, -0.701216587378579, 2.7574859910862206, -0.0633494183421135, -0.5028954744338989, 0.5578978061676025, 0.7030651569366455, 0.6451476812362671, 0.2991393804550171, 0.03530776500701904, -0.028860390186309814, 0.010812550783157349, -0.8051345870766333, -0.03644152796304151, 0.3801054550380827,0.4538175576730681,0.734771728515625,0.6167144775390625,0.3196563720703125
20220119-1341,2022-01-19 13:41:43Z,u01, 220,40,movements,el-ex, rt, d,230672.854391375, 1.9584043202140358, -0.687299013473157, 2.7539059448596293, -0.13076317310333252, -0.4842386841773987, 0.5450995564460754, 0.7156210541725159, 0.6344517469406128, 0.2921605110168457, 0.032029151916503906, -0.005225002765655518, 0.019164681434631348, -0.8030787959364002, -0.03383349116242351, 0.375574685238525,0.46137133212227244,0.747650146484375,0.6292266845703125,0.3113250732421875
20220119-1341,2022-01-19 13:41:43Z,u01, 221,40,movements,el-ex, rt, d,230672.87933737502, 1.9436921243561773, -0.674241524404409, 2.750078921504628, -0.04448910802602768, -0.4883129894733429, 0.5305776596069336, 0.7274951934814453, 0.624305009841919, 0.28459492325782776, 0.03899961709976196, 0.01815110445022583, -0.00718998908996582, -0.800822725457658, -0.031311635392258175, 0.37146228386364893,0.4687412899882356,0.7630615234375,0.6509246826171875,0.2787628173828125
20220119-1341,2022-01-19 13:41:43Z,u01, 222,40,movements,el-ex, rt, d,230672.904283375, 1.9282754175105254, -0.6618707319349401, 2.745200505901741, -0.03130706027150154, -0.5040406584739685, 0.5061283707618713, 0.7389745712280273, 0.6145936250686646, 0.2760273218154907, 0.025780558586120605, 0.019500553607940674, -0.004054605960845947, -0.7982441327735772, -0.02863510442664452, 0.36788800971903024,0.4760721491687396,0.7647552490234375,0.63409423828125,0.27197265625
20220119-1341,2022-01-19 13:41:43Z,u01, 223,40,movements,el-ex, rt, d,230672.929229375, 1.9128951552355709, -0.6497702886606341, 2.7406403672393593, -0.025473738089203835, -0.498958945274353, 0.49389687180519104, 0.7500840425491333, 0.6050035357475281, 0.26710498332977295, 0.015312254428863525, 0.012535035610198975, 0.0015414059162139893, -0.7955321117863149, -0.026098935607272666, 0.3643923248402528,0.48338999867481514,0.7625885009765625,0.6213226318359375,0.270233154296875
20220119-1341,2022-01-19 13:41:43Z,u01, 224,40,movements,el-ex, rt, d,230672.95417437502, 1.8976477561202123, -0.6379953458510788, 2.7363330941200807, -0.025652769953012466, -0.5029988288879395, 0.487626850605011, 0.7607636451721191, 0.5955862998962402, 0.2579070031642914, 0.02643740177154541, 0.014505922794342041, 0.009533911943435669, -0.7927123174731185, -0.023678660472364832, 0.36100820521513355,0.490631975486066,0.787200927734375,0.6100921630859375,0.2674407958984375
20220119-1341,2022-01-19 13:41:43Z,u01, 225,40,movements,el-ex, rt, d,230672.979120375, 1.8824600461317709, -0.6260717745713685, 2.73212167823508, 0.0014350395649671555, -0.5000291466712952, 0.4916016161441803, 0.7712975144386292, 0.5859661102294922, 0.24848346412181854, 0.023014068603515625, 0.020738661289215088, 0.008062601089477539, -0.7898055764171716, -0.02118680058693584, 0.3576002299887917,0.497875900140611,0.7971954345703125,0.6029510498046875,0.2626800537109375
20220119-1341,2022-01-19 13:41:43Z,u01, 226,40,movements,el-ex, rt, d,230673.00406637503, 1.8667529757288952, -0.6145706284156192, 2.7259739950666404, 0.12000864744186401, -0.46963587403297424, 0.506246030330658, 0.7815001606941223, 0.5766077637672424, 0.23828838765621185, 0.006967425346374512, 0.019644737243652344, -0.013709396123886108, -0.7866489828626346, -0.018098883852640024, 0.35487988190690767,0.504892281507888,0.7884674072265625,0.59625244140625,0.224578857421875
20220119-1341,2022-01-19 13:41:43Z,u01, 227,40,movements,el-ex, rt, d,230673.029011875, 1.8498077880600365, -0.6033963451753778, 2.716688461801605, 0.17925973236560822, -0.4631761312484741, 0.5159788131713867, 0.7915701866149902, 0.5674423575401306, 0.2267724722623825, 0.006464362144470215, 0.0016952157020568848, -0.011089354753494263, -0.7830636716662961, -0.014054348024078123, 0.3531367747385185,0.5117696368106075,0.79638671875,0.5727386474609375,0.2095794677734375
20220119-1341,2022-01-19 13:41:43Z,u01, 228,40,movements,el-ex, rt, d,230673.053957875, 1.8336853218422038, -0.5918788757522, 2.708533896033584, 0.09653529524803162, -0.46518683433532715, 0.5130733251571655, 0.8013812899589539, 0.557921290397644, 0.21566562354564667, 0.007670164108276367, -0.0014638304710388184, 0.019441798329353333, -0.7795700543520994, -0.010165755819352085, 0.35107686116021397,0.5185673833227953,0.809051513671875,0.55645751953125,0.235107421875
20220119-1341,2022-01-19 13:41:43Z,u01, 229,40,movements,el-ex, rt, d,230673.07890387502, 1.8187292750523392, -0.5801030304131959, 2.7027255055339796, 0.041166406124830246, -0.48099327087402344, 0.4921216070652008, 0.810830295085907, 0.5481101274490356, 0.20525459945201874, 0.019964933395385742, 0.00477677583694458, 6.780028343200684e-05, -0.7762603649000754, -0.006866460204337177, 0.34839827378640764,0.5253487590965289,0.827728271484375,0.5540618896484375,0.2068023681640625
20220119-1341,2022-01-19 13:41:43Z,u01, 230,40,movements,el-ex, rt, d,230673.103849875, 1.8042472564128682, -0.5685387864344622, 2.6983778589769103, 0.015097222290933132, -0.4815019965171814, 0.4694572389125824, 0.8198297619819641, 0.5384013056755066, 0.19494439661502838, 0.014902293682098389, 0.003300964832305908, 0.010316938161849976, -0.7729525226550726, -0.004073666713870272, 0.34547123146528186,0.5321441986517621,0.8347320556640625,0.5417022705078125,0.20526123046875
20220119-1341,2022-01-19 13:41:43Z,u01, 231,40,movements,el-ex, rt, d,230673.128795875, 1.7910519105533862, -0.5572200723704173, 2.695596626573471, -0.02967986837029457, -0.4500724971294403, 0.44986510276794434, 0.828224778175354, 0.5288288593292236, 0.1854294240474701, 0.02506202459335327, 0.0032756924629211426, 0.02149510383605957, -0.7698778033949965, -0.0016971689718119354, 0.34226242419616765,0.5386481668510594,0.8524017333984375,0.532989501953125,0.203369140625
20220119-1341,2022-01-19 13:41:43Z,u01, 232,40,movements,el-ex, rt, d,230673.15374187502, 1.7789639551381595, -0.5462631597896217, 2.6937532998949045, -0.015009813010692596, -0.4331696331501007, 0.4373549520969391, 0.836024820804596, 0.519497811794281, 0.17659148573875427, 0.014026999473571777, 0.016833364963531494, 0.007948383688926697, -0.7670042737747943, 0.00043522024958264627, 0.3389629457608064,0.5448012367712324,0.8500518798828125,0.5363311767578125,0.184539794921875
20220119-1341,2022-01-19 13:41:43Z,u01, 233,40,movements,el-ex, rt, d,230673.178687875, 1.7667716894356755, -0.5360175445912342, 2.6904088648468547, 0.04902905970811844, -0.4008397161960602, 0.4058675467967987, 0.8432922959327698, 0.5107161402702332, 0.16741326451301575, -0.0005493760108947754, 0.020625412464141846, 0.028875932097434998, -0.764001319110142, 0.0029355872396065186, 0.3363533478287272,0.550599516931006,0.84326171875,0.53472900390625,0.1899871826171875
20220119-1341,2022-01-19 13:41:43Z,u01, 234,40,movements,el-ex, rt, d,230673.20363287503, 1.75567486181686, -0.5266062308717188, 2.6877151270942865, -0.014550184831023216, -0.3836090564727783, 0.37359535694122314, 0.8497851490974426, 0.5026022791862488, 0.15892183780670166, 0.009818673133850098, 0.01840907335281372, 0.025557026267051697, -0.7612059870525837, 0.0051342797803964335, 0.33388523679949256,0.5559314235363698,0.8596038818359375,0.5210113525390625,0.184478759765625
20220119-1341,2022-01-19 13:41:43Z,u01, 235,40,movements,el-ex, rt, d,230673.22857887502, 1.7453587177420364, -0.5176497466949692, 2.6857790890770716, 0.026966098695993423, -0.359906405210495, 0.34899067878723145, 0.8557784557342529, 0.4948391616344452, 0.15092281997203827, 0.006083786487579346, 0.021747171878814697, 0.021288037300109863, -0.7585589212867113, 0.007055223517028808, 0.3313883157279136,0.5609995254789456,0.8675079345703125,0.51837158203125,0.16436767578125
20220119-1341,2022-01-19 13:41:43Z,u01, 236,40,movements,el-ex, rt, d,230673.253524875, 1.7359444639721786, -0.5095349682425763, 2.6839478184426615, -0.00468160817399621, -0.33100423216819763, 0.3214178681373596, 0.8610938191413879, 0.48777133226394653, 0.14351515471935272, -0.0016730427742004395, 0.01714196801185608, 0.043527230620384216, -0.7560949003505045, 0.008836214329326186, 0.3291694306322273,0.5655881088888512,0.8594207763671875,0.504913330078125,0.187042236328125
20220119-1341,2022-01-19 13:41:43Z,u01, 237,40,movements,el-ex, rt, d,230673.27847087503, 1.7276408293272685, -0.5021673053027129, 2.6828443616920956, 0.00351759884506464, -0.29244381189346313, 0.27481651306152344, 0.8657821416854858, 0.4813264012336731, 0.13691774010658264, 0.007936239242553711, 0.03879997134208679, 0.029693126678466797, -0.7538917483280183, 0.010300713439094389, 0.3270123774968959,0.5697404159259049,0.875640869140625,0.5188446044921875,0.164337158203125
20220119-1341,2022-01-19 13:41:43Z,u01, 238,40,movements,el-ex, rt, d,230673.30341687502, 1.7201846691429188, -0.49590824453062776, 2.6816735199726423, -0.01865062117576599, -0.2580132484436035, 0.23897689580917358, 0.869740903377533, 0.47583067417144775, 0.1309043914079666, 0.003016054630279541, 0.035155653953552246, 0.03692708909511566, -0.7518763652836657, 0.01158139577838807, 0.32526061344112395,0.5733701646177431,0.8727569580078125,0.510986328125,0.1678314208984375
20220119-1341,2022-01-19 13:41:43Z,u01, 239,40,movements,el-ex, rt, d,230673.328362875, 1.7147502333068625, -0.49051803633290725, 2.68264981815319, -0.1130496934056282, -0.21571053564548492, 0.17495210468769073, 0.8729652166366577, 0.4710828959941864, 0.12654206156730652, -0.0048926472663879395, 0.0422075092792511, 0.05059729516506195, -0.7504161365066624, 0.01211000429829645, 0.32318351806312445,0.5764386283851467,0.8686370849609375,0.50567626953125,0.1775054931640625
20220119-1341,2022-01-19 13:41:44Z,u01, 240,40,movements,el-ex, rt, d,230673.35330887503, 1.7108039103921076, -0.4862844114222788, 2.6847066920747573, -0.056636251509189606, -0.17247392237186432, 0.13232548534870148, 0.8754248023033142, 0.4673442542552948, 0.12337329983711243, -0.009473204612731934, 0.049272626638412476, 0.03061854839324951, -0.7493598624099541, 0.012101440518798856, 0.3211781283026399,0.5789283868777982,0.8659515380859375,0.5166168212890625,0.15399169921875
20220119-1341,2022-01-19 13:41:44Z,u01, 241,40,movements,el-ex, rt, d,230673.37825487502, 1.706911202729636, -0.4835459763649292, 2.684209148447466, 0.03959670662879944, -0.11623241752386093, 0.09533717483282089, 0.8771629929542542, 0.4649215340614319, 0.12013779580593109, -0.00728994607925415, 0.04327240586280823, 0.03673791140317917, -0.7482719436739621, 0.012569595472604445, 0.32041890062282485,0.5807433643464331,0.8659515380859375,0.51275634765625,0.1527862548828125
20220119-1341,2022-01-19 13:41:44Z,u01, 242,40,movements,el-ex, rt, d,230673.403200875, 1.704615638763595, -0.4820746388714105, 2.683901958403468, -0.06062120571732521, -0.05628619343042374, 0.027448203414678574, 0.8781134486198425, 0.46361836791038513, 0.11821503192186356, 0.0003349781036376953, 0.03128519654273987, 0.06292223185300827, -0.7476252793840861, 0.012804631517346787, 0.3200249731959438,0.5817873548915148,0.878448486328125,0.494903564453125,0.1811370849609375
20220119-1341,2022-01-19 13:41:44Z,u01, 243,40,movements,el-ex, rt, d,230673.42814687503, 1.7056375155794197, -0.4824722517885957, 2.6873361684734416, -0.12054875493049622, -0.018636884167790413, -0.036196619272232056, 0.8778093457221985, 0.4639706313610077, 0.11908748745918274, -0.010896623134613037, 0.042102307081222534, 0.03783402591943741, -0.7479373593905099, 0.01155205002202353, 0.3191541989367953,0.5818906890060469,0.8692626953125,0.50347900390625,0.1576385498046875
20220119-1341,2022-01-19 13:41:44Z,u01, 244,40,movements,el-ex, rt, d,230673.453091875, 1.7073995450451251, -0.4846466556697823, 2.6895559443279997, 0.013122688978910446, 0.013351008296012878, -0.055354997515678406, 0.8765968084335327, 0.46589574217796326, 0.12049638479948044, -0.00809699296951294, 0.04144373536109924, 0.02391289919614792, -0.7484266576262348, 0.010282501589065351, 0.319235654317254,0.5812404663293745,0.868499755859375,0.5073394775390625,0.1444091796875
20220119-1341,2022-01-19 13:41:44Z,u01, 245,40,movements,el-ex, rt, d,230673.478037875, 1.711255930782747, -0.4868643640520265, 2.691370804462231, -0.04361053183674812, 0.04547319561243057, -0.08390787988901138, 0.8751005530357361, 0.46785691380500793, 0.12373104691505432, 0.0004184246063232422, 0.010246813297271729, 0.05015827715396881, -0.7495168826679603, 0.009484971719362079, 0.31944205382248814,0.5797339540498567,0.8773193359375,0.48077392578125,0.169464111328125
20220119-1341,2022-01-19 13:41:44Z,u01, 246,40,movements,el-ex, rt, d,230673.50298387502, 1.7166862997731325, -0.48960651106503383, 2.694723438061788, -0.07165078818798065, 0.1224665716290474, -0.13991594314575195, 0.8731431365013123, 0.47027865052223206, 0.12829431891441345, -0.0010421276092529297, 0.020688235759735107, 0.037385717034339905, -0.7510526570615617, 0.008189563509209852, 0.3193800527200091,0.5777970264254577,0.872100830078125,0.490966796875,0.165679931640625
20220119-1341,2022-01-19 13:41:44Z,u01, 247,40,movements,el-ex, rt, d,230673.527929875, 1.722093131531459, -0.49484048355907795, 2.696913773318636, -0.0048542143777012825, 0.17279839515686035, -0.18442383408546448, 0.8699914216995239, 0.4748912751674652, 0.1326405555009842, 0.0103798508644104, 0.024681538343429565, 0.022892490029335022, -0.7525143918374928, 0.006508811136159476, 0.32051221342028935,0.575284088686259,0.88348388671875,0.4979400634765625,0.1575775146484375
20220119-1341,2022-01-19 13:41:44Z,u01, 248,40,movements,el-ex, rt, d,230673.552875875, 1.728326484190503, -0.5000303608139154, 2.6986029579842397, -0.05014093592762947, 0.2071642279624939, -0.23311106860637665, 0.8667019605636597, 0.4794521927833557, 0.13767239451408386, 0.003690063953399658, 0.014169752597808838, 0.034248486161231995, -0.7541945784402552, 0.00517080966861877, 0.32178137388031003,0.5723816116268596,0.870391845703125,0.493621826171875,0.1719207763671875
20220119-1341,2022-01-19 13:41:44Z,u01, 249,40,movements,el-ex, rt, d,230673.57782187502, 1.737586160007161, -0.5049241658391187, 2.7032886303106123, -0.10667827725410461, 0.22344644367694855, -0.2508286237716675, 0.8630657196044922, 0.48374107480049133, 0.1453004628419876, 0.0071887969970703125, 0.016396284103393555, 0.01279592514038086, -0.7567294034970276, 0.0032925157758408874, 0.32210128428150364,0.5688590251317228,0.8693084716796875,0.4965667724609375,0.1569061279296875
20220119-1341,2022-01-19 13:41:44Z,u01, 250,40,movements,el-ex, rt, d,230673.602767875, 1.7457338000948324, -0.5108458572112208, 2.7073627424085727, -0.10058549791574478, 0.25776368379592896, -0.2880966365337372, 0.8590172529220581, 0.4889152944087982, 0.15182626247406006, 0.005377829074859619, 0.012045979499816895, 0.0245807021856308, -0.758888555698312, 0.0011372039046256832, 0.32297326990517233,0.5654866548979016,0.8643951416015625,0.5009613037109375,0.1764068603515625
20220119-1341,2022-01-19 13:41:44Z,u01, 251,40,movements,el-ex, rt, d,230673.627713875, 1.7554609576827083, -0.5180475159258745, 2.7125984943044816, -0.14983506500720978, 0.31532445549964905, -0.35182902216911316, 0.8540165424346924, 0.4951847791671753, 0.1595240980386734, 0.021364986896514893, 0.03395947813987732, 0.02947138249874115, -0.7614193695907523, -0.0016097505576722626, 0.32398510522262813,0.561490577492529,0.8730010986328125,0.5248870849609375,0.1897735595703125
20220119-1341,2022-01-19 13:41:44Z,u01, 252,40,movements,el-ex, rt, d,230673.65265987502, 1.767571528038393, -0.5269716377722999, 2.7197291365427922, -0.18619880080223083, 0.36137664318084717, -0.4441069960594177, 0.8476545810699463, 0.5029181241989136, 0.16898410022258759, 0.04129213094711304, 0.04182076454162598, 0.03549911081790924, -0.7645028760472319, -0.0052345585182907994, 0.3251072998054659,0.5566088591745721,0.888946533203125,0.54473876953125,0.2044830322265625
