SessionID,LoggingTime,UID,RecNo,Hertz,Activity,MoveType,Wrist,Side,TimeStamp,DMRoll,DMPitch,DMYaw,DMRotX,DMRotY,DMRotZ,DMGrvX,DMGrvY,DMGrvZ,DMUAccelX,DMUAccelY,DMUAccelZ,DMQuatX,DMQuatY,DMQuatW,DMQuatZ,AccelroX,AceelroY,AceelroZ
20220119-1334,2022-01-19 13:34:10Z,u01, 1,40,movements,el-ex, rt, d,230219.9006097917, -2.9796116191234097, -0.7800117159687573, -3.0748872511701637, 0.11294019967317581, -0.38886788487434387, 0.24342229962348938, -0.11465039849281311, 0.7032877206802368, 0.7016001343727112, 0.052104607224464417, -0.10782867670059204, -0.18643218278884888, -0.9223882371458814, 5.551115123125783e-17, 0.3812319584479446,-0.062148666813174325,-0.0669097900390625,0.600250244140625,0.5082550048828125
20220119-1334,2022-01-19 13:34:10Z,u01, 2,40,movements,el-ex, rt, d,230219.92555679168, -2.9971768236010274, -0.7824868995249534, -3.0841891131685686, 0.045819349586963654, -0.49571335315704346, 0.30966365337371826, -0.10205872356891632, 0.705045223236084, 0.7017805576324463, 0.05899842083454132, -0.07786327600479126, -0.09991234540939331, -0.9224365551061385, 0.0010402117238239028, 0.38210174098365846,-0.05575107216610692,-0.054473876953125,0.610992431640625,0.5955047607421875
20220119-1334,2022-01-19 13:34:10Z,u01, 3,40,movements,el-ex, rt, d,230219.95050379168, -3.01854372814146, -0.7850520174432641, -3.095482545691302, 0.07917711138725281, -0.5827186703681946, 0.3592398464679718, -0.08681941777467728, 0.7068619728088379, 0.7020036578178406, 0.06315306574106216, -0.03373587131500244, -0.08989685773849487, -0.922494844961375, 0.0022540223498815903, 0.3830078982624967,-0.04799269735744385,-0.0310516357421875,0.66632080078125,0.6152801513671875
20220119-1334,2022-01-19 13:34:10Z,u01, 4,40,movements,el-ex, rt, d,230219.97545079168, -3.043723137973024, -0.7890860077838538, -3.1086827315205534, 0.1671448051929474, -0.6930424571037292, 0.4243539273738861, -0.06883852183818817, 0.709709644317627, 0.7011232972145081, 0.07147834450006485, -0.02397984266281128, -0.12060219049453735, -0.9222518537501527, 0.003627903089875928, 0.38461722395897097,-0.038833878890146334,-0.0016937255859375,0.68499755859375,0.587493896484375
20220119-1334,2022-01-19 13:34:10Z,u01, 5,40,movements,el-ex, rt, d,230220.00039779168, -3.073322803279188, -0.796913607694717, -3.1246481310750975, 0.3802531659603119, -0.555012583732605, 0.3605431318283081, -0.047677960246801376, 0.7152023911476135, 0.6972897052764893, 0.07110023498535156, -0.0369645357131958, -0.12369608879089355, -0.9212031800797138, 0.005437273876420845, 0.38802300342198925,-0.028168343356687692,0.0114898681640625,0.672149658203125,0.562225341796875
20220119-1334,2022-01-19 13:34:10Z,u01, 6,40,movements,el-ex, rt, d,230220.02534479168, -3.106762260113143, -0.8061140546144003, 3.1396447109528864, 0.24837660789489746, -0.7706000208854675, 0.5286730527877808, -0.024108491837978363, 0.7216023802757263, 0.6918883323669434, 0.09007227420806885, 0.022431373596191406, 0.0010595321655273438, -0.9197197709048754, 0.007726241440177972, 0.39215690960908506,-0.016400805253047185,0.1022796630859375,0.7255401611328125,0.6383056640625
20220119-1334,2022-01-19 13:34:10Z,u01, 7,40,movements,el-ex, rt, d,230220.05029179167, -3.140909988383316, -0.8100394167438052, 3.119380519354562, 0.03293810412287712, -0.7963896989822388, 0.5868610143661499, -0.0004706775362137705, 0.7243143320083618, 0.6894704103469849, 0.06155166029930115, -0.013987243175506592, 0.029646456241607666, -0.9190365881038098, 0.01034181179103938, 0.39400898654771677,-0.004689808440681537,0.0563507080078125,0.7184295654296875,0.7205810546875
20220119-1334,2022-01-19 13:34:10Z,u01, 8,40,movements,el-ex, rt, d,230220.07523879167, 3.1044103782726578, -0.809613950344182, 3.09618226377235, 0.03268364071846008, -0.8950608968734741, 0.7001292705535889, 0.025641627609729767, 0.7240209579467773, 0.6893017888069153, 0.046044204384088516, -0.07155513763427734, -0.10588151216506958, -0.9189490934830186, 0.013545085921858713, 0.39405966403999304,0.008143260390670037,0.0704345703125,0.67742919921875,0.6357421875
20220119-1334,2022-01-19 13:34:10Z,u01, 9,40,movements,el-ex, rt, d,230220.10018579167, 3.063556274884627, -0.8130576085499578, 3.0704503213324426, 0.34201881289482117, -0.8605490922927856, 0.6795469522476196, 0.05357849970459938, 0.7263920307159424, 0.6851893663406372, -0.0013934075832366943, -0.03819018602371216, -0.0868154764175415, -0.9177679269925458, 0.017225301020614148, 0.39614669079013215,0.021754414040985215,0.0538330078125,0.669036865234375,0.5778656005859375
20220119-1334,2022-01-19 13:34:10Z,u01, 10,40,movements,el-ex, rt, d,230220.12513279167, 3.0262975186708867, -0.8191072259101412, 3.047124734023365, 0.17714831233024597, -0.7969252467155457, 0.5759826302528381, 0.07855772972106934, 0.7305364608764648, 0.6783403158187866, 0.04984503239393234, 0.09313279390335083, 0.1353502869606018, -0.9158368493305913, 0.020322645814751128, 0.39959043076684647,0.03402148698545551,0.08111572265625,0.7905426025390625,0.771759033203125
20220119-1334,2022-01-19 13:34:10Z,u01, 11,40,movements,el-ex, rt, d,230220.15007979167, 2.9898783899284007, -0.8169260241115768, 3.025845595138708, -0.21954165399074554, -0.8747153282165527, 0.6007508039474487, 0.10344532132148743, 0.7290452718734741, 0.6766036748886108, 0.09441544860601425, 0.017673969268798828, 0.05941969156265259, -0.9153023435221586, 0.022879014915793527, 0.3994167296009506,0.046524953695631116,0.190826416015625,0.764984130859375,0.75775146484375
20220119-1334,2022-01-19 13:34:10Z,u01, 12,40,movements,el-ex, rt, d,230220.1750267917, 2.9526896117163286, -0.8078040039609342, 3.0056393390229297, -0.18024174869060516, -0.9212428331375122, 0.6369616389274597, 0.12977349758148193, 0.7227712869644165, 0.6787936687469482, 0.015154525637626648, -0.02149277925491333, -0.08559256792068481, -0.9158393725384352, 0.025200810167223253, 0.3962445268940971,0.05994617604627303,0.170928955078125,0.696319580078125,0.641693115234375
20220119-1334,2022-01-19 13:34:10Z,u01, 13,40,movements,el-ex, rt, d,230220.1999737917, 2.911252568468431, -0.8076001927677694, 2.9807685753407815, 0.49581748247146606, -0.9320172071456909, 0.7014340162277222, 0.1578148901462555, 0.7226304411888123, 0.6729785203933716, -0.042534664273262024, -0.028859198093414307, -0.16099995374679565, -0.9141577691068516, 0.028369636161162393, 0.3975396932547142,0.07397999729520535,0.1219940185546875,0.7022857666015625,0.5162353515625
20220119-1334,2022-01-19 13:34:10Z,u01, 14,40,movements,el-ex, rt, d,230220.2249207917, 2.867811312664574, -0.8186111330491058, 2.9510377245569783, 0.6182490587234497, -0.8368416428565979, 0.6683054566383362, 0.1847292184829712, 0.7301976084709167, 0.657789409160614, -0.026632845401763916, 0.010814785957336426, 0.09485077857971191, -0.9098599743166824, 0.03239627864896083, 0.404371101139527,0.08711724399525173,0.1147918701171875,0.7273712158203125,0.6868896484375
20220119-1334,2022-01-19 13:34:10Z,u01, 15,40,movements,el-ex, rt, d,230220.2498677917, 2.825812139898263, -0.8217100462035849, 2.9230907355653053, 0.021982558071613312, -0.8979955911636353, 0.7123633623123169, 0.21148112416267395, 0.7323113679885864, 0.6472992897033691, 0.07933622598648071, -0.024715662002563477, 0.05228614807128906, -0.9068255116168069, 0.03629234834285172, 0.4077909843773716,0.10028486029794043,0.259521484375,0.723876953125,0.7216033935546875
20220119-1334,2022-01-19 13:34:10Z,u01, 16,40,movements,el-ex, rt, d,230220.2748147917, 2.7860655764999254, -0.8117513077647632, 2.901501123470642, -0.24012473225593567, -1.0046653747558594, 0.6754537224769592, 0.23956215381622314, 0.7254936099052429, 0.6451901197433472, 0.0889902412891388, -0.02535921335220337, -0.05986219644546509, -0.9061321968331725, 0.03898068307250646, 0.40526100465452053,0.11475558125241822,0.337493896484375,0.688140869140625,0.6204681396484375
20220119-1334,2022-01-19 13:34:10Z,u01, 17,40,movements,el-ex, rt, d,230220.29976179168, 2.74595028083257, -0.8036623428402987, 2.8805238170546015, 0.06870079040527344, -0.9703882932662964, 0.6512664556503296, 0.2674972414970398, 0.7199028730392456, 0.6404571533203125, 0.010487467050552368, 0.04083913564682007, -0.016006052494049072, -0.9047249051554828, 0.041248484841633515, 0.4037581125625157,0.12942520264450622,0.28778076171875,0.7498016357421875,0.6082916259765625
20220119-1334,2022-01-19 13:34:10Z,u01, 18,40,movements,el-ex, rt, d,230220.32470779167, 2.706224011057831, -0.8002074287615542, 2.8571315754192903, 0.1283179074525833, -0.8812803030014038, 0.6470085382461548, 0.2937697768211365, 0.7175005674362183, 0.6315796375274658, 0.004448115825653076, 0.030195236206054688, 0.08466839790344238, -0.9021286278345271, 0.04420143965616152, 0.40467706840425777,0.1429924510825156,0.272857666015625,0.771697998046875,0.713409423828125
20220119-1334,2022-01-19 13:34:11Z,u01, 19,40,movements,el-ex, rt, d,230220.34965479167, 2.66944404295095, -0.7936540676447169, 2.8361042295917924, -0.06333403289318085, -0.8885937929153442, 0.6483237147331238, 0.3189271092414856, 0.7129204273223877, 0.6245245337486267, 0.04514774680137634, 0.01573246717453003, 0.041064441204071045, -0.9000247936115032, 0.0470918162807305, 0.40421975694120843,0.15602693938034493,0.3477325439453125,0.7357635498046875,0.6844482421875
20220119-1334,2022-01-19 13:34:11Z,u01, 20,40,movements,el-ex, rt, d,230220.37460179167, 2.6336008910065494, -0.7851818284138317, 2.8169339503922606, -0.006206866819411516, -0.869765043258667, 0.6024986505508423, 0.34402814507484436, 0.706953763961792, 0.6179497241973877, 0.02158781886100769, 0.06503409147262573, 0.029984772205352783, -0.8980582396299219, 0.04966158364951884, 0.4029610070669173,0.16925671061406353,0.3799285888671875,0.726593017578125,0.610565185546875
20220119-1334,2022-01-19 13:34:11Z,u01, 21,40,movements,el-ex, rt, d,230220.39954879167, 2.5992247242426885, -0.7786538046189576, 2.797348390758204, 0.10133887082338333, -0.786964476108551, 0.6264656782150269, 0.3674377501010895, 0.7023217678070068, 0.6097003817558289, 0.003946155309677124, 0.10489875078201294, 0.06991136074066162, -0.8955974115726809, 0.0524926446685815, 0.40273663550281413,0.18153041261135947,0.3661956787109375,0.8099822998046875,0.6809539794921875
20220119-1334,2022-01-19 13:34:11Z,u01, 22,40,movements,el-ex, rt, d,230220.42449579167, 2.564912679235987, -0.7731001524430626, 2.776042092226647, 0.17112597823143005, -0.764053225517273, 0.6278079748153687, 0.39025792479515076, 0.6983575224876404, 0.5999965667724609, 0.013825416564941406, 0.001074671745300293, 0.02810138463973999, -0.8926726112905568, 0.055981256379857625, 0.40328321268525974,0.1932989378220042,0.4023895263671875,0.7426910400390625,0.6457061767578125
20220119-1334,2022-01-19 13:34:11Z,u01, 23,40,movements,el-ex, rt, d,230220.4494427917, 2.5307884509204825, -0.7693089529428453, 2.754780925966339, 0.21394863724708557, -0.7881922125816345, 0.5621687173843384, 0.41201668977737427, 0.6956389546394348, 0.5884972810745239, -0.010054349899291992, -0.03430795669555664, -0.017879188060760498, -0.889238423105456, 0.059191773622894295, 0.40477053509311955,0.20472492050092486,0.4040679931640625,0.6554718017578125,0.5841064453125
20220119-1334,2022-01-19 13:34:11Z,u01, 24,40,movements,el-ex, rt, d,230220.4743897917, 2.4966701271801517, -0.765534684384279, 2.7342485897263864, 0.22912463545799255, -0.8092755079269409, 0.5824902057647705, 0.43342673778533936, 0.6929225921630859, 0.5761942267417908, 0.0038139522075653076, 0.043771564960479736, 0.003868997097015381, -0.8855774395577334, 0.06204603445972173, 0.40637697623742597,0.21624228706899562,0.4209747314453125,0.7128753662109375,0.5542755126953125
20220119-1334,2022-01-19 13:34:11Z,u01, 25,40,movements,el-ex, rt, d,230220.4993367917, 2.4614767134037283, -0.760383657696041, 2.713073252427772, 0.14685145020484924, -0.8330603837966919, 0.6196979880332947, 0.455671101808548, 0.6891995072364807, 0.5633545517921448, 0.02299720048904419, -0.005880534648895264, 0.04502910375595093, -0.881718634603992, 0.06518838686360384, 0.40770309622337103,0.22825654053010525,0.4698333740234375,0.702362060546875,0.6059112548828125
20220119-1334,2022-01-19 13:34:11Z,u01, 26,40,movements,el-ex, rt, d,230220.5242837917, 2.4290247154241573, -0.7516821826346185, 2.6962882649241027, -0.012372484430670738, -0.8496403098106384, 0.5848879814147949, 0.4776128828525543, 0.6828685998916626, 0.5527903437614441, 0.04190331697463989, -0.014182746410369873, -0.007486522197723389, -0.878533008156636, 0.06763822248569229, 0.4071557484782311,0.24047719233036452,0.506866455078125,0.6658782958984375,0.5707244873046875
20220119-1334,2022-01-19 13:34:11Z,u01, 27,40,movements,el-ex, rt, d,230220.549230125, 2.396758273274941, -0.741721279868299, 2.6806596056148786, 0.05063484609127045, -0.8988840579986572, 0.6165891289710999, 0.4997836649417877, 0.6755580306053162, 0.542068362236023, 0.02807900309562683, -0.018102705478668213, -0.03999274969100952, -0.8752971206645709, 0.06992222163133249, 0.4061168784207402,0.2530514954448969,0.5280914306640625,0.6631927490234375,0.5133514404296875
20220119-1334,2022-01-19 13:34:11Z,u01, 28,40,movements,el-ex, rt, d,230220.574177125, 2.3629637581893492, -0.732238361038937, 2.663737888006158, 0.08370620757341385, -0.8970170021057129, 0.6379188895225525, 0.5222896337509155, 0.6685359477996826, 0.5294089317321777, 0.021091341972351074, 0.010373294353485107, -0.004719793796539307, -0.8714697888747045, 0.07242159761374839, 0.40566907373954353,0.2659479560864164,0.5324859619140625,0.6555938720703125,0.4889678955078125
20220119-1334,2022-01-19 13:34:11Z,u01, 29,40,movements,el-ex, rt, d,230220.599124125, 2.3297349383665966, -0.722323914419754, 2.647128874713519, 0.02293660119175911, -0.8847706913948059, 0.6200200319290161, 0.5443723201751709, 0.6611300110816956, 0.5163008570671082, 0.0401158332824707, 0.024111628532409668, 0.06693631410598755, -0.8674788278305267, 0.07503931831661481, 0.4051739676939091,0.27871825076675083,0.572113037109375,0.6856689453125,0.57537841796875
20220119-1334,2022-01-19 13:34:11Z,u01, 30,40,movements,el-ex, rt, d,230220.62407112503, 2.2999235310640165, -0.7098102049348411, 2.635215050720076, -0.14523595571517944, -0.8742330074310303, 0.6049578785896301, 0.5656454563140869, 0.6516898274421692, 0.5053176283836365, 0.05918681621551514, 0.013471126556396484, 0.02033287286758423, -0.8641396054213442, 0.07695164404547677, 0.4030234712052564,0.291398977770357,0.623504638671875,0.673583984375,0.5482635498046875
20220119-1334,2022-01-19 13:34:11Z,u01, 31,40,movements,el-ex, rt, d,230220.64901812503, 2.2727430157972632, -0.696452331618848, 2.626333486555602, -0.09378818422555923, -0.8397606611251831, 0.5805961489677429, 0.5857650637626648, 0.6415002346038818, 0.4953356087207794, 0.01689624786376953, 0.03945362567901611, -0.0015912055969238281, -0.8611190114457408, 0.0783699737330662, 0.4001205052306249,0.3037037856209738,0.6092071533203125,0.67694091796875,0.498626708984375
20220119-1334,2022-01-19 13:34:11Z,u01, 32,40,movements,el-ex, rt, d,230220.67396512502, 2.2430886022551015, -0.6852243778919658, 2.613206148665622, 0.1393531858921051, -0.8844652771949768, 0.6168788075447083, 0.6057916879653931, 0.6328467726707458, 0.482205331325531, 0.0037208199501037598, 0.0413932204246521, -0.03304719924926758, -0.8570813437107772, 0.08071082932932616, 0.39892927328099315,0.3158369050349814,0.6034393310546875,0.687164306640625,0.462432861328125
20220119-1334,2022-01-19 13:34:11Z,u01, 33,40,movements,el-ex, rt, d,230220.69891212502, 2.210062632896467, -0.6746083353489225, 2.5972246291287084, 0.06286035478115082, -0.9539396166801453, 0.6559014320373535, 0.6267404556274414, 0.6245914697647095, 0.4659213721752167, 0.007308304309844971, 0.021984398365020752, -0.020104825496673584, -0.8520489446257249, 0.08350616277155587, 0.39873844878539866,0.3287054130296137,0.6285858154296875,0.6552734375,0.43743896484375
20220119-1334,2022-01-19 13:34:11Z,u01, 34,40,movements,el-ex, rt, d,230220.72385912502, 2.1794884975940887, -0.6593439957817796, 2.5872150648552057, -0.2638351619243622, -0.9609643220901489, 0.7244446277618408, 0.6484369039535522, 0.6125984787940979, 0.45194360613822937, 0.01971513032913208, -0.027256250381469727, 0.05887526273727417, -0.8477436879773339, 0.08545436483758012, 0.395840617560433,0.3425470906344293,0.6599884033203125,0.6164703369140625,0.4931793212890625
20220119-1334,2022-01-19 13:34:11Z,u01, 35,40,movements,el-ex, rt, d,230220.74880612502, 2.1530620969223366, -0.6397652519912094, 2.5827476131055906, -0.34778639674186707, -0.9425079226493835, 0.7004863023757935, 0.6700429916381836, 0.597007155418396, 0.4411640763282776, 0.04580813646316528, -0.04889625310897827, 0.047483861446380615, -0.8443918369918347, 0.08708880081388248, 0.3902825514720078,0.3565077602339326,0.703948974609375,0.5474853515625,0.5006103515625
20220119-1334,2022-01-19 13:34:11Z,u01, 36,40,movements,el-ex, rt, d,230220.77375312502, 2.1281465245758784, -0.6219640794172906, 2.5793251590135706, -0.23883652687072754, -0.8872385621070862, 0.6271983981132507, 0.6897362470626831, 0.5826325416564941, 0.429887980222702, 0.06696254014968872, 0.030083954334259033, 0.005232065916061401, -0.8409233009654853, 0.08827223932037781, 0.38522868146584643,0.3696688146820239,0.7513580322265625,0.585174560546875,0.4421844482421875
20220119-1334,2022-01-19 13:34:11Z,u01, 37,40,movements,el-ex, rt, d,230220.79870012501, 2.103094825423573, -0.6070711237367915, 2.573632065236687, -0.07606521248817444, -0.8546937704086304, 0.5803208351135254, 0.7076869606971741, 0.5704643726348877, 0.4168338179588318, 0.04538029432296753, 0.04222172498703003, 0.017218172550201416, -0.8368763493136904, 0.08974904554068897, 0.38178249997249714,0.3818710851630209,0.756744384765625,0.6187744140625,0.429931640625
20220119-1334,2022-01-19 13:34:11Z,u01, 38,40,movements,el-ex, rt, d,230220.823647125, 2.0779654644353682, -0.5932023112039206, 2.5658387147689052, -0.014752352610230446, -0.8130244016647339, 0.6244189739227295, 0.7247833609580994, 0.5590190887451172, 0.40272441506385803, 0.027017295360565186, 0.0005204677581787109, 0.009019076824188232, -0.8324151168105183, 0.09190908765462924, 0.3792263950967171,0.3934783461609055,0.7546234130859375,0.572601318359375,0.4249725341796875
20220119-1334,2022-01-19 13:34:11Z,u01, 39,40,movements,el-ex, rt, d,230220.848594125, 2.052707257823782, -0.579478854217589, 2.5559896097333192, 0.06436613202095032, -0.793342649936676, 0.6263118982315063, 0.7414519786834717, 0.5475879311561584, 0.387810617685318, 0.012790262699127197, -0.005214393138885498, 0.021186411380767822, -0.8275826246317479, 0.09493316556133069, 0.3772579951758211,0.4046867064727123,0.75054931640625,0.5470733642578125,0.4116363525390625
20220119-1334,2022-01-19 13:34:11Z,u01, 40,40,movements,el-ex, rt, d,230220.873541125, 2.0269003202914595, -0.5667454714469085, 2.545203470598582, 0.13266053795814514, -0.8150644302368164, 0.6226879358291626, 0.7574107646942139, 0.5368891954421997, 0.3715900778770447, 0.031590819358825684, 0.03104269504547119, 0.009147614240646362, -0.8223051203852805, 0.09802714173986632, 0.37601143962981104,0.41571679987831145,0.7734222412109375,0.5618438720703125,0.38812255859375
20220119-1334,2022-01-19 13:34:11Z,u01, 41,40,movements,el-ex, rt, d,230220.898488125, 2.0001624060242076, -0.5541682495387301, 2.532986626592469, 0.15971699357032776, -0.8179731965065002, 0.6305813789367676, 0.7731533050537109, 0.5262362360954285, 0.3539913296699524, 0.02213495969772339, 0.04218405485153198, 0.020215630531311035, -0.8165090036371468, 0.10153183942564126, 0.37531723572604203,0.4267803673296493,0.7957305908203125,0.574798583984375,0.37310791015625
20220119-1334,2022-01-19 13:34:11Z,u01, 42,40,movements,el-ex, rt, d,230220.923435125, 1.9749557888577274, -0.5413145723925674, 2.522901420965895, 0.05098811164498329, -0.7817046642303467, 0.5708763003349304, 0.7879841327667236, 0.5152630805969238, 0.33702462911605835, 0.02591991424560547, 0.01868760585784912, 0.024059772491455078, -0.8109114630004702, 0.1045701560166094, 0.37413846731038114,0.4376166203951406,0.8006134033203125,0.54388427734375,0.3771514892578125
20220119-1334,2022-01-19 13:34:11Z,u01, 43,40,movements,el-ex, rt, d,230220.948382125, 1.9531884606677208, -0.5285290638504234, 2.5190835243471086, -0.19503609836101532, -0.8077170252799988, 0.45072177052497864, 0.8011797666549683, 0.5042636394500732, 0.32222580909729004, 0.039289772510528564, 0.038308143615722656, 0.021982282400131226, -0.8061828857038078, 0.10574522290970856, 0.3715323570934728,0.44816395619008836,0.836669921875,0.532379150390625,0.3401947021484375
20220119-1334,2022-01-19 13:34:11Z,u01, 44,40,movements,el-ex, rt, d,230220.973329125, 1.9325194332117108, -0.5169514716417631, 2.5184931459240087, -0.025253362953662872, -0.7968183159828186, 0.42955970764160156, 0.8130744695663452, 0.49423226714134216, 0.3076440989971161, 0.024480700492858887, 0.1041562557220459, 0.07159817218780518, -0.8016754245418155, 0.10553938994051248, 0.36862112767131106,0.4585810871955792,0.8452911376953125,0.5794830322265625,0.3715362548828125
20220119-1334,2022-01-19 13:34:11Z,u01, 45,40,movements,el-ex, rt, d,230220.99827612503, 1.9107748588109064, -0.5074817192927181, 2.5113014977773496, 0.2114405632019043, -0.671872079372406, 0.4379710853099823, 0.8239468336105347, 0.4859778881072998, 0.291440486907959, 0.018781006336212158, 0.11434847116470337, 0.06854534149169922, -0.7963836420317844, 0.10720698247466787, 0.36808331442095016,0.4677548658660036,0.8374786376953125,0.61846923828125,0.369293212890625
20220119-1334,2022-01-19 13:34:11Z,u01, 46,40,movements,el-ex, rt, d,230221.02322312503, 1.8900101271296994, -0.4981884251370714, 2.5008021949429065, 0.2524382472038269, -0.6099047660827637, 0.47938892245292664, 0.8340726494789124, 0.47783493995666504, 0.2756752669811249, 0.014056742191314697, 0.034631311893463135, -0.02192118763923645, -0.7909897938942246, 0.11033032502621215, 0.3684214032332084,0.47584466609630494,0.858734130859375,0.53082275390625,0.27984619140625
20220119-1334,2022-01-19 13:34:11Z,u01, 47,40,movements,el-ex, rt, d,230221.04817012502, 1.8690816965152968, -0.48997855362473947, 2.4883289255637555, 0.35861635208129883, -0.5882740616798401, 0.41245460510253906, 0.8433806896209717, 0.4706069529056549, 0.25930458307266235, -0.025875449180603027, 0.03311607241630554, -0.023769468069076538, -0.7852938260380334, 0.11386791521870493, 0.36972686837083274,0.48337360296451043,0.8239593505859375,0.502777099609375,0.2288360595703125
20220119-1334,2022-01-19 13:34:11Z,u01, 48,40,movements,el-ex, rt, d,230221.07311712502, 1.8489302930494327, -0.48367400159340623, 2.4758670188584158, 0.3021904230117798, -0.5501453876495361, 0.33797338604927063, 0.8512704372406006, 0.4650348722934723, 0.24306756258010864, -0.018033385276794434, 0.04941511154174805, 0.07645180821418762, -0.7796534830578292, 0.11693686514224316, 0.3717504711438079,0.4901714562501057,0.8134002685546875,0.520355224609375,0.2830810546875
20220119-1334,2022-01-19 13:34:11Z,u01, 49,40,movements,el-ex, rt, d,230221.09806412502, 1.8312604108251163, -0.47586162744894145, 2.4690336287128236, 0.018098006024956703, -0.5846729874610901, 0.3618933856487274, 0.8589165210723877, 0.45810452103614807, 0.2289171814918518, 0.01873868703842163, 0.0038399100303649902, 0.04539048671722412, -0.7748314765877762, 0.11872139742043575, 0.3718115271777163,0.4972904440889494,0.875640869140625,0.4688262939453125,0.2908782958984375
20220119-1334,2022-01-19 13:34:11Z,u01, 50,40,movements,el-ex, rt, d,230221.12301112502, 1.815559183773559, -0.4668377084972084, 2.466985967723482, -0.019336683675646782, -0.5674683451652527, 0.3465176820755005, 0.8663801550865173, 0.45006462931632996, 0.21639639139175415, -0.0014203190803527832, -0.04279252886772156, -0.003001958131790161, -0.7706745232957811, 0.11941096134439705, 0.37019891840359903,0.5047322363318737,0.874481201171875,0.43328857421875,0.2298431396484375
20220119-1334,2022-01-19 13:34:11Z,u01, 51,40,movements,el-ex, rt, d,230221.14795812502, 1.802387721900735, -0.45861639538157656, 2.4677608075858477, -0.1803019940853119, -0.5304211378097534, 0.3022436797618866, 0.8727272748947144, 0.442707896232605, 0.2058088481426239, -0.014053940773010254, -0.017079412937164307, 0.04797565937042236, -0.7672556221664124, 0.11926120201779561, 0.3680124203537701,0.5115297136624576,0.856231689453125,0.4161224365234375,0.24468994140625
20220119-1334,2022-01-19 13:34:11Z,u01, 52,40,movements,el-ex, rt, d,230221.17290512501, 1.7903979709123277, -0.4500296728128541, 2.47033699328374, -0.11416758596897125, -0.5351024270057678, 0.3287935256958008, 0.8788096904754639, 0.434992253780365, 0.19615136086940765, -0.008509337902069092, 0.02420547604560852, 0.013245314359664917, -0.7641762595345359, 0.1187868932051373, 0.3651727024998665,0.5182405386687725,0.8640594482421875,0.4545135498046875,0.2462158203125
20220119-1334,2022-01-19 13:34:11Z,u01, 53,40,movements,el-ex, rt, d,230221.197852125, 1.7763275824179232, -0.4415382805262847, 2.468249330826815, 0.09252213686704636, -0.5246805548667908, 0.3532872796058655, 0.8850670456886292, 0.42733073234558105, 0.18451443314552307, 0.003925621509552002, 0.020331531763076782, -0.006016716361045837, -0.760214174606175, 0.11971478194041313, 0.36370893043365365,0.524841812456695,0.8807373046875,0.45123291015625,0.177032470703125
20220119-1334,2022-01-19 13:34:11Z,u01, 54,40,movements,el-ex, rt, d,230221.222799125, 1.761419236338813, -0.43285288763805574, 2.465087483185708, -0.05041700601577759, -0.5425069332122803, 0.3763492703437805, 0.8913297057151794, 0.41946229338645935, 0.17199620604515076, 0.026074469089508057, -0.019071906805038452, 0.06239435076713562, -0.7558844622783387, 0.12098258419924812, 0.36254417012759693,0.5315671318108978,0.92193603515625,0.4155731201171875,0.2130279541015625
20220119-1334,2022-01-19 13:34:11Z,u01, 55,40,movements,el-ex, rt, d,230221.247746125, 1.7490456780017443, -0.42320006790598336, 2.4669059469238075, -0.2006397843360901, -0.4910900592803955, 0.34807395935058594, 0.897333025932312, 0.41068029403686523, 0.16166485846042633, -0.021157920360565186, -0.017446249723434448, 0.05916069447994232, -0.7524299398392679, 0.12116770577152641, 0.3596010876730483,0.5383816662688861,0.8843536376953125,0.3872528076171875,0.237640380859375
20220119-1334,2022-01-19 13:34:11Z,u01, 56,40,movements,el-ex, rt, d,230221.272693125, 1.7393813123769766, -0.4146039085036113, 2.4703234974596135, -0.13766343891620636, -0.4034269154071808, 0.288667231798172, 0.9023005366325378, 0.4028274416923523, 0.1535719782114029, 0.00680309534072876, 0.04098954796791077, 0.05014848709106445, -0.7497741385003488, 0.12093274068872589, 0.3564123228401535,0.5442283656712652,0.8820953369140625,0.433349609375,0.1927337646484375
20220119-1334,2022-01-19 13:34:11Z,u01, 57,40,movements,el-ex, rt, d,230221.297640125, 1.7302398473418807, -0.4074726477195568, 2.4710161722406205, -0.01708761230111122, -0.3511059284210205, 0.27136173844337463, 0.9064797163009644, 0.3962901830673218, 0.14576968550682068, 0.019255876541137695, 0.05363026261329651, 0.11761258542537689, -0.7470982039805478, 0.12136356566357431, 0.3544179020921191,0.5490930721471792,0.930084228515625,0.4473876953125,0.2511138916015625
20220119-1334,2022-01-19 13:34:11Z,u01, 58,40,movements,el-ex, rt, d,230221.322587125, 1.723153943538827, -0.40114010097672004, 2.4697239888788767, 0.024730609729886055, -0.13196569681167603, 0.20656636357307434, 0.9099521040916443, 0.39046818017959595, 0.13972091674804688, -0.032937824726104736, 0.06738683581352234, 0.11781726777553558, -0.744859914505348, 0.12265466671614977, 0.3531162502123229,0.5526739910750987,0.8928985595703125,0.4525146484375,0.2557525634765625
20220119-1334,2022-01-19 13:34:11Z,u01, 59,40,movements,el-ex, rt, d,230221.347534125, 1.7222055870144972, -0.3982228220586604, 2.4674706085327354, 0.10585342347621918, 0.10364335775375366, 0.0649956464767456, 0.9112063646316528, 0.3877808451652527, 0.1390291154384613, -0.023831427097320557, 0.09912687540054321, 0.12716077268123627, -0.7443585029659918, 0.12427782087755201, 0.35283620359743234,0.5531655475842813,0.8792724609375,0.480560302734375,0.2587432861328125
20220119-1334,2022-01-19 13:34:12Z,u01, 60,40,movements,el-ex, rt, d,230221.372481125, 1.7248066280069856, -0.39778014136537554, 2.4641332069761552, 0.12750278413295746, 0.2002846747636795, -0.008091879077255726, 0.9110113382339478, 0.387372761964798, 0.14142505824565887, -0.020782887935638428, 0.10870552062988281, 0.15512989461421967, -0.7448525260406, 0.12612392981627518, 0.35344931516164174,0.55168940322584,0.90087890625,0.4892425537109375,0.2770233154296875
20220119-1334,2022-01-19 13:34:12Z,u01, 61,40,movements,el-ex, rt, d,230221.39742812503, 1.7289619932610532, -0.40007206982935384, 2.4601975716924818, 0.18582695722579956, 0.24919122457504272, -0.10325967520475388, 0.9095368385314941, 0.3894847333431244, 0.14506922662258148, -0.03873264789581299, 0.14489319920539856, 0.15859629213809967, -0.7458268649781137, 0.12758094591494618, 0.3550245947878367,0.549020224105186,0.870391845703125,0.5293426513671875,0.30755615234375
20220119-1334,2022-01-19 13:34:12Z,u01, 62,40,movements,el-ex, rt, d,230221.42237512502, 1.7354139611928687, -0.4038468616882539, 2.457848333853289, -0.017914388328790665, 0.34733766317367554, -0.19235877692699432, 0.9071247577667236, 0.3929586410522461, 0.1506924033164978, -0.03958624601364136, 0.0843665599822998, 0.1585577428340912, -0.7475724828513814, 0.12838062259164063, 0.35650041082489203,0.5454917776458136,0.8696136474609375,0.4881134033203125,0.2988433837890625
20220119-1334,2022-01-19 13:34:12Z,u01, 63,40,movements,el-ex, rt, d,230221.44732212502, 1.7471743525030239, -0.4098591405725603, 2.4628811315170216, -0.21485498547554016, 0.44011345505714417, -0.34823113679885864, 0.9029477834701538, 0.3984801471233368, 0.16093243658542633, -0.028512179851531982, 0.0972166657447815, 0.14366386830806732, -0.7512833205924223, 0.12664751461933305, 0.3563752349461672,0.5408609922978835,0.871429443359375,0.4922637939453125,0.310821533203125
20220119-1334,2022-01-19 13:34:12Z,u01, 64,40,movements,el-ex, rt, d,230221.47226912502, 1.7631504609050428, -0.418556966808078, 2.471934364109039, -0.31936198472976685, 0.5536263585090637, -0.4468057155609131, 0.8968256115913391, 0.40644240379333496, 0.17466770112514496, 0.00037610530853271484, 0.07805448770523071, 0.0977630615234375, -0.7563957249881714, 0.12328566044235478, 0.3558428022465556,0.5348291803811013,0.8902587890625,0.494598388671875,0.2810516357421875
20220119-1334,2022-01-19 13:34:12Z,u01, 65,40,movements,el-ex, rt, d,230221.49721612502, 1.7825329095825513, -0.4286993964610899, 2.482643531259609, -0.21781359612941742, 0.6402559280395508, -0.5024496912956238, 0.8891957402229309, 0.41568824648857117, 0.19114026427268982, 0.015467524528503418, 0.0804968774318695, 0.062033891677856445, -0.7624342812050409, 0.1194324183468492, 0.3552342071169686,0.527483368253592,0.9046630859375,0.4915924072265625,0.2555999755859375
20220119-1334,2022-01-19 13:34:12Z,u01, 66,40,movements,el-ex, rt, d,230221.52216312502, 1.8023943157801545, -0.44068139038110116, 2.489165710469731, -0.08088886737823486, 0.7308633923530579, -0.5419959425926208, 0.8803131580352783, 0.4265558421611786, 0.20760390162467957, 0.0038728713989257812, 0.0737796425819397, 0.08165740966796875, -0.768235827228564, 0.11668616534320303, 0.3564213899078945,0.5188083225676389,0.8904876708984375,0.50494384765625,0.267608642578125
20220119-1334,2022-01-19 13:34:12Z,u01, 67,40,movements,el-ex, rt, d,230221.54711125002, 1.8252596319672225, -0.45377429057561286, 2.496997659282325, -0.23888209462165833, 0.8322893381118774, -0.62363201379776, 0.8698566555976868, 0.4383609890937805, 0.22625118494033813, 0.016038358211517334, 0.057152777910232544, 0.10689437389373779, -0.7747311999227329, 0.11365367346414179, 0.3575730121190449,0.5089363018114622,0.883880615234375,0.4940185546875,0.326812744140625
20220119-1334,2022-01-19 13:34:12Z,u01, 68,40,movements,el-ex, rt, d,230221.57205825002, 1.8537002394836208, -0.4675774721049969, 2.5106193157656986, -0.38725095987319946, 0.9503917098045349, -0.6930827498435974, 0.8571786284446716, 0.45072510838508606, 0.24918267130851746, 0.04280012845993042, 0.05557653307914734, 0.07920214533805847, -0.7827340657884463, 0.10917288692705668, 0.35733649763021924,0.49771418901743786,0.8937835693359375,0.5084991455078125,0.3349609375
20220119-1334,2022-01-19 13:34:12Z,u01, 69,40,movements,el-ex, rt, d,230221.59700425, 1.8858354854377435, -0.48199031711431267, 2.526786312656386, -0.3392850160598755, 1.0235912799835205, -0.7519586086273193, 0.8424654603004456, 0.4635436534881592, 0.2745533883571625, 0.04568779468536377, 0.036273062229156494, 0.04788041114807129, -0.7914705167714104, 0.10416871836694708, 0.35670509352483526,0.48526789080772553,0.8936767578125,0.49945068359375,0.322601318359375
20220119-1334,2022-01-19 13:34:12Z,u01, 70,40,movements,el-ex, rt, d,230221.62195225002, 1.9183833654596392, -0.49829688060594957, 2.540095993242546, -0.1204570084810257, 1.080366849899292, -0.7969181537628174, 0.8258674740791321, 0.4779302179813385, 0.2992088198661804, 0.01423579454421997, 0.08304369449615479, 0.05085870623588562, -0.7997751088356123, 0.09982078990436188, 0.35766031163421913,0.4716723504483188,0.8539581298828125,0.5355987548828125,0.33453369140625
20220119-1334,2022-01-19 13:34:12Z,u01, 71,40,movements,el-ex, rt, d,230221.64689825, 1.9501799530846438, -0.5169370125885951, 2.550175321805114, -0.04444270208477974, 1.0689195394515991, -0.837027907371521, 0.8075212240219116, 0.49421969056129456, 0.3219572603702545, 0.04546046257019043, 0.08916932344436646, 0.04123276472091675, -0.8073160000533843, 0.09601822316770758, 0.36047173060070276,0.4572543446625935,0.848388671875,0.579986572265625,0.3623809814453125
20220119-1334,2022-01-19 13:34:12Z,u01, 72,40,movements,el-ex, rt, d,230221.67184525, 1.9832461386623346, -0.5355193991395554, 2.562754269785378, -0.18156643211841583, 1.0819154977798462, -0.8829769492149353, 0.7878854274749756, 0.5102878212928772, 0.34473681449890137, 0.050142765045166016, 0.04085952043533325, 0.028859734535217285, -0.8148534342355471, 0.09155485302365118, 0.36285501044064594,0.4426827561516295,0.8549957275390625,0.5531005859375,0.3639373779296875
20220119-1334,2022-01-19 13:34:12Z,u01, 73,40,movements,el-ex, rt, d,230221.69679225, 2.019026315060352, -0.5540548158777842, 2.577580027294853, -0.09617766737937927, 1.152924656867981, -0.8950645327568054, 0.7663923501968384, 0.5261397361755371, 0.3685380518436432, 0.0492817759513855, 0.03272855281829834, 0.02486446499824524, -0.8226410514625767, 0.0867797964004684, 0.364864918220699,0.42732277826886716,0.8184661865234375,0.556549072265625,0.390167236328125
20220119-1334,2022-01-19 13:34:12Z,u01, 74,40,movements,el-ex, rt, d,230221.72173925, 2.055876785530286, -0.5736273734641664, 2.591500591426455, -0.05736109986901283, 1.2037736177444458, -0.9396548271179199, 0.7430408000946045, 0.542682409286499, 0.39164602756500244, 0.06103646755218506, 0.04800039529800415, 0.019471973180770874, -0.8300803574917629, 0.08239908638455518, 0.36769111015670486,0.4110722472865665,0.8014678955078125,0.59228515625,0.406524658203125
20220119-1334,2022-01-19 13:34:12Z,u01, 75,40,movements,el-ex, rt, d,230221.74668625, 2.0946553967482604, -0.5932686284276366, 2.606928974367016, -0.11152982711791992, 1.2386367321014404, -0.9191346764564514, 0.7179295420646667, 0.5590741038322449, 0.4147459864616394, 0.0869414210319519, 0.03607970476150513, 0.009082645177841187, -0.8374425379712458, 0.07786524194632272, 0.37045107294546104,0.3941995784375301,0.805938720703125,0.59063720703125,0.4216156005859375
20220119-1334,2022-01-19 13:34:12Z,u01, 76,40,movements,el-ex, rt, d,230221.77163325003, 2.1363833250985924, -0.6121936390024282, 2.625427818154537, -0.16041187942028046, 1.3136252164840698, -0.9717810750007629, 0.6909453272819519, 0.5746641159057617, 0.43858447670936584, 0.0717960000038147, 0.069546639919281, 0.09381037950515747, -0.8449706891951777, 0.07291621634488055, 0.372557497099637,0.37670795844085847,0.780609130859375,0.63140869140625,0.4742431640625
20220119-1334,2022-01-19 13:34:12Z,u01, 77,40,movements,el-ex, rt, d,230221.79658025003, 2.182552448973358, -0.6292815552290995, 2.646545551058117, -0.20820283889770508, 1.4186221361160278, -0.9654251933097839, 0.6618309020996094, 0.5885640978813171, 0.4642982482910156, 0.10100197792053223, 0.060682058334350586, 0.10015541315078735, -0.8529289170589068, 0.0682743653800974, 0.37368713065738624,0.35806291469657503,0.77032470703125,0.6552276611328125,0.560821533203125
20220119-1334,2022-01-19 13:34:12Z,u01, 78,40,movements,el-ex, rt, d,230221.82152725002, 2.2316373294313907, -0.6454597650480891, 2.668135164040737, -0.11568835377693176, 1.474575400352478, -0.9105624556541443, 0.6306520700454712, 0.6015657782554626, 0.49030259251594543, 0.06467568874359131, 0.030254662036895752, 0.05356672406196594, -0.8608229607488735, 0.06430492606490779, 0.37468610115262774,0.33831797540172204,0.7192230224609375,0.6361236572265625,0.5531768798828125
20220119-1334,2022-01-19 13:34:12Z,u01, 79,40,movements,el-ex, rt, d,230221.84647425002, 2.2802938854631223, -0.6621750377559656, 2.686562604776995, 0.00797240063548088, 1.480064868927002, -0.889857828617096, 0.5983458161354065, 0.614833652973175, 0.5137728452682495, 0.09322851896286011, -0.0072287917137146, -0.030007660388946533, -0.8678069922172547, 0.0616235358114538, 0.376826106347334,0.3179872436240104,0.6885528564453125,0.611053466796875,0.4889373779296875
20220119-1334,2022-01-19 13:34:12Z,u01, 80,40,movements,el-ex, rt, d,230221.87142125002, 2.3310235357776845, -0.6797176382106472, 2.707188894226569, -0.05706994608044624, 1.505824089050293, -1.005602478981018, 0.5636197328567505, 0.6285734176635742, 0.5359370112419128, 0.10569185018539429, -0.02620244026184082, 0.035245537757873535, -0.8743922822532686, 0.058366337259486534, 0.37925786742789536,0.29697651096848166,0.6551055908203125,0.5940093994140625,0.536834716796875
20220119-1334,2022-01-19 13:34:12Z,u01, 81,40,movements,el-ex, rt, d,230221.89636825002, 2.384357899048551, -0.6952935963207318, 2.7326189001336134, -0.1445448249578476, 1.4384316205978394, -1.0119339227676392, 0.527458131313324, 0.640610933303833, 0.5580374598503113, 0.10840624570846558, -0.003861844539642334, 0.05258911848068237, -0.8809614573870934, 0.054089191898727684, 0.3805321240180618,0.2760011602906577,0.643890380859375,0.6298370361328125,0.6087799072265625
20220119-1334,2022-01-19 13:34:12Z,u01, 82,40,movements,el-ex, rt, d,230221.92131525002, 2.437006394013303, -0.7087588708862664, 2.759235578177437, -0.12128355354070663, 1.3984601497650146, -0.9337392449378967, 0.4917290210723877, 0.6508920192718506, 0.5783966183662415, 0.10099878907203674, -0.025266528129577637, -0.03274190425872803, -0.8869764644908265, 0.049709886846862894, 0.3812537996487071,0.25582687839549434,0.6052093505859375,0.6235198974609375,0.55145263671875
20220119-1334,2022-01-19 13:34:12Z,u01, 83,40,movements,el-ex, rt, d,230221.94626225, 2.4886225768935897, -0.7210349676261165, 2.784689206371391, -0.067916139960289, 1.3909738063812256, -0.8582624197006226, 0.4563436806201935, 0.6601623892784119, 0.5966044664382935, 0.11161917448043823, -0.037054598331451416, -0.02807670831680298, -0.8922935786844584, 0.045982607590875135, 0.38208746672318095,0.23602372692881318,0.571014404296875,0.6350250244140625,0.566436767578125
20220119-1334,2022-01-19 13:34:12Z,u01, 84,40,movements,el-ex, rt, d,230221.97120925, 2.5413389848131023, -0.732156392045587, 2.8109437215752395, -0.1420976221561432, 1.4172852039337158, -0.9047677516937256, 0.4200999438762665, 0.6684749722480774, 0.6137242317199707, 0.1238759458065033, -0.050448477268218994, -0.0021058320999145508, -0.897253092546049, 0.04241473162100268, 0.38272317218042584,0.2160113659049106,0.5416717529296875,0.6360626220703125,0.6016845703125
20220119-1334,2022-01-19 13:34:12Z,u01, 85,40,movements,el-ex, rt, d,230221.99615625, 2.5946834882067895, -0.7411725551218651, 2.8389548846036017, -0.1265578418970108, 1.3489388227462769, -0.901947021484375, 0.3836292326450348, 0.6751533150672913, 0.6300773024559021, 0.13346076011657715, -0.03834313154220581, -0.061259567737579346, -0.9019693186329343, 0.03860065025113729, 0.38266647211548865,0.1962854401473633,0.526397705078125,0.6214599609375,0.5911102294921875
20220119-1334,2022-01-19 13:34:12Z,u01, 86,40,movements,el-ex, rt, d,230222.02110325, 2.6451139857586594, -0.7496254614175374, 2.865854768248147, -0.07931529730558395, 1.240633249282837, -0.7678766846656799, 0.3486487567424774, 0.6813646554946899, 0.6435733437538147, 0.10354557633399963, -0.027907192707061768, -0.09173887968063354, -0.9058534022256727, 0.034875240310273614, 0.38293132200762553,0.1776993520382394,0.4728240966796875,0.67401123046875,0.5438232421875
20220119-1334,2022-01-19 13:34:12Z,u01, 87,40,movements,el-ex, rt, d,230222.04605025, 2.6924353236894074, -0.7559402517191268, 2.8908739770075327, -0.1423688679933548, 1.1507389545440674, -0.6982015371322632, 0.31594064831733704, 0.6859731078147888, 0.6554564833641052, 0.10199770331382751, -0.055769920349121094, -0.07405036687850952, -0.9092415341937308, 0.03175039361814447, 0.38282279961967014,0.1603705330269123,0.4170989990234375,0.642059326171875,0.587554931640625
20220119-1334,2022-01-19 13:34:12Z,u01, 88,40,movements,el-ex, rt, d,230222.07099725, 2.7377083969287552, -0.7594016652982806, 2.91531824282009, -0.19918453693389893, 1.0786761045455933, -0.6825337409973145, 0.2850176692008972, 0.6884876489639282, 0.6668962240219116, 0.10408157110214233, -0.06656992435455322, -0.08854180574417114, -0.9124775496334547, 0.02885892048159544, 0.38182029187357597,0.14410208766949117,0.3799896240234375,0.6185455322265625,0.589324951171875
20220119-1334,2022-01-19 13:34:12Z,u01, 89,40,movements,el-ex, rt, d,230222.09594425, 2.780325348476574, -0.7614064475506562, 2.9381913293306203, -0.12928612530231476, 1.044466495513916, -0.6864597201347351, 0.255857914686203, 0.6899402141571045, 0.6771408319473267, 0.08398589491844177, -0.04424947500228882, -0.08882242441177368, -0.9153567573351915, 0.026313705657815212, 0.380572697107414,0.12881828136807064,0.34967041015625,0.6284332275390625,0.58758544921875
20220119-1334,2022-01-19 13:34:12Z,u01, 90,40,movements,el-ex, rt, d,230222.12089125, 2.8187177099967586, -0.7642666781298711, 2.958236032844439, -0.03044036775827408, 0.9539272785186768, -0.6105924248695374, 0.22905157506465912, 0.6920077800750732, 0.6845879554748535, 0.08292965590953827, -0.02544313669204712, -0.09645289182662964, -0.9174478312031145, 0.024154723847547188, 0.38016046605490694,0.11482191383727211,0.3436126708984375,0.643829345703125,0.574066162109375
20220119-1334,2022-01-19 13:34:12Z,u01, 91,40,movements,el-ex, rt, d,230222.14583825003, 2.8531727512323077, -0.7684482740710598, 2.976003854726813, 0.0007283370941877365, 0.8665963411331177, -0.46498164534568787, 0.2045079618692398, 0.6950203776359558, 0.6892920136451721, 0.09293168783187866, -0.04681199789047241, -0.07146322727203369, -0.9187783121354047, 0.02219035459190899, 0.380696632461965,0.10209882904770554,0.3085174560546875,0.6516571044921875,0.598175048828125
20220119-1334,2022-01-19 13:34:12Z,u01, 92,40,movements,el-ex, rt, d,230222.17078525003, 2.885304186950106, -0.7702475347985889, 2.992516324758624, -0.11782284826040268, 0.7985283732414246, -0.4555560052394867, 0.18194107711315155, 0.6963129043579102, 0.6942957639694214, 0.0653582364320755, -0.07067209482192993, -0.09793597459793091, -0.9201764146578848, 0.020573115003567843, 0.3803785829313434,0.09035763755124976,0.2534637451171875,0.636810302734375,0.617462158203125
20220119-1334,2022-01-19 13:34:12Z,u01, 93,40,movements,el-ex, rt, d,230222.19573225002, 2.9150464299710026, -0.7698396082929299, 3.0076818919173096, -0.09474492073059082, 0.7813912630081177, -0.4129091203212738, 0.16127747297286987, 0.6960200667381287, 0.6996756792068481, 0.05680122971534729, -0.03650480508804321, -0.05427432060241699, -0.9216651613778242, 0.01926608355814008, 0.3792515512060278,0.07956473159481356,0.2283477783203125,0.64654541015625,0.6343231201171875
20220119-1334,2022-01-19 13:34:12Z,u01, 94,40,movements,el-ex, rt, d,230222.22067925002, 2.9450617533317907, -0.7706020855995536, 3.0236608298424583, -0.053938768804073334, 0.7336450219154358, -0.4424683749675751, 0.1401032656431198, 0.6965673565864563, 0.7036797404289246, 0.07229912281036377, 0.019283294677734375, -0.040379881858825684, -0.9227850418472427, 0.017539325413854612, 0.37873271901350514,0.0687147244978801,0.20269775390625,0.71893310546875,0.673736572265625
20220119-1334,2022-01-19 13:34:12Z,u01, 95,40,movements,el-ex, rt, d,230222.24562625002, 2.9720738025413014, -0.7706268735661844, 3.037152609079982, -0.08633769303560257, 0.6915791034698486, -0.3715331256389618, 0.12104377895593643, 0.6965851187705994, 0.7071903347969055, 0.05482909083366394, -0.003134310245513916, -0.02554917335510254, -0.9237562049203851, 0.016420373267919952, 0.37808463808621295,0.058796464723358005,0.1902313232421875,0.695404052734375,0.6753082275390625
20220119-1334,2022-01-19 13:34:12Z,u01, 96,40,movements,el-ex, rt, d,230222.27057325002, 2.998704980161413, -0.7692754726778817, 3.051196073391059, -0.1239943876862526, 0.6765021681785583, -0.39229515194892883, 0.10230377316474915, 0.6956149339675903, 0.711094081401825, 0.02622111886739731, -0.005353033542633057, -0.021716654300689697, -0.9248359401413621, 0.015017522576485198, 0.3768735012373768,0.04918945823485335,0.1375885009765625,0.6889495849609375,0.6890716552734375
20220119-1334,2022-01-19 13:34:12Z,u01, 97,40,movements,el-ex, rt, d,230222.29552025002, 3.0243658150431614, -0.7677955847450376, 3.064219495954233, -0.09467045217752457, 0.6751646995544434, -0.37102288007736206, 0.08414508402347565, 0.6945509910583496, 0.7145060300827026, 0.026267588138580322, -0.01475679874420166, -0.031552791595458984, -0.9257756080302537, 0.01387619512627436, 0.3757151891438357,0.039814231482166146,0.118316650390625,0.6747894287109375,0.67449951171875
20220119-1334,2022-01-19 13:34:12Z,u01, 98,40,movements,el-ex, rt, d,230222.32046725, 3.0499309830715275, -0.7668329823860133, 3.077716133547602, -0.059227973222732544, 0.6348898410797119, -0.38650181889533997, 0.06591430306434631, 0.6938580870628357, 0.7170892953872681, 0.03454963117837906, 0.014363288879394531, -0.025972425937652588, -0.9264931510874477, 0.012453001507878703, 0.37486439007634026,0.030533378135228495,0.099639892578125,0.700897216796875,0.697479248046875
20220119-1334,2022-01-19 13:34:12Z,u01, 99,40,movements,el-ex, rt, d,230222.34541425, 3.07349879263871, -0.7663896580047491, 3.090026993898309, -0.04540646821260452, 0.5915217995643616, -0.3312612771987915, 0.0490182526409626, 0.6935387849807739, 0.7187501192092896, 0.03254001960158348, 0.008365333080291748, -0.018584787845611572, -0.9269574956136766, 0.011173462822805569, 0.3743584949215517,0.021927916349133963,0.095428466796875,0.69921875,0.685882568359375
20220119-1334,2022-01-19 13:34:13Z,u01, 100,40,movements,el-ex, rt, d,230222.37036125, 3.0952792908861544, -0.7660304653879931, 3.100982897599778, -0.019488949328660965, 0.5347233414649963, -0.33033308386802673, 0.033364661037921906, 0.6932799816131592, 0.7198959589004517, 0.02588525414466858, -0.05163276195526123, -0.04348862171173096, -0.9272779697094966, 0.01017575651714353, 0.3739777219768248,0.013886692728863503,0.0644073486328125,0.6580352783203125,0.6801300048828125
20220119-1334,2022-01-19 13:34:13Z,u01, 101,40,movements,el-ex, rt, d,230222.39530825, 3.1155455540999917, -0.766572295849078, 3.112307772395038, 0.041449498385190964, 0.48129257559776306, -0.3212927281856537, 0.01875942014157772, 0.693670392036438, 0.7200486063957214, 0.02846658229827881, -0.027929484844207764, -0.07760739326477051, -0.9273340695814072, 0.008708603059810138, 0.37407519876632384,0.006601761209262369,0.0499114990234375,0.6589202880859375,0.6485443115234375
20220119-1334,2022-01-19 13:34:13Z,u01, 102,40,movements,el-ex, rt, d,230222.42025525, 3.134416227235167, -0.7670999657620946, 3.122862128103242, -0.019566014409065247, 0.4384610056877136, -0.2816352844238281, 0.005166457500308752, 0.6940503716468811, 0.7199082970619202, 0.04505026340484619, -0.007679641246795654, -0.024580061435699463, -0.9273080594468723, 0.007341920460099072, 0.3742271727750818,-0.00017719829460643988,0.042724609375,0.68878173828125,0.686981201171875
20220119-1334,2022-01-19 13:34:13Z,u01, 103,40,movements,el-ex, rt, d,230222.44520225, -3.1328575242189305, -0.7653756075631436, 3.1314851382513353, -0.10201874375343323, 0.36482393741607666, -0.23076610267162323, -0.006299016997218132, 0.6928079128265381, 0.7210948467254639, 0.04609397053718567, -0.03704637289047241, -0.06441718339920044, -0.9276354269210343, 0.006319015729510713, 0.37338637188233503,-0.0059386938221507035,0.04730224609375,0.65643310546875,0.6649322509765625
20220119-1334,2022-01-19 13:34:13Z,u01, 104,40,movements,el-ex, rt, d,230222.47014925, -3.1196379811023043, -0.7635315392145244, 3.1387232867092174, -0.020372353494167328, 0.28715550899505615, -0.1891733855009079, -0.015858763828873634, 0.6914769411087036, 0.7222250699996948, 0.01274600438773632, -0.04998224973678589, -0.0812637209892273, -0.927945659677849, 0.005420945548346323, 0.3725221859398393,-0.010721321711617965,0.0128021240234375,0.64044189453125,0.640106201171875
20220119-1334,2022-01-19 13:34:13Z,u01, 105,40,movements,el-ex, rt, d,230222.49509625, -3.1091752518668057, -0.7648120485656822, -3.138841014063922, 0.10212422907352448, 0.23463259637355804, -0.1303894966840744, -0.02338547259569168, 0.6924014091491699, 0.7211337089538574, 0.004418851807713509, -0.06218308210372925, -0.0840635895729065, -0.9276551525970473, 0.004771792122145346, 0.373125071885291,-0.014523944528648608,-0.0183258056640625,0.6288909912109375,0.634002685546875
20220119-1334,2022-01-19 13:34:13Z,u01, 106,40,movements,el-ex, rt, d,230222.52004325003, -3.1024632906931022, -0.7679093149856527, -3.1352559827811533, 0.1412828266620636, 0.10726691782474518, -0.07592465728521347, -0.028141112998127937, 0.6946327686309814, 0.7188143730163574, 0.053669121116399765, -0.04795008897781372, -0.10536473989486694, -0.927031772762336, 0.00439114822617892, 0.37457395372169666,-0.01695234886685487,0.013702392578125,0.6394500732421875,0.619781494140625
20220119-1334,2022-01-19 13:34:13Z,u01, 107,40,movements,el-ex, rt, d,230222.54498954167, -3.100161193601397, -0.7706258768142877, -3.133479962394018, 0.07957921177148819, -0.009840330109000206, -0.008239418268203735, -0.029717551544308662, 0.6965844035148621, 0.716859757900238, 0.05625259503722191, -0.057683706283569336, -0.10044986009597778, -0.9265061508902518, 0.00402724696118939, 0.375843211296613,-0.0176711067454198,0.027862548828125,0.6421661376953125,0.6168365478515625
20220119-1334,2022-01-19 13:34:13Z,u01, 108,40,movements,el-ex, rt, d,230222.5699365417, -3.1022215011305043, -0.7726261262049161, -3.1342975626497847, 0.1032349020242691, -0.10574176162481308, 0.06923440098762512, -0.028185628354549408, 0.6980181336402893, 0.7155255079269409, 0.029604732990264893, -0.08212774991989136, -0.11133801937103271, -0.9261460170029188, 0.004038443577517148, 0.37676671651777754,-0.01685950726688934,0.00823974609375,0.6130523681640625,0.6063232421875
20220119-1334,2022-01-19 13:34:13Z,u01, 109,40,movements,el-ex, rt, d,230222.5948835417, -3.1089183154347073, -0.777855795449956, -3.13820796464922, 0.3182060122489929, -0.2083825170993805, 0.15752577781677246, -0.023273726925253868, 0.7017534375190735, 0.7120402455329895, 0.017826376482844353, -0.08082759380340576, -0.12800949811935425, -0.9252019733906158, 0.004628970876908001, 0.3791709668461407,-0.014474714731217059,-0.00469970703125,0.618743896484375,0.584808349609375
20220119-1334,2022-01-19 13:34:13Z,u01, 110,40,movements,el-ex, rt, d,230222.6198305417, -3.1201699662339157, -0.786965779840608, 3.1385098224386554, 0.3722679316997528, -0.33855190873146057, 0.2448200136423111, -0.015123216435313225, 0.7082144021987915, 0.7058359384536743, 0.04794493317604065, -0.05522984266281128, -0.11077320575714111, -0.9235190260089972, 0.005530264181087319, 0.38336970367838263,-0.010483534937605399,0.014373779296875,0.653167724609375,0.59906005859375
20220119-1334,2022-01-19 13:34:13Z,u01, 111,40,movements,el-ex, rt, d,230222.6447775417, -3.136342813361057, -0.7928657147760902, 3.1291875712148918, 0.08552641421556473, -0.4213525652885437, 0.30028292536735535, -0.0036843596026301384, 0.7123673558235168, 0.7017976641654968, 0.054755598306655884, -0.07390904426574707, -0.05245929956436157, -0.9224171968455914, 0.006734985797908544, 0.3861064712912885,-0.004816260378616238,0.044219970703125,0.649444580078125,0.64581298828125
20220119-1334,2022-01-19 13:34:13Z,u01, 112,40,movements,el-ex, rt, d,230222.6697245417, 3.12682004390405, -0.7935067453153984, 3.117324620808654, 0.032059960067272186, -0.4947144687175751, 0.35171329975128174, 0.01036040112376213, 0.7128171324729919, 0.701274037361145, 0.03210484981536865, -0.06541723012924194, -0.07720428705215454, -0.9222621648605377, 0.00833685267281481, 0.3864695618838574,0.0021233231768303384,0.0517730712890625,0.6266021728515625,0.6283111572265625
20220119-1334,2022-01-19 13:34:13Z,u01, 113,40,movements,el-ex, rt, d,230222.69467154169, 3.103360240598934, -0.797402717771841, 3.1035551920762274, 0.34330683946609497, -0.5938984155654907, 0.41254428029060364, 0.026701420545578003, 0.7155441045761108, 0.6980571746826172, 0.013627612963318825, -0.04276907444000244, -0.12211382389068604, -0.9213720804280628, 0.01010322161068522, 0.3884157522078699,0.010230894157305659,0.0394134521484375,0.6687469482421875,0.5901947021484375
20220119-1334,2022-01-19 13:34:13Z,u01, 114,40,movements,el-ex, rt, d,230222.71961854168, 3.0762335770601963, -0.8093822533589801, 3.087045796659123, 0.5530321598052979, -0.6069025993347168, 0.4441741704940796, 0.045062124729156494, 0.7238610982894897, 0.6884727478027344, 0.014737118035554886, -0.003127753734588623, -0.03698307275772095, -0.9187424385646796, 0.012193902966544101, 0.3941973053670258,0.019291869059348266,0.0493316650390625,0.6939849853515625,0.5879058837890625
20220119-1334,2022-01-19 13:34:13Z,u01, 115,40,movements,el-ex, rt, d,230222.74456554168, 3.0474927081690018, -0.8193177844175324, 3.068572840867943, 0.27720484137535095, -0.6213068962097168, 0.5037232637405396, 0.0641491562128067, 0.7306802272796631, 0.6796996593475342, 0.05676152557134628, -0.05224412679672241, 0.03752487897872925, -0.9163149271323245, 0.014724032044680535, 0.3991652488517038,0.028589796178234678,0.1060333251953125,0.6957244873046875,0.7048492431640625
20220119-1334,2022-01-19 13:34:13Z,u01, 116,40,movements,el-ex, rt, d,230222.76951254168, 3.016896883711891, -0.8217736280724615, 3.0491439570292993, 0.09831470996141434, -0.706185519695282, 0.5298520922660828, 0.08468843251466751, 0.7323547005653381, 0.6756367087364197, 0.06150609254837036, -0.06069338321685791, -0.04041290283203125, -0.9151584163527143, 0.017419134738628106, 0.40086001404395777,0.03863984948458152,0.1459197998046875,0.6612091064453125,0.6826171875
20220119-1334,2022-01-19 13:34:13Z,u01, 117,40,movements,el-ex, rt, d,230222.79445954168, 2.981945798445645, -0.826458018199969, 3.027470937062689, 0.5221499800682068, -0.8099972009658813, 0.5840438604354858, 0.10769958049058914, 0.7355363368988037, 0.6688702702522278, 0.021710261702537537, -0.03451722860336304, -0.14596635103225708, -0.9132531625362694, 0.020094891597629838, 0.40380316791632787,0.05007966151613999,0.1353607177734375,0.696014404296875,0.544525146484375
20220119-1334,2022-01-19 13:34:13Z,u01, 118,40,movements,el-ex, rt, d,230222.81940654168, 2.942674314176641, -0.8405636086956738, 3.0015363774216572, 0.7236021161079407, -0.788642168045044, 0.5820538997650146, 0.1318138986825943, 0.7450191974639893, 0.6538901329040527, -0.014076992869377136, -0.002038240432739258, -0.013493478298187256, -0.9090704555878124, 0.02315101691640853, 0.4113493087420361,0.062023570803937,0.10516357421875,0.7284088134765625,0.571868896484375
20220119-1334,2022-01-19 13:34:13Z,u01, 119,40,movements,el-ex, rt, d,230222.84435354167, 2.903452367849134, -0.8500779653301778, 2.9750263527994094, 0.29898831248283386, -0.7890321612358093, 0.6618106365203857, 0.15567347407341003, 0.7513318657875061, 0.6413005590438843, 0.03207072615623474, -0.03232252597808838, 0.03846341371536255, -0.9055117164527233, 0.026434962184774036, 0.4170199191024845,0.07378461135878908,0.165771484375,0.7345428466796875,0.68414306640625
20220119-1334,2022-01-19 13:34:13Z,u01, 120,40,movements,el-ex, rt, d,230222.86930054167, 2.8621538100488118, -0.8492842460076362, 2.9476452261216437, 0.07841793447732925, -0.8848791718482971, 0.7328623533248901, 0.18218247592449188, 0.7508078217506409, 0.6348997354507446, 0.0853804498910904, -0.059462785720825195, -0.07767874002456665, -0.9036229461766219, 0.030256003606090154, 0.41834938912580244,0.08679910220954667,0.2548828125,0.6783599853515625,0.59979248046875
20220119-1334,2022-01-19 13:34:13Z,u01, 121,40,movements,el-ex, rt, d,230222.89424754167, 2.817847735861485, -0.8487530674481636, 2.9187427381616327, 0.3522186875343323, -0.8821385502815247, 0.7186306715011597, 0.21025130152702332, 0.7504568696022034, 0.6265856623649597, 0.051635414361953735, -9.071826934814453e-05, -0.05840885639190674, -0.9011841799322191, 0.03405724890256068, 0.42018103320753686,0.10077344860413215,0.26580810546875,0.7297821044921875,0.5490570068359375
20220119-1334,2022-01-19 13:34:13Z,u01, 122,40,movements,el-ex, rt, d,230222.91919454167, 2.7748711967620543, -0.8509727504652381, 2.8894214619632623, 0.28687888383865356, -0.8267049789428711, 0.7038310766220093, 0.23637939989566803, 0.751922070980072, 0.6154171824455261, 0.05852730572223663, 0.05889934301376343, 0.07051151990890503, -0.8979242593279371, 0.037955602367405916, 0.42350729466820886,0.11372364983303582,0.2633209228515625,0.8341064453125,0.6899871826171875
20220119-1334,2022-01-19 13:34:13Z,u01, 123,40,movements,el-ex, rt, d,230222.9441415417, 2.7346703113397495, -0.8478724240249772, 2.86331646032565, 0.03896813094615936, -0.8316582441329956, 0.6692980527877808, 0.26184356212615967, 0.7498745322227478, 0.6075580716133118, 0.06506085395812988, 0.008563518524169922, 0.04068160057067871, -0.8955766754725697, 0.04149036683221824, 0.424516009783784,0.1265201142546981,0.321990966796875,0.7642059326171875,0.6641998291015625
20220119-1334,2022-01-19 13:34:13Z,u01, 124,40,movements,el-ex, rt, d,230222.9690885417, 2.695700517784685, -0.8419265683827708, 2.8394929073081574, 0.12841592729091644, -0.853327751159668, 0.6803358793258667, 0.2872329652309418, 0.745927631855011, 0.6009074449539185, 0.02949380874633789, 0.02468693256378174, -0.042175889015197754, -0.8935676080562556, 0.044616858567559536, 0.4243544565689056,0.13953406659225792,0.3249969482421875,0.77569580078125,0.575775146484375
20220119-1334,2022-01-19 13:34:13Z,u01, 125,40,movements,el-ex, rt, d,230222.9940355417, 2.6567669793709925, -0.8388043447373843, 2.814501988594183, 0.19165471196174622, -0.7628968954086304, 0.6261460185050964, 0.3114885985851288, 0.7438445091247559, 0.5913293361663818, -0.01757374405860901, 0.06873160600662231, 0.05468243360519409, -0.8907126611253343, 0.04791267236974206, 0.42572959510846575,0.15195300099694287,0.295745849609375,0.7976226806640625,0.6203460693359375
20220119-1334,2022-01-19 13:34:13Z,u01, 126,40,movements,el-ex, rt, d,230223.0189825417, 2.6214861287156346, -0.8344209561260921, 2.7923065014619373, 0.051080122590065, -0.7432092428207397, 0.5895156860351562, 0.3337704837322235, 0.7409077286720276, 0.5827983021736145, 0.033752888441085815, 0.05984300374984741, 0.05480605363845825, -0.8881486392710246, 0.05090315853750593, 0.4264764434256145,0.1634594016253132,0.3459320068359375,0.8259735107421875,0.671875
20220119-1334,2022-01-19 13:34:13Z,u01, 127,40,movements,el-ex, rt, d,230223.0439295417, 2.5890271212193685, -0.8274460622687696, 2.7742080344496203, -0.002779511734843254, -0.775466799736023, 0.5411580204963684, 0.35521212220191956, 0.7362053990364075, 0.5760439038276672, 0.022320955991744995, 0.02919071912765503, 2.1636486053466797e-05, -0.8861171386871065, 0.05308842717886647, 0.4258903205436505,0.1749161705633837,0.3795166015625,0.771453857421875,0.5885009765625
20220119-1334,2022-01-19 13:34:13Z,u01, 128,40,movements,el-ex, rt, d,230223.06887654169, 2.5562396869919586, -0.8207385691282645, 2.755869659601626, 0.0970543771982193, -0.7690140008926392, 0.5823935866355896, 0.37662479281425476, 0.7316495180130005, 0.5681933760643005, -0.008841991424560547, -0.010778546333312988, -0.007325470447540283, -0.8837631350803942, 0.055311920231213896, 0.42560866862666624,0.1864426757418133,0.368316650390625,0.741973876953125,0.5347442626953125
20220119-1334,2022-01-19 13:34:13Z,u01, 129,40,movements,el-ex, rt, d,230223.09382354168, 2.5227508697241703, -0.8149321729211746, 2.735855546950388, 0.133042573928833, -0.7585648894309998, 0.5600533485412598, 0.3978957235813141, 0.7276790738105774, 0.5587152242660522, -0.011451482772827148, 0.001507878303527832, 0.06157028675079346, -0.8809048114790757, 0.058002783385702694, 0.4260528478894295,0.19779163589185828,0.3771820068359375,0.7307891845703125,0.6165618896484375
20220119-1334,2022-01-19 13:34:13Z,u01, 130,40,movements,el-ex, rt, d,230223.11877054168, 2.490751356550214, -0.8083304209910093, 2.7180337919234296, -0.0058957431465387344, -0.7754117846488953, 0.533964991569519, 0.418469101190567, 0.7231349945068359, 0.5495089888572693, 0.0453220009803772, 0.011713027954101562, 0.013830721378326416, -0.8781400205837744, 0.060204697525447104, 0.4260753452636503,0.20905870001073676,0.4413909912109375,0.7475433349609375,0.5902862548828125
20220119-1334,2022-01-19 13:34:13Z,u01, 131,40,movements,el-ex, rt, d,230223.14371754168, 2.461863658177725, -0.7983505329247553, 2.705062744690231, -0.15800517797470093, -0.7944340705871582, 0.5321803092956543, 0.43868085741996765, 0.716205894947052, 0.5427786111831665, 0.03789705038070679, -0.022861897945404053, -0.009697198867797852, -0.8761240532110428, 0.061611267304925776, 0.42424293031226606,0.22051932802930152,0.4771881103515625,0.6982269287109375,0.5442962646484375
20220119-1334,2022-01-19 13:34:13Z,u01, 132,40,movements,el-ex, rt, d,230223.16866454168, 2.4328057831568994, -0.787192594533656, 2.6924121737151054, -0.016382772475481033, -0.8100012540817261, 0.5791486501693726, 0.4594387114048004, 0.7083745002746582, 0.5358376502990723, 0.017078101634979248, -0.01380985975265503, -0.006387770175933838, -0.8740312775284622, 0.06315186068704282, 0.42202108464607935,0.2323348726413293,0.478790283203125,0.6898040771484375,0.518035888671875
20220119-1334,2022-01-19 13:34:13Z,u01, 133,40,movements,el-ex, rt, d,230223.19361154168, 2.4007427172446456, -0.7792922681260256, 2.6752420368134078, 0.1321902573108673, -0.7969399094581604, 0.5757449865341187, 0.4801422655582428, 0.7027761340141296, 0.5249468088150024, -2.4437904357910156e-05, 0.00642162561416626, 0.02549898624420166, -0.8707403294581684, 0.06545759360038139, 0.421893039445136,0.24399355084040075,0.4742431640625,0.702423095703125,0.5482635498046875
20220119-1334,2022-01-19 13:34:13Z,u01, 134,40,movements,el-ex, rt, d,230223.21855854167, 2.367981848817913, -0.7709807675646158, 2.6575476363274686, 0.06692090630531311, -0.8332133293151855, 0.616241991519928, 0.501143753528595, 0.6968390345573425, 0.5130995512008667, 0.038422465324401855, -0.02844303846359253, -0.01532679796218872, -0.8671396047797167, 0.0679609669511409, 0.4218591607135985,0.255901042485396,0.52825927734375,0.697662353515625,0.5164947509765625
20220119-1334,2022-01-19 13:34:13Z,u01, 135,40,movements,el-ex, rt, d,230223.24350554167, 2.3354764635014065, -0.7604164079496896, 2.641006448908853, 0.014318081550300121, -0.846494734287262, 0.6451501846313477, 0.5228376388549805, 0.6892232298851013, 0.5016100406646729, 0.009755253791809082, -0.06957918405532837, -0.021491825580596924, -0.8636138569278684, 0.07054169577915109, 0.42095121151212894,0.2683192219567334,0.5347442626953125,0.6223602294921875,0.48382568359375
20220119-1334,2022-01-19 13:34:13Z,u01, 136,40,movements,el-ex, rt, d,230223.26845254167, 2.302346511879391, -0.7498340755344476, 2.62377992744288, 0.17466434836387634, -0.8544633984565735, 0.650513768196106, 0.544563353061676, 0.6815173625946045, 0.48886165022850037, 0.01947808265686035, -0.012999176979064941, -0.006897091865539551, -0.8596805875168145, 0.07334927262654367, 0.42034164490673787,0.2808600376713778,0.55230712890625,0.6513671875,0.4718780517578125
20220119-1334,2022-01-19 13:34:13Z,u01, 137,40,movements,el-ex, rt, d,230223.29339954167, 2.2671636193123996, -0.7405276567504684, 2.6043152518470305, 0.15866810083389282, -0.9031935930252075, 0.692019522190094, 0.5662636756896973, 0.6746774911880493, 0.47345155477523804, 0.046468496322631836, -0.0012156367301940918, 0.009565889835357666, -0.8549172771083798, 0.0764344837238018, 0.42083195512509153,0.29355560830190586,0.59814453125,0.677978515625,0.4845123291015625
20220119-1334,2022-01-19 13:34:13Z,u01, 138,40,movements,el-ex, rt, d,230223.3183465417, 2.2341492381862293, -0.7276888383093969, 2.588765025151055, -0.09813369065523148, -0.8898167014122009, 0.6698511242866516, 0.5883598923683167, 0.6651456356048584, 0.4597982168197632, 0.06544888019561768, -0.00787341594696045, 0.04531383514404297, -0.850664636901044, 0.07917562678277751, 0.4195097854404982,0.3067777522935807,0.64599609375,0.647216796875,0.49310302734375
20220119-1334,2022-01-19 13:34:13Z,u01, 139,40,movements,el-ex, rt, d,230223.3432935417, 2.2055305034371333, -0.7119742174025852, 2.5789813315703545, -0.13531233370304108, -0.8746017217636108, 0.685871422290802, 0.609618067741394, 0.6533296704292297, 0.44891712069511414, 0.06091433763504028, 0.017263472080230713, 0.038220107555389404, -0.847271505579781, 0.0811760853253577, 0.416196351948554,0.31987837468506997,0.67120361328125,0.66796875,0.49493408203125
20220119-1334,2022-01-19 13:34:14Z,u01, 140,40,movements,el-ex, rt, d,230223.3682405417, 2.176976077383734, -0.6973386538551877, 2.567802593216679, 0.026803048327565193, -0.8329042196273804, 0.664509654045105, 0.6299776434898376, 0.6421799063682556, 0.4367304742336273, 0.039822280406951904, 0.044145047664642334, -0.0002371668815612793, -0.8434289779499048, 0.08362291479834283, 0.41365706014111203,0.33244957218116084,0.6642303466796875,0.6888580322265625,0.45050048828125
20220119-1334,2022-01-19 13:34:14Z,u01, 141,40,movements,el-ex, rt, d,230223.3931875417, 2.146699135401981, -0.684510331767904, 2.55236059317264, 0.1763547658920288, -0.800096869468689, 0.7003742456436157, 0.6497660875320435, 0.632293701171875, 0.42191144824028015, 0.01911836862564087, 0.02938830852508545, 0.010935068130493164, -0.8386678683270945, 0.0871316826007707, 0.41275400556537123,0.34449763228350516,0.6749267578125,0.6676025390625,0.4319305419921875
20220119-1334,2022-01-19 13:34:14Z,u01, 142,40,movements,el-ex, rt, d,230223.4181345417, 2.1160038049230843, -0.6717669522834544, 2.5352005288424815, 0.1652989685535431, -0.7961550354957581, 0.7208532094955444, 0.6692439913749695, 0.6223700046539307, 0.40591683983802795, 0.019064903259277344, 0.013295769691467285, 0.003278493881225586, -0.833440486464912, 0.09129831669707777, 0.41240646312379536,0.3563181471802424,0.6751251220703125,0.6422576904296875,0.420013427734375
20220119-1334,2022-01-19 13:34:14Z,u01, 143,40,movements,el-ex, rt, d,230223.44308154169, 2.085902720896366, -0.6578790306810866, 2.5197014473704287, 0.11654744297266006, -0.834736168384552, 0.7631528973579407, 0.6886133551597595, 0.6114399433135986, 0.3898116648197174, 0.032593488693237305, 0.001551210880279541, 0.0018971562385559082, -0.8281514832931276, 0.0952415343215317, 0.41153020055446554,0.3684252234569866,0.7109375,0.6162261962890625,0.394012451171875
20220119-1334,2022-01-19 13:34:14Z,u01, 144,40,movements,el-ex, rt, d,230223.46802854168, 2.0544331998677388, -0.6439239998416988, 2.502443525160516, 0.3621094822883606, -0.8274675011634827, 0.7357871532440186, 0.7080232501029968, 0.6003382802009583, 0.37188372015953064, 0.005813658237457275, -0.021496176719665527, 0.029941588640213013, -0.8221941649435491, 0.09969258355382499, 0.41124424475907995,0.3807052387025598,0.7198638916015625,0.5718231201171875,0.4098052978515625
20220119-1334,2022-01-19 13:34:14Z,u01, 145,40,movements,el-ex, rt, d,230223.49297554168, 2.01916624979987, -0.6328868974281, 2.4779069601340074, 0.5976641774177551, -0.8228133916854858, 0.7706867456436157, 0.7266225814819336, 0.5914750099182129, 0.34953901171684265, 0.003098726272583008, 0.011933684349060059, -0.00011229515075683594, -0.814635937193028, 0.10553577685676918, 0.4138609197610009,0.392364403426138,0.7244110107421875,0.6020050048828125,0.3655242919921875
20220119-1334,2022-01-19 13:34:14Z,u01, 146,40,movements,el-ex, rt, d,230223.51792254168, 1.984663994853015, -0.6203456605975513, 2.45293888674064, 0.38815993070602417, -0.7946190237998962, 0.8349016904830933, 0.7449808716773987, 0.5813164710998535, 0.32722336053848267, 0.04170149564743042, -0.03012329339981079, 0.0319078266620636, -0.8068774919264772, 0.11207315565308212, 0.41631539634876163,0.4038192448990744,0.76251220703125,0.57464599609375,0.3391265869140625
20220119-1334,2022-01-19 13:34:14Z,u01, 147,40,movements,el-ex, rt, d,230223.54287054169, 1.955117321294629, -0.6039136213123375, 2.4363817775166994, 0.15335093438625336, -0.8123041987419128, 0.7964813709259033, 0.7630758881568909, 0.567868173122406, 0.3086121082305908, 0.05677902698516846, -0.0038881897926330566, 0.08086895942687988, -0.8003334700496363, 0.11735581563035463, 0.41573458712682054,0.41576302329842113,0.8141326904296875,0.5514678955078125,0.3807373046875
20220119-1334,2022-01-19 13:34:14Z,u01, 148,40,movements,el-ex, rt, d,230223.56781754168, 1.927255350940902, -0.5870547691274264, 2.4238364576679303, 0.13362234830856323, -0.8239551186561584, 0.7538126707077026, 0.780238926410675, 0.5539113283157349, 0.290534108877182, 0.04326295852661133, 0.05302220582962036, 0.038781553506851196, -0.7940353152026312, 0.12155233301948476, 0.4142974566100757,0.42789109531485936,0.828582763671875,0.6100921630859375,0.3510894775390625
20220119-1334,2022-01-19 13:34:14Z,u01, 149,40,movements,el-ex, rt, d,230223.59276454168, 1.9017571652032101, -0.5702739341239076, 2.413483143581493, 0.0725783258676529, -0.7448069453239441, 0.7232689261436462, 0.7960721254348755, 0.5398626327514648, 0.27352941036224365, 0.02344733476638794, 0.04071897268295288, 0.006942808628082275, -0.788060537847436, 0.12540052982877564, 0.4124540138652689,0.4394511341711249,0.818603515625,0.58453369140625,0.2907562255859375
20220119-1334,2022-01-19 13:34:14Z,u01, 150,40,movements,el-ex, rt, d,230223.61771154168, 1.8788407609785516, -0.5535676325038102, 2.40474491498934, 0.07926129549741745, -0.697458803653717, 0.7105249762535095, 0.8106129169464111, 0.5257253646850586, 0.25791484117507935, 0.015482842922210693, 0.06544578075408936, 0.024037480354309082, -0.7824770120931561, 0.12917874051217393, 0.41026782697533815,0.4502478351415289,0.832611083984375,0.58355712890625,0.2751617431640625
20220119-1334,2022-01-19 13:34:14Z,u01, 151,40,movements,el-ex, rt, d,230223.64265854168, 1.8577380796452614, -0.5379183868485908, 2.397262660345571, 0.04273897036910057, -0.6870141625404358, 0.6117403507232666, 0.8236650824546814, 0.5123494863510132, 0.2430514097213745, 0.004795670509338379, 0.045923590660095215, 0.06331498920917511, -0.7771431004086317, 0.13256810751508186, 0.40815735432853084,0.4603063456045602,0.82586669921875,0.578643798828125,0.3084259033203125
20220119-1334,2022-01-19 13:34:14Z,u01, 152,40,movements,el-ex, rt, d,230223.66760554168, 1.8387316473202464, -0.5236575390589356, 2.3932816981990483, -0.049275174736976624, -0.675093948841095, 0.5852354168891907, 0.8350973129272461, 0.5000509023666382, 0.2292647659778595, 0.018739044666290283, 0.08408600091934204, 0.007658869028091431, -0.7723355728768692, 0.13464822275913002, 0.40565017103547135,0.46991049004978624,0.841339111328125,0.579345703125,0.2643585205078125
20220119-1334,2022-01-19 13:34:14Z,u01, 153,40,movements,el-ex, rt, d,230223.69255254167, 1.82142090578377, -0.5101441385967304, 2.390835035764226, -0.07047027349472046, -0.5981655120849609, 0.5063146352767944, 0.8454101085662842, 0.4883030354976654, 0.2164311707019806, 0.021854043006896973, 0.07839304208755493, 0.021896272897720337, -0.7678790850689603, 0.13629856508296634, 0.4029704930714437,0.4789565796219601,0.861785888671875,0.576019287109375,0.2303924560546875
20220119-1334,2022-01-19 13:34:14Z,u01, 154,40,movements,el-ex, rt, d,230223.71749954167, 1.8063396327478884, -0.49752560779368926, 2.3901230234381914, -0.11788006871938705, -0.5814593434333801, 0.49145829677581787, 0.8545016050338745, 0.4772526025772095, 0.2050788700580597, 0.03533017635345459, 0.03710576891899109, 0.0460352897644043, -0.7639588328011323, 0.1375003113922701, 0.4000531241506758,0.48725579059625707,0.896881103515625,0.5245208740234375,0.2659759521484375
20220119-1334,2022-01-19 13:34:14Z,u01, 155,40,movements,el-ex, rt, d,230223.74244654167, 1.7906714491618714, -0.4861558098713366, 2.388400660000589, 0.04712992161512375, -0.6199649572372437, 0.45795226097106934, 0.8628498911857605, 0.46723055839538574, 0.19283685088157654, -0.010234355926513672, 0.04261118173599243, -0.03339745104312897, -0.7597387548967658, 0.13861980702283355, 0.3978593116520206,0.4952672897512507,0.862457275390625,0.504547119140625,0.177490234375
20220119-1334,2022-01-19 13:34:14Z,u01, 156,40,movements,el-ex, rt, d,230223.76739354167, 1.7721542294271666, -0.4753220664495242, 2.382490290375816, 0.08842090517282486, -0.6486493349075317, 0.46041861176490784, 0.8711814880371094, 0.4576248228549957, 0.17782916128635406, -0.017543375492095947, 0.023240596055984497, 0.024411246180534363, -0.7544137005398346, 0.14062199812706877, 0.39712527186309965,0.5033659702232889,0.8386688232421875,0.49517822265625,0.1536102294921875
20220119-1334,2022-01-19 13:34:14Z,u01, 157,40,movements,el-ex, rt, d,230223.7923405417, 1.7560441865002927, -0.4637930502308074, 2.3834977753244853, -0.38746559619903564, -0.6693497896194458, 0.4094694256782532, 0.8790605068206787, 0.4473436772823334, 0.16473276913166046, 0.014448761940002441, -0.008241593837738037, 0.11905063688755035, -0.7500374207862306, 0.1407488901875666, 0.3942975593400456,0.5120188560884399,0.884307861328125,0.446533203125,0.270050048828125
20220119-1334,2022-01-19 13:34:14Z,u01, 158,40,movements,el-ex, rt, d,230223.8172875417, 1.7458230802507302, -0.45185857064042967, 2.3971603859619077, -0.652054488658905, -0.604269802570343, 0.36832335591316223, 0.8858925104141235, 0.43663832545280457, 0.156657874584198, 0.021212100982666016, -0.004891067743301392, 0.056217893958091736, -0.7479494959093488, 0.13747905164036234, 0.387647109208892,0.5209615271914112,0.9165802001953125,0.4314117431640625,0.2566070556640625
20220119-1334,2022-01-19 13:34:14Z,u01, 159,40,movements,el-ex, rt, d,230223.8422345417, 1.7369256320931055, -0.44106250308458894, 2.4085734203242697, -0.21834301948547363, -0.5003200173377991, 0.3435761630535126, 0.8918486833572388, 0.4269005358219147, 0.14954045414924622, -0.009707331657409668, 0.02991694211959839, 0.005443453788757324, -0.7460200028187166, 0.13499772242434338, 0.3817820143670292,0.5286515594905442,0.886077880859375,0.44818115234375,0.1690826416015625
20220119-1334,2022-01-19 13:34:14Z,u01, 160,40,movements,el-ex, rt, d,230223.8671815417, 1.7249180093397174, -0.4325442402974387, 2.406788814739018, 0.13885238766670227, -0.4208603501319885, 0.33767858147621155, 0.8971407413482666, 0.41918209195137024, 0.13937413692474365, 0.011245667934417725, 0.06630662083625793, 0.051986679434776306, -0.7423963745395298, 0.13614216217076985, 0.3803297982649123,0.5344738412156071,0.8979644775390625,0.5076141357421875,0.1751251220703125
20220119-1334,2022-01-19 13:34:14Z,u01, 161,40,movements,el-ex, rt, d,230223.8921285417, 1.7142510209972002, -0.4248572419103305, 2.4053746256503343, -0.1401108056306839, -0.3669254779815674, 0.2996337115764618, 0.9017389416694641, 0.412190705537796, 0.13025341928005219, -0.0005699396133422852, 0.0005745887756347656, 0.06963704526424408, -0.7391321759245759, 0.137150776442374, 0.3789748495650299,0.5396771888796597,0.904144287109375,0.4300079345703125,0.2104034423828125
20220119-1334,2022-01-19 13:34:14Z,u01, 162,40,movements,el-ex, rt, d,230223.91707454168, 1.7078579233529756, -0.417578559589632, 2.410006452184678, -0.2019382268190384, -0.2912459075450897, 0.2263677567243576, 0.9055014252662659, 0.4055482745170593, 0.12489252537488937, -0.004179835319519043, 0.051559120416641235, 0.042618751525878906, -0.7374153675940259, 0.13661931727014623, 0.3758283601070744,0.544340838018602,0.897674560546875,0.4227447509765625,0.1736907958984375
20220119-1334,2022-01-19 13:34:14Z,u01, 163,40,movements,el-ex, rt, d,230223.94202254168, 1.7026883836334916, -0.4122742019340179, 2.4123413183488895, -0.03555247187614441, -0.2025057077407837, 0.18061351776123047, 0.9082548022270203, 0.40069401264190674, 0.12049107253551483, -0.0011194348335266113, 0.0811784565448761, 0.047905221581459045, -0.7359377864896283, 0.13653245860645455, 0.37384691192806346,0.5477163668399238,0.906951904296875,0.4805145263671875,0.1639404296875
20220119-1334,2022-01-19 13:34:14Z,u01, 164,40,movements,el-ex, rt, d,230223.96696954168, 1.6975548581751168, -0.4093052197095239, 2.411245157424678, 0.11794451624155045, -0.19386115670204163, 0.06426580995321274, 0.9100372195243835, 0.397972047328949, 0.11597681045532227, -0.024523794651031494, 0.1564711332321167, 0.1380213499069214, -0.7343243285479244, 0.13695322498165594, 0.37354994903511624,0.5499746233543922,0.891143798828125,0.5018768310546875,0.228302001953125
20220119-1334,2022-01-19 13:34:14Z,u01, 165,40,movements,el-ex, rt, d,230223.99191554167, 1.6901519987383804, -0.40974869906894057, 2.4067553469600473, -0.13353680074214935, -0.24564619362354279, -0.031899742782115936, 0.9106957316398621, 0.398378849029541, 0.10921581834554672, -0.03798431158065796, 0.042859405279159546, 0.11461567878723145, -0.7319977062854968, 0.13706664800068355, 0.3754349734442918,0.5517616391871647,0.873260498046875,0.4842987060546875,0.237640380859375
20220119-1334,2022-01-19 13:34:14Z,u01, 166,40,movements,el-ex, rt, d,230224.01686254167, 1.6940049580699608, -0.4100415694306817, 2.426584918327087, -1.0201702117919922, -0.0972294956445694, -0.17604859173297882, 0.9101521968841553, 0.3986474573612213, 0.11270950734615326, -0.0006213784217834473, 0.09958231449127197, 0.0431593582034111, -0.7344017127043693, 0.13041808617583162, 0.3697889468115779,0.5539868900155375,0.8923492431640625,0.3865509033203125,0.17535400390625
20220119-1334,2022-01-19 13:34:14Z,u01, 167,40,movements,el-ex, rt, d,230224.04180954167, 1.6983523859349856, -0.4132995051264852, 2.4401179439568934, 0.052593495696783066, 0.04432164132595062, -0.18807929754257202, 0.9083607196807861, 0.40163320302963257, 0.11649943143129349, -0.016713082790374756, 0.1647423505783081, 0.010545611381530762, -0.7366024544143246, 0.12516605592448554, 0.36680710546464174,0.5542590192027196,0.9044036865234375,0.57061767578125,0.1241912841796875
20220119-1334,2022-01-19 13:34:14Z,u01, 168,40,movements,el-ex, rt, d,230224.06675654167, 1.7028747062557026, -0.4191275037336947, 2.441725165415024, -0.29110845923423767, 0.2033616304397583, -0.3303419053554535, 0.9054886102676392, 0.40696361660957336, 0.12029579281806946, -0.02557516098022461, 0.038348644971847534, 0.16293810307979584, -0.7381734695181799, 0.12348207972013647, 0.36795761908459645,0.5517783376901105,0.854217529296875,0.4244384765625,0.2709808349609375
20220119-1334,2022-01-19 13:34:14Z,u01, 169,40,movements,el-ex, rt, d,230224.0917035417, 1.7109102844629314, -0.4263475109261858, 2.450104750247659, -0.15391436219215393, 0.17935141921043396, -0.3274911940097809, 0.9015598893165588, 0.4135480523109436, 0.12715430557727814, 0.019506633281707764, 0.09743812680244446, 0.040982604026794434, -0.7411481570484156, 0.11948457820786673, 0.3674943783084593,0.5489726067995282,0.9228363037109375,0.5008087158203125,0.1891937255859375
20220119-1334,2022-01-19 13:34:14Z,u01, 170,40,movements,el-ex, rt, d,230224.1166505417, 1.717518707732707, -0.43392365927662163, 2.454119765469593, -0.0874902755022049, 0.23411041498184204, -0.3147493898868561, 0.8975746631622314, 0.42043405771255493, 0.13264751434326172, -0.0038518309593200684, 0.029425442218780518, 0.03890742361545563, -0.7434375215147117, 0.11672364685293041, 0.3684594154105331,0.5458150781127517,0.8932037353515625,0.473480224609375,0.16253662109375
20220119-1334,2022-01-19 13:34:14Z,u01, 171,40,movements,el-ex, rt, d,230224.1415975417, 1.7246663797625654, -0.44194161410496163, 2.454436758074148, 0.1823822408914566, 0.33154064416885376, -0.3447248339653015, 0.8932436108589172, 0.4276953339576721, 0.13853852450847626, 0.00433957576751709, 0.035179853439331055, 0.04710030555725098, -0.7456372092084235, 0.11530139474215767, 0.3705608444521494,0.5416784783552463,0.8995361328125,0.4614715576171875,0.17498779296875
20220119-1334,2022-01-19 13:34:14Z,u01, 172,40,movements,el-ex, rt, d,230224.1665445417, 1.7323055287842948, -0.4520661477695569, 2.450552071791433, 0.13811732828617096, 0.4067182242870331, -0.41031208634376526, 0.8878396153450012, 0.43682506680488586, 0.14465424418449402, -0.00472182035446167, 0.016971081495285034, 0.07159362733364105, -0.7477513184786664, 0.11486986444557845, 0.3744558984085483,0.5361489845722374,0.881195068359375,0.450439453125,0.2227935791015625
20220119-1334,2022-01-19 13:34:14Z,u01, 173,40,movements,el-ex, rt, d,230224.1914915417, 1.74293033025318, -0.46252532032721894, 2.450832765548035, -0.005153687205165625, 0.4302999675273895, -0.40707555413246155, 0.8817030787467957, 0.44620952010154724, 0.1532880663871765, 0.024104654788970947, -0.00750422477722168, 0.026369333267211914, -0.7508618658756179, 0.11336000211120839, 0.37717512432641676,0.5301840350367484,0.90216064453125,0.4436492919921875,0.19281005859375
20220119-1334,2022-01-19 13:34:14Z,u01, 174,40,movements,el-ex, rt, d,230224.21643854168, 1.7555976066278212, -0.47185127347002054, 2.454536651998823, -0.12120015919208527, 0.4636322855949402, -0.38196998834609985, 0.8755620718002319, 0.4545360505580902, 0.16367247700691223, 0.01794719696044922, -0.017249763011932373, 0.0400785356760025, -0.7546120524030392, 0.11134130198756764, 0.37852970780514106,0.5242893348399859,0.899505615234375,0.4385986328125,0.18902587890625
20220119-1334,2022-01-19 13:34:14Z,u01, 175,40,movements,el-ex, rt, d,230224.24138554168, 1.7711258088156485, -0.4814567669972854, 2.4606484376685125, -0.14797289669513702, 0.570240318775177, -0.46305838227272034, 0.8685960173606873, 0.4630708396434784, 0.17637109756469727, 0.015635788440704346, 0.007235407829284668, 0.04390513896942139, -0.7591643591039771, 0.10888078177734234, 0.3792343122612767,0.5176832649807681,0.8852996826171875,0.46038818359375,0.217132568359375
20220119-1334,2022-01-19 13:34:14Z,u01, 176,40,movements,el-ex, rt, d,230224.26633254168, 1.7909515981450699, -0.4934363255660203, 2.469402869677498, -0.2796386182308197, 0.6742749214172363, -0.6164844036102295, 0.8594533205032349, 0.4736550748348236, 0.19233058393001556, 0.022474288940429688, 0.022942006587982178, 0.085211843252182, -0.7648778100580756, 0.10548567715706636, 0.3798848141769041,0.509433346154657,0.878021240234375,0.4862060546875,0.2685546875
20220119-1334,2022-01-19 13:34:14Z,u01, 177,40,movements,el-ex, rt, d,230224.29127954168, 1.8161960777928698, -0.5071425123597983, 2.4841773865434837, -0.46027740836143494, 0.7764773964881897, -0.6843777298927307, 0.8479474186897278, 0.485681414604187, 0.2123662829399109, 0.033247947692871094, 0.052526503801345825, 0.08014515042304993, -0.772093465129548, 0.10027372661539469, 0.3794383712429625,0.49984366046031115,0.8832855224609375,0.53125,0.28814697265625
20220119-1334,2022-01-19 13:34:14Z,u01, 178,40,movements,el-ex, rt, d,230224.31622654168, 1.8468126885970204, -0.5209796570644321, 2.503893860262436, -0.5732991099357605, 0.8883142471313477, -0.7374506592750549, 0.8345026969909668, 0.4977300763130188, 0.23636972904205322, 0.02168351411819458, 0.07014095783233643, 0.07202604413032532, -0.7805950765687184, 0.09410732826895613, 0.37776601059543774,0.4889869533096866,0.8625335693359375,0.5495758056640625,0.302032470703125
20220119-1334,2022-01-19 13:34:14Z,u01, 179,40,movements,el-ex, rt, d,230224.34117354167, 1.8803058642390862, -0.5359602924106948, 2.524988927456009, -0.4728418290615082, 0.9456167817115784, -0.8359468579292297, 0.8189250230789185, 0.5106669068336487, 0.26188141107559204, 0.022216081619262695, 0.10081368684768677, 0.042699605226516724, -0.789477648777092, 0.08755426926966015, 0.37631150672074143,0.4769163977052668,0.844024658203125,0.600616455078125,0.3066864013671875
20220119-1334,2022-01-19 13:34:15Z,u01, 180,40,movements,el-ex, rt, d,230224.36612054167, 1.914602699241541, -0.5522909844277097, 2.5455094144122494, -0.4785493016242981, 0.9515121579170227, -0.8595917820930481, 0.8015041351318359, 0.5246389508247375, 0.286958783864975, 0.01659601926803589, 0.08348464965820312, 0.04746842384338379, -0.7980766336706928, 0.08095112915922709, 0.3757577755386111,0.46403321361161814,0.8277587890625,0.626983642578125,0.323516845703125
20220119-1334,2022-01-19 13:34:15Z,u01, 181,40,movements,el-ex, rt, d,230224.39106754167, 1.9515707100557251, -0.5671622661378647, 2.5694261722250045, -0.6115347743034363, 0.9817712903022766, -0.8305246829986572, 0.7830203771591187, 0.5372408032417297, 0.3134516179561615, 0.02175891399383545, 0.04450041055679321, 0.044596195220947266, -0.8070088483565053, 0.07390890783161541, 0.3741517740248927,0.45087120218999244,0.8042755126953125,0.5848388671875,0.3568878173828125
20220119-1334,2022-01-19 13:34:15Z,u01, 182,40,movements,el-ex, rt, d,230224.41601454167, 1.9889994527756325, -0.5808894079083321, 2.5936725324260363, -0.3958626985549927, 0.9720700979232788, -0.8192944526672363, 0.763931155204773, 0.5487676858901978, 0.33950555324554443, 0.0454258918762207, 0.06703120470046997, 0.016619712114334106, -0.8156276896459552, 0.06711370007672801, 0.37242126852597385,0.43766415161938294,0.808349609375,0.6118316650390625,0.3516387939453125
20220119-1334,2022-01-19 13:34:15Z,u01, 183,40,movements,el-ex, rt, d,230224.44096154167, 2.0248743203202975, -0.596817290749329, 2.6137714329758897, -0.37351730465888977, 1.0306247472763062, -0.8858681917190552, 0.7433123588562012, 0.562012791633606, 0.3628067374229431, 0.043110549449920654, 0.04629385471343994, 0.043504685163497925, -0.8232075451698443, 0.06109582537862196, 0.372808895877374,0.423804547534241,0.7926177978515625,0.6083984375,0.392120361328125
20220119-1334,2022-01-19 13:34:15Z,u01, 184,40,movements,el-ex, rt, d,230224.4659085417, 2.0648938670439465, -0.6113893773290545, 2.6386754152624086, -0.5283306241035461, 1.0725265741348267, -0.9122343063354492, 0.720914363861084, 0.5740057229995728, 0.3883299231529236, 0.06830084323883057, -0.00378495454788208, 0.02950185537338257, -0.8313964892082635, 0.054266332728152844, 0.3719200347784577,0.4092806068127489,0.801483154296875,0.5749664306640625,0.4228973388671875
20220119-1334,2022-01-19 13:34:15Z,u01, 185,40,movements,el-ex, rt, d,230224.4908555417, 2.106601383987694, -0.6247247038086539, 2.6635131173794626, -0.29999566078186035, 1.1266807317733765, -0.8690659999847412, 0.697451651096344, 0.5848739743232727, 0.4141060709953308, 0.06742578744888306, 0.0008038878440856934, 0.003069579601287842, -0.8394872285240068, 0.048106466490603905, 0.3709383557556356,0.39414689444112244,0.7769775390625,0.5746002197265625,0.40948486328125
20220119-1334,2022-01-19 13:34:15Z,u01, 186,40,movements,el-ex, rt, d,230224.5158025417, 2.146247495168987, -0.6401458972127688, 2.6813910226618867, -0.056214340031147, 1.1795704364776611, -0.8340013027191162, 0.6728428602218628, 0.5973124504089355, 0.43646395206451416, 0.06818521022796631, 0.009376883506774902, 0.027708768844604492, -0.8463433109765058, 0.04398835208620078, 0.3725319048791958,0.3781377514781552,0.74041748046875,0.6269073486328125,0.4529266357421875
20220119-1334,2022-01-19 13:34:15Z,u01, 187,40,movements,el-ex, rt, d,230224.5407495417, 2.187871150757753, -0.6561344708824242, 2.699167072073764, -0.19751903414726257, 1.2480967044830322, -0.8588364720344543, 0.6462259292602539, 0.6100585460662842, 0.45849868655204773, 0.08915627002716064, -0.019299447536468506, 0.0358254611492157, -0.8530119387577638, 0.0402489824669221, 0.37462985496204104,0.3611139350091849,0.73529052734375,0.581024169921875,0.4920654296875
20220119-1334,2022-01-19 13:34:15Z,u01, 188,40,movements,el-ex, rt, d,230224.565695625, 2.233218185870921, -0.6698381600352339, 2.721402873539864, -0.2624701261520386, 1.2687350511550903, -0.8805785775184631, 0.6181268692016602, 0.6208591461181641, 0.48213455080986023, 0.09360432624816895, 0.007573962211608887, 0.010679006576538086, -0.8601012845930099, 0.03595912726354611, 0.3752891608941452,0.3436436783185046,0.7244720458984375,0.6062774658203125,0.4937896728515625
20220119-1334,2022-01-19 13:34:15Z,u01, 189,40,movements,el-ex, rt, d,230224.590642625, 2.2789506370365418, -0.6825258820227353, 2.7439437890829756, -0.1537913680076599, 1.236915946006775, -0.8376394510269165, 0.5894081592559814, 0.6307550668716431, 0.5047246217727661, 0.09360605478286743, 0.007367551326751709, -0.00542604923248291, -0.866800771575309, 0.031917776589526936, 0.3758505481123613,0.3261508071429707,0.691436767578125,0.6429595947265625,0.5011138916015625
20220119-1334,2022-01-19 13:34:15Z,u01, 190,40,movements,el-ex, rt, d,230224.61558962503, 2.3226578868284187, -0.6960246542200306, 2.763066618272898, -0.014765067957341671, 1.263599157333374, -0.8043228387832642, 0.5605214238166809, 0.6411721110343933, 0.5241321921348572, 0.05205810070037842, -0.02181798219680786, -0.01909637451171875, -0.8724857952849392, 0.02889000907957323, 0.3776621318103999,0.3087156897286566,0.633209228515625,0.634857177734375,0.50384521484375
20220119-1334,2022-01-19 13:34:15Z,u01, 191,40,movements,el-ex, rt, d,230224.64053662503, 2.367273659946749, -0.7090166073073982, 2.7826119685709774, -0.1203298419713974, 1.288751244544983, -0.8150319457054138, 0.530717134475708, 0.6510877013206482, 0.5426091551780701, 0.07803243398666382, -0.036860525608062744, 0.02645254135131836, -0.8778522097320023, 0.0260782651794923, 0.3794862393529181,0.2910082212185255,0.613861083984375,0.614501953125,0.560821533203125
20220119-1334,2022-01-19 13:34:15Z,u01, 192,40,movements,el-ex, rt, d,230224.66548362502, 2.4139742442052343, -0.7199000856590936, 2.806010206704275, -0.19212324917316437, 1.2601895332336426, -0.7874392867088318, 0.5000649690628052, 0.6593095660209656, 0.5614684224128723, 0.10052120685577393, 0.010719060897827148, -0.02753239870071411, -0.8833052172861644, 0.022496909289761724, 0.3801687372125781,0.2733821209191652,0.6180267333984375,0.6626739501953125,0.5435638427734375
20220119-1334,2022-01-19 13:34:15Z,u01, 193,40,movements,el-ex, rt, d,230224.69043062502, 2.459778352348609, -0.730679805645023, 2.828054438008576, 0.03189258277416229, 1.272516131401062, -0.7507128715515137, 0.46932539343833923, 0.6673760414123535, 0.5782244205474854, 0.0903366208076477, 0.012936949729919434, -0.04497504234313965, -0.8881069789864906, 0.019447302495365026, 0.3813326177156954,0.2558777388683059,0.5688018798828125,0.6761474609375,0.5297088623046875
20220119-1334,2022-01-19 13:34:15Z,u01, 194,40,movements,el-ex, rt, d,230224.71537762502, 2.5036686911612462, -0.745158831830817, 2.8462185443235826, 0.14971518516540527, 1.280417799949646, -0.7267285585403442, 0.43770232796669006, 0.6780885457992554, 0.5904349088668823, 0.06855398416519165, -0.008151471614837646, 0.015431106090545654, -0.8915830805390934, 0.017235285005283707, 0.3848734791115604,0.2380235367406181,0.5235748291015625,0.6935577392578125,0.5888519287109375
20220119-1334,2022-01-19 13:34:15Z,u01, 195,40,movements,el-ex, rt, d,230224.74032462502, 2.549247845354863, -0.7575157915330388, 2.8666476643100403, -0.047897689044475555, 1.2356406450271606, -0.7360446453094482, 0.405636191368103, 0.687118649482727, 0.6027668714523315, 0.09440979361534119, -0.011154353618621826, -0.021559178829193115, -0.8950765301483428, 0.014880985265692426, 0.38749245229494883,0.22015080855310187,0.48382568359375,0.685699462890625,0.58758544921875
20220119-1334,2022-01-19 13:34:15Z,u01, 196,40,movements,el-ex, rt, d,230224.76527162502, 2.5955167177262517, -0.7661656648077009, 2.890551704180877, -0.0956190750002861, 1.1706708669662476, -0.7891175746917725, 0.3742220103740692, 0.6933774352073669, 0.615781307220459, 0.06585693359375, -0.0011472105979919434, -0.023281991481781006, -0.8987497116137435, 0.011815230743586036, 0.3884153620076835,0.20308411178997404,0.4686126708984375,0.6860198974609375,0.5824127197265625
20220119-1334,2022-01-19 13:34:15Z,u01, 197,40,movements,el-ex, rt, d,230224.790218625, 2.64134859043982, -0.7729914432826371, 2.9157381507172766, -0.15396369993686676, 1.1329437494277954, -0.793788492679596, 0.3433382511138916, 0.6982797384262085, 0.6281120777130127, 0.06936630606651306, 0.0004811286926269531, -0.025328457355499268, -0.902211252111824, 0.00841922435796677, 0.38872413704575237,0.18664849480293152,0.4253997802734375,0.7008514404296875,0.603515625
20220119-1334,2022-01-19 13:34:15Z,u01, 198,40,movements,el-ex, rt, d,230224.815165625, 2.686947004446254, -0.7781902983322728, 2.94120105135818, -0.11242341995239258, 1.1284193992614746, -0.7319638729095459, 0.3127519488334656, 0.7019917368888855, 0.639839231967926, 0.06819909811019897, -0.013225436210632324, -0.022346079349517822, -0.9054797467362998, 0.005104727479222193, 0.3885965045568124,0.17050882775075504,0.405853271484375,0.6732330322265625,0.5912933349609375
20220119-1334,2022-01-19 13:34:15Z,u01, 199,40,movements,el-ex, rt, d,230224.840112625, 2.730593789329071, -0.7845064218369501, 2.9645559747161503, -0.022941306233406067, 1.084133267402649, -0.7270859479904175, 0.2827589809894562, 0.7064759731292725, 0.6487987041473389, 0.08409300446510315, -0.019983112812042236, -0.02140253782272339, -0.9079615585376244, 0.0022704061628763816, 0.38943200238127046,0.15473707868216513,0.3766021728515625,0.6855621337890625,0.615447998046875
20220119-1334,2022-01-19 13:34:15Z,u01, 200,40,movements,el-ex, rt, d,230224.865059625, 2.7733896139701697, -0.7885608642931007, 2.9878321867261075, -0.12877872586250305, 1.0429151058197021, -0.6222361326217651, 0.25370946526527405, 0.7093396186828613, 0.6576237082481384, 0.08486789464950562, -0.04013514518737793, -0.01991283893585205, -0.9103909599318702, -0.00040170216509766155, 0.3895181049953962,0.1395128102158694,0.3594512939453125,0.6617889404296875,0.6285247802734375
20220119-1334,2022-01-19 13:34:15Z,u01, 201,40,movements,el-ex, rt, d,230224.890006625, 2.8145358568824306, -0.7929994772945966, 3.0099647917393746, 0.030379971489310265, 0.9898072481155396, -0.6232887506484985, 0.22543005645275116, 0.7124612331390381, 0.6645156741142273, 0.08772623538970947, -0.01865929365158081, -0.04500824213027954, -0.9122771078898668, -0.002881287086788642, 0.39009098754776184,0.12478554410731582,0.315216064453125,0.6852874755859375,0.6240997314453125
20220119-1334,2022-01-19 13:34:15Z,u01, 202,40,movements,el-ex, rt, d,230224.914953625, 2.8527361388123915, -0.7992440463924287, 3.0298492717000363, 0.07472723722457886, 0.9537497758865356, -0.6265851855278015, 0.19861581921577454, 0.7168291807174683, 0.6683623194694519, 0.07253295183181763, -0.03322029113769531, -0.05294442176818848, -0.9133214813139185, -0.005003102674756732, 0.39182245456900394,0.11087907456410792,0.2796173095703125,0.6926422119140625,0.62017822265625
20220119-1334,2022-01-19 13:34:15Z,u01, 203,40,movements,el-ex, rt, d,230224.939900625, 2.888978636198753, -0.8025437943977505, 3.0492242768916014, -0.09067867696285248, 0.866864025592804, -0.5168893337249756, 0.17367543280124664, 0.7191260457038879, 0.6728261709213257, 0.08164998888969421, -0.06954419612884521, -0.05824756622314453, -0.9145295192466998, -0.006988781769929564, 0.3924186685198211,0.09795227285025279,0.2717132568359375,0.6546478271484375,0.6097412109375
20220119-1334,2022-01-19 13:34:15Z,u01, 204,40,movements,el-ex, rt, d,230224.964847625, 2.9241600172483215, -0.8027786331565113, 3.0689385826666697, -0.1023666262626648, 0.823599636554718, -0.517833411693573, 0.14986541867256165, 0.7192891836166382, 0.6783536076545715, 0.06955602765083313, -0.04121941328048706, -0.02202695608139038, -0.9160204491689417, -0.009128617086082425, 0.39176224043561514,0.08570655191380533,0.222076416015625,0.67132568359375,0.6417999267578125
20220119-1334,2022-01-19 13:34:15Z,u01, 205,40,movements,el-ex, rt, d,230224.98979462503, 2.9571232208172624, -0.803750006793022, 3.0861736524656593, 0.011799929663538933, 0.8186118602752686, -0.4359547197818756, 0.12729912996292114, 0.7199636697769165, 0.6822370886802673, 0.07948805391788483, 0.00527113676071167, -0.05185037851333618, -0.9170636471308118, -0.010621937535533366, 0.39168103150581385,0.07394249928032542,0.2092132568359375,0.71502685546875,0.6425018310546875
20220119-1334,2022-01-19 13:34:15Z,u01, 206,40,movements,el-ex, rt, d,230225.01474162503, 2.987648719393469, -0.8086329603756981, 3.1013835512148513, 0.18202891945838928, 0.770900547504425, -0.43495097756385803, 0.10587712377309799, 0.7233439087867737, 0.6823225021362305, 0.050952814519405365, -0.015931367874145508, -0.05085235834121704, -0.9170723170001391, -0.01181644721680225, 0.393567576195614,0.06279671838783807,0.180755615234375,0.7187042236328125,0.6172027587890625
20220119-1334,2022-01-19 13:34:15Z,u01, 207,40,movements,el-ex, rt, d,230225.03968862502, 3.016381447257958, -0.8141006179012067, 3.115082949505923, 0.08527474850416183, 0.745610773563385, -0.42601221799850464, 0.0857359915971756, 0.7271084189414978, 0.681148886680603, 0.03883685916662216, -0.03887593746185303, -0.029079020023345947, -0.9167416064694016, -0.012619709125977097, 0.3958534653927823,0.052210514867894825,0.1289215087890625,0.690277099609375,0.6480560302734375
20220119-1334,2022-01-19 13:34:15Z,u01, 208,40,movements,el-ex, rt, d,230225.06463562502, 3.0449019020653902, -0.8134229031060357, 3.1304796882394426, -0.21541917324066162, 0.6590567231178284, -0.3948836028575897, 0.0663246214389801, 0.7266430258750916, 0.683806836605072, 0.06374136358499527, -0.03461116552352905, -0.01866048574447632, -0.917445840483647, -0.014020027500222354, 0.3953694165407491,0.04218821266460515,0.139251708984375,0.67584228515625,0.6841583251953125
20220119-1334,2022-01-19 13:34:15Z,u01, 209,40,movements,el-ex, rt, d,230225.08958262502, 3.0712612557093557, -0.8091321911505612, -3.138326426314193, -0.13500802218914032, 0.6149985194206238, -0.36950966715812683, 0.04849758744239807, 0.723688542842865, 0.6884207725524902, 0.049936942756175995, -0.0037485361099243164, -0.03488647937774658, -0.9186811706300817, -0.015339398554279127, 0.39332323256040946,0.032962616597183636,0.10699462890625,0.712005615234375,0.6640167236328125
20220119-1334,2022-01-19 13:34:15Z,u01, 210,40,movements,el-ex, rt, d,230225.11452962502, 3.096248023852009, -0.8085162390577413, -3.125082524704301, 0.027816515415906906, 0.6047436594963074, -0.35513752698898315, 0.031303033232688904, 0.7232633233070374, 0.689862847328186, 0.036186665296554565, 0.009066879749298096, -0.06469452381134033, -0.9190533279763121, -0.016504414437404802, 0.39305020327695683,0.024088460128620676,0.0616302490234375,0.744537353515625,0.6331939697265625
20220119-1334,2022-01-19 13:34:15Z,u01, 211,40,movements,el-ex, rt, d,230225.13947662502, 3.1198161533650204, -0.8088847140374341, -3.1130485823808534, -0.03891684114933014, 0.5998466610908508, -0.32708272337913513, 0.015031264163553715, 0.7235177159309387, 0.6901425123214722, 0.03083673119544983, -0.03940534591674805, -0.02836829423904419, -0.9191128143330752, -0.01740345019031797, 0.393299872841816,0.015624204806699099,0.054351806640625,0.684112548828125,0.6501922607421875
20220119-1334,2022-01-19 13:34:15Z,u01, 212,40,movements,el-ex, rt, d,230225.164423625, -3.1405832522989794, -0.8068258783906175, -3.1012026327678344, -0.12665125727653503, 0.538898766040802, -0.3132937252521515, -0.0006982982158660889, 0.7220949530601501, 0.691794216632843, 0.041668206453323364, -0.008715987205505371, 0.0007570385932922363, -0.9195430829729127, -0.018374548512560873, 0.3924887959060419,0.0074631145019185,0.0393829345703125,0.6956939697265625,0.69537353515625
20220119-1334,2022-01-19 13:34:15Z,u01, 213,40,movements,el-ex, rt, d,230225.189370625, -3.1195504125292235, -0.8029911564918428, -3.089756822224095, -0.1568962037563324, 0.4896383583545685, -0.32047462463378906, -0.01530837919563055, 0.7194368243217468, 0.6943894624710083, 0.0609474778175354, -0.009567558765411377, -0.028007209300994873, -0.920224235220535, -0.01954727691662972, 0.39090330718549465,-1.4229797163811675e-05,0.044342041015625,0.7133941650390625,0.676788330078125
20220119-1334,2022-01-19 13:34:15Z,u01, 214,40,movements,el-ex, rt, d,230225.214317625, -3.099239975297147, -0.7989000105110502, -3.0792385561532942, -0.11517293006181717, 0.5275235772132874, -0.28347623348236084, -0.02953198179602623, 0.7165892720222473, 0.6968702673912048, 0.026144595816731453, 0.0003905296325683594, -0.01622098684310913, -0.9208776647280719, -0.02048044407759214, 0.3892436087081028,-0.007377862241022992,0.011932373046875,0.7061614990234375,0.6753082275390625
20220119-1334,2022-01-19 13:34:15Z,u01, 215,40,movements,el-ex, rt, d,230225.239264625, -3.0796572466574683, -0.797058354965536, -3.0701400941848056, -0.01044282503426075, 0.5036221742630005, -0.2344568371772766, -0.04325369372963905, 0.7153035402297974, 0.6974745392799377, 0.030711021274328232, -0.02435511350631714, -0.00448077917098999, -0.9210323793336133, -0.020895898372144783, 0.3886488476674067,-0.014663631309269731,-0.0089569091796875,0.69940185546875,0.6980438232421875
20220119-1334,2022-01-19 13:34:15Z,u01, 216,40,movements,el-ex, rt, d,230225.264211625, -3.061436566438876, -0.7955183083763414, -3.0620167211607323, -0.11381562054157257, 0.48076146841049194, -0.2436171919107437, -0.05604242533445358, 0.714226484298706, 0.6976681351661682, 0.02433471381664276, -0.02829807996749878, -0.006123840808868408, -0.9210794725951663, -0.021134738588542756, 0.38820530791056107,-0.021514532639741735,-0.0347137451171875,0.6959075927734375,0.7057647705078125
20220119-1334,2022-01-19 13:34:15Z,u01, 217,40,movements,el-ex, rt, d,230225.289158625, -3.044676306108461, -0.7877810990366723, -3.0538168273952992, -0.43965768814086914, 0.3948323130607605, -0.2394483983516693, -0.06825979053974152, 0.7087897658348083, 0.7021099925041199, 0.038459412753582, -0.039707183837890625, -0.03064638376235962, -0.922266581529391, -0.021894264705694333, 0.3849267108666951,-0.027868522327846673,-0.02862548828125,0.6733856201171875,0.678009033203125
20220119-1334,2022-01-19 13:34:15Z,u01, 218,40,movements,el-ex, rt, d,230225.314105625, -3.031511834134623, -0.7772070831977933, -3.047582558817962, -0.27948111295700073, 0.3251485228538513, -0.18569736182689667, -0.07831548899412155, 0.7012911438941956, 0.7085602879524231, 0.025047101080417633, -0.007565736770629883, -0.10983556509017944, -0.9239964865280981, -0.02259738250608251, 0.38029696150575343,-0.033078079805091254,-0.0453948974609375,0.6779937744140625,0.6075592041015625
20220119-1334,2022-01-19 13:34:15Z,u01, 219,40,movements,el-ex, rt, d,230225.339052625, -3.020409207048971, -0.7741907655053385, -3.042212740157431, 0.0361202172935009, 0.2627476453781128, -0.1692151129245758, -0.08643269538879395, 0.6991376876831055, 0.7097436189651489, 0.01938565820455551, -0.033320724964141846, -0.06502896547317505, -0.9243047005871756, -0.023078850204638235, 0.3791276254245124,-0.03728912905869167,-0.0631103515625,0.6740875244140625,0.6305084228515625
20220119-1334,2022-01-19 13:34:16Z,u01, 220,40,movements,el-ex, rt, d,230225.36399962503, -3.0109330679047366, -0.7750845412778248, -3.037142233566694, 0.020585166290402412, 0.20673732459545135, -0.09529382735490799, -0.09307289123535156, 0.6997764706611633, 0.7082728743553162, 0.03853806108236313, -0.04122269153594971, -0.07600933313369751, -0.9238939257711153, -0.023589296968231255, 0.37974890413398876,-0.04067397143508297,-0.0605010986328125,0.67242431640625,0.633270263671875
20220119-1334,2022-01-19 13:34:16Z,u01, 221,40,movements,el-ex, rt, d,230225.38894662503, -3.0054404596003397, -0.7741534575007624, -3.0347503241892273, -0.06642782688140869, 0.09850098937749863, -0.05742913484573364, -0.09705016016960144, 0.6991110444068909, 0.7083964347839355, 0.033710964024066925, -0.07170027494430542, -0.08670717477798462, -0.9239247872934236, -0.023689740147628147, 0.3794348294603258,-0.04279175833338178,-0.055999755859375,0.61761474609375,0.6169891357421875
20220119-1334,2022-01-19 13:34:16Z,u01, 222,40,movements,el-ex, rt, d,230225.41389362502, -3.004218113010941, -0.772791651751996, -3.0345727842530574, -0.033735595643520355, -0.0024143047630786896, 0.02203652635216713, -0.09804630279541016, 0.6981366872787476, 0.7092198729515076, 0.03997136652469635, -0.058381497859954834, -0.09851688146591187, -0.9241499517150513, -0.02359677852988279, 0.3788257804872853,-0.04337400307659495,-0.0531158447265625,0.6432952880859375,0.60693359375
20220119-1334,2022-01-19 13:34:16Z,u01, 223,40,movements,el-ex, rt, d,230225.43884062502, -3.006594460630465, -0.7741350987649197, -3.036108200033315, 0.13450394570827484, -0.0968242958188057, 0.07765518128871918, -0.09623437374830246, 0.6990979313850403, 0.7085210084915161, 0.035489149391651154, -0.06256216764450073, -0.11188644170761108, -0.9239688518160913, -0.023282126596198494, 0.37938382774719837,-0.042516935856048044,-0.062225341796875,0.634124755859375,0.60406494140625
20220119-1334,2022-01-19 13:34:16Z,u01, 224,40,movements,el-ex, rt, d,230225.46378762502, -3.012209454675803, -0.7788338757891046, -3.0389575184365722, 0.1843450665473938, -0.19550441205501556, 0.12622764706611633, -0.09182967245578766, 0.7024499177932739, 0.7057847380638123, 0.03952258080244064, -0.0635492205619812, -0.10008662939071655, -0.9232391364320157, -0.02284470045517001, 0.3814239045418691,-0.0402943511352524,-0.0597381591796875,0.658355712890625,0.6226654052734375
20220119-1334,2022-01-19 13:34:16Z,u01, 225,40,movements,el-ex, rt, d,230225.48873462502, -3.0217670622955084, -0.7823620338418145, -3.0440479690810136, 0.04854889214038849, -0.28705164790153503, 0.19350281357765198, -0.08478319644927979, 0.7049566507339478, 0.7041653394699097, 0.050557754933834076, -0.06961125135421753, -0.08371180295944214, -0.9228165723032504, -0.02218656373455863, 0.38284239154137795,-0.03673280375995072,-0.0416412353515625,0.6336669921875,0.612548828125
20220119-1334,2022-01-19 13:34:16Z,u01, 226,40,movements,el-ex, rt, d,230225.51368162502, -3.0354756094531403, -0.7842374679121966, -3.0519033474170167, 0.05407511442899704, -0.36047276854515076, 0.25354066491127014, -0.07498227059841156, 0.7062855958938599, 0.7039453983306885, 0.038696907460689545, -0.06712543964385986, -0.067088782787323, -0.9227819601076821, -0.021122560911427335, 0.3834227277778712,-0.03185179990126191,-0.02947998046875,0.638580322265625,0.633392333984375
20220119-1334,2022-01-19 13:34:16Z,u01, 227,40,movements,el-ex, rt, d,230225.538628625, -3.0521542104489074, -0.7873126045694133, -3.0614030037580986, 0.1262146234512329, -0.438829243183136, 0.30476057529449463, -0.06303728371858597, 0.708459198474884, 0.7029316425323486, 0.03383199870586395, -0.04331320524215698, -0.0838971734046936, -0.9225355682195913, -0.019847827080329783, 0.38453097842656636,-0.02589226683946297,-0.032745361328125,0.66192626953125,0.623992919921875
20220119-1334,2022-01-19 13:34:16Z,u01, 228,40,movements,el-ex, rt, d,230225.56357650002, -3.071749813112683, -0.791569364883417, -3.0724191204336724, 0.16104431450366974, -0.5022674798965454, 0.3449339270591736, -0.049040786921978, 0.7114570140838623, 0.7010170221328735, 0.035735152661800385, -0.031174421310424805, -0.07497888803482056, -0.922045914548601, -0.018434663296857667, 0.38618076996339434,-0.018872466325024567,-0.0216827392578125,0.673187255859375,0.6262359619140625
20220119-1334,2022-01-19 13:34:16Z,u01, 229,40,movements,el-ex, rt, d,230225.58852350002, -3.0945519351331714, -0.7965200135309622, -3.0854739809053724, 0.20357602834701538, -0.5828561186790466, 0.41758811473846436, -0.032878708094358444, 0.7149271965026855, 0.698425829410553, 0.03951635956764221, -0.0448070764541626, -0.06860363483428955, -0.9213755151389664, -0.016735676536579036, 0.3881633612605102,-0.010791667216547257,0.00225830078125,0.6839141845703125,0.6395263671875
20220119-1334,2022-01-19 13:34:16Z,u01, 230,40,movements,el-ex, rt, d,230225.61347050001, -3.121606913555797, -0.8024451623735538, -3.1013509998216544, 0.26165756583213806, -0.6801531314849854, 0.48932328820228577, -0.013888186775147915, 0.7190575003623962, 0.6948122978210449, 0.021258234977722168, -0.09604120254516602, -0.12143230438232422, -0.9204305644148538, -0.01461894662488078, 0.3906306003881297,-0.0013401178589131646,0.0037689208984375,0.624176025390625,0.608367919921875
20220119-1334,2022-01-19 13:34:16Z,u01, 231,40,movements,el-ex, rt, d,230225.6384175, 3.129982230586901, -0.8101701209990911, -3.1198497890460906, 0.23956118524074554, -0.7385799884796143, 0.5040689706802368, 0.008003761060535908, 0.7244044542312622, 0.6893289685249329, 0.018516093492507935, -0.05112582445144653, -0.07978564500808716, -0.9189742796578309, -0.012278900350702948, 0.3940089780236249,0.009619287082076766,0.022003173828125,0.6531524658203125,0.5732421875
20220119-1334,2022-01-19 13:34:16Z,u01, 232,40,movements,el-ex, rt, d,230225.6633645, 3.0983285373269336, -0.809308741160702, -3.1370217599809664, -0.3773970603942871, -0.8183580636978149, 0.4352167248725891, 0.02984290011227131, 0.7238103747367859, 0.6893537044525146, 0.08214139938354492, 0.008687734603881836, 0.059456586837768555, -0.9190017065028794, -0.010616257138751528, 0.39356243795212487,0.020782997376407736,0.074066162109375,0.7367401123046875,0.7506256103515625
20220119-1334,2022-01-19 13:34:16Z,u01, 233,40,movements,el-ex, rt, d,230225.6883115, 3.066525252283102, -0.789984512376235, 3.132787128243652, -0.9843966960906982, -0.9438400268554688, 0.4047534167766571, 0.05278710275888443, 0.7103423476219177, 0.7018747329711914, 0.09441450983285904, -0.015655517578125, -0.018127858638763428, -0.9224042749332123, -0.010378603933659691, 0.3846787160931673,0.03294214930218284,0.146392822265625,0.7018890380859375,0.7035675048828125
20220119-1334,2022-01-19 13:34:16Z,u01, 234,40,movements,el-ex, rt, d,230225.7132585, 3.033509640017152, -0.7712882451470248, 3.1200749852554144, -0.22298011183738708, -0.9530174136161804, 0.47410115599632263, 0.07734622806310654, 0.6970595121383667, 0.7128299474716187, -0.0012200400233268738, 0.060676634311676025, -0.14727753400802612, -0.9253688856668731, -0.010363047011571314, 0.3761235265665547,0.04600424750553253,0.1100616455078125,0.74505615234375,0.5938262939453125
20220119-1334,2022-01-19 13:34:16Z,u01, 235,40,movements,el-ex, rt, d,230225.7382055, 2.9968263131061, -0.7787417875861651, 3.100142957008285, 0.8162582516670227, -0.8447992205619812, 0.5595149993896484, 0.10268484801054001, 0.7023844122886658, 0.7043523192405701, -0.050301358103752136, 0.030525624752044678, -0.10834366083145142, -0.9230963442573104, -0.00832525789136962, 0.37991767441606145,0.05904620529057997,0.0526885986328125,0.7296142578125,0.563018798828125
20220119-1334,2022-01-19 13:34:16Z,u01, 236,40,movements,el-ex, rt, d,230225.7631525, 2.9585725628089063, -0.7953848168053796, 3.0747009075603473, 0.4652368724346161, -0.790974497795105, 0.6328625679016113, 0.12740196287631989, 0.7141330242156982, 0.6883193850517273, 0.06107470393180847, -0.04193753004074097, 0.10423797369003296, -0.9187697606716491, -0.004670932916031156, 0.38827295200898315,0.07130685088713973,0.129364013671875,0.7124176025390625,0.7311248779296875
20220119-1334,2022-01-19 13:34:16Z,u01, 237,40,movements,el-ex, rt, d,230225.7880995, 2.92259192238356, -0.7938444150829961, 3.052556513152391, -0.2958202362060547, -0.8538988828659058, 0.5917942523956299, 0.1523190438747406, 0.7130538821220398, 0.6843634247779846, 0.11550328135490417, -0.0720323920249939, 0.08496981859207153, -0.9177035041096463, -0.0014067874728649343, 0.3883709254884428,0.08358459896955253,0.2554473876953125,0.631805419921875,0.78680419921875
20220119-1334,2022-01-19 13:34:16Z,u01, 238,40,movements,el-ex, rt, d,230225.8130465, 2.8872471433122904, -0.7840990064770664, 3.0346051332578634, -0.0713823139667511, -0.9180631041526794, 0.5844185948371887, 0.17814761400222778, 0.7061875462532043, 0.6852465867996216, 0.0650927871465683, 0.025455892086029053, -0.06657856702804565, -0.9179449309713192, 0.0006220963703812421, 0.38472239752275106,0.09677538214932538,0.2753753662109375,0.71710205078125,0.658294677734375
20220119-1334,2022-01-19 13:34:16Z,u01, 239,40,movements,el-ex, rt, d,230225.83799350003, 2.8485617524055633, -0.7859575247287296, 3.0121972509682515, 0.49736589193344116, -0.8769451975822449, 0.5841854214668274, 0.20413726568222046, 0.7075021862983704, 0.6765861511230469, -0.018803924322128296, 0.005495011806488037, -0.05755198001861572, -0.9155775353450161, 0.003294974408602769, 0.38676553692714755,0.11008816572071539,0.1994171142578125,0.71295166015625,0.5912933349609375
20220119-1334,2022-01-19 13:34:16Z,u01, 240,40,movements,el-ex, rt, d,230225.86294050002, 2.8098050813129514, -0.7928643126367844, 2.987172048970281, 0.2998571991920471, -0.8091976046562195, 0.5914822220802307, 0.22860249876976013, 0.7123664021492004, 0.663532555103302, 0.024556174874305725, -2.5212764739990234e-05, 0.09627920389175415, -0.9119883287785213, 0.006601525628655791, 0.39144346425561927,0.12249841344481965,0.198089599609375,0.739898681640625,0.7543182373046875
20220119-1334,2022-01-19 13:34:16Z,u01, 241,40,movements,el-ex, rt, d,230225.88788750002, 2.775484123700983, -0.7878738395085568, 2.968177351399116, -0.22085492312908173, -0.8560101985931396, 0.5475915670394897, 0.25250598788261414, 0.708855152130127, 0.6586087942123413, 0.07615312933921814, -0.03066319227218628, 0.05785280466079712, -0.9106168130338805, 0.009023066644640254, 0.3905525078546699,0.1347756976128956,0.31951904296875,0.678802490234375,0.7332916259765625
20220119-1334,2022-01-19 13:34:16Z,u01, 242,40,movements,el-ex, rt, d,230225.91283450002, 2.7419317980579163, -0.7799475447236346, 2.95151975451403, 0.08946783095598221, -0.8726719617843628, 0.5756344795227051, 0.2766353189945221, 0.7032421231269836, 0.6549232006072998, 0.01636415719985962, 0.04074597358703613, -0.034912168979644775, -0.9095838704982746, 0.010898981606539127, 0.3883399150626301,0.14741372508538492,0.3142547607421875,0.7445831298828125,0.6431427001953125
20220119-1334,2022-01-19 13:34:16Z,u01, 243,40,movements,el-ex, rt, d,230225.93778150002, 2.7024743289161424, -0.781921015563216, 2.9267266455762457, 0.5872469544410706, -0.8806667327880859, 0.6417344212532043, 0.301664263010025, 0.7046437859535217, 0.6422434449195862, -0.0355050265789032, 0.002845168113708496, -0.06617790460586548, -0.9060458450642175, 0.014235931107385913, 0.3913756196677629,0.1603235998128227,0.2689056396484375,0.719390869140625,0.5810699462890625
20220119-1334,2022-01-19 13:34:16Z,u01, 244,40,movements,el-ex, rt, d,230225.96272850002, 2.6598455350189267, -0.7856515915826267, 2.8976990749995144, 0.2786778509616852, -0.8984884023666382, 0.6937062740325928, 0.3275398313999176, 0.7072859406471252, 0.6264705657958984, 0.008428394794464111, -0.0626782774925232, 0.021540343761444092, -0.9016059046597893, 0.018495565936020086, 0.39579641761162426,0.1735230779155645,0.292633056640625,0.663330078125,0.6338043212890625
20220119-1334,2022-01-19 13:34:16Z,u01, 245,40,movements,el-ex, rt, d,230225.98767550002, 2.620721974710434, -0.7780810112777653, 2.876035878759976, -0.16192080080509186, -1.0153727531433105, 0.6741622686386108, 0.35444679856300354, 0.7019138932228088, 0.617806077003479, 0.06457489728927612, -0.06838446855545044, -0.012550711631774902, -0.8991320633692226, 0.021554117478050083, 0.39482671889140775,0.18764012982158507,0.40338134765625,0.6287841796875,0.619842529296875
20220119-1334,2022-01-19 13:34:16Z,u01, 246,40,movements,el-ex, rt, d,230226.0126225, 2.582440447702173, -0.7653501505465234, 2.8594070487647794, -0.1693485975265503, -1.1146353483200073, 0.6725527048110962, 0.38254180550575256, 0.6927895545959473, 0.611314594745636, 0.06167230010032654, -0.00644916296005249, -0.07333481311798096, -0.897279789964089, 0.023372383178999256, 0.3913369753783816,0.20297394455174872,0.4413604736328125,0.680999755859375,0.550140380859375
20220119-1334,2022-01-19 13:34:16Z,u01, 247,40,movements,el-ex, rt, d,230226.0375695, 2.5446178973418725, -0.7523651437951501, 2.844269893156041, -0.24271787703037262, -1.0782054662704468, 0.6439127922058105, 0.4104067087173462, 0.6833673715591431, 0.603801429271698, 0.042947351932525635, 0.024930298328399658, 0.034367382526397705, -0.8951449870760323, 0.02482264524024952, 0.38776638730808144,0.21848747621647358,0.4452056884765625,0.7071685791015625,0.6121368408203125
20220119-1334,2022-01-19 13:34:16Z,u01, 248,40,movements,el-ex, rt, d,230226.0625165, 2.511604620776418, -0.7372429788095757, 2.8337929799655726, -0.41719284653663635, -0.9850469827651978, 0.5610613822937012, 0.4361514747142792, 0.6722493767738342, 0.5982082486152649, 0.08466166257858276, 0.01695948839187622, 0.09393084049224854, -0.8935583049016824, 0.025645309350651457, 0.38285326931765656,0.23306520686871204,0.5039215087890625,0.66375732421875,0.696075439453125
20220119-1334,2022-01-19 13:34:16Z,u01, 249,40,movements,el-ex, rt, d,230226.0874635, 2.482587984565732, -0.7218248349266304, 2.8260507830993786, -0.17961524426937103, -0.9227461814880371, 0.5461257100105286, 0.45961612462997437, 0.6607555150985718, 0.5934272408485413, 0.07847005128860474, 0.08089786767959595, 0.04599279165267944, -0.8922022697674115, 0.026243917510835768, 0.3775444867060931,0.24646856303602954,0.5394439697265625,0.7348480224609375,0.6557464599609375
20220119-1334,2022-01-19 13:34:16Z,u01, 250,40,movements,el-ex, rt, d,230226.1124105, 2.4501010585704663, -0.71451051168679, 2.8104809211417536, 0.2899787425994873, -0.8655992746353149, 0.5596036911010742, 0.48171791434288025, 0.6552477478981018, 0.5818925499916077, 0.0042899250984191895, 0.07256585359573364, 0.0053272247314453125, -0.8888991584066774, 0.02836482071317087, 0.37683532644077167,0.25893835815830746,0.501922607421875,0.746063232421875,0.5971221923828125
20220119-1334,2022-01-19 13:34:16Z,u01, 251,40,movements,el-ex, rt, d,230226.1373575, 2.4146443929312347, -0.7126249478880642, 2.7880384395751316, 0.3788229525089264, -0.8003864884376526, 0.5402528643608093, 0.5028629302978516, 0.6538221836090088, 0.5653723478317261, -0.029931843280792236, 0.050508081912994385, 0.060223162174224854, -0.8841179380025928, 0.03196324050876387, 0.3795448712858293,0.2706652114475787,0.473358154296875,0.70086669921875,0.5955047607421875
20220119-1334,2022-01-19 13:34:16Z,u01, 252,40,movements,el-ex, rt, d,230226.1623045, 2.3849393188144608, -0.7072651452475652, 2.77186313279524, -0.053692691028118134, -0.7355114817619324, 0.4710451364517212, 0.5218312740325928, 0.6497573256492615, 0.5527278184890747, 0.03696101903915405, 0.036491334438323975, 0.123282790184021, -0.8804390624218013, 0.0345103653268749, 0.3800281759495586,0.2814513163603925,0.523773193359375,0.6949462890625,0.6764984130859375
20220119-1334,2022-01-19 13:34:16Z,u01, 253,40,movements,el-ex, rt, d,230226.1872515, 2.3628514290434435, -0.6973385535245527, 2.765131282977552, -0.12475661933422089, -0.6679114699363708, 0.405716210603714, 0.5384156703948975, 0.6421798467636108, 0.5456321835517883, 0.05544137954711914, 0.07441860437393188, 0.08434265851974487, -0.8783906846692398, 0.03529746116330312, 0.3772498236065614,0.291318971884094,0.589813232421875,0.70849609375,0.6415252685546875
