SessionID,LoggingTime,UID,RecNo,Hertz,Activity,MoveType,Wrist,Side,TimeStamp,DMRoll,DMPitch,DMYaw,DMRotX,DMRotY,DMRotZ,DMGrvX,DMGrvY,DMGrvZ,DMUAccelX,DMUAccelY,DMUAccelZ,DMQuatX,DMQuatY,DMQuatW,DMQuatZ,AccelroX,AceelroY,AceelroZ
20220119-1339,2022-01-19 13:39:07Z,u01, 1,40,movements,el-ex, rt, d,230517.34788037502, 1.7646005362952146, -0.400836889372319, 2.810353825438662, -0.03608660399913788, -0.38487210869789124, 0.30704250931739807, 0.9034972190856934, 0.3901890218257904, 0.17732729017734528, -0.012674033641815186, 0.04116162657737732, 0.04296372830867767, -0.7672441880406624, -5.551115123125783e-17, 0.2542795618961309,0.5887937942930561,0.8908233642578125,0.4313507080078125,0.2202911376953125
20220119-1339,2022-01-19 13:39:08Z,u01, 2,40,movements,el-ex, rt, d,230517.372826375, 1.7551291896446417, -0.3936538988813883, 2.8102495059011634, -0.08343830704689026, -0.35973939299583435, 0.2671847641468048, 0.9078682065010071, 0.38356539607048035, 0.16927151381969452, -0.0056618452072143555, 0.038736820220947266, 0.04815089702606201, -0.7646139180099409, 0.0011447323572738588, 0.25171117460509884,0.5933006929302886,0.908843994140625,0.4163055419921875,0.2192230224609375
20220119-1339,2022-01-19 13:39:08Z,u01, 3,40,movements,el-ex, rt, d,230517.397772375, 1.748009680160802, -0.38739019756660265, 2.812526552232407, -0.15792228281497955, 0.3987697958946228, -0.32012805342674255, 0.9113972783088684, 0.3777732849121094, 0.1632240265607834, 0.32386261224746704, -0.00861746072769165, -0.0193796306848526, -0.7626336243885521, 0.0014019703586051202, 0.24877440849156618,0.5970755342958731,1.235260009765625,0.3691558837890625,0.1438446044921875
20220119-1339,2022-01-19 13:39:08Z,u01, 4,40,movements,el-ex, rt, d,230517.42271837502, 1.7411489828124618, -0.38193580907542635, 2.812881153853417, 0.044743165373802185, -0.25389087200164795, 0.22284166514873505, 0.9145127534866333, 0.3727174997329712, 0.15731438994407654, 0.05066657066345215, 0.02890905737876892, 0.0015599578619003296, -0.7606920779556527, 0.0021806686027690536, 0.2467069409478683,0.6003985139649649,0.91192626953125,0.4119720458984375,0.1956024169921875
20220119-1339,2022-01-19 13:39:08Z,u01, 5,40,movements,el-ex, rt, d,230517.447664375, 1.7340570805408295, -0.3769689663445531, 2.8103991891396416, 0.024485299363732338, -0.23536965250968933, 0.19535039365291595, 0.9174207448959351, 0.368103951215744, 0.15112388134002686, -0.01631307601928711, 0.029265373945236206, 0.0558919757604599, -0.7586481543698667, 0.003862648957956516, 0.24567734634346064,0.6033909233233776,0.9011077880859375,0.397369384765625,0.2070159912109375
20220119-1339,2022-01-19 13:39:08Z,u01, 6,40,movements,el-ex, rt, d,230517.472610375, 1.7282883861135419, -0.37265431781198005, 2.810868281245574, -0.10391611605882645, -0.23384852707386017, 0.13786333799362183, 0.919837474822998, 0.36408886313438416, 0.14607684314250946, 0.006859421730041504, 0.028016239404678345, 0.05694116652011871, -0.7569803179630441, 0.004384253729434573, 0.24399837903295157,0.6061570722208088,0.9247894287109375,0.3933258056640625,0.193328857421875
20220119-1339,2022-01-19 13:39:08Z,u01, 7,40,movements,el-ex, rt, d,230517.49755637502, 1.7246750921603096, -0.36936464326888135, 2.8142062452767296, -0.16263575851917267, -0.15409111976623535, 0.09062337875366211, 0.9215378761291504, 0.3610230088233948, 0.14293506741523743, -0.006483495235443115, 0.034088075160980225, 0.047128334641456604, -0.7559453802191546, 0.003757225981113499, 0.2418125941446645,0.6083249059096733,0.9150543212890625,0.395111083984375,0.1900634765625
20220119-1339,2022-01-19 13:39:08Z,u01, 8,40,movements,el-ex, rt, d,230517.52250337502, 1.7227365070861327, -0.36711724878112706, 2.8165418782903413, -0.016051340848207474, -0.07291629910469055, 0.06062799692153931, 0.9226128458976746, 0.35892626643180847, 0.14127075672149658, -0.0063530802726745605, 0.04854440689086914, 0.03257250785827637, -0.7553965710903666, 0.003376086548370072, 0.2402992363324056,0.6096071479275308,0.91229248046875,0.409881591796875,0.17730712890625
20220119-1339,2022-01-19 13:39:08Z,u01, 9,40,movements,el-ex, rt, d,230517.547449375, 1.7215264451375587, -0.36640387785415235, 2.8165158908851704, -0.03054409846663475, -0.026572171598672867, -0.0033615720458328724, 0.9230361580848694, 0.3582603335380554, 0.1401926726102829, -0.02093648910522461, 0.04228290915489197, 0.07893873751163483, -0.7550392473796685, 0.0034741032982895104, 0.24005358603440113,0.6101459196428367,0.902099609375,0.400543212890625,0.2191314697265625
20220119-1339,2022-01-19 13:39:08Z,u01, 10,40,movements,el-ex, rt, d,230517.57239537503, 1.7232417319137237, -0.36729855279744267, 2.818673659550952, -0.06255771964788437, 0.025488562881946564, -0.043184682726860046, 0.9224770069122314, 0.3590954840183258, 0.14172697067260742, -0.00888758897781372, 0.04147821664810181, 0.06306111812591553, -0.7555507080318737, 0.002572145495109479, 0.23971369393462227,0.6096505684719379,0.91668701171875,0.404998779296875,0.19549560546875
20220119-1339,2022-01-19 13:39:08Z,u01, 11,40,movements,el-ex, rt, d,230517.59734137502, 1.727283099696714, -0.37038824691845396, 2.820778883417959, -0.02832871302962303, 0.08200710266828537, -0.07356323301792145, 0.920796275138855, 0.36197736859321594, 0.14528025686740875, -0.004887580871582031, 0.03967967629432678, 0.0468125194311142, -0.7567288556280621, 0.0012515585059170165, 0.24017803172584662,0.6080084398720084,0.9159088134765625,0.4016571044921875,0.1920928955078125
20220119-1339,2022-01-19 13:39:08Z,u01, 12,40,movements,el-ex, rt, d,230517.622287375, 1.7318851987698511, -0.3737695847015583, 2.822229810234723, -0.010057331994175911, 0.1323104202747345, -0.11277834326028824, 0.9189046025276184, 0.3651273548603058, 0.1493191421031952, -0.0003560781478881836, 0.035598963499069214, 0.04693925380706787, -0.7580630231683088, 0.00015353351244867808, 0.2409518895909475,0.606038421930337,0.9192352294921875,0.397186279296875,0.19189453125
20220119-1339,2022-01-19 13:39:08Z,u01, 13,40,movements,el-ex, rt, d,230517.64723337503, 1.739572896764415, -0.3778924806710061, 2.8246714187771964, -0.03463641181588173, 0.1871902346611023, -0.1641985923051834, 0.9162377119064331, 0.36896246671676636, 0.15612471103668213, -0.009606361389160156, 0.030466794967651367, 0.059497103095054626, -0.7603031965083645, -0.001184859719755238, 0.24170206625392485,0.6029242409188725,0.9066314697265625,0.3994293212890625,0.2156219482421875
20220119-1339,2022-01-19 13:39:08Z,u01, 14,40,movements,el-ex, rt, d,230517.67217937502, 1.7468243505909584, -0.38325457335971086, 2.827312498459144, -0.06684285402297974, 0.2614889144897461, -0.22786791622638702, 0.9131206274032593, 0.37394091486930847, 0.16241583228111267, -0.013019859790802002, 0.036642611026763916, 0.061338916420936584, -0.7623638468625662, -0.003046110193424545, 0.24285419680301737,0.5998449147196564,0.90228271484375,0.4116363525390625,0.2239227294921875
20220119-1339,2022-01-19 13:39:08Z,u01, 15,40,movements,el-ex, rt, d,230517.697125375, 1.7564632199902888, -0.3897009491895887, 2.8304393408864295, -0.027750907465815544, 0.33903631567955017, -0.2683132290840149, 0.9091245532035828, 0.3799118101596832, 0.17076103389263153, 0.00043648481369018555, 0.0462508499622345, 0.041656479239463806, -0.7650843627321384, -0.005141229680636461, 0.2442774867692719,0.5957750493726851,0.9095611572265625,0.4261627197265625,0.2124176025390625
20220119-1339,2022-01-19 13:39:08Z,u01, 16,40,movements,el-ex, rt, d,230517.72207137503, 1.7669783434546138, -0.397051311648246, 2.8320820111602036, 0.017734285444021225, 0.41374915838241577, -0.3285890817642212, 0.9045154452323914, 0.38670071959495544, 0.17976179718971252, 0.002543210983276367, 0.03993499279022217, 0.04928779602050781, -0.7680066473573761, -0.006832832554593771, 0.24649749680119032,0.5910652138883518,0.9080657958984375,0.4246673583984375,0.233001708984375
20220119-1339,2022-01-19 13:39:08Z,u01, 17,40,movements,el-ex, rt, d,230517.74701737502, 1.7791590931292234, -0.4056954898546905, 2.835201381057338, -0.11208309233188629, 0.4705629050731659, -0.40446600317955017, 0.898954451084137, 0.3946578800678253, 0.19006721675395966, 0.009248435497283936, 0.02730858325958252, 0.08282074332237244, -0.7713284793468713, -0.009272964755380586, 0.24878838178531296,0.5857222204842157,0.908203125,0.421966552734375,0.27288818359375
20220119-1339,2022-01-19 13:39:08Z,u01, 18,40,movements,el-ex, rt, d,230517.771963375, 1.795073355851071, -0.4156206677313921, 2.842537542137826, -0.23206599056720734, 0.5753968358039856, -0.47992831468582153, 0.8919529914855957, 0.40375784039497375, 0.20346754789352417, -0.0024268031120300293, 0.04256165027618408, 0.09195765852928162, -0.7756017926193349, -0.013252686186384921, 0.2503885778937229,0.5792854336153317,0.887542724609375,0.449005126953125,0.2944488525390625
20220119-1339,2022-01-19 13:39:08Z,u01, 19,40,movements,el-ex, rt, d,230517.796909375, 1.814473187445994, -0.4264700279777064, 2.85135644368853, -0.16656801104545593, 0.6855796575546265, -0.5159825682640076, 0.8835351467132568, 0.41365960240364075, 0.21966210007667542, -0.00028008222579956055, 0.06217050552368164, 0.06378510594367981, -0.7807177695143356, -0.017630031314791128, 0.25201622398056,0.5715389633613882,0.8832550048828125,0.475830078125,0.283447265625
20220119-1339,2022-01-19 13:39:08Z,u01, 20,40,movements,el-ex, rt, d,230517.82185537502, 1.8352313895911834, -0.4389728178343075, 2.857285103918489, -0.02079862728714943, 0.7864068150520325, -0.557526707649231, 0.873724639415741, 0.42500990629196167, 0.23658375442028046, 0.014977812767028809, 0.051522135734558105, 0.05603387951850891, -0.7860303708755721, -0.021169177610930012, 0.2551987701207978,0.5626559599834801,0.893463134765625,0.473052978515625,0.2971649169921875
20220119-1339,2022-01-19 13:39:08Z,u01, 21,40,movements,el-ex, rt, d,230517.846801375, 1.8572390839880204, -0.45251963696115427, 2.861523197710743, 0.0015001213178038597, 0.8258966207504272, -0.5771833062171936, 0.8627044558525085, 0.43723294138908386, 0.2541034519672394, 0.04371345043182373, 0.016380369663238525, 0.06419482827186584, -0.7914984371071632, -0.02412351679446162, 0.2593547879613312,0.5528864713076199,0.9064178466796875,0.45361328125,0.31829833984375
20220119-1339,2022-01-19 13:39:08Z,u01, 22,40,movements,el-ex, rt, d,230517.87174725003, 1.8801345545552768, -0.46613417715311417, 2.8675609489340386, -0.12346228212118149, 0.7897024154663086, -0.5926857590675354, 0.8509113788604736, 0.4494362771511078, 0.27194955945014954, 0.028681397438049316, -0.014713436365127563, 0.03339383006095886, -0.7970023629826664, -0.02760464917443939, 0.26314931288577803,0.5429342037102168,0.8734893798828125,0.43634033203125,0.30389404296875
20220119-1339,2022-01-19 13:39:08Z,u01, 23,40,movements,el-ex, rt, d,230517.89669325002, 1.9042090759569128, -0.4782647184094811, 2.8783565898759003, -0.2616710960865021, 0.7459258437156677, -0.5786036252975464, 0.838904857635498, 0.4602392911911011, 0.2905484139919281, 0.019005298614501953, -0.004001528024673462, -0.007726907730102539, -0.8026394006675571, -0.03231396191048991, 0.2652344168547685,0.5332696193758638,0.85791015625,0.45623779296875,0.2828216552734375
20220119-1339,2022-01-19 13:39:08Z,u01, 24,40,movements,el-ex, rt, d,230517.92163925, 1.9279561713476152, -0.48983946216410235, 2.8898253973352097, -0.15750370919704437, 0.7460094094276428, -0.5822644829750061, 0.8267228603363037, 0.4704842269420624, 0.30850300192832947, 0.03224027156829834, 0.02196270227432251, -0.01850983500480652, -0.8080058336813369, -0.037122409639251175, 0.26707165511891673,0.5238523574231019,0.854400634765625,0.50103759765625,0.2963714599609375
20220119-1339,2022-01-19 13:39:08Z,u01, 25,40,movements,el-ex, rt, d,230517.94658625, 1.9506075810165218, -0.5033072941419814, 2.8972468797230966, 0.058040130883455276, 0.7980493307113647, -0.6095667481422424, 0.8135641813278198, 0.48232534527778625, 0.32476985454559326, 0.0242958664894104, 0.03400152921676636, -0.008043289184570312, -0.8128411817851457, -0.040916209945460635, 0.2708137818842551,0.5140767680045804,0.837860107421875,0.516326904296875,0.3167266845703125
20220119-1339,2022-01-19 13:39:08Z,u01, 26,40,movements,el-ex, rt, d,230517.97153225003, 1.9732584736080463, -0.5187270033875092, 2.9019673946085263, 0.05031310021877289, 0.8267031311988831, -0.6446770429611206, 0.7990611791610718, 0.4957750141620636, 0.340159147977829, 0.03905826807022095, 0.025846660137176514, -0.002604365348815918, -0.8173974104981145, -0.04405734913490006, 0.27611697244363265,0.5036663461989952,0.840545654296875,0.5199432373046875,0.3463897705078125
20220119-1339,2022-01-19 13:39:08Z,u01, 27,40,movements,el-ex, rt, d,230517.99647825002, 1.9979847130782378, -0.5333320242195503, 2.9104183004137547, -0.1044120341539383, 0.8184337615966797, -0.6783695220947266, 0.7837328910827637, 0.5084054470062256, 0.356772780418396, 0.04143202304840088, 0.01646643877029419, 0.005775958299636841, -0.8222367704613809, -0.0480944578760944, 0.28032433651691546,0.492982678730691,0.825164794921875,0.524871826171875,0.362548828125
20220119-1339,2022-01-19 13:39:08Z,u01, 28,40,movements,el-ex, rt, d,230518.02142425, 2.0242006042349425, -0.5481169214279352, 2.9215095664739628, -0.05026707053184509, 0.8289768695831299, -0.7183385491371155, 0.7672696113586426, 0.5210809111595154, 0.37386029958724976, 0.047839462757110596, 0.04505056142807007, -0.02156558632850647, -0.827119505308118, -0.05294779141310746, 0.28414167999222845,0.4820095376228015,0.810760498046875,0.5742950439453125,0.3542633056640625
20220119-1339,2022-01-19 13:39:08Z,u01, 29,40,movements,el-ex, rt, d,230518.04637025003, 2.050454417406545, -0.5646107685530237, 2.93141964497293, 0.015757853165268898, 0.8649571537971497, -0.7656286358833313, 0.7494639754295349, 0.5350870490074158, 0.38985341787338257, 0.03624159097671509, 0.0646902322769165, 0.002968728542327881, -0.8316277075324465, -0.057637409121261474, 0.28909238476235904,0.47063670483727854,0.78570556640625,0.5997772216796875,0.392822265625
20220119-1339,2022-01-19 13:39:08Z,u01, 30,40,movements,el-ex, rt, d,230518.07131625002, 2.077892754582021, -0.582523123150703, 2.941200068053371, 0.08653535693883896, 0.9213767647743225, -0.8075881004333496, 0.7299895882606506, 0.550132691860199, 0.4055477976799011, 0.057409584522247314, 0.06760406494140625, 0.0011141002178192139, -0.835996752359882, -0.06231636011345559, 0.29484507498920964,0.45857651220457657,0.788360595703125,0.621826171875,0.4153594970703125
20220119-1339,2022-01-19 13:39:08Z,u01, 31,40,movements,el-ex, rt, d,230518.09626225, 2.106116456076781, -0.6017637841192444, 2.950047144137306, 0.13888144493103027, 0.9434211850166321, -0.8444042801856995, 0.7090176343917847, 0.5660973191261292, 0.42050838470458984, 0.05973529815673828, 0.050876498222351074, 0.01358860731124878, -0.8401268259240013, -0.06664167051364689, 0.3015423338715506,0.44588993700008417,0.7687530517578125,0.616973876953125,0.4340972900390625
20220119-1339,2022-01-19 13:39:08Z,u01, 32,40,movements,el-ex, rt, d,230518.12120825003, 2.136786734195659, -0.6206026036136978, 2.9620832398380927, -0.02548765391111374, 0.9888268113136292, -0.8451882600784302, 0.6866648197174072, 0.5815255045890808, 0.43625608086586, 0.0516621470451355, 0.003572702407836914, 0.024559229612350464, -0.8443911030028589, -0.07163594405106227, 0.30763669676988703,0.4327026223539184,0.73211669921875,0.5884552001953125,0.4676361083984375
20220119-1339,2022-01-19 13:39:08Z,u01, 33,40,movements,el-ex, rt, d,230518.14615425002, 2.170279529595059, -0.637866297394801, 2.978188808455543, -0.050900302827358246, 0.9747579097747803, -0.8764004707336426, 0.6632825136184692, 0.5954826474189758, 0.4532729387283325, 0.04818892478942871, 0.01561647653579712, 0.027302473783493042, -0.8489139500246354, -0.07734067329488903, 0.3125461128260133,0.419139996210264,0.7114715576171875,0.6110992431640625,0.4805755615234375
20220119-1339,2022-01-19 13:39:08Z,u01, 34,40,movements,el-ex, rt, d,230518.17110025, 2.204438482750987, -0.6554267042171535, 2.9945727759757315, -0.010043583810329437, 0.9839310646057129, -0.8657711148262024, 0.638888955116272, 0.609497606754303, 0.46939679980278015, 0.06242018938064575, 0.020980238914489746, 0.012979120016098022, -0.8531239396969884, -0.08293340761042112, 0.31781186489716856,0.40533583611122076,0.6968994140625,0.6253204345703125,0.4797821044921875
20220119-1339,2022-01-19 13:39:08Z,u01, 35,40,movements,el-ex, rt, d,230518.19604625003, 2.2402680969944955, -0.6722178640873675, 3.0122131046439757, -0.08548594266176224, 1.0079289674758911, -0.8784228563308716, 0.613551914691925, 0.622722864151001, 0.4855617582798004, 0.06309908628463745, -0.021526575088500977, 0.025775432586669922, -0.8572996545791371, -0.08842045270800292, 0.32284727593437246,0.39113773932393336,0.6766510009765625,0.6011962890625,0.5113372802734375
20220119-1339,2022-01-19 13:39:08Z,u01, 36,40,movements,el-ex, rt, d,230518.22099225002, 2.2785389902718602, -0.6878742679784425, 3.0325129702373177, -0.06918846070766449, 1.0404232740402222, -0.8940524458885193, 0.5870433449745178, 0.6348962783813477, 0.5022808909416199, 0.08399224281311035, -0.018243014812469482, 0.02710723876953125, -0.8615480078185972, -0.0942097640227813, 0.3272945896013756,0.37648050809156713,0.6653289794921875,0.623260498046875,0.535064697265625
20220119-1339,2022-01-19 13:39:08Z,u01, 37,40,movements,el-ex, rt, d,230518.24593825, 2.3171594031068024, -0.7036322031605793, 3.052281135861883, 0.007226650603115559, 1.0248119831085205, -0.8769291043281555, 0.5597972273826599, 0.646991491317749, 0.5177150368690491, 0.08120924234390259, 0.0009271502494812012, 0.013412714004516602, -0.8654199144652703, -0.0995283544396448, 0.3322123154021165,0.36163155233643945,0.6410064697265625,0.647918701171875,0.5311279296875
20220119-1339,2022-01-19 13:39:08Z,u01, 38,40,movements,el-ex, rt, d,230518.27088425, 2.354744052649479, -0.719752361684331, 3.0709188109242898, 0.05725536495447159, 1.0221445560455322, -0.8468060493469238, 0.532492995262146, 0.6591984629631042, 0.5309505462646484, 0.075752854347229, -0.029315710067749023, -0.0026912689208984375, -0.8686660906845025, -0.10437664369563987, 0.3377271345511208,0.34708079273309,0.601287841796875,0.6246795654296875,0.53338623046875
20220119-1339,2022-01-19 13:39:08Z,u01, 39,40,movements,el-ex, rt, d,230518.29583025002, 2.393725439578121, -0.7341688044756519, 3.0906456443353814, -0.0502358078956604, 1.0342937707901, -0.8002734184265137, 0.5048807859420776, 0.6699703335762024, 0.5442751049995422, 0.061693429946899414, -0.044542908668518066, 0.006170392036437988, -0.871936434780352, -0.10892386607453386, 0.34267078372440035,0.332324022907905,0.5665740966796875,0.62542724609375,0.550445556640625
20220119-1339,2022-01-19 13:39:08Z,u01, 40,40,movements,el-ex, rt, d,230518.32077625, 2.4338094408986604, -0.7460950612828391, 3.111975094009955, -0.06457346677780151, 1.0299146175384521, -0.7814674973487854, 0.47743499279022217, 0.6787763833999634, 0.5579587817192078, 0.08033472299575806, -0.047077834606170654, -0.017279088497161865, -0.8752887890459458, -0.11335315007559471, 0.3466115951208716,0.3176174783184308,0.5547332763671875,0.6393280029296875,0.5406951904296875
20220119-1339,2022-01-19 13:39:08Z,u01, 41,40,movements,el-ex, rt, d,230518.34572225, 2.4732460167155965, -0.7571952511264967, 3.133296962260946, -0.053258996456861496, 0.993723452091217, -0.7520486116409302, 0.450368732213974, 0.6868857741355896, 0.5703999400138855, 0.07355710864067078, -0.027385592460632324, -0.012706458568572998, -0.8782784054944262, -0.11758837734974326, 0.35043225094601266,0.3033105799705264,0.52392578125,0.6595001220703125,0.5576934814453125
20220119-1339,2022-01-19 13:39:09Z,u01, 42,40,movements,el-ex, rt, d,230518.37066825002, 2.5134906031509034, -0.7672037650583506, -3.1272739923477824, -0.10037118196487427, 0.9738646745681763, -0.7374935150146484, 0.4229937195777893, 0.6941250562667847, 0.5824660658836365, 0.08880135416984558, -0.031237483024597168, -0.016151368618011475, -0.881116894102008, -0.12192637633801406, 0.3538977897061156,0.28900403815530945,0.508270263671875,0.6609954833984375,0.56182861328125
20220119-1339,2022-01-19 13:39:09Z,u01, 43,40,movements,el-ex, rt, d,230518.39561425, 2.5536114807072487, -0.7750881638164383, -3.1041976945875795, -0.1628260761499405, 0.9420544505119324, -0.7083455324172974, 0.39624232053756714, 0.6997790336608887, 0.5943911075592041, 0.07586455345153809, -0.054820716381073, -0.0367283821105957, -0.883914526393307, -0.12605815493751082, 0.3566222234595241,0.27499978579447426,0.47210693359375,0.64495849609375,0.5576629638671875
20220119-1339,2022-01-19 13:39:09Z,u01, 44,40,movements,el-ex, rt, d,230518.42056125, 2.5929289400390094, -0.7808446016542125, -3.0813586935245088, -0.12551435828208923, 0.9128902554512024, -0.6258987784385681, 0.3704652786254883, 0.7038795948028564, 0.6060602068901062, 0.07768535614013672, -0.048499345779418945, -0.04464364051818848, -0.8866604886372222, -0.12985869224042246, 0.3586379250176943,0.26143591231692154,0.440399169921875,0.6648101806640625,0.5614013671875
20220119-1339,2022-01-19 13:39:09Z,u01, 45,40,movements,el-ex, rt, d,230518.44550725003, 2.628959018359511, -0.7872615204150438, -3.061348454457818, -0.034204378724098206, 0.8563559055328369, -0.6000897288322449, 0.3461705148220062, 0.7084231376647949, 0.6150627136230469, 0.080343097448349, -0.026370644569396973, -0.04600173234939575, -0.8887320942485881, -0.13299110612246612, 0.36132391079908655,0.24882428333505047,0.426513671875,0.6820526123046875,0.569061279296875
20220119-1339,2022-01-19 13:39:09Z,u01, 46,40,movements,el-ex, rt, d,230518.47045325002, 2.662963255852264, -0.7925527930033336, -3.042179154645456, -0.15604594349861145, 0.8045077919960022, -0.5804139375686646, 0.32332882285118103, 0.7121477127075195, 0.6231403350830078, 0.08284494280815125, -0.04680347442626953, -0.05443018674850464, -0.8905609458418259, -0.13590944757963658, 0.3636577140831515,0.2370291866413059,0.39276123046875,0.6643829345703125,0.5750274658203125
20220119-1339,2022-01-19 13:39:09Z,u01, 47,40,movements,el-ex, rt, d,230518.49539925, 2.6977235538850084, -0.7933252091384303, -3.0207604079027726, -0.27727043628692627, 0.7230767011642456, -0.5327224731445312, 0.3012409210205078, 0.7126897573471069, 0.6335034966468811, 0.0833263099193573, -0.026135921478271484, -0.057514965534210205, -0.892956953216739, -0.13921069694128818, 0.3639204568062736,0.22541072820962976,0.3845672607421875,0.686553955078125,0.57598876953125
20220119-1339,2022-01-19 13:39:09Z,u01, 48,40,movements,el-ex, rt, d,230518.52034525003, 2.729365214552224, -0.7943019442972847, -3.0014823311994667, -0.07717368006706238, 0.683144748210907, -0.47654783725738525, 0.280769407749176, 0.7133746147155762, 0.6420785784721375, 0.06826013326644897, -0.019130289554595947, -0.07870906591415405, -0.8948926670606085, -0.14214922924971668, 0.36446644342209117,0.2147668980690895,0.3424224853515625,0.6987457275390625,0.57000732421875
20220119-1339,2022-01-19 13:39:09Z,u01, 49,40,movements,el-ex, rt, d,230518.54529125002, 2.757555972526093, -0.7990300450036564, -2.9857185964464317, 0.05669116973876953, 0.659462571144104, -0.45181185007095337, 0.2612929046154022, 0.7166799902915955, 0.646602988243103, 0.05894330143928528, -0.008656978607177734, -0.06470924615859985, -0.8957934430840463, -0.1444147296949499, 0.36697532917786646,0.20500606906832058,0.3202362060546875,0.7080230712890625,0.5818939208984375
20220119-1339,2022-01-19 13:39:09Z,u01, 50,40,movements,el-ex, rt, d,230518.57023725, 2.783912438588816, -0.8040583861349783, -2.9717087328094918, 0.013260341249406338, 0.6347417831420898, -0.4268239438533783, 0.24289719760417938, 0.7201777100563049, 0.6498805284500122, 0.07253248989582062, -0.025612950325012207, -0.03887301683425903, -0.8964208473944177, -0.1461845477531793, 0.3697688792076501,0.19578203438799793,0.3115997314453125,0.6953125,0.6092376708984375
20220119-1339,2022-01-19 13:39:09Z,u01, 51,40,movements,el-ex, rt, d,230518.59518325, 2.8108653864388944, -0.8068408170258848, -2.9562476685861685, -0.06369003653526306, 0.5966797471046448, -0.40778011083602905, 0.22464323043823242, 0.7221053242683411, 0.6542924642562866, 0.0855678915977478, -0.016569674015045166, -0.029536902904510498, -0.8973044358747833, -0.1482935218792114, 0.37153960722605806,0.18657941324626462,0.310211181640625,0.705535888671875,0.624755859375
20220119-1339,2022-01-19 13:39:09Z,u01, 52,40,movements,el-ex, rt, d,230518.62012925002, 2.8353448741349268, -0.8098509489410874, -2.9422580098283846, 0.060815874487161636, 0.5733284950256348, -0.4081610441207886, 0.207904651761055, 0.7241843938827515, 0.6575199365615845, 0.0423547625541687, 0.002072930335998535, -0.027820348739624023, -0.8978904979067845, -0.15017525716878521, 0.37345925702494687,0.17823628334889463,0.23687744140625,0.730712890625,0.6348419189453125
20220119-1339,2022-01-19 13:39:09Z,u01, 53,40,movements,el-ex, rt, d,230518.64507525, 2.8593999721019614, -0.8146777552033713, -2.9289582899511624, 0.0669516995549202, 0.5663611888885498, -0.4038884937763214, 0.19105370342731476, 0.727504551410675, 0.6589653491973877, 0.050416648387908936, -0.0015677213668823242, -0.011535167694091797, -0.8980089228594383, -0.1518639580798149, 0.3763137002554907,0.17001539635814195,0.2414703369140625,0.7259368896484375,0.647430419921875
20220119-1339,2022-01-19 13:39:09Z,u01, 54,40,movements,el-ex, rt, d,230518.67002125, 2.8836880839489307, -0.8177735500376554, -2.914744876413653, -0.055311962962150574, 0.5657181739807129, -0.42308229207992554, 0.1744186133146286, 0.7296251058578491, 0.6612299084663391, 0.0397995263338089, -0.0023607611656188965, 0.013223588466644287, -0.8983119078915105, -0.15378778231571794, 0.3783988237504885,0.16186184644592078,0.2071533203125,0.7333831787109375,0.6736297607421875
20220119-1339,2022-01-19 13:39:09Z,u01, 55,40,movements,el-ex, rt, d,230518.69496725002, 2.9095948582684814, -0.8179256985468769, -2.8987328488693604, -0.09370705485343933, 0.5559794306755066, -0.44567662477493286, 0.15720613300800323, 0.7297291159629822, 0.6654180288314819, 0.04271455109119415, 0.012748181819915771, -0.0033393502235412598, -0.8990815994171806, -0.15608107372016305, 0.3792135727798245,0.1532576408174127,0.199920654296875,0.7424774169921875,0.662078857421875
20220119-1339,2022-01-19 13:39:09Z,u01, 56,40,movements,el-ex, rt, d,230518.71991325, 2.9342405136055407, -0.8198759789997494, -2.8830211601219635, 0.053283657878637314, 0.526466429233551, -0.43383392691612244, 0.14046724140644073, 0.7310612201690674, 0.6676965951919556, 0.025350093841552734, 0.018588006496429443, -0.01968628168106079, -0.8992900246121729, -0.15851104318556425, 0.38086690927363476,0.14523148984781323,0.1542510986328125,0.7489776611328125,0.65093994140625
20220119-1339,2022-01-19 13:39:09Z,u01, 57,40,movements,el-ex, rt, d,230518.74485925, 2.958326389570799, -0.8232055412114123, -2.868434650033298, 0.019595801830291748, 0.558256983757019, -0.4115082323551178, 0.1239016130566597, 0.7333289384841919, 0.6684883236885071, 0.01269509643316269, -0.004447221755981445, 0.013670861721038818, -0.8991523436411344, -0.1605279533009985, 0.3832719534590453,0.13732563837584422,0.1365966796875,0.7288818359375,0.682159423828125
20220119-1339,2022-01-19 13:39:09Z,u01, 58,40,movements,el-ex, rt, d,230518.76980525002, 2.984053634892642, -0.8234247286767028, -2.8520044968381097, -0.1627013236284256, 0.5413682460784912, -0.42607608437538147, 0.10663892328739166, 0.7334779500961304, 0.6712956428527832, 0.056401267647743225, -0.014300823211669922, 0.02169734239578247, -0.8994914872241361, -0.16298122707154683, 0.38435871297089746,0.12892030578163882,0.16656494140625,0.7165985107421875,0.7006072998046875
20220119-1339,2022-01-19 13:39:09Z,u01, 59,40,movements,el-ex, rt, d,230518.79475125, 3.009387415018443, -0.8208046388933303, -2.8357727020553125, -0.13288038969039917, 0.5399294495582581, -0.4191511869430542, 0.08985310792922974, 0.7316945195198059, 0.6756843328475952, 0.03787824511528015, 0.0018869638442993164, 0.011220455169677734, -0.9002678671278719, -0.16540838878233188, 0.3842362229553682,0.12050019096333273,0.1277313232421875,0.73358154296875,0.6869049072265625
20220119-1339,2022-01-19 13:39:09Z,u01, 60,40,movements,el-ex, rt, d,230518.81969725, 3.0341944925766184, -0.820821431922355, -2.820042398550462, 0.0085500068962574, 0.5382466912269592, -0.41904324293136597, 0.07306413352489471, 0.7317059636116028, 0.6776931285858154, 0.046168066561222076, 0.002104461193084717, -0.006337106227874756, -0.9003986243669911, -0.16771670519984738, 0.3853940650462305,0.11236033170524992,0.1150054931640625,0.7313995361328125,0.6717071533203125
20220119-1339,2022-01-19 13:39:09Z,u01, 61,40,movements,el-ex, rt, d,230518.84464425003, 3.058485386627766, -0.8218561543918791, -2.8056335798720173, -0.022619761526584625, 0.5585511922836304, -0.3889410197734833, 0.056519538164138794, 0.7324108481407166, 0.6785129308700562, 0.037993431091308594, -0.014271259307861328, 0.009032726287841797, -0.9002922007015652, -0.16950049122560057, 0.38713059692268403,0.1042756955985564,0.094512939453125,0.7181396484375,0.6875457763671875
20220119-1339,2022-01-19 13:39:09Z,u01, 62,40,movements,el-ex, rt, d,230518.86959066667, 3.0823333881009822, -0.820670984037495, -2.7920188448472394, -0.11928538233041763, 0.5531584024429321, -0.3619212806224823, 0.04037521407008171, 0.7316034436225891, 0.6805339455604553, 0.04806477203965187, -0.028020620346069336, 0.006279289722442627, -0.9005640199507147, -0.17103047984406244, 0.3879423712756679,0.09609264355719782,0.083038330078125,0.70159912109375,0.6890716552734375
20220119-1339,2022-01-19 13:39:09Z,u01, 63,40,movements,el-ex, rt, d,230518.8945366667, 3.106835375440438, -0.817989801856493, -2.777606376142042, -0.1450747698545456, 0.5984883308410645, -0.3942035436630249, 0.02375839278101921, 0.7297729253768921, 0.6832762956619263, 0.049209173768758774, 0.01964712142944336, 0.044460952281951904, -0.9009809070356036, -0.17283392534856357, 0.3881746764280999,0.0876477503775149,0.072967529296875,0.749420166015625,0.7277374267578125
20220119-1339,2022-01-19 13:39:09Z,u01, 64,40,movements,el-ex, rt, d,230518.91948266668, 3.1323333202431014, -0.8141639987044433, -2.762848429792638, -0.13455931842327118, 0.585158109664917, -0.40693938732147217, 0.00635622488334775, 0.7271519303321838, 0.6864472031593323, 0.05792906880378723, 0.03525358438491821, 0.025573670864105225, -0.9015089233622314, -0.17465753625269848, 0.38804880489856636,0.0787055556131541,0.0500640869140625,0.759979248046875,0.7019500732421875
20220119-1339,2022-01-19 13:39:09Z,u01, 65,40,movements,el-ex, rt, d,230518.94442866667, -3.1253909782453504, -0.8132846162655673, -2.747548481449977, 0.09606867283582687, 0.5612955689430237, -0.42606255412101746, -0.011131933890283108, 0.7265480160713196, 0.687025249004364, -0.009970932267606258, 0.028044819831848145, -0.033033668994903564, -0.9012830812265206, -0.1766392622344617, 0.38931946060932754,0.07012573144030254,-0.0211029052734375,0.7545928955078125,0.65399169921875
20220119-1339,2022-01-19 13:39:09Z,u01, 66,40,movements,el-ex, rt, d,230518.9693746667, -3.099078751825695, -0.8157530790897235, -2.731572383973563, 0.039206553250551224, 0.5869984030723572, -0.42230117321014404, -0.02912685088813305, 0.7282419204711914, 0.6847007870674133, -0.0024740397930145264, 0.00015163421630859375, 0.007193565368652344, -0.900255313585291, -0.17857981979321186, 0.3922388634831737,0.06162976106161641,-0.01904296875,0.7010498046875,0.6947784423828125
20220119-1339,2022-01-19 13:39:09Z,u01, 67,40,movements,el-ex, rt, d,230518.99432066668, -3.0737726544051434, -0.809793938307622, -2.7166393779222635, -0.4558737874031067, 0.5552191138267517, -0.41914939880371094, -0.04673606529831886, 0.7241450548171997, 0.6880623698234558, 0.053434696048498154, -0.07393753528594971, 0.02759009599685669, -0.9007728774381565, -0.18066376218761526, 0.39141549660907304,0.052562155357498946,0.0066986083984375,0.65020751953125,0.7156524658203125
20220119-1339,2022-01-19 13:39:09Z,u01, 68,40,movements,el-ex, rt, d,230519.01926666667, -3.0518344408682587, -0.7961452572904011, -2.703422846717463, -0.44716596603393555, 0.45494306087493896, -0.39134445786476135, -0.0626986101269722, 0.7146651148796082, 0.6966509222984314, 0.05641204118728638, -0.01681971549987793, -0.04967832565307617, -0.9026493192670688, -0.1831656786739448, 0.38698369287659584,0.04379643901551894,-0.011810302734375,0.7036590576171875,0.6298370361328125
20220119-1339,2022-01-19 13:39:09Z,u01, 69,40,movements,el-ex, rt, d,230519.0442126667, -3.0324359406926678, -0.789466800010983, -2.691479597917247, 0.006249137222766876, 0.39986342191696167, -0.328377366065979, -0.07671819627285004, 0.7099778652191162, 0.7000325322151184, 0.05683603882789612, -0.021333515644073486, -0.12665319442749023, -0.9031616088426462, -0.18524408234748352, 0.385543422279672,0.03660534221074946,-0.0198822021484375,0.6886444091796875,0.5733795166015625
20220119-1339,2022-01-19 13:39:09Z,u01, 70,40,movements,el-ex, rt, d,230519.06915866668, -3.0155629979967555, -0.7927895902693045, -2.6803589146422033, 0.3164631128311157, 0.3047527074813843, -0.24561476707458496, -0.08822131901979446, 0.7123139500617981, 0.696294367313385, 0.062281422317028046, -0.047961533069610596, -0.12717217206954956, -0.9018125287224237, -0.18676548321347541, 0.38840566358353673,0.031525522014752644,-0.0285186767578125,0.648468017578125,0.56292724609375
20220119-1339,2022-01-19 13:39:09Z,u01, 71,40,movements,el-ex, rt, d,230519.09410466667, -3.0023055026745378, -0.800808397304282, -2.6716825849456822, 0.33186155557632446, 0.2556491792201996, -0.1546199917793274, -0.09664826840162277, 0.7179190516471863, 0.6893847584724426, 0.05235202610492706, -0.09049290418624878, -0.07753795385360718, -0.8997450212629252, -0.18748673479001599, 0.3930806030962714,0.0282005046800316,-0.0442962646484375,0.6274261474609375,0.611846923828125
20220119-1339,2022-01-19 13:39:09Z,u01, 72,40,movements,el-ex, rt, d,230519.1190506667, -2.9933060513100105, -0.8048682837301412, -2.6666143995830773, -0.00016242358833551407, 0.14821840822696686, -0.07793181389570236, -0.10241687297821045, 0.7207393646240234, 0.6855986714363098, 0.08572380244731903, -0.09355729818344116, -0.044393956661224365, -0.8986530729592426, -0.18767519504825214, 0.395655117983094,0.025645284403158303,-0.0098419189453125,0.6238861083984375,0.630615234375
20220119-1339,2022-01-19 13:39:09Z,u01, 73,40,movements,el-ex, rt, d,230519.14399666668, -2.99087599472737, -0.8018037659031773, -2.665952728577157, -0.16816656291484833, 0.02667819894850254, -0.014410561881959438, -0.10441377013921738, 0.7186115980148315, 0.6875283122062683, 0.06936435401439667, -0.06140029430389404, -0.09963768720626831, -0.8991771247451825, -0.1877355588243399, 0.3945186065051345,0.02430921074890305,-0.0350494384765625,0.6572113037109375,0.587890625
20220119-1339,2022-01-19 13:39:09Z,u01, 74,40,movements,el-ex, rt, d,230519.16894266667, -2.9921662952154504, -0.8005754489753157, -2.666708917295261, 0.08094561100006104, -0.06959354132413864, 0.020448286086320877, -0.10365787148475647, 0.7177568674087524, 0.6885346174240112, 0.04027289152145386, -0.04322683811187744, -0.12339496612548828, -0.8994544404607722, -0.1877472465698133, 0.393862872792673,0.02459016497679764,-0.073089599609375,0.67364501953125,0.5733642578125
20220119-1339,2022-01-19 13:39:09Z,u01, 75,40,movements,el-ex, rt, d,230519.1938886667, -2.995625983381178, -0.8040238798546578, -2.667606807632438, 0.15859177708625793, -0.16176030039787292, 0.08531270176172256, -0.10091453045606613, 0.7201537489891052, 0.6864361763000488, 0.037041276693344116, -0.0619659423828125, -0.10515272617340088, -0.8988695192008358, -0.187754313390551, 0.3950765455315413,0.026388770041305937,-0.063873291015625,0.6581878662109375,0.5812835693359375
20220119-1339,2022-01-19 13:39:09Z,u01, 76,40,movements,el-ex, rt, d,230519.21883466668, -3.0043155400941934, -0.8061158102703456, -2.6718497010604567, -0.03534374758601189, -0.2895861566066742, 0.1676720231771469, -0.0947396382689476, 0.7216035723686218, 0.6857936382293701, 0.048383451998233795, -0.09761053323745728, -0.10283154249191284, -0.8987641695347424, -0.1874027162867088, 0.3952476123437779,0.02970818894070254,-0.04595947265625,0.6154937744140625,0.583099365234375
20220119-1339,2022-01-19 13:39:09Z,u01, 77,40,movements,el-ex, rt, d,230519.24378066667, -3.019338836485904, -0.8037593019761361, -2.680242274386675, -0.16996197402477264, -0.42851123213768005, 0.2500748038291931, -0.08463352918624878, 0.719970166683197, 0.6888248324394226, 0.037758566439151764, -0.1158137321472168, -0.11175292730331421, -0.8997397606940437, -0.18676397289743596, 0.39293137293158487,0.034530716979567194,-0.046875,0.604156494140625,0.5770721435546875
20220119-1339,2022-01-19 13:39:09Z,u01, 78,40,movements,el-ex, rt, d,230519.2687266667, -3.039427911739247, -0.8014038384574076, -2.6920338369219805, -0.06779582798480988, -0.5130354762077332, 0.373460590839386, -0.07095230370759964, 0.7183334231376648, 0.6920711398124695, 0.039229340851306915, -0.11100322008132935, -0.08988314867019653, -0.9008917884996555, -0.18555204573305112, 0.39023539151988085,0.04099585029301811,-0.0232696533203125,0.609710693359375,0.6180877685546875
20220119-1339,2022-01-19 13:39:09Z,u01, 79,40,movements,el-ex, rt, d,230519.29367266668, -3.0649853037634496, -0.800538743041465, -2.707360690299357, -0.2042531967163086, -0.6394915580749512, 0.45018401741981506, -0.05329107865691185, 0.7177313566207886, 0.6942778825759888, 0.06417062133550644, -0.0964239239692688, -0.029864490032196045, -0.9018893175297843, -0.18366983001767317, 0.38783613201630796,0.04943872336543015,0.0108795166015625,0.621307373046875,0.6644134521484375
20220119-1339,2022-01-19 13:39:09Z,u01, 80,40,movements,el-ex, rt, d,230519.31861966668, -3.095641635375122, -0.7905902646906534, -2.7261852724897957, -0.597869336605072, -0.7461956739425659, 0.537506103515625, -0.032311756163835526, 0.7107685804367065, 0.7026832699775696, 0.07409033179283142, -0.13250631093978882, -0.1259012222290039, -0.9046333857709519, -0.18160416583445887, 0.38107672109954194,0.05864170210975306,0.05450439453125,0.59051513671875,0.5625
20220119-1339,2022-01-19 13:39:09Z,u01, 81,40,movements,el-ex, rt, d,230519.34356566667, -3.130371166061569, -0.7817042446864366, -2.7465894928690138, -0.014488998800516129, -0.8581602573394775, 0.5669735074043274, -0.007963879965245724, 0.7044899463653564, 0.7096693515777588, 0.09092596173286438, 0.036644697189331055, -0.14555197954177856, -0.9070159023354947, -0.1793232746275173, 0.37458219996738307,0.06966731943006466,0.0829620361328125,0.7411346435546875,0.564117431640625
20220119-1339,2022-01-19 13:39:10Z,u01, 82,40,movements,el-ex, rt, d,230519.3685116667, 3.1170160067872983, -0.7888887465486188, -2.767635112795658, 0.4117080271244049, -0.767964243888855, 0.5859104990959167, 0.017315804958343506, 0.7095707058906555, 0.7044215202331543, 0.02591237612068653, 0.04384732246398926, 0.023849904537200928, -0.906172697380141, -0.17624360825473934, 0.3754598069833429,0.08257840277086168,0.0443267822265625,0.74407958984375,0.756103515625
20220119-1339,2022-01-19 13:39:10Z,u01, 83,40,movements,el-ex, rt, d,230519.39345766668, 3.0826448244805156, -0.7948393638144344, -2.7891189317795275, 0.0399538017809391, -0.755131185054779, 0.5643942952156067, 0.041263096034526825, 0.7137510776519775, 0.6991825103759766, 0.07223179936408997, 0.0022827982902526855, 0.05203789472579956, -0.9053862823006897, -0.17282055581785272, 0.37611577132382806,0.09458071891347386,0.113494873046875,0.716033935546875,0.751220703125
20220119-1339,2022-01-19 13:39:10Z,u01, 84,40,movements,el-ex, rt, d,230519.41840366667, 3.0485356142336184, -0.7909287267158158, -2.8091388062055085, -0.16360431909561157, -0.8120646476745605, 0.5841487646102905, 0.06534194201231003, 0.7110066413879395, 0.7001428604125977, 0.05347827076911926, -0.002830982208251953, -0.028267979621887207, -0.9061480247197966, -0.17019750811537915, 0.372413544400751,0.10600346340173336,0.1093597412109375,0.7109527587890625,0.6505126953125
20220119-1339,2022-01-19 13:39:10Z,u01, 85,40,movements,el-ex, rt, d,230519.4433496667, 3.012389480140011, -0.790267567527587, -2.8312905944167177, 0.2978309094905853, -0.7872230410575867, 0.6215813159942627, 0.09066171944141388, 0.7105415463447571, 0.6977899074554443, -0.022668547928333282, 0.02741914987564087, -0.04018205404281616, -0.9061166453359044, -0.16687594596388167, 0.370307469597821,0.11822569370561786,0.0679931640625,0.7379608154296875,0.6576080322265625
20220119-1339,2022-01-19 13:39:10Z,u01, 86,40,movements,el-ex, rt, d,230519.46829566668, 2.9758933621005204, -0.7982596418399628, -2.8552530206086604, 0.40673577785491943, -0.7626579403877258, 0.60396409034729, 0.11512195318937302, 0.716142475605011, 0.6883941292762756, 0.0024012550711631775, 0.06242185831069946, 0.052877604961395264, -0.9042555662835531, -0.16284631881822703, 0.37244186090021014,0.13072826748959382,0.1397857666015625,0.763885498046875,0.750762939453125
20220119-1339,2022-01-19 13:39:10Z,u01, 87,40,movements,el-ex, rt, d,230519.49324166667, 2.9413317662007876, -0.8001254926237564, -2.876282400090005, -0.056342970579862595, -0.7889343500137329, 0.5160676836967468, 0.1385744959115982, 0.7174435257911682, 0.6826946139335632, 0.07008950412273407, -0.003316938877105713, 0.04554623365402222, -0.9032221465495172, -0.1598032321536424, 0.37194283969135133,0.14251744495489643,0.2086639404296875,0.7141265869140625,0.728240966796875
20220119-1339,2022-01-19 13:39:10Z,u01, 88,40,movements,el-ex, rt, d,230519.5181876667, 2.90890395852285, -0.7939514947516138, -2.8933126744480266, -0.09644168615341187, -0.8212262392044067, 0.5330466032028198, 0.1616542935371399, 0.7131289839744568, 0.6821395754814148, 0.042020007967948914, 0.0005855560302734375, -0.021724164485931396, -0.9033934507496938, -0.1579558675461165, 0.36780645399858214,0.15378053947119552,0.1966552734375,0.71917724609375,0.6443023681640625
20220119-1339,2022-01-19 13:39:10Z,u01, 89,40,movements,el-ex, rt, d,230519.54313366668, 2.8732307094933547, -0.793522788209615, -2.914584215144501, 0.35298827290534973, -0.7977654933929443, 0.6038945913314819, 0.18596147000789642, 0.7128283381462097, 0.676234781742096, -7.890164852142334e-05, 0.009553134441375732, -0.02059537172317505, -0.902290069972672, -0.15488713585401964, 0.3665207962368856,0.16596668105607232,0.185882568359375,0.722381591796875,0.6556396484375
20220119-1339,2022-01-19 13:39:10Z,u01, 90,40,movements,el-ex, rt, d,230519.56807966667, 2.8364021961928287, -0.7978883480799775, -2.9388788379316098, 0.2585901618003845, -0.7600774168968201, 0.5980996489524841, 0.20979741215705872, 0.7158833146095276, 0.6659546494483948, 0.02439446747303009, -4.786252975463867e-05, 0.05241358280181885, -0.9001153312845254, -0.15089636102053283, 0.3677890409308856,0.17819575421421135,0.252777099609375,0.7025299072265625,0.7153167724609375
20220119-1339,2022-01-19 13:39:10Z,u01, 91,40,movements,el-ex, rt, d,230519.5930256667, 2.8022891280057585, -0.7945090528788176, -2.959639873780403, -0.07265623658895493, -0.7956264019012451, 0.591862678527832, 0.23319271206855774, 0.7135196924209595, 0.6606897115707397, 0.08620432019233704, -0.025577187538146973, -0.0073236823081970215, -0.8991950294759588, -0.14762507998280316, 0.36561211730782295,0.1896917479597111,0.31939697265625,0.6879425048828125,0.6533660888671875
20220119-1339,2022-01-19 13:39:10Z,u01, 92,40,movements,el-ex, rt, d,230519.61797166668, 2.766974716813674, -0.7892389861561488, -2.9805105280153197, 0.1408882439136505, -0.822060227394104, 0.6613133549690247, 0.2577466070652008, 0.7098174095153809, 0.655534565448761, 0.03143799304962158, -0.0033202767372131348, -0.05212593078613281, -0.8982960290503608, -0.14433126668263146, 0.3626775954178144,0.20173640993459574,0.284637451171875,0.703857421875,0.5939178466796875
20220119-1339,2022-01-19 13:39:10Z,u01, 93,40,movements,el-ex, rt, d,230519.64291766667, 2.728772134991069, -0.7889683851631788, -3.005985419665882, 0.30936306715011597, -0.7889605164527893, 0.6291245818138123, 0.2826727032661438, 0.7096267938613892, 0.6453881859779358, 0.005672663450241089, 0.023756444454193115, 0.05935412645339966, -0.8961852604920262, -0.13980726331783233, 0.3624903745599619,0.21425830948675173,0.2883453369140625,0.7333831787109375,0.704742431640625
20220119-1339,2022-01-19 13:39:10Z,u01, 94,40,movements,el-ex, rt, d,230519.6678636667, 2.6946524790196853, -0.7858428189725354, -3.0272419461493834, -0.09155981242656708, -0.7476339936256409, 0.5571213960647583, 0.30548155307769775, 0.7074211239814758, 0.6373669505119324, 0.05055183172225952, 0.01444178819656372, 0.10483580827713013, -0.8945027680536712, -0.13619202075201925, 0.36105896230655626,0.22572779035601653,0.3700408935546875,0.7192230224609375,0.7321319580078125
20220119-1339,2022-01-19 13:39:10Z,u01, 95,40,movements,el-ex, rt, d,230519.69280966668, 2.6662423381053406, -0.7754779142907698, -3.0412399493530873, -0.15197539329528809, -0.7373561263084412, 0.5412680506706238, 0.32680147886276245, 0.7000574469566345, 0.634917140007019, 0.055446356534957886, 0.04679906368255615, 0.00994950532913208, -0.8941438164914846, -0.13403511710212562, 0.35607256504920437,0.23612193689831917,0.3822479248046875,0.746856689453125,0.644866943359375
20220119-1339,2022-01-19 13:39:10Z,u01, 96,40,movements,el-ex, rt, d,230519.71775566667, 2.635280912958044, -0.7712877159210354, -3.060038131063388, 0.36500445008277893, -0.6850535869598389, 0.5713268518447876, 0.3477191925048828, 0.697059154510498, 0.6270561814308167, -0.014879286289215088, 0.0549396276473999, -0.03156685829162598, -0.8924377271250357, -0.1307018746179242, 0.3544034480464654,0.2467183851413037,0.3272857666015625,0.749267578125,0.5896148681640625
20220119-1339,2022-01-19 13:39:10Z,u01, 97,40,movements,el-ex, rt, d,230519.7427016667, 2.6005013226030806, -0.774364830822596, -3.085348434887647, 0.4379090964794159, -0.6759646534919739, 0.552652895450592, 0.3682069182395935, 0.6992621421813965, 0.6127447485923767, -0.011776834726333618, 0.01878589391708374, 0.036776065826416016, -0.8891041167171896, -0.1259612422962822, 0.3567440336728891,0.2576069309936675,0.3564300537109375,0.718048095703125,0.6495208740234375
20220119-1339,2022-01-19 13:39:10Z,u01, 98,40,movements,el-ex, rt, d,230519.7676486667, 2.569267700334487, -0.7722168935324187, -3.1055741398268246, 0.03542746230959892, -0.7000869512557983, 0.5054433345794678, 0.3879748284816742, 0.6977250576019287, 0.6022082567214966, 0.04090392589569092, -0.02560603618621826, 0.042963624000549316, -0.886651015798318, -0.12228694114231609, 0.35650445639670814,0.26795576376353547,0.43719482421875,0.6695556640625,0.6392364501953125
20220119-1339,2022-01-19 13:39:10Z,u01, 99,40,movements,el-ex, rt, d,230519.79259466668, 2.541210798969942, -0.764561255068026, -3.119740632022895, -0.01727459952235222, -0.7363548874855042, 0.5231757760047913, 0.40772202610969543, 0.6922204494476318, 0.5954775810241699, 0.04468578100204468, -0.002080678939819336, -0.004962563514709473, -0.8850662710318244, -0.11998535268895538, 0.3533363866773537,0.2782347645585,0.4524078369140625,0.6901397705078125,0.59051513671875
20220119-1339,2022-01-19 13:39:10Z,u01, 100,40,movements,el-ex, rt, d,230519.81754066667, 2.5118949824429397, -0.7577724531751588, -3.135892613215003, 0.10498040914535522, -0.719224214553833, 0.5499380230903625, 0.4277590811252594, 0.6873051524162292, 0.5870555639266968, 0.012563884258270264, -0.002551555633544922, -0.006306052207946777, -0.8830767434924731, -0.11706085296905389, 0.35088206727233595,0.2887111393021268,0.43902587890625,0.684722900390625,0.5863494873046875
20220119-1339,2022-01-19 13:39:10Z,u01, 101,40,movements,el-ex, rt, d,230519.8424866667, 2.481671935661064, -0.7528220141790543, 3.1288435508696755, 0.1843593567609787, -0.7000498175621033, 0.5166689157485962, 0.4473838210105896, 0.6837008595466614, 0.5765419602394104, 0.024067014455795288, 0.021316170692443848, 0.03132224082946777, -0.8805630533705212, -0.11348875549162962, 0.34966953536824574,0.29909893574421487,0.4714508056640625,0.70501708984375,0.6078643798828125
20220119-1339,2022-01-19 13:39:10Z,u01, 102,40,movements,el-ex, rt, d,230519.86743254168, 2.4535907688526106, -0.7469848599336558, 3.1127872393944007, -0.02274453267455101, -0.6644414067268372, 0.48114460706710815, 0.4659217298030853, 0.6794295310974121, 0.5668268799781799, 0.047185689210891724, 0.005018889904022217, 0.05713546276092529, -0.8781920551183885, -0.11041802980797799, 0.3479793871979872,0.30902586418737477,0.519012451171875,0.6880340576171875,0.62811279296875
20220119-1339,2022-01-19 13:39:10Z,u01, 103,40,movements,el-ex, rt, d,230519.89237854167, 2.4304797172797636, -0.7375673231762999, 3.102691592956662, -0.1113605871796608, -0.6219038963317871, 0.4702010750770569, 0.4830508232116699, 0.6724894642829895, 0.5607313513755798, 0.052258044481277466, 0.03956186771392822, 0.03672635555267334, -0.8766999045409859, -0.1084571497956946, 0.34418552080185216,0.3180732507289167,0.535308837890625,0.7120513916015625,0.5974578857421875
20220119-1339,2022-01-19 13:39:10Z,u01, 104,40,movements,el-ex, rt, d,230519.9173245417, 2.4075410390631116, -0.7298821034560109, 3.090915819374928, 0.13662631809711456, -0.5808634757995605, 0.4808310866355896, 0.49923253059387207, 0.6667817831039429, 0.5533252954483032, 0.002857893705368042, 0.04124128818511963, 0.008930444717407227, -0.8748943751150793, -0.1059361900997991, 0.3415104601145525,0.3266618122806593,0.4967803955078125,0.7009429931640625,0.55938720703125
20220119-1339,2022-01-19 13:39:10Z,u01, 105,40,movements,el-ex, rt, d,230519.94227054168, 2.3813885547757483, -0.7260387510527145, 3.0736188783139933, 0.2889429032802582, -0.5977818965911865, 0.48572149872779846, 0.5152931213378906, 0.6639125943183899, 0.541934609413147, -0.01222604513168335, -0.005648434162139893, -0.007251441478729248, -0.8720826358752115, -0.1021722701851403, 0.3413490935617821,0.3354303210896628,0.5030670166015625,0.65826416015625,0.5346832275390625
20220119-1339,2022-01-19 13:39:10Z,u01, 106,40,movements,el-ex, rt, d,230519.96721654167, 2.3558062249869782, -0.7207816258181271, 3.05815615824091, 0.01471855491399765, -0.6412774920463562, 0.45129162073135376, 0.5314486026763916, 0.659972071647644, 0.5310360789299011, 0.003539860248565674, -0.001814723014831543, 0.04374724626541138, -0.8693378467298458, -0.09884198644046382, 0.34042914146543346,0.3443689776893881,0.551544189453125,0.65716552734375,0.5748291015625
20220119-1339,2022-01-19 13:39:10Z,u01, 107,40,movements,el-ex, rt, d,230519.9921625417, 2.3355010574418404, -0.7111260594005898, 3.0508655594253167, -0.19581790268421173, -0.6237456202507019, 0.4034692347049713, 0.5466940402984619, 0.6526873111724854, 0.5245236754417419, 0.05314427614212036, 0.018501102924346924, 0.037838876247406006, -0.8676380095407705, -0.09729404589521395, 0.33656823666802993,0.3527889481241347,0.5998382568359375,0.6711883544921875,0.5623626708984375
20220119-1339,2022-01-19 13:39:10Z,u01, 108,40,movements,el-ex, rt, d,230520.01710854168, 2.317044227803114, -0.7019174867032932, 3.044890257718455, -0.004537464585155249, -0.5493186116218567, 0.3978131413459778, 0.5606706142425537, 0.6456830501556396, 0.5184029936790466, 0.02580094337463379, 0.045753657817840576, 0.027006983757019043, -0.8660155299566659, -0.09601354583449118, 0.33280993196790853,0.3606050423942567,0.588623046875,0.6870574951171875,0.53790283203125
20220119-1339,2022-01-19 13:39:10Z,u01, 109,40,movements,el-ex, rt, d,230520.04205454167, 2.2965087904156727, -0.6961148011521203, 3.0337681446715234, 0.14301283657550812, -0.5166254043579102, 0.41620972752571106, 0.5739903450012207, 0.6412412524223328, 0.5092589259147644, 0.0017542839050292969, 0.008249044418334961, 0.01312553882598877, -0.8636515318766388, -0.09346393851005852, 0.3313954880265202,0.3681678083052049,0.57574462890625,0.6494903564453125,0.5223846435546875
20220119-1339,2022-01-19 13:39:10Z,u01, 110,40,movements,el-ex, rt, d,230520.0670005417, 2.275424482300205, -0.6898551107520686, 3.021672370052411, 0.08338836580514908, -0.544122576713562, 0.4262351393699646, 0.5876458883285522, 0.6364254355430603, 0.4996347427368164, -0.004988968372344971, -0.018108785152435303, 0.010451138019561768, -0.8611819499945297, -0.09046001944417115, 0.33002678978690186,0.37585223806869744,0.58685302734375,0.6159820556640625,0.5098876953125
20220119-1339,2022-01-19 13:39:10Z,u01, 111,40,movements,el-ex, rt, d,230520.09194654168, 2.2553853432037054, -0.6820161268961912, 3.012608566182065, -0.05290213227272034, -0.6071082949638367, 0.4155382215976715, 0.6013860702514648, 0.630359411239624, 0.4908991754055023, 0.03531754016876221, -0.021884560585021973, -0.016747593879699707, -0.8588753640350115, -0.08821962010736073, 0.3275514138287436,0.3837454220104936,0.6367034912109375,0.6084747314453125,0.474151611328125
20220119-1339,2022-01-19 13:39:10Z,u01, 112,40,movements,el-ex, rt, d,230520.11689254167, 2.236668635204795, -0.6730320479619425, 3.006430831965355, -0.0473184809088707, -0.6265872716903687, 0.3967433571815491, 0.614896833896637, 0.623359739780426, 0.4830368459224701, 0.030107438564300537, -0.00313568115234375, -0.00026410818099975586, -0.8567388745282061, -0.08670022395403187, 0.3241624121051614,0.3916635419267935,0.6465301513671875,0.6248321533203125,0.4773406982421875
20220119-1339,2022-01-19 13:39:10Z,u01, 113,40,movements,el-ex, rt, d,230520.1418385417, 2.2158525421488298, -0.6657460381353951, 2.9970351635579644, 0.16692686080932617, -0.611036479473114, 0.423369437456131, 0.6284304261207581, 0.6176460385322571, 0.47285157442092896, 0.01851177215576172, 0.03068464994430542, -0.011517465114593506, -0.8539867928729141, -0.08445322105096387, 0.32208851776956415,0.39979144325554183,0.646942138671875,0.6483306884765625,0.461334228515625
20220119-1339,2022-01-19 13:39:10Z,u01, 114,40,movements,el-ex, rt, d,230520.16678454168, 2.1913917975004185, -0.6610564558263118, 2.9824778411524497, 0.2893632650375366, -0.6276893019676208, 0.4548324942588806, 0.6421566009521484, 0.6139510869979858, 0.45901888608932495, 0.0017488598823547363, 0.07309097051620483, 0.01949647068977356, -0.8502504890291733, -0.08113910470443086, 0.3220713687582625,0.40836304657157285,0.649566650390625,0.6698150634765625,0.4752960205078125
20220119-1339,2022-01-19 13:39:10Z,u01, 115,40,movements,el-ex, rt, d,230520.19173054167, 2.166480871652393, -0.6532287406074143, 2.9685465224238783, 0.12944769859313965, -0.6822930574417114, 0.5715413689613342, 0.6573489904403687, 0.607753574848175, 0.4455643892288208, 0.003936350345611572, -0.0069083571434021, -0.04637935757637024, -0.8466326010043952, -0.07743020161609393, 0.32073655308841853,0.41754734709726526,0.661285400390625,0.6008453369140625,0.3991851806640625
20220119-1339,2022-01-19 13:39:10Z,u01, 116,40,movements,el-ex, rt, d,230520.2166765417, 2.1397012534923867, -0.6430137807572774, 2.9537834358761854, 0.1955322027206421, -0.7285038828849792, 0.592007040977478, 0.6742395162582397, 0.5996100902557373, 0.43112537264823914, -0.00245589017868042, -0.020233750343322754, -0.07683160901069641, -0.8427484994201638, -0.07305919465173183, 0.3186730545230133,0.42765041161552436,0.6708831787109375,0.5761871337890625,0.377532958984375
20220119-1339,2022-01-19 13:39:10Z,u01, 117,40,movements,el-ex, rt, d,230520.2416235417, 2.115864882101935, -0.633120499761271, 2.9431649972967966, -0.15797971189022064, -0.7326180338859558, 0.4229377508163452, 0.6893622279167175, 0.5916633605957031, 0.41798821091651917, 0.03172236680984497, -0.032917022705078125, 0.10235166549682617, -0.8391051024588212, -0.06997662331885635, 0.3161017009403157,0.43713337314507567,0.7210845947265625,0.558746337890625,0.5203399658203125
20220119-1339,2022-01-19 13:39:10Z,u01, 118,40,movements,el-ex, rt, d,230520.26656954168, 2.101329010128001, -0.618166520800354, 2.9493239079576608, -0.6718510389328003, -0.7534719109535217, 0.37492281198501587, 0.7029183506965637, 0.5795419812202454, 0.4123549461364746, 0.09406334161758423, -0.019056200981140137, 0.04733118414878845, -0.8373274713777468, -0.07113495333186404, 0.3081833894721604,0.4459208596397474,0.8018035888671875,0.5711212158203125,0.440765380859375
20220119-1339,2022-01-19 13:39:10Z,u01, 119,40,movements,el-ex, rt, d,230520.29151554167, 2.087693195267157, -0.6039312260422949, 2.9570869629180616, -0.24047911167144775, -0.6530632972717285, 0.3519676923751831, 0.7155759334564209, 0.5678826570510864, 0.40676820278167725, 0.0246431827545166, 0.0781133770942688, -0.0323481559753418, -0.8355054348544229, -0.07290247298029817, 0.3001928904716086,0.45442285471284743,0.7402191162109375,0.64599609375,0.374420166015625
20220119-1339,2022-01-19 13:39:10Z,u01, 120,40,movements,el-ex, rt, d,230520.3164615417, 2.0699952981606256, -0.5963064450280574, 2.950479559289305, 0.24021971225738525, -0.49507126212120056, 0.39500516653060913, 0.7264428734779358, 0.5615901947021484, 0.39610230922698975, -0.005846619606018066, 0.03251069784164429, 0.011780232191085815, -0.8324837892048567, -0.0708653720107778, 0.2979975689400928,0.46167764138696693,0.7247161865234375,0.576416015625,0.4129180908203125
20220119-1339,2022-01-19 13:39:10Z,u01, 121,40,movements,el-ex, rt, d,230520.34140754168, 2.0500914200953138, -0.5903560944876631, 2.937428069033866, 0.2418704777956009, -0.5338039994239807, 0.4057960510253906, 0.7371346950531006, 0.5566568970680237, 0.38310012221336365, 0.01251441240310669, -0.032074928283691406, 0.01831275224685669, -0.8289012589675706, -0.06687869919967449, 0.2979646775383532,0.46868651079581436,0.7496490478515625,0.5245819091796875,0.4014129638671875
20220119-1339,2022-01-19 13:39:11Z,u01, 122,40,movements,el-ex, rt, d,230520.36635354167, 2.0311166987455302, -0.582703114081923, 2.928784247215872, 0.006454932503402233, -0.6009041666984558, 0.3875073790550232, 0.7480655312538147, 0.5502830147743225, 0.3709266781806946, 0.020000874996185303, -0.037816524505615234, -0.012436836957931519, -0.8254405503540836, -0.06411894635178217, 0.2963402215565268,0.4761503282314844,0.771148681640625,0.50640869140625,0.3560333251953125
20220119-1339,2022-01-19 13:39:11Z,u01, 123,40,movements,el-ex, rt, d,230520.3912995417, 2.013763690287385, -0.5733792381847731, 2.926281275183188, -0.19583338499069214, -0.6558570265769958, 0.3657180666923523, 0.758992075920105, 0.5424739718437195, 0.36007392406463623, 0.02653050422668457, -0.03138077259063721, -0.0068483054637908936, -0.82222089470024, -0.06316454045016018, 0.29269881772432593,0.4840356483144077,0.7855224609375,0.5110931396484375,0.3532257080078125
20220119-1339,2022-01-19 13:39:11Z,u01, 124,40,movements,el-ex, rt, d,230520.41624554168, 1.9982808681822053, -0.5625582703210202, 2.927254389199952, -0.17783451080322266, -0.6408811807632446, 0.3898860514163971, 0.7697727084159851, 0.5333519577980042, 0.350693017244339, 0.023806452751159668, -0.01491934061050415, 0.011916667222976685, -0.8193842440538935, -0.06289654112998472, 0.2877072352381018,0.49181093985799557,0.7971649169921875,0.5238800048828125,0.3518218994140625
20220119-1339,2022-01-19 13:39:11Z,u01, 125,40,movements,el-ex, rt, d,230520.44119154167, 1.9812035981282654, -0.5525036176524334, 2.9242884177911406, 0.0405283160507679, -0.5932090282440186, 0.427247554063797, 0.7805271148681641, 0.5248199701309204, 0.3396194577217102, 0.012044966220855713, -0.015008509159088135, -0.015568703413009644, -0.8161139046534999, -0.061382550566588756, 0.28396283898447533,0.49955517365875596,0.792572021484375,0.5098114013671875,0.3240509033203125
20220119-1339,2022-01-19 13:39:11Z,u01, 126,40,movements,el-ex, rt, d,230520.4661375417, 1.9623329289845426, -0.5428772704172737, 2.916792781279602, 0.07131040096282959, -0.6208767294883728, 0.4632363021373749, 0.7914298176765442, 0.5166017413139343, 0.32674360275268555, 0.022260308265686035, -0.009658992290496826, 0.0011676549911499023, -0.8123845840256558, -0.05833603929008635, 0.2815241686209629,0.5073187292428064,0.8179473876953125,0.505279541015625,0.326751708984375
20220119-1339,2022-01-19 13:39:11Z,u01, 127,40,movements,el-ex, rt, d,230520.49108354168, 1.9441914478988787, -0.5315564881624076, 2.911722625565927, -0.07959938794374466, -0.6158807277679443, 0.496087908744812, 0.8026209473609924, 0.5068756937980652, 0.31444618105888367, 0.03443032503128052, -0.03815627098083496, 0.009924978017807007, -0.8087812400725716, -0.05564169138756686, 0.27790590121482195,0.5153107053524428,0.8370513916015625,0.468719482421875,0.324371337890625
20220119-1339,2022-01-19 13:39:11Z,u01, 128,40,movements,el-ex, rt, d,230520.51602954167, 1.9277359669260923, -0.5192865686632332, 2.9090973328051724, -0.03274942934513092, -0.5906820893287659, 0.49019095301628113, 0.8134527802467346, 0.4962608814239502, 0.30334705114364624, 0.02365952730178833, -0.013213425874710083, 0.037244170904159546, -0.8054973564783952, -0.05336224788890709, 0.2733954571053761,0.5230499867602534,0.837371826171875,0.481658935546875,0.3443450927734375
20220119-1339,2022-01-19 13:39:11Z,u01, 129,40,movements,el-ex, rt, d,230520.5409755417, 1.9089541494150688, -0.509181616737161, 2.9001405716023774, 0.4022200107574463, -0.554812490940094, 0.5105324983596802, 0.8236953020095825, 0.4874628484249115, 0.28966525197029114, 0.02986609935760498, 0.029260843992233276, -0.029060572385787964, -0.801493074054702, -0.04941135405908159, 0.27138684968533106,0.5305813224515371,0.8535614013671875,0.5167236328125,0.2606048583984375
20220119-1339,2022-01-19 13:39:11Z,u01, 130,40,movements,el-ex, rt, d,230520.56592154168, 1.884473285857927, -0.5009622760203407, 2.877365085934262, 0.7980246543884277, -0.550887405872345, 0.6117196679115295, 0.834321916103363, 0.48026978969573975, 0.27064281702041626, 0.04395860433578491, 0.0014653503894805908, -0.07742097973823547, -0.7960026796355621, -0.041244910471923246, 0.2737862318154374,0.538256045511438,0.885284423828125,0.467620849609375,0.1971435546875
20220119-1339,2022-01-19 13:39:11Z,u01, 131,40,movements,el-ex, rt, d,230520.59086754167, 1.857762701632411, -0.49039046316418927, 2.8533384793611107, 0.44713926315307617, -0.6610478162765503, 0.6847761273384094, 0.846075177192688, 0.47097036242485046, 0.24968692660331726, 0.032815754413604736, -0.08539605140686035, 0.0158768892288208, -0.7898129238613298, -0.03223370206010495, 0.2758341641422722,0.5468747483028358,0.8788909912109375,0.3855743408203125,0.26556396484375
20220119-1339,2022-01-19 13:39:11Z,u01, 132,40,movements,el-ex, rt, d,230520.6158135417, 1.8361713261024997, -0.47492073873740853, 2.845055571824338, -0.17114847898483276, -0.7400506138801575, 0.6431815028190613, 0.8581972718238831, 0.45726796984672546, 0.23324532806873322, 0.016207635402679443, -0.06957265734672546, 0.06135594844818115, -0.784780825879287, -0.027234495318557705, 0.2720322962036008,0.5562155414144007,0.8773956298828125,0.3936920166015625,0.2830963134765625
20220119-1339,2022-01-19 13:39:11Z,u01, 133,40,movements,el-ex, rt, d,230520.64075954168, 1.8194512440858794, -0.45888024730362453, 2.8478407456010744, -0.23665784299373627, -0.6912487149238586, 0.5644475221633911, 0.8689751029014587, 0.4429444670677185, 0.2206411510705948, 0.032743096351623535, 0.01294243335723877, -0.006667226552963257, -0.78080927512774, -0.02564075213395428, 0.2650852614201602,0.5651630238705083,0.9017181396484375,0.4558868408203125,0.2139739990234375
20220119-1339,2022-01-19 13:39:11Z,u01, 134,40,movements,el-ex, rt, d,230520.66570554167, 1.801642180431343, -0.44500577240479955, 2.8454919616256094, 0.1333180069923401, -0.6491280198097229, 0.5622411966323853, 0.8786649703979492, 0.4304630756378174, 0.20651768147945404, 0.028790593147277832, 0.042193204164505005, -0.0411277711391449, -0.7763639353023837, -0.022757056507605955, 0.26041905104748303,0.5735181947032002,0.9057159423828125,0.4730377197265625,0.1673583984375
20220119-1339,2022-01-19 13:39:11Z,u01, 135,40,movements,el-ex, rt, d,230520.6906515417, 1.782063822636027, -0.43219625098343034, 2.837378242447957, 0.14382997155189514, -0.6551567316055298, 0.5712942481040955, 0.8878582119941711, 0.4188660979270935, 0.19041708111763, 0.018849432468414307, 0.01788613200187683, 0.013028129935264587, -0.7712845423515587, -0.018129877615083112, 0.2578660898423041,0.5816325575417822,0.906707763671875,0.4367523193359375,0.2034454345703125
20220119-1339,2022-01-19 13:39:11Z,u01, 136,40,movements,el-ex, rt, d,230520.71559754168, 1.7644740762814775, -0.4184525161390859, 2.834007843826898, -0.10877931863069534, -0.627311646938324, 0.5464537739753723, 0.896635115146637, 0.40634697675704956, 0.17586272954940796, 0.016435563564300537, 0.004770636558532715, 0.03722621500492096, -0.7666255847953615, -0.014716533589808123, 0.25370361633506433,0.5896636055833095,0.914154052734375,0.41119384765625,0.211517333984375
20220119-1339,2022-01-19 13:39:11Z,u01, 137,40,movements,el-ex, rt, d,230520.74054454168, 1.7501804610162257, -0.405162613722117, 2.8353019522762843, -0.11575453728437424, -0.55170077085495, 0.47243544459342957, 0.9042910933494568, 0.3941682279109955, 0.16397812962532043, 0.015798509120941162, 0.06609785556793213, 0.030952811241149902, -0.7627756362327367, -0.012743382861036212, 0.24840516730573314,0.5969135086816167,0.9200897216796875,0.46026611328125,0.1949310302734375
20220119-1339,2022-01-19 13:39:11Z,u01, 138,40,movements,el-ex, rt, d,230520.76549054167, 1.736761248376911, -0.39452924636670045, 2.834164766430608, 0.023054946213960648, -0.4900948405265808, 0.3899702727794647, 0.9104925394058228, 0.38437363505363464, 0.15251268446445465, 0.00799494981765747, 0.08530712127685547, 0.04630923271179199, -0.7590424905428385, -0.010528163210472896, 0.24483037384253734,0.6031597583441868,0.9144439697265625,0.460357666015625,0.1953277587890625
20220119-1339,2022-01-19 13:39:11Z,u01, 139,40,movements,el-ex, rt, d,230520.7904365417, 1.7245828713195919, -0.3857017868358206, 2.832658684910009, -0.03215780854225159, -0.4458726942539215, 0.3351691663265228, 0.9155998229980469, 0.37620946764945984, 0.141927570104599, -0.0174369215965271, 0.05045682191848755, 0.041849151253700256, -0.7555729022476643, -0.008566013506837722, 0.24205618537772394,0.6086419404591911,0.898162841796875,0.426666259765625,0.18377685546875
20220119-1339,2022-01-19 13:39:11Z,u01, 140,40,movements,el-ex, rt, d,230520.81538254168, 1.7134911991421946, -0.3775379184551839, 2.8323794539869604, -0.056877002120018005, -0.43521687388420105, 0.31341859698295593, 0.9201269745826721, 0.3686329126358032, 0.1321958750486374, -0.012152910232543945, 0.06375536322593689, 0.05222176015377045, -0.7523611129607967, -0.007119758033085455, 0.2391759095473695,0.6137562814734538,0.9130096435546875,0.4364471435546875,0.1896514892578125
20220119-1339,2022-01-19 13:39:11Z,u01, 141,40,movements,el-ex, rt, d,230520.84032854167, 1.7036513577455006, -0.37024893999106256, 2.8338812760570167, -0.15492480993270874, -0.38829606771469116, 0.23987656831741333, 0.9240221977233887, 0.36184751987457275, 0.1234883964061737, -0.0030017495155334473, 0.07449278235435486, 0.08555686473846436, -0.7494682064537126, -0.006450320742534654, 0.23607984589783457,0.6184837365015885,0.9210205078125,0.43634033203125,0.20904541015625
20220119-1339,2022-01-19 13:39:11Z,u01, 142,40,movements,el-ex, rt, d,230520.865274375, 1.6963492996518643, -0.36461361871379794, 2.838236826070904, -0.17866449058055878, -0.311337947845459, 0.16032956540584564, 0.9269075989723206, 0.35658833384513855, 0.11699138581752777, -0.016903996467590332, 0.06560707092285156, 0.042523860931396484, -0.7472922500526328, -0.007070030406751027, 0.23269869538791316,0.622378976695593,0.9061431884765625,0.4165496826171875,0.1545867919921875
20220119-1339,2022-01-19 13:39:11Z,u01, 143,40,movements,el-ex, rt, d,230520.890220375, 1.690469349723753, -0.360908920284524, 2.8408250229991987, -0.04029616340994835, -0.24602243304252625, 0.11791138350963593, 0.928884744644165, 0.353124737739563, 0.11169617623090744, -0.016607582569122314, 0.06656822562217712, 0.06496989727020264, -0.7455146191815298, -0.007486036850759437, 0.23055399369685797,0.6252973245563801,0.9122772216796875,0.4196929931640625,0.176666259765625
20220119-1339,2022-01-19 13:39:11Z,u01, 144,40,movements,el-ex, rt, d,230520.91516637502, 1.6850369061683173, -0.3582509732899723, 2.8411100189943963, -0.04321225732564926, -0.1925220638513565, 0.08015695959329605, 0.930406928062439, 0.3506367802619934, 0.10675504803657532, -0.00889819860458374, 0.050455689430236816, 0.06638634204864502, -0.7438573628142421, -0.007331212232560169, 0.22950222449990057,0.6276552568904219,0.9231719970703125,0.394378662109375,0.1756134033203125
20220119-1339,2022-01-19 13:39:11Z,u01, 145,40,movements,el-ex, rt, d,230520.940112375, 1.6819075167437025, -0.35692928246042704, 2.8435933102112574, -0.16028988361358643, -0.11890377104282379, -0.010982540436089039, 0.9311963319778442, 0.3493987023830414, 0.10389423370361328, -0.002821028232574463, 0.025204569101333618, 0.08824433386325836, -0.742886500247471, -0.008170878532641368, 0.22824187320953704,0.6292523693828472,0.928375244140625,0.374603271484375,0.192138671875
20220119-1339,2022-01-19 13:39:11Z,u01, 146,40,movements,el-ex, rt, d,230520.965058375, 1.6820988198316997, -0.3572484245154601, 2.84841769270188, -0.1370392143726349, -0.014531954191625118, -0.053317345678806305, 0.9310654997825623, 0.34969770908355713, 0.10405997931957245, -0.004094183444976807, 0.03000199794769287, 0.06448853015899658, -0.7429192618081503, -0.010047807787975704, 0.22683731340364927,0.6296942389816949,0.92364501953125,0.3758544921875,0.152557373046875
20220119-1339,2022-01-19 13:39:11Z,u01, 147,40,movements,el-ex, rt, d,230520.99000437502, 1.6831906919918282, -0.3583310981832779, 2.8503055611543, 0.015652159228920937, 0.03143094480037689, -0.04285811632871628, 0.9305747151374817, 0.3507118225097656, 0.1050340086221695, -0.008653879165649414, 0.030269652605056763, 0.019050374627113342, -0.7432336682811159, -0.010987133253501924, 0.22663238023721857,0.6293813208104898,0.9219207763671875,0.3809814453125,0.12408447265625
20220119-1339,2022-01-19 13:39:11Z,u01, 148,40,movements,el-ex, rt, d,230521.014950375, 1.6884137631945593, -0.3593713819676828, 2.850583925447946, 0.07772425562143326, 0.059627290815114975, -0.07096152007579803, 0.9296502470970154, 0.35168585181236267, 0.10985009372234344, -0.0017940402030944824, 0.027235597372055054, 0.048810578882694244, -0.744853962629412, -0.010845406253349843, 0.22694250256490928,0.6273530527458759,0.92767333984375,0.3734893798828125,0.169219970703125
20220119-1339,2022-01-19 13:39:11Z,u01, 149,40,movements,el-ex, rt, d,230521.039896375, 1.6965119514241183, -0.36156637011599135, 2.852386588741325, -0.05829879641532898, 0.13402943313121796, -0.1552118957042694, 0.9279623627662659, 0.35373976826667786, 0.1172778531908989, -0.0024709701538085938, 0.008854866027832031, 0.05964769423007965, -0.7473356730520495, -0.01132784485808025, 0.22720447506479668,0.624290980680133,0.9254913330078125,0.3625946044921875,0.1769256591796875
20220119-1339,2022-01-19 13:39:11Z,u01, 150,40,movements,el-ex, rt, d,230521.06484237502, 1.7030542486490596, -0.36670509224208175, 2.856268337561007, -0.12464673072099686, 0.21135284006595612, -0.19954487681388855, 0.9253610372543335, 0.3585415482521057, 0.12310495972633362, -0.0029062628746032715, 0.009851396083831787, 0.03685283660888672, -0.7492421396247582, -0.013736643897776901, 0.22787102393731626,0.6217091692011405,0.9214324951171875,0.37200927734375,0.1558074951171875
20220119-1339,2022-01-19 13:39:11Z,u01, 151,40,movements,el-ex, rt, d,230521.08978837501, 1.7111700048910092, -0.3725221617075864, 2.8596825733397577, -0.054149094969034195, 0.2603284418582916, -0.20482131838798523, 0.9222507476806641, 0.3639657497406006, 0.1303168088197708, -0.0033664703369140625, 0.020098000764846802, 0.03995586931705475, -0.7515997238623132, -0.016008142010131343, 0.22895620138545247,0.6184016902829997,0.91888427734375,0.384063720703125,0.1702728271484375
20220119-1339,2022-01-19 13:39:11Z,u01, 152,40,movements,el-ex, rt, d,230521.114734375, 1.7227698727767808, -0.37640367213316606, 2.8624997006146145, -0.01234868261963129, 0.35572442412376404, -0.245615154504776, 0.9192736148834229, 0.36757829785346985, 0.14079083502292633, 0.006477057933807373, 0.033773571252822876, 0.05378912389278412, -0.7550536530743788, -0.01701179447557183, 0.2295800702811538,0.613919771823672,0.92816162109375,0.405242919921875,0.2004852294921875
20220119-1339,2022-01-19 13:39:11Z,u01, 153,40,movements,el-ex, rt, d,230521.13968037502, 1.7362862901940184, -0.3831404941976517, 2.866603908547475, -0.1845407783985138, 0.4959324300289154, -0.396260529756546, 0.9148236513137817, 0.37383508682250977, 0.15279151499271393, 0.010042130947113037, 0.046803951263427734, 0.10489882528781891, -0.7589644578153398, -0.019201758196050744, 0.2308841888162223,0.6085201879952661,0.92486572265625,0.4206390380859375,0.2576904296875
20220119-1339,2022-01-19 13:39:11Z,u01, 154,40,movements,el-ex, rt, d,230521.16462637502, 1.7526919180037916, -0.3931994220183603, 2.8720578987370486, 0.10344116389751434, 0.6719174981117249, -0.40728339552879333, 0.9084493517875671, 0.38314563035964966, 0.1670897901058197, 0.00951927900314331, 0.016359955072402954, 0.08890675008296967, -0.7635661204214856, -0.022620168373120586, 0.2330649753724437,0.6017771414039608,0.9109344482421875,0.386260986328125,0.253265380859375
20220119-1339,2022-01-19 13:39:11Z,u01, 155,40,movements,el-ex, rt, d,230521.189572375, 1.768840735059331, -0.40452784573387096, 2.86202129827943, 0.7555387616157532, 0.9212453365325928, -0.3741779327392578, 0.9013190865516663, 0.3935847580432892, 0.1808721125125885, -0.05163353681564331, 0.09971654415130615, 0.04453061521053314, -0.7681252247015792, -0.020486380768186263, 0.24037964316928034,0.5931116818203864,0.8496856689453125,0.4933013916015625,0.22540283203125
20220119-1339,2022-01-19 13:39:11Z,u01, 156,40,movements,el-ex, rt, d,230521.21451837503, 1.7812078056580762, -0.41820148659859974, 2.8376066521852557, 1.0928422212600708, 0.8040291666984558, -0.38405105471611023, 0.8936663269996643, 0.40611758828163147, 0.19086268544197083, 0.024760007858276367, 0.14045214653015137, -0.011938244104385376, -0.7715167359228622, -0.013902246466368118, 0.25267610695963655,0.5837150575936344,0.9319000244140625,0.5240631103515625,0.196136474609375
20220119-1339,2022-01-19 13:39:11Z,u01, 157,40,movements,el-ex, rt, d,230521.23946437502, 1.7922685024845817, -0.4329460711462109, 2.8220625685238945, 0.1124766394495964, 0.639751136302948, -0.49850594997406006, 0.8855624198913574, 0.41954687237739563, 0.19939830899238586, 0.014980852603912354, -0.058935850858688354, 0.06920197606086731, -0.7743226031350617, -0.011120260435987017, 0.26264580780612845,0.5756023481601431,0.900543212890625,0.3606109619140625,0.2686004638671875
20220119-1339,2022-01-19 13:39:11Z,u01, 158,40,movements,el-ex, rt, d,230521.264410375, 1.8114841428552697, -0.4447533351443113, 2.830810627196011, -0.30900540947914124, 0.6294299960136414, -0.5686432719230652, 0.876695454120636, 0.43023523688316345, 0.21518124639987946, 0.003538370132446289, -0.03761127591133118, 0.002943068742752075, -0.7793233384372358, -0.015676611271864538, 0.26460969474732954,0.567795015865689,0.8871612548828125,0.4183807373046875,0.208038330078125
20220119-1339,2022-01-19 13:39:11Z,u01, 159,40,movements,el-ex, rt, d,230521.289357375, 1.83191401303166, -0.45770997913004036, 2.8409333319594845, -0.1345110684633255, 0.6730749607086182, -0.5995751023292542, 0.8666580319404602, 0.4418949782848358, 0.231587216258049, 0.04258263111114502, 0.021056652069091797, -0.011937141418457031, -0.7844462604144037, -0.020920564340453474, 0.2667386245131561,0.5595148478891055,0.90924072265625,0.46295166015625,0.2196502685546875
20220119-1339,2022-01-19 13:39:11Z,u01, 160,40,movements,el-ex, rt, d,230521.31430337502, 1.852143711034032, -0.47119954029533784, 2.846258060734166, 0.06574481725692749, 0.755050539970398, -0.5576683282852173, 0.8559911251068115, 0.45395544171333313, 0.2473931461572647, 0.047390103340148926, -0.006064236164093018, -0.01642097532749176, -0.7893673206784799, -0.02440916721419728, 0.2705190041095484,0.5505658634937549,0.898468017578125,0.44903564453125,0.23583984375
20220119-1339,2022-01-19 13:39:11Z,u01, 161,40,movements,el-ex, rt, d,230521.339249375, 1.8716675007505434, -0.485776307231563, 2.8476050735201417, 0.12151603400707245, 0.7519087195396423, -0.5889653563499451, 0.8445881605148315, 0.4668949842453003, 0.26206815242767334, 0.04686075448989868, 2.3931264877319336e-05, -0.04196023941040039, -0.7939290095971029, -0.026660803648973053, 0.27586789740476436,0.5411679577796923,0.891448974609375,0.4669189453125,0.2201080322265625
20220119-1339,2022-01-19 13:39:12Z,u01, 162,40,movements,el-ex, rt, d,230521.364195375, 1.8921748698104994, -0.5001065000959176, 2.8527038758573178, -0.1493201106786728, 0.699081540107727, -0.6142744421958923, 0.8326025605201721, 0.4795190095901489, 0.27719005942344666, 0.05513852834701538, -0.036617428064346313, -0.034728050231933594, -0.7985545417961855, -0.03009451697083343, 0.2801973726395493,0.5318781075941781,0.887237548828125,0.4351348876953125,0.2507476806640625
20220119-1339,2022-01-19 13:39:12Z,u01, 163,40,movements,el-ex, rt, d,230521.38914137502, 1.9154286677860988, -0.5123666194347857, 2.8657007165796706, -0.32762208580970764, 0.6752568483352661, -0.6118379235267639, 0.8203372955322266, 0.49024131894111633, 0.29446619749069214, 0.03851896524429321, -0.005973100662231445, -0.03380045294761658, -0.8037191245009224, -0.03561828201344941, 0.2818129457588861,0.5228273483989087,0.858856201171875,0.4842681884765625,0.2606658935546875
20220119-1339,2022-01-19 13:39:12Z,u01, 164,40,movements,el-ex, rt, d,230521.41408737501, 1.9396987066400675, -0.5241959854200471, 2.880461184055742, -0.3172609508037567, 0.6937884092330933, -0.6407688856124878, 0.8074837923049927, 0.5005171298980713, 0.312173992395401, 0.053462862968444824, 0.003358602523803711, -0.037149667739868164, -0.80892604988926, -0.041540908418718436, 0.2829942657973932,0.5136411811900475,0.8604736328125,0.510711669921875,0.2865753173828125
20220119-1339,2022-01-19 13:39:12Z,u01, 165,40,movements,el-ex, rt, d,230521.439033375, 1.9646904991923582, -0.536627039853317, 2.8947758208971432, -0.21248197555541992, 0.7539590001106262, -0.6588691473007202, 0.7936233878135681, 0.5112400650978088, 0.3298413157463074, 0.05900716781616211, 0.024846971035003662, -0.0220564603805542, -0.814053275804019, -0.04730664036201315, 0.2847204268302071,0.503997564097887,0.852630615234375,0.5360870361328125,0.3077850341796875
20220119-1339,2022-01-19 13:39:12Z,u01, 166,40,movements,el-ex, rt, d,230521.46397937502, 1.9900562176662737, -0.5499452295539913, 2.9062507952615015, -0.07039234787225723, 0.7996817231178284, -0.6236435174942017, 0.7787139415740967, 0.5226405262947083, 0.34706124663352966, 0.0625794529914856, 0.012363135814666748, -0.021576136350631714, -0.8190373539829788, -0.052042596525690155, 0.2876898340148664,0.4936638214655099,0.83343505859375,0.5355072021484375,0.3268585205078125
20220119-1339,2022-01-19 13:39:12Z,u01, 167,40,movements,el-ex, rt, d,230521.48892537502, 2.0135138324443984, -0.5637764421522184, 2.9129819292207504, 0.08749758452177048, 0.793484091758728, -0.5720617771148682, 0.7637538313865662, 0.5343819856643677, 0.36209920048713684, 0.03627979755401611, 0.0006521940231323242, -0.03641578555107117, -0.8234121185170339, -0.05515511755070773, 0.29211652775986974,0.48334077497732414,0.8000335693359375,0.5350341796875,0.32568359375
20220119-1339,2022-01-19 13:39:12Z,u01, 168,40,movements,el-ex, rt, d,230521.513871375, 2.035037722197425, -0.577346298448999, 2.917966309510612, 0.07104267925024033, 0.7276187539100647, -0.581930935382843, 0.7492303848266602, 0.5458022952079773, 0.3751714825630188, 0.03824514150619507, -0.013926684856414795, -0.021152496337890625, -0.8272011447990454, -0.057654154650999656, 0.29690263365784264,0.47356422930588443,0.778106689453125,0.542633056640625,0.367156982421875
20220119-1339,2022-01-19 13:39:12Z,u01, 169,40,movements,el-ex, rt, d,230521.53881737503, 2.0574675317974314, -0.5912818670423546, 2.9257993727028686, -0.052755095064640045, 0.7370765805244446, -0.6610320806503296, 0.7338330149650574, 0.5574257373809814, 0.38828563690185547, 0.03470641374588013, 0.04096299409866333, 0.012242257595062256, -0.8309024089807187, -0.06118827851677905, 0.3012812224607308,0.4637745604184012,0.7685394287109375,0.598388671875,0.4005279541015625
20220119-1339,2022-01-19 13:39:12Z,u01, 170,40,movements,el-ex, rt, d,230521.56376337502, 2.083956206299976, -0.6049017512554565, 2.9389653780023397, -0.15551799535751343, 0.7770363688468933, -0.7134804129600525, 0.7166106104850769, 0.5686812400817871, 0.40382057428359985, 0.062228620052337646, 0.027418673038482666, -0.0011564791202545166, -0.8351858544310626, -0.06614284085975342, 0.304565905269173,0.45313288097926974,0.774505615234375,0.598785400390625,0.4005279541015625
20220119-1339,2022-01-19 13:39:12Z,u01, 171,40,movements,el-ex, rt, d,230521.588709375, 2.1122187774900283, -0.618847949498969, 2.9532537043458724, -0.06675047427415848, 0.8422664999961853, -0.6940172910690308, 0.6980477571487427, 0.5800971388816833, 0.4197813868522644, 0.03448086977005005, 0.032421112060546875, -0.0058258771896362305, -0.839530114013728, -0.0712732990204526, 0.30797477513789906,0.44188322117873996,0.7325286865234375,0.612518310546875,0.4139556884765625
20220119-1339,2022-01-19 13:39:12Z,u01, 172,40,movements,el-ex, rt, d,230521.61365537503, 2.1401973455485, -0.6339278250814088, 2.964669239338965, 0.05114280804991722, 0.8596093654632568, -0.7203028202056885, 0.678585946559906, 0.5923140048980713, 0.4343790113925934, 0.03610515594482422, 0.03527998924255371, 0.007683277130126953, -0.8435077439894841, -0.0753936069545304, 0.31265125464200944,0.4301855926345365,0.71478271484375,0.6306610107421875,0.4486846923828125
20220119-1339,2022-01-19 13:39:12Z,u01, 173,40,movements,el-ex, rt, d,230521.63860137502, 2.1674015538261138, -0.6504719267720568, 2.9746560871026726, 0.09650762379169464, 0.8374742269515991, -0.762321949005127, 0.6583221554756165, 0.6055620312690735, 0.4471091330051422, 0.06140446662902832, 0.05183243751525879, 0.00688546895980835, -0.8469224198574269, -0.0792274388649527, 0.31836360417038784,0.4184376300703537,0.7197265625,0.6573944091796875,0.4539947509765625
20220119-1339,2022-01-19 13:39:12Z,u01, 174,40,movements,el-ex, rt, d,230521.663547375, 2.197583447522645, -0.666132688521498, 2.988714767090975, -0.143924281001091, 0.8512449264526367, -0.7976671457290649, 0.6367700099945068, 0.6179500818252563, 0.46115222573280334, 0.09075373411178589, 0.004700005054473877, 0.005323976278305054, -0.8506057031228897, -0.08394076244035104, 0.32315653698022995,0.4061940802834135,0.720001220703125,0.6187896728515625,0.4700164794921875
20220119-1339,2022-01-19 13:39:12Z,u01, 175,40,movements,el-ex, rt, d,230521.68849337503, 2.2325087990418018, -0.67895239326948, 3.0099251567552097, -0.20651468634605408, 0.8872716426849365, -0.7939442992210388, 0.613978385925293, 0.6279780864715576, 0.4781986176967621, 0.04939746856689453, 0.015591859817504883, -0.0005986690521240234, -0.854969056769328, -0.09015106555316738, 0.3257688298477774,0.3934149303459378,0.6633758544921875,0.6435699462890625,0.47760009765625
20220119-1339,2022-01-19 13:39:12Z,u01, 176,40,movements,el-ex, rt, d,230521.71343937502, 2.2672755453757785, -0.692671009978086, 3.0293397563334494, -0.059316523373126984, 0.9093533754348755, -0.8143756985664368, 0.5903207063674927, 0.638594925403595, 0.49367785453796387, 0.03622037172317505, 0.03654545545578003, -0.0005445480346679688, -0.858885141285736, -0.095683061638838, 0.32938560616684476,0.38035002186818645,0.6188507080078125,0.66912841796875,0.496124267578125
20220119-1339,2022-01-19 13:39:12Z,u01, 177,40,movements,el-ex, rt, d,230521.738385375, 2.3022424684790397, -0.7076520964937681, 3.0472965839699118, -0.022000310942530632, 0.9354992508888245, -0.8203927874565125, 0.5655171275138855, 0.6500514149665833, 0.5075659155845642, 0.07053017616271973, 0.004642069339752197, -0.0028815865516662598, -0.8623528421593704, -0.10065053203270685, 0.3340842886137621,0.36688501481007657,0.63604736328125,0.654693603515625,0.5046844482421875
20220119-1339,2022-01-19 13:39:12Z,u01, 178,40,movements,el-ex, rt, d,230521.76333137503, 2.3383827916776774, -0.720979338996085, 3.066927466822219, -0.12871217727661133, 0.9379196166992188, -0.775558352470398, 0.5405259728431702, 0.6601206064224243, 0.5216055512428284, 0.09918355941772461, -0.020395934581756592, 0.005493879318237305, -0.8658193051355575, -0.10563957478824265, 0.33809303816927105,0.35339819241132625,0.6289520263671875,0.631011962890625,0.532196044921875
20220119-1339,2022-01-19 13:39:12Z,u01, 179,40,movements,el-ex, rt, d,230521.78827737502, 2.377087114800134, -0.7319565683405631, 3.090015946774552, -0.18243096768856049, 0.9223035573959351, -0.7687159776687622, 0.5148907899856567, 0.6683263182640076, 0.5368680357933044, 0.07945424318313599, -0.019324302673339844, -0.0029172897338867188, -0.8695344853327527, -0.11110259739371753, 0.34090571819421533,0.33963105999466703,0.5943450927734375,0.6490020751953125,0.5339508056640625
20220119-1339,2022-01-19 13:39:12Z,u01, 180,40,movements,el-ex, rt, d,230521.81322437502, 2.4149313339945953, -0.7434665473321752, 3.110958411083785, 0.006183190271258354, 0.9188277125358582, -0.749398946762085, 0.489066481590271, 0.6768437623977661, 0.5501787662506104, 0.07177042961120605, -0.0015201568603515625, -0.021614432334899902, -0.8727513494659964, -0.115734473892461, 0.3445502470909597,0.32587699465501174,0.5623931884765625,0.6766357421875,0.5257720947265625
20220119-1339,2022-01-19 13:39:12Z,u01, 181,40,movements,el-ex, rt, d,230521.838170375, 2.4501910140076544, -0.7574335135346822, 3.1276595976029395, 0.19395706057548523, 0.9435527324676514, -0.7327036261558533, 0.4632939398288727, 0.6870589256286621, 0.5597397685050964, 0.06911575794219971, -0.02671957015991211, -0.02156245708465576, -0.8750218202495736, -0.11919182509341625, 0.3500395981857278,0.3124137231921851,0.53240966796875,0.66033935546875,0.538177490234375
20220119-1339,2022-01-19 13:39:12Z,u01, 182,40,movements,el-ex, rt, d,230521.86311600002, 2.484897559513403, -0.7715665981643589, -3.139608817334078, 0.024011123925447464, 0.9255480766296387, -0.7072694897651672, 0.43761998414993286, 0.6972590684890747, 0.5677309632301331, 0.10467737913131714, -0.04523575305938721, -0.004987001419067383, -0.876886090260504, -0.12221397257715111, 0.3558860008828301,0.2991314828401299,0.5397186279296875,0.6446380615234375,0.57769775390625
20220119-1339,2022-01-19 13:39:12Z,u01, 183,40,movements,el-ex, rt, d,230521.888062, 2.522931055538055, -0.7784311497666752, -3.11751356570567, -0.2502976357936859, 0.8432644605636597, -0.651733934879303, 0.4129302203655243, 0.7021632194519043, 0.5800474882125854, 0.11366581916809082, -0.04986530542373657, -0.024398863315582275, -0.8798397066099171, -0.12611828245106, 0.3580354774727733,0.28598382798810607,0.5265960693359375,0.6522979736328125,0.5556488037109375
20220119-1339,2022-01-19 13:39:12Z,u01, 184,40,movements,el-ex, rt, d,230521.913008, 2.5595661631133435, -0.7843603474120923, -3.095959124279568, 0.011281278915703297, 0.8402959108352661, -0.651814341545105, 0.38911232352256775, 0.7063725590705872, 0.5912944078445435, 0.07557880878448486, 0.000979006290435791, -0.08154422044754028, -0.8824914586822807, -0.12983075185394466, 0.3599893285313992,0.27342342816795867,0.4592742919921875,0.71728515625,0.502471923828125
20220119-1339,2022-01-19 13:39:12Z,u01, 185,40,movements,el-ex, rt, d,230521.93795400002, 2.591292184538436, -0.7971008187871156, -3.0811691130370606, 0.2774433493614197, 0.8738541603088379, -0.6337524056434631, 0.3654242157936096, 0.7153332233428955, 0.595620334148407, 0.03856751322746277, -0.03715634346008301, -0.022607088088989258, -0.8833672999607135, -0.1321831517616227, 0.3657505584160893,0.26156523177690333,0.40399169921875,0.6781768798828125,0.5730133056640625
20220119-1339,2022-01-19 13:39:12Z,u01, 186,40,movements,el-ex, rt, d,230521.9629, 2.62361521440662, -0.8070396521574701, -3.065148219017186, -0.11513285338878632, 0.8199695944786072, -0.5894849300384521, 0.3424471318721771, 0.7222428321838379, 0.6009116172790527, 0.08074009418487549, -0.06284964084625244, 0.005579173564910889, -0.8845205158231402, -0.13445921154166562, 0.3702849241320767,0.24986619917016734,0.4239349365234375,0.6548614501953125,0.6065216064453125
20220119-1339,2022-01-19 13:39:12Z,u01, 187,40,movements,el-ex, rt, d,230521.987846, 2.659552445913235, -0.8085152961024686, -3.0422805071537797, -0.22802969813346863, 0.7373532652854919, -0.5559589266777039, 0.3201413154602051, 0.7232626676559448, 0.6118829250335693, 0.09175452589988708, -0.007869541645050049, -0.06142216920852661, -0.887058915614208, -0.1380867527194929, 0.37060342024377657,0.23814210263483926,0.411895751953125,0.71539306640625,0.5504608154296875
20220119-1339,2022-01-19 13:39:12Z,u01, 188,40,movements,el-ex, rt, d,230522.01279200002, 2.6916034341483592, -0.8138906845393038, -3.023676179604135, 0.17459793388843536, 0.7182837128639221, -0.5341030955314636, 0.2986733317375183, 0.7269642949104309, 0.6183177828788757, 0.0634939968585968, 0.01696258783340454, -0.10725528001785278, -0.8884290895021603, -0.14089943205659972, 0.37308700297215996,0.22726001423195913,0.3524627685546875,0.7396087646484375,0.511505126953125
20220119-1339,2022-01-19 13:39:12Z,u01, 189,40,movements,el-ex, rt, d,230522.037738, 2.7183636662748802, -0.826587401793286, -3.011929127028641, 0.39875707030296326, 0.6878325343132019, -0.4779443144798279, 0.2782086730003357, 0.7356240153312683, 0.6176223754882812, 0.04825320839881897, -0.01934593915939331, -0.061622679233551025, -0.8880279791171932, -0.14218819530782317, 0.3793819406151703,0.21738950499888302,0.3264617919921875,0.716278076171875,0.555999755859375
20220119-1339,2022-01-19 13:39:12Z,u01, 190,40,movements,el-ex, rt, d,230522.062684, 2.744528678333927, -0.8374541914216409, -3.000024811922501, 0.07310786098241806, 0.6826068758964539, -0.4732521176338196, 0.2588483393192291, 0.7429414987564087, 0.6172804832458496, 0.07548698782920837, -0.05591452121734619, 0.001859903335571289, -0.8877468321065576, -0.1433381089463463, 0.38486898820349114,0.20793153503284245,0.342620849609375,0.6787109375,0.621337890625
20220119-1339,2022-01-19 13:39:12Z,u01, 191,40,movements,el-ex, rt, d,230522.08763000002, 2.774695427425144, -0.8384369053859076, -2.98084939040249, -0.3181196451187134, 0.6013005971908569, -0.4765101671218872, 0.23985007405281067, 0.7435988783836365, 0.6241254210472107, 0.10911843180656433, -0.01569366455078125, -0.007731437683105469, -0.8892202006900063, -0.1461168597643961, 0.38554721465788866,0.19821860418380327,0.348968505859375,0.7279052734375,0.61639404296875
20220119-1339,2022-01-19 13:39:12Z,u01, 192,40,movements,el-ex, rt, d,230522.112576, 2.803563468363775, -0.8374332287383501, -2.9623003184252967, -0.020383041352033615, 0.6390445232391357, -0.4602837860584259, 0.22198274731636047, 0.7429274320602417, 0.6314921379089355, 0.06511138379573822, 0.01705169677734375, -0.07048755884170532, -0.8908541343798868, -0.1487446604536719, 0.3854270750406227,0.1889440525360973,0.26580810546875,0.7708282470703125,0.565155029296875
20220119-1339,2022-01-19 13:39:12Z,u01, 193,40,movements,el-ex, rt, d,230522.137522, 2.8303062156365564, -0.8452369739036234, -2.9482649982207625, 0.31811031699180603, 0.7034006118774414, -0.43325164914131165, 0.2032356560230255, 0.748128354549408, 0.6316638588905334, 0.039119720458984375, 0.03046661615371704, 0.011936485767364502, -0.8906512474155133, -0.15024075070123566, 0.38965574558303967,0.1798234705970823,0.2423553466796875,0.778594970703125,0.6436004638671875
20220119-1339,2022-01-19 13:39:12Z,u01, 194,40,movements,el-ex, rt, d,230522.16246800002, 2.857695576415283, -0.855412445078202, -2.9352170771519406, 0.14845694601535797, 0.6629849672317505, -0.4762239456176758, 0.18371883034706116, 0.7548415064811707, 0.6296519041061401, 0.08826911449432373, 0.0026504993438720703, 0.03740119934082031, -0.8899320736697148, -0.15115179514668892, 0.39516919372340087,0.17033878410048367,0.2746734619140625,0.7425079345703125,0.6553192138671875
20220119-1339,2022-01-19 13:39:12Z,u01, 195,40,movements,el-ex, rt, d,230522.187414, 2.886962733016186, -0.8567252996807877, -2.91729563604817, -0.24077902734279633, 0.5890618562698364, -0.4458549916744232, 0.1649649739265442, 0.7557019591331482, 0.6337990760803223, 0.04769681394100189, -0.03776061534881592, -0.01893097162246704, -0.8907141054737415, -0.15338818421448325, 0.3965057404218807,0.1608841468820043,0.2126617431640625,0.7179412841796875,0.6148681640625
20220119-1339,2022-01-19 13:39:12Z,u01, 196,40,movements,el-ex, rt, d,230522.21236, 2.9154595267399026, -0.8546982815978454, -2.8996721271747483, -0.10660187900066376, 0.6129424571990967, -0.4639289677143097, 0.14718230068683624, 0.7543728947639465, 0.6397334337234497, 0.01823827624320984, 0.011023223400115967, -0.04213833808898926, -0.8920068942941441, -0.15553266717607828, 0.3964145359442194,0.15162052874993967,0.1651611328125,0.777740478515625,0.606536865234375
20220119-1339,2022-01-19 13:39:12Z,u01, 197,40,movements,el-ex, rt, d,230522.23730600002, 2.9441284072304925, -0.8564648820784633, -2.8823051380895595, 0.047935329377651215, 0.6527542471885681, -0.46923139691352844, 0.12852220237255096, 0.755531370639801, 0.6423816084861755, 0.029116347432136536, 0.034812748432159424, 0.012052476406097412, -0.8923819168774534, -0.15762396728476002, 0.39818052526339187,0.14234252853048535,0.1576385498046875,0.79034423828125,0.6544342041015625
20220119-1339,2022-01-19 13:39:12Z,u01, 198,40,movements,el-ex, rt, d,230522.26225200001, 2.973362075522693, -0.8605747236334008, -2.8644824650375167, 0.045147232711315155, 0.6124395132064819, -0.5007944703102112, 0.10916994512081146, 0.7582173943519592, 0.6427969336509705, 0.048209212720394135, 0.0007851719856262207, -0.01163262128829956, -0.8921132214346492, -0.15978883408333439, 0.40112786943290973,0.13303325472124738,0.1584625244140625,0.7426910400390625,0.623382568359375
20220119-1339,2022-01-19 13:39:12Z,u01, 199,40,movements,el-ex, rt, d,230522.287198, 3.001718051242, -0.8611855886537283, -2.8468845078907075, -0.10106533765792847, 0.605993390083313, -0.45525646209716797, 0.09083680808544159, 0.7586155533790588, 0.6451752185821533, 0.0395953431725502, -0.019128799438476562, -0.007922589778900146, -0.8923907098570032, -0.16194575480025897, 0.4025533762267116,0.12394818953754802,0.13043212890625,0.7394866943359375,0.6372528076171875
20220119-1339,2022-01-19 13:39:12Z,u01, 200,40,movements,el-ex, rt, d,230522.31214400003, 3.029670189489091, -0.8594543228745622, -2.828829504796732, -0.14233388006687164, 0.5724718570709229, -0.4504948556423187, 0.07291620224714279, 0.7574864029884338, 0.6487659811973572, 0.0709436759352684, -0.014368236064910889, 0.0075449347496032715, -0.8929511971954371, -0.16438108305533378, 0.4029755496014303,0.11501150334602372,0.1391448974609375,0.74884033203125,0.6620330810546875
20220119-1339,2022-01-19 13:39:12Z,u01, 201,40,movements,el-ex, rt, d,230522.33709000002, 3.0571329529882756, -0.8596854936827174, -2.8114636075320774, 0.0661662295460701, 0.5716590881347656, -0.44125309586524963, 0.0550592802464962, 0.7576373219490051, 0.6503491997718811, 0.050195880234241486, 0.02854132652282715, -0.006336867809295654, -0.8929852382613797, -0.1665891812204155, 0.4043911907948629,0.1062692118650613,0.105255126953125,0.7861785888671875,0.644012451171875
20220119-1339,2022-01-19 13:39:13Z,u01, 202,40,movements,el-ex, rt, d,230522.362036, 3.0831419461636136, -0.8635219005831608, -2.795915377817601, 0.1000630110502243, 0.5723170042037964, -0.39910709857940674, 0.037957578897476196, 0.7601356506347656, 0.6486549973487854, 0.038778938353061676, -0.0439031720161438, -0.0397530198097229, -0.8922131153944444, -0.16817623269076892, 0.4074954845297417,0.09808177392581993,0.07513427734375,0.6998748779296875,0.6097869873046875
20220119-1339,2022-01-19 13:39:13Z,u01, 203,40,movements,el-ex, rt, d,230522.386983, 3.1065375708474283, -0.8640518175607421, -2.781988231872628, -0.06491445749998093, 0.46742182970046997, -0.33044224977493286, 0.02275875024497509, 0.7604798674583435, 0.6489623188972473, 0.05248236656188965, -0.07993793487548828, -0.06035470962524414, -0.8920299267288085, -0.16959882215435418, 0.4090517805814914,0.0905284373861748,0.0752410888671875,0.6805419921875,0.5886077880859375
20220119-1339,2022-01-19 13:39:13Z,u01, 204,40,movements,el-ex, rt, d,230522.41192900002, 3.126848750822997, -0.8610856664000828, -2.7693075311538067, -0.1729382872581482, 0.40239959955215454, -0.3322111666202545, 0.009606990031898022, 0.7585504651069641, 0.6515434980392456, 0.06427609920501709, -0.03841191530227661, -0.032906532287597656, -0.8924475710459612, -0.17119895350286607, 0.40890342702786997,0.08382266507990585,0.079071044921875,0.7311859130859375,0.6139373779296875
20220119-1339,2022-01-19 13:39:13Z,u01, 205,40,movements,el-ex, rt, d,230522.436875, -3.1385233113335063, -0.8574713407111287, -2.7577959380108927, -0.08528933674097061, 0.3374210298061371, -0.27455970644950867, -0.0020084260031580925, 0.7561903595924377, 0.6543485522270203, 0.06199073791503906, -0.028178274631500244, -0.07402634620666504, -0.892918008536028, -0.17283433133975706, 0.4083559690274927,0.07791725243098302,0.0599822998046875,0.7280120849609375,0.580322265625
20220119-1339,2022-01-19 13:39:13Z,u01, 206,40,movements,el-ex, rt, d,230522.461821, -3.123496904230426, -0.8583759330463329, -2.7483339409322918, 0.15445467829704285, 0.2715006172657013, -0.21147875487804413, -0.011827949434518814, 0.7567819356918335, 0.6535599827766418, 0.0427575409412384, -0.03818464279174805, -0.09246408939361572, -0.8924812372034725, -0.17394610296334334, 0.40970459053250674,0.07322567641023969,0.026214599609375,0.7075653076171875,0.551666259765625
20220119-1339,2022-01-19 13:39:13Z,u01, 207,40,movements,el-ex, rt, d,230522.48676700002, -3.1123415204014764, -0.8632854473051788, -2.7416380600001564, 0.16507147252559662, 0.2132934331893921, -0.1314431130886078, -0.01900889165699482, 0.7599819898605347, 0.6496661305427551, 0.04404860734939575, -0.09475976228713989, -0.09180492162704468, -0.8912989388211128, -0.17441117815988855, 0.41262078618450526,0.07007888015011249,0.0250396728515625,0.66522216796875,0.557861328125
20220119-1339,2022-01-19 13:39:13Z,u01, 208,40,movements,el-ex, rt, d,230522.511713, -3.10603761476221, -0.8644537627021368, -2.738364183707218, -0.06124871224164963, 0.08341431617736816, -0.04541787877678871, -0.02307233400642872, 0.7607408165931702, 0.6486453413963318, 0.09057724475860596, -0.09669363498687744, -0.07102406024932861, -0.8909931092846071, -0.1745106368335987, 0.4135766411077054,0.06805592006839223,0.072265625,0.66326904296875,0.578826904296875
20220119-1339,2022-01-19 13:39:13Z,u01, 209,40,movements,el-ex, rt, d,230522.536659, -3.1056609973165377, -0.8629907724956607, -2.7382631265237682, -0.01884496584534645, -0.04291386157274246, 0.0421031154692173, -0.02335658296942711, 0.7597904801368713, 0.6497482061386108, 0.0671951174736023, -0.06517988443374634, -0.10919046401977539, -0.8912946376970687, -0.1745507922099772, 0.4129563933747371,0.06777060231055285,0.0438385009765625,0.694610595703125,0.540557861328125
20220119-1339,2022-01-19 13:39:13Z,u01, 210,40,movements,el-ex, rt, d,230522.56160500002, -3.1103512004890197, -0.8650380625962202, -2.741552205628182, 0.16625458002090454, -0.12106592208147049, 0.11994252353906631, -0.020260261371731758, 0.7611199617385864, 0.6482947468757629, 0.038799695670604706, -0.0827903151512146, -0.12323981523513794, -0.8910036468824812, -0.1739536556120908, 0.41356984312060896,0.0693732908336169,0.0153350830078125,0.677734375,0.5270538330078125
20220119-1339,2022-01-19 13:39:13Z,u01, 211,40,movements,el-ex, rt, d,230522.58655100001, -3.1194316261724353, -0.870275201477545, -2.7478015635431343, 0.20399193465709686, -0.22802892327308655, 0.21049419045448303, -0.014284174889326096, 0.7645063400268555, 0.6444573402404785, 0.06270036846399307, -0.08629924058914185, -0.11604577302932739, -0.8901501663048073, -0.17280437484839162, 0.41533083232091106,0.07260448815703544,0.0484161376953125,0.6782073974609375,0.528411865234375
20220119-1339,2022-01-19 13:39:13Z,u01, 212,40,movements,el-ex, rt, d,230522.611497, -3.133731225713411, -0.8744030363505297, -2.75739032004229, 0.09559372812509537, -0.3286108374595642, 0.28481295704841614, -0.0050426991656422615, 0.7671607136726379, 0.6414350271224976, 0.06906861066818237, -0.09333258867263794, -0.07902669906616211, -0.8895864166623928, -0.17132872800673116, 0.416294089070225,0.0773413193247027,0.0691375732421875,0.6765594482421875,0.5637054443359375
20220119-1339,2022-01-19 13:39:13Z,u01, 213,40,movements,el-ex, rt, d,230522.63644300002, 3.130270940763135, -0.876108993458667, -2.769993980318383, 0.03421685844659805, -0.4285714328289032, 0.3473355770111084, 0.007247385568916798, 0.7682538628578186, 0.6401041746139526, 0.08387812972068787, -0.04878675937652588, -0.05280876159667969, -0.8895347658093082, -0.16964669173795943, 0.4159242142874672,0.08339624555584615,0.09112548828125,0.7194671630859375,0.5872955322265625
20220119-1339,2022-01-19 13:39:13Z,u01, 214,40,movements,el-ex, rt, d,230522.66138900002, 3.107851993304917, -0.8765240334799982, -2.7841773054094436, 0.0028875619173049927, -0.4842093884944916, 0.3773243725299835, 0.021584060043096542, 0.7685195207595825, 0.6394619941711426, 0.060187846422195435, -0.019694507122039795, -0.049145400524139404, -0.8896705437143219, -0.16798008796295139, 0.4148333357700529,0.09045569849977178,0.08160400390625,0.7565460205078125,0.59014892578125
20220119-1339,2022-01-19 13:39:13Z,u01, 215,40,movements,el-ex, rt, d,230522.686335, 3.0833582086214557, -0.8776079319669724, -2.799896271621179, 0.12640686333179474, -0.49663108587265015, 0.41340628266334534, 0.03719036653637886, 0.769212543964386, 0.6379096508026123, 0.03719627857208252, -0.008439898490905762, -0.06494224071502686, -0.889599585443245, -0.16603437295659623, 0.41401324700041997,0.09817407085561758,0.0743865966796875,0.760772705078125,0.572967529296875
20220119-1339,2022-01-19 13:39:13Z,u01, 216,40,movements,el-ex, rt, d,230522.71128100003, 3.0564476648992627, -0.8827137284045373, -2.8181509924457555, 0.3445589244365692, -0.5287885069847107, 0.4849318861961365, 0.05400659888982773, 0.7724651098251343, 0.6327562928199768, 0.030450813472270966, -0.024570941925048828, -0.06685382127761841, -0.8886389932273984, -0.16339792252500357, 0.41501480923430817,0.10669783589719137,0.0889739990234375,0.74517822265625,0.5660552978515625
20220119-1339,2022-01-19 13:39:13Z,u01, 217,40,movements,el-ex, rt, d,230522.73622700002, 3.0244512051272885, -0.8921043410314553, -2.841090816632216, 0.4684128165245056, -0.5872169137001038, 0.579624593257904, 0.07337044179439545, 0.7783945202827454, 0.623473048210144, 0.03928521275520325, -0.05758464336395264, -0.0823049545288086, -0.8866834670190229, -0.15977782148949216, 0.41791059429904487,0.11667981797158228,0.1126556396484375,0.7208099365234375,0.541168212890625
20220119-1339,2022-01-19 13:39:13Z,u01, 218,40,movements,el-ex, rt, d,230522.761173, 2.988996813547442, -0.8994518598706546, -2.866979726324719, 0.2301492691040039, -0.6420766115188599, 0.6183139681816101, 0.09455264359712601, 0.782986044883728, 0.6148110032081604, 0.05466306209564209, -0.03869283199310303, -0.0026438236236572266, -0.8849595437607443, -0.15573087396830387, 0.4199786993589065,0.1273278227995126,0.1621551513671875,0.7418975830078125,0.6110382080078125
20220119-1339,2022-01-19 13:39:13Z,u01, 219,40,movements,el-ex, rt, d,230522.78611900003, 2.9511599706268052, -0.8993138919617293, -2.8931686203642824, 0.025779929012060165, -0.7399698495864868, 0.6683819890022278, 0.11776242405176163, 0.7829002141952515, 0.6109005808830261, 0.07117195427417755, -0.046587228775024414, -0.03689545392990112, -0.884490070388751, -0.1520775913237845, 0.41874618178051426,0.13856924524096428,0.188934326171875,0.7363128662109375,0.574005126953125
20220119-1339,2022-01-19 13:39:13Z,u01, 220,40,movements,el-ex, rt, d,230522.81106500002, 2.909538427238846, -0.8992108861191301, -2.922053187746858, 0.19868965446949005, -0.7566694617271423, 0.6879647374153137, 0.1430981457233429, 0.7828361392021179, 0.6055494546890259, 0.0362689346075058, -0.06492555141448975, -0.035679638385772705, -0.8836673052554491, -0.14800954281521533, 0.41766811306327317,0.15092551453630293,0.17474365234375,0.7264862060546875,0.5840911865234375
20220119-1339,2022-01-19 13:39:13Z,u01, 221,40,movements,el-ex, rt, d,230522.836011, 2.868457242693861, -0.898473735751373, -2.950331165042634, 0.11338195204734802, -0.7702643871307373, 0.7010642886161804, 0.16800273954868317, 0.7823772430419922, 0.5997170805931091, 0.07339130342006683, -0.036817729473114014, -0.05424600839614868, -0.882668729408263, -0.1440640966288475, 0.41655913820835766,0.16315587006117827,0.24139404296875,0.7455596923828125,0.54547119140625
20220119-1339,2022-01-19 13:39:13Z,u01, 222,40,movements,el-ex, rt, d,230522.86095679167, 2.8260002725329842, -0.8977482090942038, -2.979064817493316, 0.19793544709682465, -0.7971487045288086, 0.7000014185905457, 0.19348208606243134, 0.7819252014160156, 0.5925856232643127, 0.08163395524024963, 0.009349942207336426, -0.001887500286102295, -0.8812713329514734, -0.14019148050210922, 0.41565345258353836,0.17589601236391925,0.2796173095703125,0.8097076416015625,0.611541748046875
20220119-1339,2022-01-19 13:39:13Z,u01, 223,40,movements,el-ex, rt, d,230522.8859027917, 2.783988779281584, -0.8953704854293345, -3.0076587320086396, 0.03139783442020416, -0.7632941603660583, 0.679057776927948, 0.2188495397567749, 0.7804407477378845, 0.5856764316558838, 0.0672680139541626, -0.0003504753112792969, 0.06065523624420166, -0.879939926210102, -0.1361761280106491, 0.41429569384975673,0.18846962909721937,0.2861175537109375,0.78009033203125,0.646331787109375
20220119-1339,2022-01-19 13:39:13Z,u01, 224,40,movements,el-ex, rt, d,230522.91084879168, 2.746234603526599, -0.8882320372915162, -3.031958956687644, -0.011161645874381065, -0.7529845833778381, 0.6764712333679199, 0.24293968081474304, 0.7759577631950378, 0.5821254849433899, 0.05298933386802673, 0.02580016851425171, -0.002444148063659668, -0.8794519460335682, -0.13276672503613568, 0.4109429183696035,0.2001580521018022,0.2948150634765625,0.8051300048828125,0.5576629638671875
20220119-1339,2022-01-19 13:39:13Z,u01, 225,40,movements,el-ex, rt, d,230522.93579479167, 2.7053151931543247, -0.8856502174412073, -3.0604480878526474, 0.404538631439209, -0.7248733043670654, 0.704186737537384, 0.2673954963684082, 0.7743266224861145, 0.5735136270523071, -0.007736623287200928, 0.030589818954467773, -0.040539443492889404, -0.8776452124085984, -0.1284355483766268, 0.41006378245098773,0.2123460722916064,0.2596588134765625,0.8049163818359375,0.5329742431640625
20220119-1339,2022-01-19 13:39:13Z,u01, 226,40,movements,el-ex, rt, d,230522.96074179167, 2.661940017500827, -0.8884542158669971, -3.0938312433697694, 0.4336942732334137, -0.6690078973770142, 0.6788864731788635, 0.2910093665122986, 0.7760978937149048, 0.5594511032104492, 0.004156649112701416, 0.028375983238220215, 0.04707038402557373, -0.8744125071499449, -0.12299727892085638, 0.41221961117111117,0.22438674045253854,0.3140106201171875,0.808074951171875,0.6168670654296875
20220119-1339,2022-01-19 13:39:13Z,u01, 227,40,movements,el-ex, rt, d,230522.9856877917, 2.6237296003565724, -0.8861378814642051, -3.121351555422456, 0.04384171962738037, -0.6837306022644043, 0.6204906105995178, 0.3130575120449066, 0.7746350765228271, 0.5494861006736755, 0.074637770652771, 0.014991819858551025, 0.06829625368118286, -0.8721674970163866, -0.1186040406097359, 0.4120602665461593,0.23550610697211816,0.3876953125,0.7896270751953125,0.6177825927734375
20220119-1339,2022-01-19 13:39:13Z,u01, 228,40,movements,el-ex, rt, d,230523.01063379168, 2.590966753013043, -0.8776103916938985, -3.141326490821233, -0.04436373710632324, -0.6988279819488525, 0.6109352111816406, 0.334333211183548, 0.7692141532897949, 0.5445461869239807, 0.05096644163131714, 0.017055869102478027, 0.011926412582397461, -0.8711525452274206, -0.11561281549572455, 0.4088253660852354,0.24614754624686902,0.3780670166015625,0.783599853515625,0.54058837890625
20220119-1339,2022-01-19 13:39:13Z,u01, 229,40,movements,el-ex, rt, d,230523.03557979167, 2.5569368618777366, -0.8707836599565948, 3.119969440477306, 0.19255590438842773, -0.6471817493438721, 0.6341681480407715, 0.35555705428123474, 0.7648340463638306, 0.5372225642204285, -0.003903001546859741, 0.019574642181396484, 0.010262668132781982, -0.869501783104351, -0.11215137085337873, 0.40667392879161535,0.2569144457648658,0.351654052734375,0.7844085693359375,0.5474853515625
20220119-1339,2022-01-19 13:39:13Z,u01, 230,40,movements,el-ex, rt, d,230523.0605257917, 2.5231411210619936, -0.8662296012696009, 3.0962269782434824, 0.13950695097446442, -0.5910422801971436, 0.5774761438369751, 0.37552186846733093, 0.7618922591209412, 0.5277341604232788, 0.012509167194366455, 0.03219032287597656, 0.08321237564086914, -0.8672863766045329, -0.10808059213531279, 0.405955546422473,0.2670823031396937,0.401763916015625,0.784881591796875,0.6079254150390625
20220119-1339,2022-01-19 13:39:13Z,u01, 231,40,movements,el-ex, rt, d,230523.08547179168, 2.495115851472133, -0.8585581659983983, 3.078683252698612, -0.054078489542007446, -0.5884220004081726, 0.5345063805580139, 0.3936716914176941, 0.7569010853767395, 0.5216544270515442, 0.06429040431976318, 0.02227383852005005, 0.02425915002822876, -0.8659080731169918, -0.10502577116955308, 0.40354831642776257,0.276263521517649,0.4579620361328125,0.7791748046875,0.5459136962890625
20220119-1339,2022-01-19 13:39:13Z,u01, 232,40,movements,el-ex, rt, d,230523.11041779167, 2.467810343299887, -0.8499555094301654, 3.0622001804833543, 0.06571373343467712, -0.5915269255638123, 0.5778219103813171, 0.41181468963623047, 0.7512510418891907, 0.5157812237739563, 0.02872180938720703, 0.0037385225296020508, -0.018375396728515625, -0.864566322569246, -0.10205721568605758, 0.40076871776010997,0.2854710857508434,0.4338226318359375,0.750640869140625,0.4918670654296875
20220119-1339,2022-01-19 13:39:13Z,u01, 233,40,movements,el-ex, rt, d,230523.1353637917, 2.436892363377496, -0.8434750821057966, 3.0405456185261737, 0.2351369559764862, -0.5742515325546265, 0.6177722215652466, 0.43070700764656067, 0.7469581365585327, 0.5065023899078369, 3.3348798751831055e-05, -0.02573627233505249, 0.01768249273300171, -0.8623678903691383, -0.09784080304516646, 0.3996090334403626,0.295061503603127,0.4307403564453125,0.721221923828125,0.5241851806640625
20220119-1339,2022-01-19 13:39:13Z,u01, 234,40,movements,el-ex, rt, d,230523.16030979168, 2.405496044476498, -0.8373817605331664, 3.0181569986770276, 0.10212530195713043, -0.5647716522216797, 0.5907337665557861, 0.449442058801651, 0.7428929805755615, 0.4960964024066925, 0.02988225221633911, -0.0203588604927063, 0.03390216827392578, -0.8598372511016342, -0.09342428953544918, 0.39889024869774126,0.3046937929378289,0.49151611328125,0.72882080078125,0.5343475341796875
20220119-1339,2022-01-19 13:39:13Z,u01, 235,40,movements,el-ex, rt, d,230523.18525579167, 2.380434894613829, -0.8272756113657918, 3.0040304699976432, -0.14069966971874237, -0.5785586833953857, 0.5440476536750793, 0.46688732504844666, 0.7360900044441223, 0.4900893568992615, 0.07472336292266846, 0.00313723087310791, 0.01610565185546875, -0.8583997397227761, -0.09052384942142816, 0.3956776367325224,0.3136789396199436,0.5416107177734375,0.739227294921875,0.506195068359375
20220119-1339,2022-01-19 13:39:13Z,u01, 236,40,movements,el-ex, rt, d,230523.2102017917, 2.357545106008492, -0.8154665495018301, 2.9926512868293207, -0.0510408841073513, -0.5699436664581299, 0.5547780394554138, 0.4840870201587677, 0.7280455231666565, 0.4853964149951935, 0.03820616006851196, 0.011654853820800781, -0.01254183053970337, -0.8572991204604477, -0.08795694819618516, 0.3915277798174033,0.3225024830935514,0.5133819580078125,0.741455078125,0.469757080078125
20220119-1339,2022-01-19 13:39:13Z,u01, 237,40,movements,el-ex, rt, d,230523.23514779168, 2.3309281075705224, -0.8065026044701833, 2.9752244058840778, 0.22241921722888947, -0.5520324110984802, 0.5968015193939209, 0.5015434622764587, 0.7218713164329529, 0.4768185615539551, 0.0034003853797912598, -0.017708778381347656, -0.006497025489807129, -0.8551948158428275, -0.08397083473962508, 0.3895032130391458,0.3314784471098974,0.50494384765625,0.70416259765625,0.4703216552734375
20220119-1339,2022-01-19 13:39:13Z,u01, 238,40,movements,el-ex, rt, d,230523.26009379167, 2.3024286516689894, -0.799600653270982, 2.955000006217196, 0.1575385183095932, -0.5623758435249329, 0.5785278081893921, 0.5186218023300171, 0.7170777916908264, 0.4656505286693573, 0.026422083377838135, 0.012048065662384033, 0.022249042987823486, -0.8523521129692717, -0.07950559524690076, 0.3888849604080865,0.3405041530757498,0.5603790283203125,0.7243804931640625,0.489471435546875
20220119-1339,2022-01-19 13:39:13Z,u01, 239,40,movements,el-ex, rt, d,230523.2850397917, 2.2797275966805297, -0.7890574606794747, 2.9426309392324064, -0.18846186995506287, -0.5580278635025024, 0.5137072801589966, 0.5347675681114197, 0.7096895575523376, 0.4586552381515503, 0.0750347375869751, 0.004971206188201904, 0.024514317512512207, -0.8505770504784803, -0.0764610827445999, 0.38580517648759916,0.34903702007673687,0.60980224609375,0.71466064453125,0.4831695556640625
20220119-1339,2022-01-19 13:39:13Z,u01, 240,40,movements,el-ex, rt, d,230523.30998579168, 2.2613351813529414, -0.7765103039260558, 2.936428216346917, -0.10664312541484833, -0.5397723317146301, 0.48922520875930786, 0.549933910369873, 0.7007942795753479, 0.45437872409820557, 0.03160905838012695, 0.044155001640319824, -0.006884336471557617, -0.8494760519784474, -0.0746980036096686, 0.38107611326632534,0.3571996761385756,0.5779876708984375,0.74163818359375,0.442779541015625
20220119-1339,2022-01-19 13:39:13Z,u01, 241,40,movements,el-ex, rt, d,230523.33493179167, 2.239735419216754, -0.7664359795091589, 2.924078386148393, 0.12413395941257477, -0.5039654970169067, 0.5431008338928223, 0.5651289820671082, 0.6935721635818481, 0.4467507600784302, -0.0047806501388549805, 0.007202744483947754, -0.004856467247009277, -0.8475142305247929, -0.07137934485737302, 0.3784160779949486,0.36527480223132497,0.5603485107421875,0.700775146484375,0.44189453125
20220119-1339,2022-01-19 13:39:14Z,u01, 242,40,movements,el-ex, rt, d,230523.3598777917, 2.2163851298817145, -0.7582810792890963, 2.908488276326495, 0.13895465433597565, -0.5309402942657471, 0.5141183137893677, 0.5799044370651245, 0.6876744627952576, 0.4368229806423187, 0.015737593173980713, 0.00010007619857788086, 0.02785271406173706, -0.8449089617664365, -0.06738199646104154, 0.37718440678208964,0.3732563882325598,0.609130859375,0.694000244140625,0.4597930908203125
20220119-1339,2022-01-19 13:39:14Z,u01, 243,40,movements,el-ex, rt, d,230523.38482379168, 2.1954128849424115, -0.7483101878952342, 2.8976000478160215, -0.10786637663841248, -0.5425035357475281, 0.4971940815448761, 0.5944701433181763, 0.6804013848304749, 0.4285544753074646, 0.05193781852722168, -0.01913130283355713, 0.006397217512130737, -0.8426875386671699, -0.06445889659389858, 0.37453725065594057,0.3813718936856388,0.6464080810546875,0.6612701416015625,0.4349517822265625
20220119-1339,2022-01-19 13:39:14Z,u01, 244,40,movements,el-ex, rt, d,230523.40976979167, 2.1785789689603376, -0.7361307651063532, 2.892428544918739, -0.12863287329673767, -0.5167283415794373, 0.4849768877029419, 0.6083579063415527, 0.6714255809783936, 0.42318806052207947, 0.02689594030380249, 0.00876539945602417, 0.006163567304611206, -0.8412353275049996, -0.06258711691240476, 0.37012082522468925,0.3891226999093687,0.6331787109375,0.682708740234375,0.4219970703125
20220119-1339,2022-01-19 13:39:14Z,u01, 245,40,movements,el-ex, rt, d,230523.4347157917, 2.1594923255569407, -0.7253280510606512, 2.8831231579511662, 0.08466894179582596, -0.4926023781299591, 0.5378838777542114, 0.6223201155662537, 0.6633809804916382, 0.4155036509037018, 0.013574659824371338, -0.004826903343200684, -0.011191606521606445, -0.8391631625464931, -0.059640751438086004, 0.36705607463237794,0.39688534285202404,0.635894775390625,0.6585540771484375,0.4043121337890625
20220119-1339,2022-01-19 13:39:14Z,u01, 246,40,movements,el-ex, rt, d,230523.45966179168, 2.1379393496448005, -0.716053688089134, 2.8698759521716193, 0.14716556668281555, -0.5441660284996033, 0.5217730402946472, 0.6362922787666321, 0.656412661075592, 0.4052833020687103, 0.01621931791305542, -0.02363067865371704, -0.00651019811630249, -0.8363779422331798, -0.05579952919198067, 0.3654097939486005,0.40476418830872707,0.661041259765625,0.6269073486328125,0.4025726318359375
20220119-1339,2022-01-19 13:39:14Z,u01, 247,40,movements,el-ex, rt, d,230523.48460779167, 2.1172469574913477, -0.7056233251489962, 2.859043959542719, -0.06283928453922272, -0.5671583414077759, 0.524238646030426, 0.6503559947013855, 0.6485084295272827, 0.3955674469470978, 0.05484414100646973, -0.02855914831161499, 0.00874444842338562, -0.8336846931107074, -0.05247439644349483, 0.3629523713511448,0.4128943402567653,0.7052001953125,0.6199493408203125,0.4043121337890625
20220119-1339,2022-01-19 13:39:14Z,u01, 248,40,movements,el-ex, rt, d,230523.5095537917, 2.100887996541013, -0.6922649585106381, 2.855668131731641, -0.26387572288513184, -0.5621129870414734, 0.5204364657402039, 0.6641548871994019, 0.6382823586463928, 0.3892214298248291, 0.04237264394760132, -0.02864813804626465, 0.012069284915924072, -0.8318914488403661, -0.05066892200096207, 0.35799162883028995,0.4209882209788251,0.707763671875,0.614776611328125,0.396514892578125
20220119-1339,2022-01-19 13:39:14Z,u01, 249,40,movements,el-ex, rt, d,230523.53449979168, 2.0852774121850177, -0.6786154656485838, 2.8524415711375473, -0.05962728336453438, -0.5279273986816406, 0.5083137154579163, 0.6776716709136963, 0.6277158260345459, 0.38305845856666565, 0.016099631786346436, 0.022216975688934326, -0.008058547973632812, -0.8301590032481457, -0.048633892271919776, 0.3529468674285363,0.42883475153103784,0.6937713623046875,0.649932861328125,0.375
20220119-1339,2022-01-19 13:39:14Z,u01, 250,40,movements,el-ex, rt, d,230523.55944579167, 2.0667704441331023, -0.6675849817211033, 2.8424487351298033, 0.13819444179534912, -0.48966285586357117, 0.5425742268562317, 0.6906924843788147, 0.6190912127494812, 0.37372440099716187, 0.009731709957122803, 0.0041692256927490234, -0.005651950836181641, -0.8275542910309952, -0.04490097372368662, 0.3503751125197508,0.43631992151570076,0.7070465087890625,0.6215362548828125,0.364288330078125
20220119-1339,2022-01-19 13:39:14Z,u01, 251,40,movements,el-ex, rt, d,230523.5843917917, 2.046797232326158, -0.6571399677574161, 2.8306709790927744, 0.08434074372053146, -0.5336437821388245, 0.5406216979026794, 0.7037279009819031, 0.6108549237251282, 0.3627987205982208, 0.03368353843688965, -0.012405335903167725, -0.0011809170246124268, -0.8244609802757026, -0.040785531888725135, 0.34849177503929696,0.44402023964095416,0.7374114990234375,0.59844970703125,0.3616180419921875
20220119-1339,2022-01-19 13:39:14Z,u01, 252,40,movements,el-ex, rt, d,230523.60933779168, 2.028870224210401, -0.6449146180095895, 2.823952178350407, -0.14092803001403809, -0.5793448686599731, 0.5376698970794678, 0.7167633771896362, 0.6011301875114441, 0.35340172052383423, 0.038912951946258545, -0.03266400098800659, -0.000771254301071167, -0.8217462109443759, -0.03786846546686229, 0.3449336129419203,0.45201763851899146,0.759063720703125,0.56243896484375,0.350067138671875
