SessionID,LoggingTime,UID,RecNo,Hertz,Activity,MoveType,Wrist,Side,TimeStamp,DMRoll,DMPitch,DMYaw,DMRotX,DMRotY,DMRotZ,DMGrvX,DMGrvY,DMGrvZ,DMUAccelX,DMUAccelY,DMUAccelZ,DMQuatX,DMQuatY,DMQuatW,DMQuatZ,AccelroX,AceelroY,AceelroZ
20220119-1336,2022-01-19 13:36:37Z,u01, 1,40,movements,el-ex, rt, d,230367.247650625, 1.7986624501067163, -0.41247194162770456, 2.812111283209805, 0.020920855924487114, -0.12031431496143341, 0.18508084118366241, 0.8924515843391418, 0.40087518095970154, 0.20695382356643677, -0.01105797290802002, 0.0480080246925354, 0.060670405626297, -0.7768377662370596, 0.0, 0.2580173070803138,0.574413106391643,0.8850555419921875,0.4492340087890625,0.2632293701171875
20220119-1336,2022-01-19 13:36:37Z,u01, 2,40,movements,el-ex, rt, d,230367.272596625, 1.7952747312227642, -0.4091913590533009, 2.8078938934829925, 0.1607220321893692, -0.01938822865486145, 0.1278604418039322, 0.8944247961044312, 0.3978675901889801, 0.20422090590000153, -0.0265505313873291, 0.02376335859298706, 0.05423271656036377, -0.7759545600245568, 0.0022297040875576823, 0.25802696361554067,0.5755969544037607,0.858612060546875,0.4134063720703125,0.2608642578125
20220119-1336,2022-01-19 13:36:37Z,u01, 3,40,movements,el-ex, rt, d,230367.29754362503, 1.7949496705111432, -0.40790337090696, 2.8053319455337946, 0.022635333240032196, 0.39569300413131714, -0.26054924726486206, 0.8949898481369019, 0.3966856002807617, 0.20404385030269623, -0.07516562938690186, 0.02796652913093567, 0.08195182681083679, -0.775892428379332, 0.0035863838595286412, 0.25829219175030704,0.5755547730501681,0.8847198486328125,0.42864990234375,0.288848876953125
20220119-1336,2022-01-19 13:36:37Z,u01, 4,40,movements,el-ex, rt, d,230367.32248962502, 1.7958711320091696, -0.40739480743950796, 2.8059945575517844, -0.05001523718237877, 0.07409937679767609, 0.012200676836073399, 0.8949981331825256, 0.3962186872959137, 0.20491348206996918, -0.023721158504486084, 0.012457489967346191, 0.04723823070526123, -0.7761724848708008, 0.003607993845242685, 0.2579132901428273,0.5753470077831198,0.860565185546875,0.4141998291015625,0.2498931884765625
20220119-1336,2022-01-19 13:36:37Z,u01, 5,40,movements,el-ex, rt, d,230367.347435625, 1.7985063707759978, -0.4073719497638714, 2.806319838778281, 0.031643740832805634, 0.13571733236312866, -0.01066162995994091, 0.8944637179374695, 0.39619770646095276, 0.20727331936359406, -0.006890475749969482, 0.015576004981994629, 0.05133281648159027, -0.7769311452357965, 0.0038286176536628247, 0.2578064944032026,0.574368564862261,0.899200439453125,0.42169189453125,0.2657470703125
20220119-1336,2022-01-19 13:36:38Z,u01, 6,40,movements,el-ex, rt, d,230367.372382625, 1.8051617788971395, -0.40838084904521454, 2.805619749340902, 0.10370738804340363, 0.20314663648605347, -0.000588822178542614, 0.8926753401756287, 0.3971238434314728, 0.21312880516052246, 0.040918588638305664, 0.015870660543441772, 0.03278210759162903, -0.7788086022465668, 0.004643969221244104, 0.2583641768544706,0.5715625545623088,0.9361572265625,0.4151611328125,0.2450408935546875
20220119-1336,2022-01-19 13:36:38Z,u01, 7,40,movements,el-ex, rt, d,230367.39732862503, 1.8113953028348324, -0.4098976241449373, 2.804282886205971, 0.04561268910765648, 0.21012338995933533, -0.058832086622714996, 0.8907433748245239, 0.3985154330730438, 0.2185453474521637, 0.042011260986328125, 0.025419563055038452, 0.028006434440612793, -0.7805398369253694, 0.005498848670191792, 0.2592888609921936,0.5687677601905338,0.9242706298828125,0.423583984375,0.250579833984375
20220119-1336,2022-01-19 13:36:38Z,u01, 8,40,movements,el-ex, rt, d,230367.42227462502, 1.8173729832769894, -0.4117441409613457, 2.8049241709751405, 0.00024284236133098602, 0.18830151855945587, -0.06162967532873154, 0.8887059688568115, 0.4002082943916321, 0.22368600964546204, 0.016857504844665527, 0.015197038650512695, -0.003486156463623047, -0.7821849505560552, 0.0054502814037146186, 0.25977302404460145,0.5662818671336394,0.899383544921875,0.4180755615234375,0.2240142822265625
20220119-1336,2022-01-19 13:36:38Z,u01, 9,40,movements,el-ex, rt, d,230367.447221625, 1.8225045756007094, -0.41331099155703976, 2.8044298714849374, 0.08355703949928284, 0.21562927961349487, -0.05398267135024071, 0.8869381546974182, 0.4016437232494354, 0.22808709740638733, -0.0029810667037963867, 0.012388408184051514, 0.010911613702774048, -0.7835876504163697, 0.005825990764958877, 0.26047855314141877,0.5640103388339542,0.8875732421875,0.4136810302734375,0.2479248046875
20220119-1336,2022-01-19 13:36:38Z,u01, 10,40,movements,el-ex, rt, d,230367.472167625, 1.8275343939752542, -0.41506780096878687, 2.8014565265288844, 0.16282020509243011, 0.2780783176422119, -0.060837846249341965, 0.8850956559181213, 0.403251975774765, 0.23236574232578278, 0.012960433959960938, 0.001853644847869873, 0.0034895986318588257, -0.784940998854531, 0.007106398055434282, 0.2619505220710085,0.5614260273338895,0.9004669189453125,0.4053802490234375,0.2339935302734375
20220119-1336,2022-01-19 13:36:38Z,u01, 11,40,movements,el-ex, rt, d,230367.49711362502, 1.833674535497264, -0.41803136984894973, 2.798522555511326, 0.07608573883771896, 0.2824401259422302, -0.1041295975446701, 0.8824944496154785, 0.40596213936805725, 0.23748436570167542, 0.026197195053100586, 0.0057811737060546875, 0.002139836549758911, -0.7865594047108517, 0.00815408687065522, 0.2638492044959713,0.5582486993549866,0.902099609375,0.4065704345703125,0.2412567138671875
20220119-1336,2022-01-19 13:36:38Z,u01, 12,40,movements,el-ex, rt, d,230367.52206062502, 1.8402848628302195, -0.42103583378568604, 2.7991011442766376, -0.05806060880422592, 0.25571396946907043, -0.13950037956237793, 0.8797256350517273, 0.40870603919029236, 0.24298688769340515, -0.006144523620605469, 0.00021436810493469238, 0.01828959584236145, -0.7883091846870243, 0.007878660087623224, 0.26477977340317205,0.5553363121567031,0.867767333984375,0.4125213623046875,0.262481689453125
20220119-1336,2022-01-19 13:36:38Z,u01, 13,40,movements,el-ex, rt, d,230367.547006625, 1.8484483374832856, -0.42407762227701956, 2.8029804873397404, -0.1358208805322647, 0.2795884609222412, -0.16867497563362122, 0.8765131235122681, 0.41148027777671814, 0.24981841444969177, -0.011446475982666016, 0.013370245695114136, 0.01931631565093994, -0.7904852689304669, 0.006499914256653527, 0.26481155871842244,0.552237114377249,0.8739776611328125,0.434906005859375,0.2714080810546875
20220119-1336,2022-01-19 13:36:38Z,u01, 14,40,movements,el-ex, rt, d,230367.571953625, 1.8584022833562683, -0.42763271653728857, 2.8078400935454755, -0.10672688484191895, 0.3611428141593933, -0.20567898452281952, 0.8725746273994446, 0.4147178530693054, 0.2581140398979187, 0.02456587553024292, 0.04426655173301697, 0.03131493926048279, -0.7931165309419469, 0.004815037375204945, 0.264778119156778,0.5484848283223954,0.9018402099609375,0.4640655517578125,0.29345703125
20220119-1336,2022-01-19 13:36:38Z,u01, 15,40,movements,el-ex, rt, d,230367.596899625, 1.8699963615549628, -0.4321806414164246, 2.8120362595249984, -0.11375652998685837, 0.42599645256996155, -0.23817747831344604, 0.8677122592926025, 0.41885194182395935, 0.2676544785499573, 0.03827846050262451, 0.033159226179122925, 0.0437471866607666, -0.7961257793023114, 0.003313813308124691, 0.2653201392171788,0.5438548879244978,0.893157958984375,0.451568603515625,0.3193206787109375
20220119-1336,2022-01-19 13:36:38Z,u01, 16,40,movements,el-ex, rt, d,230367.62184562502, 1.8832036643767394, -0.4372836131159321, 2.8171303185271754, -0.10230094194412231, 0.45899727940559387, -0.26766425371170044, 0.8620565533638, 0.42348024249076843, 0.27843040227890015, -0.013530373573303223, 0.035321176052093506, 0.03527525067329407, -0.7995079230894264, 0.0015101380644324536, 0.2658554057004123,0.538614799392554,0.8401947021484375,0.4649505615234375,0.3150482177734375
20220119-1336,2022-01-19 13:36:38Z,u01, 17,40,movements,el-ex, rt, d,230367.64679262502, 1.896332415960164, -0.4431113824360182, 2.8216614098740602, -0.08725624531507492, 0.4317253828048706, -0.2847447991371155, 0.8559738397598267, 0.42875242233276367, 0.2889295220375061, -0.025560081005096436, 0.04008913040161133, 0.029048651456832886, -0.8027855787857334, -0.00028350499396029294, 0.2668521312792013,0.5332215507798556,0.82855224609375,0.4590911865234375,0.319061279296875
20220119-1336,2022-01-19 13:36:38Z,u01, 18,40,movements,el-ex, rt, d,230367.671738625, 1.9097072802265742, -0.4489434747113536, 2.8278711018094476, -0.1771080642938614, 0.4428156018257141, -0.3094412684440613, 0.8496605753898621, 0.4340139329433441, 0.29951557517051697, -0.01907867193222046, 0.022986918687820435, 0.019652873277664185, -0.8060709980329248, -0.002707494143468492, 0.26744243184770716,0.5279365949038968,0.831939697265625,0.45977783203125,0.3155059814453125
20220119-1336,2022-01-19 13:36:38Z,u01, 19,40,movements,el-ex, rt, d,230367.69668391667, 1.9241911063331332, -0.455282423473012, 2.8344146919363227, -0.06680113822221756, 0.5003324151039124, -0.3192614018917084, 0.8426352143287659, 0.4397159814834595, 0.31083160638809204, -0.004347741603851318, 0.018200337886810303, 0.003347158432006836, -0.8095604909188121, -0.005254960653720109, 0.268187518005362,0.5221684012027585,0.8387298583984375,0.4627227783203125,0.3191070556640625
20220119-1336,2022-01-19 13:36:38Z,u01, 20,40,movements,el-ex, rt, d,230367.72163091667, 1.9383948599320537, -0.4630348880244026, 2.8370946071953216, 0.08651597797870636, 0.5373189449310303, -0.33390533924102783, 0.8349290490150452, 0.4466654658317566, 0.3215336799621582, -0.006788730621337891, 0.022389769554138184, 0.0039365291595458984, -0.8128483605541601, -0.006661744764822675, 0.2705259988672351,0.5157994034613844,0.821990966796875,0.4710845947265625,0.3267669677734375
20220119-1336,2022-01-19 13:36:38Z,u01, 21,40,movements,el-ex, rt, d,230367.7465769167, 1.9520093538751149, -0.47183451603723475, 2.838246317076159, 0.05437392368912697, 0.503459095954895, -0.36816176772117615, 0.8267937898635864, 0.454521119594574, 0.3313954472541809, -0.01560598611831665, 0.006248593330383301, 0.007868647575378418, -0.8158658359498434, -0.00778849552922195, 0.27368936388434106,0.5093098763461228,0.810455322265625,0.458160400390625,0.3524169921875
20220119-1336,2022-01-19 13:36:38Z,u01, 22,40,movements,el-ex, rt, d,230367.77152291668, 1.9666507019324566, -0.4804607424963224, 2.844041151148475, -0.18971210718154907, 0.46234333515167236, -0.42369240522384644, 0.8182052373886108, 0.462187796831131, 0.3419402837753296, 0.032945454120635986, 0.0037241876125335693, 0.0351351797580719, -0.8190593160910884, -0.010582299406147244, 0.27564619215297503,0.5030399870299309,0.8642578125,0.475250244140625,0.383026123046875
20220119-1336,2022-01-19 13:36:38Z,u01, 23,40,movements,el-ex, rt, d,230367.79646991668, 1.9837213968481462, -0.4880052360345803, 2.8556342134646173, -0.2559841573238373, 0.48953932523727417, -0.43953388929367065, 0.8090319037437439, 0.46886491775512695, 0.354447603225708, 0.07715272903442383, 0.04389140009880066, 0.02929583191871643, -0.8227976771333244, -0.015092633410580258, 0.2758102505333266,0.496693978857304,0.8793792724609375,0.529541015625,0.3820648193359375
20220119-1336,2022-01-19 13:36:38Z,u01, 24,40,movements,el-ex, rt, d,230367.82141591667, 2.001094450839264, -0.49666226585903966, 2.8644160947707773, -0.005906129255890846, 0.5774335265159607, -0.45075878500938416, 0.7990334630012512, 0.4764937460422516, 0.3667418956756592, 0.030159711837768555, 0.07350936532020569, 0.014667004346847534, -0.826451112471964, -0.018694975368025113, 0.27720001241415454,0.4896828859095278,0.8179779052734375,0.54827880859375,0.3864593505859375
20220119-1336,2022-01-19 13:36:38Z,u01, 25,40,movements,el-ex, rt, d,230367.8463619167, 2.018351179402884, -0.5080698578682685, 2.868651500561185, 0.05709131062030792, 0.6312288045883179, -0.5183149576187134, 0.787634551525116, 0.4864918291568756, 0.37809836864471436, 0.007852137088775635, 0.06067323684692383, 0.03756672143936157, -0.8298206436350496, -0.021139694650132435, 0.2808584691287867,0.4817360594967033,0.787750244140625,0.5433807373046875,0.4374237060546875
20220119-1336,2022-01-19 13:36:38Z,u01, 26,40,movements,el-ex, rt, d,230367.87130891668, 2.0389325997141396, -0.5197296017406395, 2.8773985659938717, -0.20229192078113556, 0.6598495244979858, -0.5940523743629456, 0.7745715379714966, 0.496645450592041, 0.3916415572166443, 0.01784813404083252, 0.03625267744064331, 0.07211920619010925, -0.8337842262884751, -0.02499298011225093, 0.2836479666183753,0.4729940569238094,0.7927398681640625,0.539276123046875,0.4591217041015625
20220119-1336,2022-01-19 13:36:38Z,u01, 27,40,movements,el-ex, rt, d,230367.89625491668, 2.0634079213797594, -0.5303893591264298, 2.8921000603624347, -0.24636676907539368, 0.7148405313491821, -0.6267215013504028, 0.7600466012954712, 0.5058692693710327, 0.40795305371284485, 0.030572235584259033, 0.05594414472579956, 0.032629430294036865, -0.8384800076945294, -0.03045996904560544, 0.28481791172715193,0.463575570426942,0.78118896484375,0.5692901611328125,0.4400787353515625
20220119-1336,2022-01-19 13:36:38Z,u01, 28,40,movements,el-ex, rt, d,230367.9212009167, 2.089186611481931, -0.5427077093079857, 2.9053827693326415, -0.06926380097866058, 0.8080396056175232, -0.6653693318367004, 0.7438092231750488, 0.5164565443992615, 0.42428839206695557, 0.03222227096557617, 0.0600358247756958, 0.02808910608291626, -0.8431384120686007, -0.03552203532364312, 0.2871768968908125,0.4531945298982972,0.7764434814453125,0.5741119384765625,0.45977783203125
20220119-1336,2022-01-19 13:36:38Z,u01, 29,40,movements,el-ex, rt, d,230367.9461479167, 2.1156716059143266, -0.5571823735533592, 2.915786880317652, 0.008854340761899948, 0.8895821571350098, -0.6937833428382874, 0.7258433103561401, 0.5287968516349792, 0.43991631269454956, 0.041963934898376465, 0.034206926822662354, 0.035883694887161255, -0.8475731956186485, -0.03972198232660351, 0.29124060283377584,0.44183831210264585,0.762176513671875,0.539581298828125,0.478759765625
20220119-1336,2022-01-19 13:36:38Z,u01, 30,40,movements,el-ex, rt, d,230367.97109391668, 2.1448884164847, -0.5711344746854858, 2.9279083771505743, -0.07715088129043579, 0.933051586151123, -0.6903679370880127, 0.7064178586006165, 0.5405868291854858, 0.45688071846961975, 0.04301762580871582, 0.007325887680053711, 0.03364372253417969, -0.8523520257501698, -0.0440044147295896, 0.2949347572779352,0.4296198595463868,0.7435150146484375,0.55322265625,0.486419677734375
20220119-1336,2022-01-19 13:36:38Z,u01, 31,40,movements,el-ex, rt, d,230367.99604091668, 2.1747100478619696, -0.5850979204968215, 2.9403266430427393, 0.024277936667203903, 0.9228163957595825, -0.6830739378929138, 0.6862005591392517, 0.5522810220718384, 0.4734082520008087, 0.05092120170593262, 0.024379372596740723, -0.006260037422180176, -0.8569599936454069, -0.04820465264125556, 0.2987662657796691,0.4171749046269093,0.7215728759765625,0.5811309814453125,0.45928955078125
20220119-1336,2022-01-19 13:36:38Z,u01, 32,40,movements,el-ex, rt, d,230368.02098691667, 2.2026392168637865, -0.6003345525531797, 2.9480046813947793, 0.29313740134239197, 0.9487044811248779, -0.606643795967102, 0.665844202041626, 0.564918577671051, 0.4873587191104889, 0.06518900394439697, 0.0013045668601989746, -0.021965503692626953, -0.860870184939933, -0.05081230035968992, 0.3042228223601759,0.4046839538924155,0.7321929931640625,0.567535400390625,0.4675750732421875
20220119-1336,2022-01-19 13:36:38Z,u01, 33,40,movements,el-ex, rt, d,230368.0459329167, 2.2277421231151258, -0.6177168201945783, 2.951094333997958, 0.2755057215690613, 0.9205473065376282, -0.6211139559745789, 0.6455276012420654, 0.5791754126548767, 0.49784547090530396, 0.07816624641418457, -0.010678708553314209, 0.0026429593563079834, -0.8638279913723754, -0.05219138522908651, 0.31152543016847556,0.39246557134463395,0.72369384765625,0.524932861328125,0.526153564453125
20220119-1336,2022-01-19 13:36:38Z,u01, 34,40,movements,el-ex, rt, d,230368.0708799167, 2.2573290919552655, -0.6305179770071485, 2.963128355133584, -0.21198496222496033, 0.8798246383666992, -0.655688464641571, 0.6247315406799316, 0.5895631909370422, 0.511982262134552, 0.08120101690292358, -0.05748927593231201, 0.036052584648132324, -0.8677003640172278, -0.055562668918678615, 0.3153823166232105,0.38018797067600096,0.706268310546875,0.5499420166015625,0.5379486083984375
20220119-1336,2022-01-19 13:36:38Z,u01, 35,40,movements,el-ex, rt, d,230368.09582591668, 2.2889982827820528, -0.6400000681561219, 2.980630218880546, -0.1256229728460312, 0.8379290103912354, -0.6606982350349426, 0.6039704084396362, 0.5971955060958862, 0.5278047919273376, 0.08578789234161377, -0.00599360466003418, -0.01346123218536377, -0.8719415157121446, -0.06016955608641594, 0.31704241540298217,0.36821451286308676,0.657623291015625,0.605194091796875,0.529083251953125
20220119-1336,2022-01-19 13:36:38Z,u01, 36,40,movements,el-ex, rt, d,230368.12077191667, 2.3194505018646243, -0.651265267758046, 2.995590070998639, -0.0011547175236046314, 0.8816553354263306, -0.6592987775802612, 0.5826541781425476, 0.6061931848526001, 0.5413357019424438, 0.03488427400588989, 0.008140981197357178, -0.0061945319175720215, -0.8755302493455551, -0.06414534000109812, 0.32008985625903574,0.3561948294330284,0.612518310546875,0.6209869384765625,0.5449371337890625
20220119-1336,2022-01-19 13:36:38Z,u01, 37,40,movements,el-ex, rt, d,230368.14571891667, 2.3511489147785927, -0.6629866492636554, 3.0104689584132878, -0.025387020781636238, 0.930439829826355, -0.6859047412872314, 0.560116708278656, 0.6154735684394836, 0.5544928312301636, 0.04355156421661377, -0.0017648935317993164, 0.004848897457122803, -0.8790000301545576, -0.0678627572195401, 0.32357190387936635,0.3435913823493188,0.596435546875,0.60791015625,0.5514984130859375
20220119-1336,2022-01-19 13:36:38Z,u01, 38,40,movements,el-ex, rt, d,230368.1706649167, 2.3844783599291532, -0.6739570223434017, 3.0259798796605586, -0.018678218126296997, 0.9449000358581543, -0.6539400815963745, 0.5366581678390503, 0.6240827441215515, 0.5679079294204712, 0.05252945423126221, 0.003145158290863037, -0.01685166358947754, -0.8825339836400956, -0.07132833985806747, 0.3268656655272282,0.3304619268761284,0.5781707763671875,0.629974365234375,0.554534912109375
20220119-1336,2022-01-19 13:36:38Z,u01, 39,40,movements,el-ex, rt, d,230368.19561091668, 2.418492005009129, -0.685397234746843, 3.042055143300776, 0.02801518514752388, 0.9844661951065063, -0.6632570028305054, 0.512276828289032, 0.6329805850982666, 0.5804384350776672, 0.04135787487030029, -0.011947691440582275, -0.010995328426361084, -0.885782649263098, -0.07488875693588032, 0.3304902172892843,0.31710759556702645,0.564300537109375,0.62335205078125,0.5700225830078125
20220119-1336,2022-01-19 13:36:38Z,u01, 40,40,movements,el-ex, rt, d,230368.22055791668, 2.4526121379445374, -0.6965426487334627, 3.0573056203085205, 0.017194561660289764, 0.9386304020881653, -0.64755779504776, 0.4876621961593628, 0.6415694952011108, 0.5920935273170471, 0.07091629505157471, -0.018995583057403564, -0.016119718551635742, -0.8888093249660316, -0.07787649783278189, 0.334311729592064,0.30362657573432145,0.558258056640625,0.6096343994140625,0.577301025390625
20220119-1336,2022-01-19 13:36:38Z,u01, 41,40,movements,el-ex, rt, d,230368.24550391667, 2.487262226348302, -0.7049918711827251, 3.074906670898332, -0.16797426342964172, 0.9134461879730225, -0.5968312621116638, 0.46354153752326965, 0.6480276584625244, 0.6043093204498291, 0.07094332575798035, -0.05420130491256714, -0.011230528354644775, -0.891937150774292, -0.08125755143258645, 0.33680142637764443,0.2905344084373674,0.522705078125,0.6142578125,0.6014556884765625
20220119-1336,2022-01-19 13:36:38Z,u01, 42,40,movements,el-ex, rt, d,230368.2704499167, 2.5221481494518905, -0.7102767563997293, 3.093936054300525, -0.15112709999084473, 0.8773555755615234, -0.5828052163124084, 0.4401874244213104, 0.6520436406135559, 0.6173124313354492, 0.062498122453689575, -0.020390689373016357, -0.030215024948120117, -0.8952575457757931, -0.0846766398625915, 0.337889811795015,0.2778028292920109,0.50311279296875,0.63330078125,0.5857086181640625
20220119-1336,2022-01-19 13:36:38Z,u01, 43,40,movements,el-ex, rt, d,230368.29539691668, 2.555123597823836, -0.7157383808293827, 3.1113115359782193, -0.08083769679069519, 0.8758398294448853, -0.5157744288444519, 0.4176185131072998, 0.6561747789382935, 0.6285139918327332, 0.0704796314239502, -0.014954626560211182, -0.026890277862548828, -0.8980938235398607, -0.08766120396067584, 0.3393876729801144,0.2656296994261791,0.4771270751953125,0.6448516845703125,0.6143646240234375
20220119-1336,2022-01-19 13:36:38Z,u01, 44,40,movements,el-ex, rt, d,230368.32034291668, 2.586572661982817, -0.7217205240095794, 3.126709384985321, -0.03791496157646179, 0.8466870784759521, -0.5245608687400818, 0.3955734372138977, 0.6606771945953369, 0.6379870772361755, 0.06437221169471741, -0.012895822525024414, -0.009340107440948486, -0.9004931155265, -0.09003162242207402, 0.34146859430030907,0.2537828225440713,0.4589691162109375,0.643798828125,0.6284942626953125
20220119-1336,2022-01-19 13:36:38Z,u01, 45,40,movements,el-ex, rt, d,230368.3452889167, 2.6171372124702414, -0.7263390449847671, -3.140921034444132, -0.1407165378332138, 0.8030597567558289, -0.4966368079185486, 0.37436020374298096, 0.6641371250152588, 0.647130012512207, 0.056014031171798706, -0.03692430257797241, -0.010258257389068604, -0.9027893375918064, -0.0923927212062301, 0.34301345472668665,0.2424397858721295,0.4110565185546875,0.6366119384765625,0.642303466796875
20220119-1336,2022-01-19 13:36:39Z,u01, 46,40,movements,el-ex, rt, d,230368.3702359167, 2.648837122015192, -0.7276086477553743, -3.1229916887487756, -0.2753158509731293, 0.7949918508529663, -0.4667693078517914, 0.3532622158527374, 0.6650857329368591, 0.6579262614250183, 0.04561769962310791, -0.020081520080566406, 0.0032526254653930664, -0.9054822568830396, -0.09521028623581695, 0.34295202266453173,0.23112950409408392,0.39923095703125,0.6469879150390625,0.6519012451171875
20220119-1336,2022-01-19 13:36:39Z,u01, 47,40,movements,el-ex, rt, d,230368.39518191668, 2.6797001082803438, -0.7276450518012557, -3.1056306973460956, -0.15221038460731506, 0.7511445879936218, -0.44774413108825684, 0.3327809274196625, 0.6651129126548767, 0.6684923768043518, 0.06065165996551514, -0.010266721248626709, -0.033528149127960205, -0.9081199749538886, -0.09779725639683767, 0.3424991874400931,0.22010961707950494,0.3757171630859375,0.6547393798828125,0.6262359619140625
20220119-1336,2022-01-19 13:36:39Z,u01, 48,40,movements,el-ex, rt, d,230368.42012791667, 2.7081429048125787, -0.7317710573281104, -3.0918889453589764, 0.06331704556941986, 0.7525771856307983, -0.4336465895175934, 0.3124798536300659, 0.6681883335113525, 0.6751897931098938, 0.05403620004653931, -0.02098667621612549, -0.029666423797607422, -0.909769443923734, -0.09957135094636937, 0.3443092188346655,0.20941928337449467,0.368255615234375,0.6420135498046875,0.6430511474609375
20220119-1336,2022-01-19 13:36:39Z,u01, 49,40,movements,el-ex, rt, d,230368.44507491667, 2.7352398433708056, -0.7367377755799952, -3.0796815661039525, -0.041533298790454865, 0.7865003347396851, -0.37731611728668213, 0.29275643825531006, 0.6718752980232239, 0.6803512573242188, 0.054319947957992554, -0.053711116313934326, -0.026542365550994873, -0.9110398617825046, -0.10090590713128261, 0.3466919800113161,0.19907085648904366,0.3385009765625,0.6106719970703125,0.6747283935546875
20220119-1336,2022-01-19 13:36:39Z,u01, 50,40,movements,el-ex, rt, d,230368.4700209167, 2.763119096791755, -0.7372331833970485, -3.0661480271402457, -0.1777113676071167, 0.7222678661346436, -0.3546755313873291, 0.27355441451072693, 0.6722421050071716, 0.6879382729530334, 0.07027184963226318, -0.050064921379089355, -0.02555394172668457, -0.9129660674139761, -0.10228436315220923, 0.3470233032012934,0.1886951445911606,0.34136962890625,0.6280517578125,0.661376953125
20220119-1336,2022-01-19 13:36:39Z,u01, 51,40,movements,el-ex, rt, d,230368.49496691668, 2.78870969037396, -0.7373284722352274, -3.054437983020105, -0.05568647012114525, 0.69403076171875, -0.30621013045310974, 0.25583991408348083, 0.6723126769065857, 0.6946526169776917, 0.08458366990089417, -0.024241268634796143, -0.05663663148880005, -0.9146999580087645, -0.10320033490511377, 0.3473051584338408,0.17903353154832147,0.33062744140625,0.6487579345703125,0.6407012939453125
20220119-1336,2022-01-19 13:36:39Z,u01, 52,40,movements,el-ex, rt, d,230368.51991391668, 2.812004333511706, -0.7395872148047239, -3.04460540622793, 0.005097685381770134, 0.6511187553405762, -0.301618754863739, 0.2390981912612915, 0.6739830374717712, 0.6989848017692566, 0.064780592918396, -0.02490454912185669, -0.04131537675857544, -0.9158146605637829, -0.10380700753927308, 0.3486926288959292,0.1700626142309482,0.3003692626953125,0.6506500244140625,0.6627655029296875
20220119-1336,2022-01-19 13:36:39Z,u01, 53,40,movements,el-ex, rt, d,230368.54485991667, 2.834481429174178, -0.7411701045711141, -3.0354557033796947, -0.07124395668506622, 0.6519307494163513, -0.2959110736846924, 0.22300517559051514, 0.675151526927948, 0.7031642198562622, 0.06526385247707367, -0.017451822757720947, -0.01647251844406128, -0.9169129408619361, -0.10417655602265391, 0.3498331345041952,0.16135338032608798,0.272186279296875,0.6624298095703125,0.685699462890625
20220119-1336,2022-01-19 13:36:39Z,u01, 54,40,movements,el-ex, rt, d,230368.5698059167, 2.857204035728585, -0.7410236723552948, -3.024945460100083, -0.09313929826021194, 0.5846366286277771, -0.2904775142669678, 0.20699897408485413, 0.675043523311615, 0.7081443071365356, 0.04583911597728729, -0.0071967244148254395, -0.029616117477416992, -0.9181744316897114, -0.10501363332369185, 0.3501284840924641,0.15276808941202175,0.2478790283203125,0.672271728515625,0.674835205078125
20220119-1336,2022-01-19 13:36:39Z,u01, 55,40,movements,el-ex, rt, d,230368.5947529167, 2.8777236381578355, -0.7420362225023376, -3.015857361548983, -0.008145947940647602, 0.5573294162750244, -0.2603168785572052, 0.19224712252616882, 0.6757901906967163, 0.7115818858146667, 0.0316755473613739, 0.006933748722076416, -0.03219938278198242, -0.9190376443194299, -0.10564449856733127, 0.35100089616163554,0.14493951843029096,0.209320068359375,0.69287109375,0.6786956787109375
20220119-1336,2022-01-19 13:36:39Z,u01, 56,40,movements,el-ex, rt, d,230368.61969891668, 2.8984785266772355, -0.7421877654831189, -3.0064535233376866, -0.13286833465099335, 0.5818783640861511, -0.26669228076934814, 0.17741331458091736, 0.6759018898010254, 0.715319037437439, 0.04315240681171417, -0.002455294132232666, 0.004209339618682861, -0.9199746934299105, -0.10633002163401561, 0.3515079513685687,0.13704997252986584,0.2295379638671875,0.6755828857421875,0.7227935791015625
20220119-1336,2022-01-19 13:36:39Z,u01, 57,40,movements,el-ex, rt, d,230368.64464591668, 2.919260384281675, -0.7410024892303256, -2.9968880692941147, -0.038195960223674774, 0.569744884967804, -0.2941272556781769, 0.1626870483160019, 0.6750279068946838, 0.7196325659751892, 0.04321505129337311, 0.006597638130187988, 0.020342648029327393, -0.9210648878716792, -0.107031561525127, 0.35143078910243625,0.12915236563963853,0.175079345703125,0.69586181640625,0.751068115234375
20220119-1336,2022-01-19 13:36:39Z,u01, 58,40,movements,el-ex, rt, d,230368.66959191667, 2.941464451168079, -0.7425395391253372, -2.986161679032858, -0.05485459417104721, 0.6270365715026855, -0.3418809771537781, 0.14646302163600922, 0.6761611104011536, 0.7220492959022522, 0.02545769512653351, 0.039125144481658936, 0.0644041895866394, -0.921593693968255, -0.10811898479711923, 0.3526672418399683,0.12083582191330024,0.18817138671875,0.7105560302734375,0.7931060791015625
20220119-1336,2022-01-19 13:36:39Z,u01, 59,40,movements,el-ex, rt, d,230368.694537875, 2.9641724895973653, -0.7399213894643719, -2.974421017001488, -0.2597162425518036, 0.5873331427574158, -0.32295647263526917, 0.13034237921237946, 0.6742298603057861, 0.7269290089607239, 0.05639465153217316, 0.022272944450378418, 0.018066465854644775, -0.9227588904087356, -0.10945557335212475, 0.35200341293844906,0.11238030141394525,0.15643310546875,0.69671630859375,0.712646484375
20220119-1336,2022-01-19 13:36:39Z,u01, 60,40,movements,el-ex, rt, d,230368.719484875, 2.987594510274304, -0.7361391342882943, -2.9617615943664566, -0.130446657538414, 0.6096891164779663, -0.3641403913497925, 0.11367237567901611, 0.6714317798614502, 0.732296884059906, 0.0029504895210266113, 0.040589213371276855, -0.03632783889770508, -0.9240160082128933, -0.11109835980470983, 0.350854925397153,0.10369473501863705,0.115386962890625,0.7114410400390625,0.7019805908203125
20220119-1336,2022-01-19 13:36:39Z,u01, 61,40,movements,el-ex, rt, d,230368.74443087503, 3.011321142747997, -0.7351921486466467, -2.9498223692779777, -0.07631498575210571, 0.6342517137527466, -0.32829001545906067, 0.09634961932897568, 0.6707296967506409, 0.7354176044464111, 0.012186095118522644, 0.02751260995864868, 0.023432791233062744, -0.9246981840024946, -0.1124370082776931, 0.3511484785125232,0.0947951415993703,0.110198974609375,0.6597442626953125,0.76507568359375
20220119-1336,2022-01-19 13:36:39Z,u01, 62,40,movements,el-ex, rt, d,230368.76937687502, 3.0343185910887223, -0.7341696934390021, -2.9385613971624456, -0.11001638323068619, 0.6323336362838745, -0.3379272222518921, 0.07948626577854156, 0.6699709892272949, 0.7381199598312378, 0.023815684020519257, 0.0027890801429748535, 0.027505218982696533, -0.9252869963112582, -0.1135955612383533, 0.3514637441786258,0.08610069386796776,0.1063079833984375,0.6689605712890625,0.7555694580078125
20220119-1336,2022-01-19 13:36:39Z,u01, 63,40,movements,el-ex, rt, d,230368.79432387502, 3.0583065777670044, -0.7290692378920545, -2.92597381301079, -0.41500556468963623, 0.6140113472938538, -0.3392460346221924, 0.06204257905483246, 0.6661757826805115, 0.7432101368904114, 0.05352742224931717, -0.01906561851501465, 0.035644590854644775, -0.9264633080730187, -0.1151990118901936, 0.3499521623833783,0.07699757921803438,0.110382080078125,0.6243133544921875,0.7528533935546875
20220119-1336,2022-01-19 13:36:39Z,u01, 64,40,movements,el-ex, rt, d,230368.819269875, 3.081707377416571, -0.7177326073567083, -2.9136445575706995, -0.4422851502895355, 0.643806517124176, -0.3562109172344208, 0.04508456960320473, 0.6576783657073975, 0.7519488334655762, 0.033727020025253296, -0.00556337833404541, -0.04194188117980957, -0.9286081987357155, -0.11688126387075948, 0.3455899768405993,0.06777377043756563,0.084381103515625,0.663421630859375,0.712249755859375
20220119-1336,2022-01-19 13:36:39Z,u01, 65,40,movements,el-ex, rt, d,230368.84421587503, 3.1039371762128676, -0.71308303015057, -2.90262929687398, 0.01701243594288826, 0.5951123237609863, -0.32386380434036255, 0.028473956510424614, 0.6541687250137329, 0.75581294298172, 0.04194527864456177, 0.02135324478149414, -0.031035423278808594, -0.9294804250018822, -0.11820576145920197, 0.3443824951329007,0.05911364189535617,0.0464935302734375,0.6801910400390625,0.726226806640625
20220119-1336,2022-01-19 13:36:39Z,u01, 66,40,movements,el-ex, rt, d,230368.86916287502, 3.1243768837430417, -0.7161661665632821, -2.8936717040609707, 0.10024900734424591, 0.5839642882347107, -0.27356627583503723, 0.01298569981008768, 0.6564975380897522, 0.7542164325714111, 0.021789012476801872, -0.03264200687408447, -0.028386235237121582, -0.9289763959559584, -0.1187900229306682, 0.3467805529010963,0.05133275691763653,0.03955078125,0.6139678955078125,0.7229156494140625
20220119-1336,2022-01-19 13:36:39Z,u01, 67,40,movements,el-ex, rt, d,230368.894108875, -3.1403465972038225, -0.7155974638212148, -2.8859232311059357, -0.13837945461273193, 0.5031316876411438, -0.18502797186374664, -0.0009404002921655774, 0.6560684442520142, 0.7547008395195007, 0.05631446838378906, -0.08949446678161621, -0.05145364999771118, -0.9290546678635401, -0.11919664950246955, 0.3474299024583687,0.04406875244897024,0.0307464599609375,0.557586669921875,0.6937713623046875
20220119-1336,2022-01-19 13:36:39Z,u01, 68,40,movements,el-ex, rt, d,230368.919054875, -3.125240509650235, -0.7103382165115156, -2.8808936423596236, -0.23737624287605286, 0.4551888704299927, -0.13799981772899628, -0.01239668857306242, 0.6520902514457703, 0.7580402493476868, 0.02899816632270813, -0.07544535398483276, -0.09431320428848267, -0.9299722482439949, -0.1190451816251667, 0.3457836469419435,0.037598468983052274,0.0259246826171875,0.5788116455078125,0.6520233154296875
20220119-1336,2022-01-19 13:36:39Z,u01, 69,40,movements,el-ex, rt, d,230368.944001875, -3.113949402329144, -0.7074624841776616, -2.8782331022898786, 0.09431281685829163, 0.3087548017501831, -0.06363170593976974, -0.021006572991609573, 0.6499072909355164, 0.7597233057022095, 0.046992212533950806, -0.05348700284957886, -0.13557767868041992, -0.9305053202650284, -0.11841241527893903, 0.3450711009640582,0.03262465596302225,0.012786865234375,0.6058807373046875,0.594451904296875
20220119-1336,2022-01-19 13:36:39Z,u01, 70,40,movements,el-ex, rt, d,230368.96894787502, -3.107378520677446, -0.7157058096253642, -2.876680726229168, 0.5019224286079407, 0.13791683316230774, -0.025915151461958885, -0.0258139967918396, 0.656150221824646, 0.7541890144348145, 0.033199161291122437, -0.025351762771606445, -0.16815972328186035, -0.9291020164905228, -0.11774527786033295, 0.3492610830136973,0.030370017964286122,0.0129241943359375,0.6212005615234375,0.5941619873046875
20220119-1336,2022-01-19 13:36:39Z,u01, 71,40,movements,el-ex, rt, d,230368.993893875, -3.1052897670623656, -0.7259217943257503, -2.876029552992943, 0.19556723535060883, -0.005819156765937805, 0.027842219918966293, -0.027144525200128555, 0.6638250946998596, 0.7473950982093811, 0.05432037264108658, -0.07950514554977417, -0.09729427099227905, -0.9273211638349622, -0.11735849237664897, 0.35410693430301815,0.03017853385689978,0.0359344482421875,0.5597076416015625,0.6535797119140625
20220119-1336,2022-01-19 13:36:39Z,u01, 72,40,movements,el-ex, rt, d,230369.018840875, -3.109457412142517, -0.7257353444625191, -2.8784734705123127, -0.1201653927564621, -0.17972058057785034, 0.12024892121553421, -0.024033406749367714, 0.66368567943573, 0.7476257085800171, 0.062485456466674805, -0.08256983757019043, -0.131353497505188, -0.9274325731437639, -0.11696873405063146, 0.3538142380077638,0.03166645321519837,0.035064697265625,0.5960235595703125,0.60833740234375
20220119-1336,2022-01-19 13:36:39Z,u01, 73,40,movements,el-ex, rt, d,230369.043786875, -3.119160900388402, -0.7256427475217974, -2.883947452691362, 0.1385848969221115, -0.28758159279823303, 0.1982688158750534, -0.016779189929366112, 0.663616418838501, 0.7478851675987244, 0.03862971067428589, -0.046978116035461426, -0.15523362159729004, -0.9276056228272108, -0.11614819545528626, 0.3532973344405389,0.0351930301378828,0.023834228515625,0.6328125,0.5955352783203125
20220119-1336,2022-01-19 13:36:39Z,u01, 74,40,movements,el-ex, rt, d,230369.06873287502, -3.132668877109678, -0.7329385096737854, -2.8919399354223585, 0.39454594254493713, -0.3698429763317108, 0.26595884561538696, -0.006632171105593443, 0.6690564751625061, 0.7431825399398804, 0.05253055691719055, -0.016483664512634277, -0.118105947971344, -0.9265242336886694, -0.11464782562267056, 0.3560484126731995,0.04047826211188327,0.050201416015625,0.6544189453125,0.6328887939453125
20220119-1336,2022-01-19 13:36:39Z,u01, 75,40,movements,el-ex, rt, d,230369.09367987502, 3.1334129576876575, -0.7423202769575833, -2.901688671576279, 0.2707856595516205, -0.4770703911781311, 0.30894148349761963, 0.006027569528669119, 0.6759995222091675, 0.7368776798248291, 0.06289631128311157, -0.057377636432647705, -0.09521484375, -0.9250256953198538, -0.11298805578351884, 0.35963149048994364,0.04718555170556879,0.08209228515625,0.6077117919921875,0.6323394775390625
20220119-1336,2022-01-19 13:36:39Z,u01, 76,40,movements,el-ex, rt, d,230369.118625875, 3.1112271569885537, -0.7475467715137626, -2.9138807833321914, 0.20784257352352142, -0.6205829381942749, 0.3898870646953583, 0.022265402600169182, 0.6798416972160339, 0.7330213785171509, 0.0660981610417366, -0.07402175664901733, -0.12947481870651245, -0.9241923885039668, -0.11126147976659462, 0.36111917695755613,0.05552020940714278,0.0832672119140625,0.615447998046875,0.6018829345703125
20220119-1336,2022-01-19 13:36:39Z,u01, 77,40,movements,el-ex, rt, d,230369.143571875, 3.083397715109008, -0.7547503496789931, -2.929606909808872, 0.38240793347358704, -0.7162017226219177, 0.4804948568344116, 0.04236779361963272, 0.6851068139076233, 0.7272102236747742, 0.033910851925611496, -0.06003028154373169, -0.13590115308761597, -0.9228926647598046, -0.10896893299385457, 0.3633971704117463,0.06586128610286382,0.080841064453125,0.64300537109375,0.6273956298828125
20220119-1336,2022-01-19 13:36:39Z,u01, 78,40,movements,el-ex, rt, d,230369.16851887503, 3.0509668589374024, -0.7623787969355407, -2.9491299670258155, 0.2645634412765503, -0.761017382144928, 0.5896924734115601, 0.0654505044221878, 0.6906437277793884, 0.7202278971672058, 0.05558217316865921, -0.06301909685134888, -0.016736328601837158, -0.9213608327905398, -0.10586860841874846, 0.3658834580524853,0.07756008598513237,0.1303863525390625,0.6040802001953125,0.7216644287109375
20220119-1336,2022-01-19 13:36:39Z,u01, 79,40,movements,el-ex, rt, d,230369.19346487502, 3.0148147899614983, -0.765421024489643, -2.971915266625992, 0.1257798969745636, -0.8598006367683411, 0.6845839023590088, 0.0911736786365509, 0.6928406357765198, 0.7153037786483765, 0.062085531651973724, -0.12751775979995728, -0.02836817502975464, -0.9204585144922357, -0.10201966991302397, 0.36636634325376816,0.09013270032258397,0.1726226806640625,0.56732177734375,0.6439361572265625
20220119-1336,2022-01-19 13:36:39Z,u01, 80,40,movements,el-ex, rt, d,230369.218410875, 2.9746582590506065, -0.7659581117672425, -2.9978543163894855, 0.2037857472896576, -0.9112622737884521, 0.7564540505409241, 0.11975480616092682, 0.6932278275489807, 0.7107003331184387, 0.07783123850822449, -0.03621464967727661, -0.06725198030471802, -0.919703312746312, -0.09744728275530129, 0.36587014161720444,0.10387094633682828,0.200592041015625,0.6768798828125,0.6506195068359375
20220119-1336,2022-01-19 13:36:39Z,u01, 81,40,movements,el-ex, rt, d,230369.243357875, 2.932320033310715, -0.7708543051331833, -3.0255567555160696, 0.4207252264022827, -0.9301992654800415, 0.7167313694953918, 0.14902137219905853, 0.6967483162879944, 0.7016662359237671, 0.05808615684509277, 0.020323455333709717, -0.011373341083526611, -0.9177424705255715, -0.0926383681285578, 0.36765753582810484,0.11830103042938073,0.210845947265625,0.729949951171875,0.710540771484375
20220119-1336,2022-01-19 13:36:39Z,u01, 82,40,movements,el-ex, rt, d,230369.26830387503, 2.8906145700869508, -0.7755654163840068, -3.0519102634354724, 0.24810722470283508, -0.922791063785553, 0.6747018694877625, 0.17732925713062286, 0.7001199126243591, 0.6916548013687134, 0.04509802162647247, -0.006074011325836182, 0.023158490657806396, -0.9154254405473465, -0.08845149200780345, 0.3695922693388837,0.13256744650367439,0.2248077392578125,0.6868133544921875,0.7136993408203125
20220119-1336,2022-01-19 13:36:39Z,u01, 83,40,movements,el-ex, rt, d,230369.29325087502, 2.8506850535725095, -0.7738791362788662, -3.0754406116996518, 0.03360968828201294, -0.9503450393676758, 0.6664113998413086, 0.2051364630460739, 0.6989148855209351, 0.6851551532745361, 0.029635220766067505, -0.006715059280395508, -0.0016374588012695312, -0.9139793754253391, -0.08496630418315876, 0.3687281194830597,0.1464996912724872,0.2419281005859375,0.7000274658203125,0.6616363525390625
20220119-1336,2022-01-19 13:36:39Z,u01, 84,40,movements,el-ex, rt, d,230369.318196875, 2.809997832765496, -0.7712544110711548, -3.09950533468965, 0.2564283311367035, -0.9380152821540833, 0.6968218684196472, 0.2334323674440384, 0.6970352530479431, 0.6779758930206299, 0.01447710394859314, 0.025315821170806885, -0.04574304819107056, -0.9123482407246771, -0.08129350536428392, 0.36768248414998533,0.1606912541561289,0.2470550537109375,0.73876953125,0.658172607421875
20220119-1336,2022-01-19 13:36:39Z,u01, 85,40,movements,el-ex, rt, d,230369.343142875, 2.7681642830102584, -0.7741803193379245, -3.126275953956843, 0.3919723629951477, -0.8976070284843445, 0.6545177102088928, 0.26083698868751526, 0.6991302371025085, 0.6657187938690186, 0.0028348565101623535, 0.07337653636932373, 0.03763532638549805, -0.9093536331706278, -0.07704128439530122, 0.3696070541485944,0.17473234243774444,0.282806396484375,0.7752685546875,0.7232818603515625
20220119-1336,2022-01-19 13:36:40Z,u01, 86,40,movements,el-ex, rt, d,230369.368089875, 2.730230650116932, -0.7737474774872795, 3.133873782211772, 0.030429508537054062, -0.8406751751899719, 0.5657721757888794, 0.28601744771003723, 0.6988207101821899, 0.6556251645088196, 0.05246827006340027, 0.047425806522369385, 0.10612446069717407, -0.9068638004365607, -0.07355700692890155, 0.37006963789431047,0.18771278868697833,0.3524169921875,0.7459716796875,0.74884033203125
20220119-1336,2022-01-19 13:36:40Z,u01, 87,40,movements,el-ex, rt, d,230369.39303587502, 2.697516797838256, -0.7663956383058493, 3.1178596722678256, -0.10251495987176895, -0.8652556538581848, 0.5058380365371704, 0.3095075190067291, 0.6935431361198425, 0.6505411267280579, 0.057786792516708374, 0.0571742057800293, 0.04562622308731079, -0.9056183651834497, -0.07159570755007622, 0.36710746313265796,0.19990438243950467,0.3538055419921875,0.7611236572265625,0.6604766845703125
20220119-1336,2022-01-19 13:36:40Z,u01, 88,40,movements,el-ex, rt, d,230369.417981875, 2.664393566047839, -0.7617805855103826, 3.1004894071132347, 0.25861024856567383, -0.815879762172699, 0.5145037174224854, 0.33234840631484985, 0.6902109980583191, 0.6427706480026245, -0.020397692918777466, 0.06264251470565796, -0.009408414363861084, -0.9036494281784458, -0.06930397012309553, 0.3656479345168584,0.21193512352722949,0.30718994140625,0.7465362548828125,0.6404876708984375
20220119-1336,2022-01-19 13:36:40Z,u01, 89,40,movements,el-ex, rt, d,230369.442928875, 2.631487732801261, -0.7638736377215831, 3.080548681574205, 0.316599041223526, -0.7173190116882324, 0.4430406093597412, 0.35260942578315735, 0.6917240023612976, 0.6302263736724854, -0.03447887301445007, 0.0778685212135315, 0.09366625547409058, -0.9003771645534734, -0.06658941957877157, 0.3676375645928043,0.22300153505240786,0.364013671875,0.7561492919921875,0.7486419677734375
20220119-1336,2022-01-19 13:36:40Z,u01, 90,40,movements,el-ex, rt, d,230369.467874875, 2.6037090003659205, -0.7612602341913949, 3.06558009349195, -0.08896595984697342, -0.6879425644874573, 0.36941418051719666, 0.3709028363227844, 0.6898343563079834, 0.6217396855354309, 0.05924239754676819, 0.03424108028411865, 0.09987926483154297, -0.8981606135525768, -0.0646324323558039, 0.3672659111584031,0.23290790412990808,0.428619384765625,0.7274627685546875,0.7136077880859375
20220119-1336,2022-01-19 13:36:40Z,u01, 91,40,movements,el-ex, rt, d,230369.49282087502, 2.5818143574185233, -0.7536845699569598, 3.0577007875624864, -0.07218698412179947, -0.6382237672805786, 0.3451879322528839, 0.38718950748443604, 0.6843301057815552, 0.617881178855896, 0.026995033025741577, 0.059093475341796875, 0.060799479484558105, -0.8971246991775517, -0.06409253035569806, 0.3641265399470389,0.24180868170248945,0.3946685791015625,0.7491607666015625,0.644256591796875
20220119-1336,2022-01-19 13:36:40Z,u01, 92,40,movements,el-ex, rt, d,230369.51776787502, 2.558369806687027, -0.7507332731682166, 3.045947260280867, 0.21546131372451782, -0.5889281034469604, 0.3600292205810547, 0.40267834067344666, 0.6821750998497009, 0.6103180050849915, -0.03533819317817688, 0.028289496898651123, 0.0008578896522521973, -0.8951145620299846, -0.06268114340305231, 0.36352107348099505,0.2503870372802091,0.367523193359375,0.700408935546875,0.613555908203125
20220119-1336,2022-01-19 13:36:40Z,u01, 93,40,movements,el-ex, rt, d,230369.542713875, 2.533966785780803, -0.7509368646813189, 3.0308943816356573, 0.22022543847560883, -0.5705379247665405, 0.3436875343322754, 0.41737109422683716, 0.6823239326477051, 0.6001964211463928, -0.023419737815856934, 0.008395671844482422, 0.06472080945968628, -0.8924386880747586, -0.06042676860905127, 0.36477516364866985,0.25853622476498184,0.420867919921875,0.6816253662109375,0.6809844970703125
20220119-1336,2022-01-19 13:36:40Z,u01, 94,40,movements,el-ex, rt, d,230369.567659875, 2.5133095335332793, -0.7475750546016657, 3.0212058108500788, -0.11379564553499222, -0.5363266468048096, 0.2857867479324341, 0.43102553486824036, 0.6798624396324158, 0.593299925327301, 0.02982044219970703, -0.00919276475906372, 0.08028441667556763, -0.8905762447413783, -0.059362609256008725, 0.36395065148507366,0.26625213683840465,0.469451904296875,0.6737518310546875,0.6653900146484375
20220119-1336,2022-01-19 13:36:40Z,u01, 95,40,movements,el-ex, rt, d,230369.59260687503, 2.4970738236181163, -0.7401668498157489, 3.0168510958281485, -0.11312133073806763, -0.5342400074005127, 0.27021098136901855, 0.4436146914958954, 0.6744111180305481, 0.5902338624000549, 0.040577203035354614, 0.009380996227264404, 0.03359144926071167, -0.8897252768239243, -0.059210269592917975, 0.36081112964982265,0.27331028375370375,0.4756317138671875,0.695159912109375,0.598236083984375
20220119-1336,2022-01-19 13:36:40Z,u01, 96,40,movements,el-ex, rt, d,230369.61755287502, 2.4785602688668766, -0.7367117748068285, 3.0087788979710823, 0.1624821424484253, -0.4943368434906006, 0.2915192246437073, 0.45589718222618103, 0.6718560457229614, 0.5837536454200745, -0.016428649425506592, 0.015247523784637451, 1.7523765563964844e-05, -0.887955957354728, -0.058404124071448904, 0.3598743280551026,0.28038185037443436,0.439117431640625,0.6808319091796875,0.58526611328125
20220119-1336,2022-01-19 13:36:40Z,u01, 97,40,movements,el-ex, rt, d,230369.642498875, 2.457973944794988, -0.7360114279161395, 2.9963708491304226, 0.1848745048046112, -0.4962112307548523, 0.29229119420051575, 0.4681137204170227, 0.6713371276855469, 0.5746095180511475, -0.01556861400604248, -0.01629263162612915, 0.03316342830657959, -0.8855015538162407, -0.056495527537043344, 0.36073943115783014,0.2873366143442986,0.4628448486328125,0.650634765625,0.6213226318359375
20220119-1336,2022-01-19 13:36:40Z,u01, 98,40,movements,el-ex, rt, d,230369.667445875, 2.439021750498528, -0.7325783924230314, 2.9867281639287966, -0.03931262344121933, -0.5057306289672852, 0.3062611222267151, 0.48040568828582764, 0.6687887907028198, 0.5673907995223999, 0.02864280343055725, -0.03347373008728027, 0.0271986722946167, -0.8835517924772625, -0.05506027065899333, 0.36012604218166566,0.29430247650236563,0.5103912353515625,0.636688232421875,0.58465576171875
20220119-1336,2022-01-19 13:36:40Z,u01, 99,40,movements,el-ex, rt, d,230369.69239241668, 2.422805686500442, -0.7259233658303462, 2.9810198030020127, -0.0793970599770546, -0.49527132511138916, 0.31707891821861267, 0.4924631118774414, 0.6638262867927551, 0.5628638863563538, 0.024367451667785645, -0.011955320835113525, -0.003857731819152832, -0.882318055916641, -0.054284241981375714, 0.3576593945389108,0.30107830676482816,0.5281524658203125,0.6595611572265625,0.547698974609375
20220119-1336,2022-01-19 13:36:40Z,u01, 100,40,movements,el-ex, rt, d,230369.71733841667, 2.40446037126842, -0.7206725372674715, 2.9720221377310727, 0.12506003677845, -0.5121310949325562, 0.34008002281188965, 0.5050413012504578, 0.6598901152610779, 0.5563080906867981, 0.009698688983917236, -0.0067986249923706055, -0.014254570007324219, -0.8805577741474261, -0.05265033436220823, 0.35627958092437184,0.308076207580207,0.5125274658203125,0.6547088623046875,0.542877197265625
20220119-1336,2022-01-19 13:36:40Z,u01, 101,40,movements,el-ex, rt, d,230369.7422854167, 2.3839516001703434, -0.7175387632958203, 2.959753861136975, 0.17277219891548157, -0.527037501335144, 0.37301725149154663, 0.5177619457244873, 0.6575323343276978, 0.5473335385322571, 0.00981062650680542, -0.01632744073867798, 0.0014185309410095215, -0.8781420814472122, -0.05033142398664875, 0.3563207784540398,0.31522816354607347,0.5445556640625,0.6203460693359375,0.5424652099609375
20220119-1336,2022-01-19 13:36:40Z,u01, 102,40,movements,el-ex, rt, d,230369.76723141668, 2.363442994694179, -0.7128484702902631, 2.949223365722529, -0.030142195522785187, -0.5290924906730652, 0.34776508808135986, 0.5310364365577698, 0.6539912819862366, 0.5387911796569824, 0.010650575160980225, -0.04026752710342407, 0.005016982555389404, -0.8758116021257968, -0.04847302930132863, 0.3554947692642931,0.3228435335484225,0.5514984130859375,0.620086669921875,0.5353240966796875
20220119-1336,2022-01-19 13:36:40Z,u01, 103,40,movements,el-ex, rt, d,230369.79217741668, 2.345788458458043, -0.7052247237545989, 2.942588509307638, -0.059846993535757065, -0.5366876125335693, 0.36963891983032227, 0.5440117120742798, 0.6482049822807312, 0.532805860042572, 0.03199237585067749, -0.009441375732421875, -0.01951521635055542, -0.874170368524332, -0.04721346574166896, 0.35291937482038493,0.3302198323769397,0.5825958251953125,0.6481475830078125,0.5163421630859375
20220119-1336,2022-01-19 13:36:40Z,u01, 104,40,movements,el-ex, rt, d,230369.81712441667, 2.3268966426103335, -0.6985226165144587, 2.933635583833773, 0.06909767538309097, -0.5019996762275696, 0.41816940903663635, 0.5571277141571045, 0.6430870294570923, 0.525402843952179, 0.03616452217102051, 0.01178973913192749, 0.022189557552337646, -0.8721523463348391, -0.04529567027346737, 0.35114290488148436,0.3376349484455564,0.596588134765625,0.65045166015625,0.5517578125
20220119-1336,2022-01-19 13:36:40Z,u01, 105,40,movements,el-ex, rt, d,230369.8420704167, 2.3070532101059484, -0.6925115729865677, 2.922769881752491, 0.06500306725502014, -0.4998595714569092, 0.39127975702285767, 0.5702974200248718, 0.6384721994400024, 0.5168314576148987, 0.020065248012542725, 0.005998194217681885, 0.01557856798171997, -0.8698175074290639, -0.0428162542740716, 0.35002986546989573,0.34505590796489244,0.586669921875,0.6385040283203125,0.5271759033203125
20220119-1336,2022-01-19 13:36:40Z,u01, 106,40,movements,el-ex, rt, d,230369.86701641668, 2.2885214719687488, -0.68597232731265, 2.9130446821975395, 0.04421323165297508, -0.5040397047996521, 0.38363805413246155, 0.582909345626831, 0.6334257125854492, 0.5089096426963806, 0.014426469802856445, -0.003252863883972168, -0.010481119155883789, -0.8676505664928342, -0.04046379767865349, 0.34859969479299624,0.35216980881640225,0.5963287353515625,0.6332244873046875,0.49432373046875
20220119-1336,2022-01-19 13:36:40Z,u01, 107,40,movements,el-ex, rt, d,230369.89196341668, 2.269625560404797, -0.6788972087760343, 2.9035875509977886, 0.053767018020153046, -0.5290499925613403, 0.42481526732444763, 0.5958372354507446, 0.6279351711273193, 0.5006754398345947, 0.0058168768882751465, -0.006368279457092285, -0.010471343994140625, -0.8653801746619447, -0.03814296622954555, 0.3469608419498227,0.35955611434865,0.6070404052734375,0.6319427490234375,0.5030364990234375
20220119-1336,2022-01-19 13:36:40Z,u01, 108,40,movements,el-ex, rt, d,230369.91690941667, 2.250025020043902, -0.6722039103239205, 2.8934212914788766, 0.09413158148527145, -0.48234888911247253, 0.40405163168907166, 0.608792245388031, 0.6227119565010071, 0.4915306270122528, 0.01040947437286377, 0.02571040391921997, 0.05095016956329346, -0.8628394200666211, -0.03568534935545492, 0.3456687031653929,0.36708038300937884,0.633758544921875,0.6424713134765625,0.5452117919921875
20220119-1336,2022-01-19 13:36:40Z,u01, 109,40,movements,el-ex, rt, d,230369.9418554167, 2.232326897299017, -0.6655949425206737, 2.8839174599662316, 0.05305109918117523, -0.4878760874271393, 0.3766971528530121, 0.6206294298171997, 0.617527186870575, 0.4831974506378174, 0.07134139537811279, 0.010951876640319824, 0.04780864715576172, -0.8605220871043754, -0.03317324100427482, 0.34439615503889776,0.3738886637171427,0.7027435302734375,0.61309814453125,0.511138916015625
20220119-1336,2022-01-19 13:36:40Z,u01, 110,40,movements,el-ex, rt, d,230369.9668024167, 2.2158755668039882, -0.6580996002935238, 2.876343318338584, -0.03846517205238342, -0.5117716789245605, 0.35874277353286743, 0.6321751475334167, 0.611614465713501, 0.4756920635700226, 0.04069173336029053, 0.00630563497543335, 0.015564978122711182, -0.8584184574396854, -0.031044866014142136, 0.3424802146614223,0.3806067253386415,0.647308349609375,0.6341552734375,0.4915008544921875
20220119-1336,2022-01-19 13:36:40Z,u01, 111,40,movements,el-ex, rt, d,230369.99174841668, 2.199997269879432, -0.6507658466196017, 2.869071407193966, 0.09033188968896866, -0.472358375787735, 0.3644644618034363, 0.6432572603225708, 0.6057959198951721, 0.4682215452194214, -0.04370903968811035, 0.03618711233139038, 0.013483285903930664, -0.856313436265469, -0.02894947519974783, 0.3406360679411697,0.3871127614790192,0.595062255859375,0.6331024169921875,0.462615966796875
20220119-1336,2022-01-19 13:36:40Z,u01, 112,40,movements,el-ex, rt, d,230370.01669441667, 2.1824821974792608, -0.6450922445248816, 2.8588564999371293, 0.1580655574798584, -0.4873548448085785, 0.358417809009552, 0.6541624069213867, 0.6012721657752991, 0.4588499069213867, -0.02072441577911377, 0.013504445552825928, -0.014529109001159668, -0.8536607946243803, -0.026233693676901426, 0.3400770418638859,0.3936020830069586,0.6440277099609375,0.6121673583984375,0.4376678466796875
20220119-1336,2022-01-19 13:36:40Z,u01, 113,40,movements,el-ex, rt, d,230370.04164141667, 2.1636773861443426, -0.6396702211825784, 2.848871922227092, 0.06952444463968277, -0.5047701597213745, 0.36810627579689026, 0.6653691530227661, 0.5969309210777283, 0.4482834041118622, -0.0005589127540588379, -0.01232081651687622, -0.020335078239440918, -0.8506300010236871, -0.02388105398728263, 0.3396280095381439,0.40063865085179634,0.682342529296875,0.568359375,0.441680908203125
20220119-1336,2022-01-19 13:36:40Z,u01, 114,40,movements,el-ex, rt, d,230370.0665874167, 2.147777026028241, -0.6317326451194956, 2.8439016832065533, -0.11135685443878174, -0.5263730883598328, 0.34835025668144226, 0.6763623952865601, 0.5905439257621765, 0.44021832942962646, 0.03092825412750244, -0.02575504779815674, 0.0074290931224823, -0.8482931773693053, -0.022535364758162313, 0.3372490696661748,0.4076199407072327,0.711761474609375,0.571502685546875,0.4429168701171875
20220119-1336,2022-01-19 13:36:40Z,u01, 115,40,movements,el-ex, rt, d,230370.09153341668, 2.1320778426659204, -0.6231503132436212, 2.839338170943895, 0.015364238992333412, -0.5092299580574036, 0.39090976119041443, 0.687455415725708, 0.5835962295532227, 0.43222808837890625, 0.028380274772644043, -0.0020073652267456055, -0.002189338207244873, -0.8459714348243408, -0.02112768554693628, 0.3345705988572306,0.41466695383786417,0.7149658203125,0.5753173828125,0.4244232177734375
20220119-1336,2022-01-19 13:36:40Z,u01, 116,40,movements,el-ex, rt, d,230370.11648041668, 2.1144629658331153, -0.6156728890953401, 2.831400996740353, 0.0799306184053421, -0.5302649140357971, 0.4065425992012024, 0.6986772418022156, 0.5775079727172852, 0.42229780554771423, 0.023277223110198975, -0.02584153413772583, -0.014399468898773193, -0.8430857726420805, -0.018848958997169374, 0.3330662741263998,0.42180354492747524,0.7281036376953125,0.54425048828125,0.4063720703125
20220119-1336,2022-01-19 13:36:40Z,u01, 117,40,movements,el-ex, rt, d,230370.14142641667, 2.0967414233820616, -0.6069153852601796, 2.823968460115588, -0.035924047231674194, -0.5468318462371826, 0.4399442970752716, 0.7103976607322693, 0.5703364610671997, 0.41237372159957886, 0.02562534809112549, -0.040200233459472656, -0.01071631908416748, -0.8401883796440581, -0.016442137100125986, 0.33100983797059,0.42923865291460706,0.7430572509765625,0.5282440185546875,0.4017486572265625
20220119-1336,2022-01-19 13:36:40Z,u01, 118,40,movements,el-ex, rt, d,230370.1663724167, 2.080259621365422, -0.595693720510515, 2.819673502676537, -0.1342555582523346, -0.5704852342605591, 0.4962368905544281, 0.722639262676239, 0.5610831379890442, 0.40370553731918335, 0.03679060935974121, -0.04373389482498169, -0.007160007953643799, -0.8376416325539258, -0.014465807147667431, 0.3273713851096518,0.4370070781991837,0.7646331787109375,0.51458740234375,0.39691162109375
20220119-1336,2022-01-19 13:36:40Z,u01, 119,40,movements,el-ex, rt, d,230370.19131941668, 2.0634924506636474, -0.5830453494621989, 2.814285885675993, -0.009677798487246037, -0.5195794105529785, 0.5473663210868835, 0.7355009317398071, 0.550568699836731, 0.39485833048820496, 0.04387235641479492, -0.03546231985092163, 0.005730926990509033, -0.8350410983162642, -0.011641507283387698, 0.323463076030413,0.4449075154088915,0.78533935546875,0.5180511474609375,0.4007720947265625
20220119-1336,2022-01-19 13:36:40Z,u01, 120,40,movements,el-ex, rt, d,230370.21626541668, 2.0456684036636847, -0.5717510474018973, 2.8047035281590875, 0.12679578363895416, -0.5000637173652649, 0.5620212554931641, 0.747904360294342, 0.5411054491996765, 0.38450539112091064, 0.047460079193115234, -0.018995344638824463, 0.007554173469543457, -0.83198315531345, -0.007531613237378387, 0.3210949401069459,0.4523776068653116,0.7949981689453125,0.5196990966796875,0.3901214599609375
20220119-1336,2022-01-19 13:36:40Z,u01, 121,40,movements,el-ex, rt, d,230370.2412114167, 2.027397557084829, -0.5602884648482215, 2.7939918036758886, 0.08650442212820053, -0.5213516354560852, 0.5497316122055054, 0.7603219151496887, 0.5314306020736694, 0.3734874427318573, 0.027428507804870605, -0.010815799236297607, 0.007768899202346802, -0.8286948420348583, -0.002929980703098578, 0.3190171491701929,0.4598745403195324,0.788665771484375,0.5170135498046875,0.374420166015625
20220119-1336,2022-01-19 13:36:40Z,u01, 122,40,movements,el-ex, rt, d,230370.2661584167, 2.0098681609543543, -0.5478153071835516, 2.786033671774571, -0.03951548784971237, -0.5541720390319824, 0.5890389084815979, 0.7726916074752808, 0.5208234786987305, 0.36289241909980774, 0.01731693744659424, -0.020258784294128418, 0.00052642822265625, -0.8254969741320805, 0.0009755035030467596, 0.3160131830631825,0.46764258407312603,0.785369873046875,0.5041046142578125,0.35406494140625
20220119-1336,2022-01-19 13:36:40Z,u01, 123,40,movements,el-ex, rt, d,230370.29110441668, 1.9927788629695407, -0.5344082833984373, 2.780619221614454, -0.00020247045904397964, -0.5895599722862244, 0.5604524612426758, 0.7850800156593323, 0.5093319416046143, 0.35246366262435913, -0.009536802768707275, 0.026663601398468018, -0.01982179284095764, -0.8223223294810625, 0.00422193317113706, 0.3121337521932832,0.47575284708969645,0.773895263671875,0.5472412109375,0.3231048583984375
20220119-1336,2022-01-19 13:36:40Z,u01, 124,40,movements,el-ex, rt, d,230370.31605041667, 1.9726979349267033, -0.5231410123943897, 2.7704132157289973, 0.26711487770080566, -0.6178932785987854, 0.5497937798500061, 0.7972303628921509, 0.4996035099029541, 0.33885204792022705, 0.007121682167053223, 0.06430044770240784, -0.02702316641807556, -0.818141107604706, 0.008434849446699755, 0.31031859973387443,0.4840212490613114,0.810638427734375,0.5587158203125,0.31353759765625
20220119-1336,2022-01-19 13:36:40Z,u01, 125,40,movements,el-ex, rt, d,230370.34099741667, 1.9506203313429926, -0.5131167151538234, 2.75734053843859, 0.1906978040933609, -0.6244013905525208, 0.5409117341041565, 0.8091270923614502, 0.49089497327804565, 0.32301056385040283, 0.010437726974487305, 0.03376328945159912, 0.011508196592330933, -0.8132227589195825, 0.01319162265531304, 0.309809063481761,0.4924562947127675,0.831787109375,0.5007476806640625,0.3359222412109375
20220119-1336,2022-01-19 13:36:41Z,u01, 126,40,movements,el-ex, rt, d,230370.3659434167, 1.931992940061149, -0.5016183747690102, 2.749554580377952, -0.04407505318522453, -0.5739710330963135, 0.5209051370620728, 0.8202294707298279, 0.4808451533317566, 0.3098577857017517, 0.048209309577941895, -0.013620972633361816, 0.04010272026062012, -0.8091026132014195, 0.01678831297304989, 0.30753213001365154,0.500494971775033,0.87945556640625,0.4554595947265625,0.3316802978515625
20220119-1336,2022-01-19 13:36:41Z,u01, 127,40,movements,el-ex, rt, d,230370.39088941668, 1.9158681767443781, -0.48952170707088194, 2.746117600391028, -0.011617678217589855, -0.5776395797729492, 0.4688533544540405, 0.8305322527885437, 0.47020381689071655, 0.29853785037994385, 0.01980966329574585, 0.00471082329750061, 0.005417346954345703, -0.8055425859754575, 0.019237245276087944, 0.3039929495837274,0.508251373381001,0.815521240234375,0.5224609375,0.3003387451171875
20220119-1336,2022-01-19 13:36:41Z,u01, 128,40,movements,el-ex, rt, d,230370.41583641668, 1.8983304385256954, -0.47972508730449864, 2.7382991177988725, 0.1974991261959076, -0.5212645530700684, 0.44513458013534546, 0.8399612307548523, 0.4615353047847748, 0.2853952944278717, -0.031367480754852295, 0.049496859312057495, 0.019338220357894897, -0.8013654485305769, 0.022606743761385273, 0.3025117968963789,0.5155473058803197,0.822479248046875,0.4987335205078125,0.3213043212890625
20220119-1336,2022-01-19 13:36:41Z,u01, 129,40,movements,el-ex, rt, d,230370.44078241667, 1.882794233487093, -0.4706070042598678, 2.7322293564169264, -0.0425194688141346, -0.4948740005493164, 0.3988421857357025, 0.8482636213302612, 0.45342737436294556, 0.2735920250415802, 0.01729118824005127, 0.01771828532218933, 0.0667860209941864, -0.7975904623955463, 0.025406057535024174, 0.3008815906065913,0.5221822838715725,0.883270263671875,0.462127685546875,0.3355865478515625
20220119-1336,2022-01-19 13:36:41Z,u01, 130,40,movements,el-ex, rt, d,230370.4657284167, 1.8716426655272214, -0.4603378498503252, 2.732478689066338, -0.17548108100891113, -0.4105478525161743, 0.36769044399261475, 0.8556640148162842, 0.44425082206726074, 0.2654815912246704, 0.01579594612121582, 0.018136322498321533, 0.0729433000087738, -0.7950010071868105, 0.026724329898171917, 0.29715714255874554,0.5281637095527407,0.863037109375,0.47222900390625,0.3243865966796875
20220119-1336,2022-01-19 13:36:41Z,u01, 131,40,movements,el-ex, rt, d,230370.4906754167, 1.8624229113057442, -0.45124691231557396, 2.73230711271934, 0.03723568469285965, -0.34066951274871826, 0.3373703062534332, 0.8619080781936646, 0.436087965965271, 0.2587319314479828, -0.02288818359375, 0.07978123426437378, 0.024990200996398926, -0.7928253322011054, 0.028177372902818687, 0.29396878349435207,0.5331196542572688,0.8425750732421875,0.5329437255859375,0.248626708984375
20220119-1336,2022-01-19 13:36:41Z,u01, 132,40,movements,el-ex, rt, d,230370.51562141668, 1.8504167149256314, -0.44518376361605666, 2.7248040463960606, 0.27160611748695374, -0.3737110197544098, 0.279092937707901, 0.8674776554107666, 0.43062373995780945, 0.24909044802188873, -0.0017091035842895508, 0.09554514288902283, 0.014505386352539062, -0.7896646097736509, 0.031225444343782827, 0.2939224316201037,0.5376471850439718,0.873748779296875,0.5104217529296875,0.2776641845703125
20220119-1336,2022-01-19 13:36:41Z,u01, 133,40,movements,el-ex, rt, d,230370.54056741667, 1.8376447410375103, -0.4401618598808921, 2.718137999188532, 0.05521811544895172, -0.4056227505207062, 0.24152708053588867, 0.8726633191108704, 0.426085889339447, 0.2385583072900772, 0.0063193440437316895, 0.031098008155822754, 0.07140898704528809, -0.7862289771234241, 0.03351341613652059, 0.29408951471023415,0.5424319328758412,0.873199462890625,0.42938232421875,0.312652587890625
20220119-1336,2022-01-19 13:36:41Z,u01, 134,40,movements,el-ex, rt, d,230370.56551441667, 1.8282932859852632, -0.43455193941197884, 2.7181473520934825, -0.15352970361709595, -0.33887606859207153, 0.18884427845478058, 0.8771535754203796, 0.4210040271282196, 0.2309923768043518, -0.012498974800109863, -0.012373626232147217, 0.052470430731773376, -0.7838042009673676, 0.03386980075441243, 0.29219818691303684,0.5469224154666601,0.8660736083984375,0.411590576171875,0.27093505859375
20220119-1336,2022-01-19 13:36:41Z,u01, 135,40,movements,el-ex, rt, d,230370.5904604167, 1.8216910751240303, -0.42924944711509494, 2.7208552575880076, -0.06579819321632385, -0.2914823293685913, 0.17880243062973022, 0.8808097243309021, 0.41618844866752625, 0.22574733197689056, -0.004710972309112549, 0.017969965934753418, 0.008704185485839844, -0.782145708451345, 0.03349263198480407, 0.2896360808108293,0.5506700256450013,0.8804931640625,0.4579620361328125,0.2202606201171875
20220119-1336,2022-01-19 13:36:41Z,u01, 136,40,movements,el-ex, rt, d,230370.61540641668, 1.813328941992474, -0.42529900433662743, 2.716998200641491, 0.21931354701519012, -0.24813705682754517, 0.19389742612838745, 0.8842556476593018, 0.41259315609931946, 0.2187671959400177, 0.013769865036010742, 0.02252650260925293, 0.038297876715660095, -0.7798444432469885, 0.035017789889232265, 0.2894097968879521,0.5539480951176846,0.90289306640625,0.4184417724609375,0.264373779296875
20220119-1336,2022-01-19 13:36:41Z,u01, 137,40,movements,el-ex, rt, d,230370.64035341667, 1.8054018173718709, -0.42123736699739917, 2.7103895841295076, 0.1685711294412613, -0.17054559290409088, 0.228633850812912, 0.8875846266746521, 0.4088899791240692, 0.2121385931968689, 0.024982571601867676, -0.03201308846473694, 0.08316491544246674, -0.7775905280797888, 0.03771297038044358, 0.2899193363365374,0.556666480072885,0.9084625244140625,0.36614990234375,0.286285400390625
20220119-1336,2022-01-19 13:36:41Z,u01, 138,40,movements,el-ex, rt, d,230370.6652994167, 1.8000292583228001, -0.4163627915642993, 2.7054069033660517, 0.11002669483423233, -0.10490299761295319, 0.24180231988430023, 0.8906421661376953, 0.4044366776943207, 0.2078174352645874, 0.002027750015258789, -0.0008110404014587402, 0.04892721772193909, -0.7760647845995123, 0.04040013851857588, 0.2896556304637985,0.558740665057935,0.892486572265625,0.40380859375,0.2477569580078125
20220119-1336,2022-01-19 13:36:41Z,u01, 139,40,movements,el-ex, rt, d,230370.6902455, 1.795900650744888, -0.4111192358448046, 2.701949595262416, 0.01382130291312933, -0.11742870509624481, 0.20514702796936035, 0.8935473561286926, 0.39963555335998535, 0.20460909605026245, -0.0010149478912353516, -0.010780513286590576, 0.010082364082336426, -0.7749020687666595, 0.04279403478417315, 0.28882142485406526,0.5606048469929106,0.892242431640625,0.3958740234375,0.2332305908203125
20220119-1336,2022-01-19 13:36:41Z,u01, 140,40,movements,el-ex, rt, d,230370.7151925, 1.7929402919804427, -0.40711037166456737, 2.702646408968523, -0.10581953823566437, -0.1313294768333435, 0.10609222203493118, 0.8957048058509827, 0.3959575295448303, 0.2023143470287323, -0.0011428594589233398, 0.025429338216781616, 0.0589773952960968, -0.7741297740032193, 0.043362067896780265, 0.2872477776589587,0.5624337998310177,0.8905181884765625,0.4225921630859375,0.261993408203125
20220119-1336,2022-01-19 13:36:41Z,u01, 141,40,movements,el-ex, rt, d,230370.74013850003, 1.7914688311621687, -0.4045361811785718, 2.705444919446151, -0.11658031493425369, -0.0700080618262291, 0.05870872363448143, 0.8969929218292236, 0.3935924172401428, 0.20121853053569794, -0.027989566326141357, 0.048500508069992065, 0.0615532249212265, -0.7738026135635043, 0.042881036154092333, 0.2855657157929942,0.5637757126778604,0.8597869873046875,0.4558258056640625,0.2523956298828125
20220119-1336,2022-01-19 13:36:41Z,u01, 142,40,movements,el-ex, rt, d,230370.76508450002, 1.7912667108234983, -0.40281747935596, 2.7065133670763886, 0.03163472190499306, 0.001674111932516098, 0.042858388274908066, 0.8976924419403076, 0.3920118510723114, 0.20118488371372223, -0.026156067848205566, 0.07679924368858337, -0.0010656118392944336, -0.7737861584014039, 0.042981659858264354, 0.2846503225016542,0.5642534008503132,0.878875732421875,0.468841552734375,0.2086181640625
20220119-1336,2022-01-19 13:36:41Z,u01, 143,40,movements,el-ex, rt, d,230370.79003150002, 1.793071662709498, -0.4030364275267819, 2.706289577902609, -0.02170313522219658, 0.08308681100606918, -0.07622312754392624, 0.8972442746162415, 0.39221328496932983, 0.20278595387935638, -0.0030484795570373535, 0.0682513415813446, 0.05141046643257141, -0.7742879875448263, 0.043256115373059734, 0.28475334995142937,0.5634916400806385,0.8974609375,0.4546051025390625,0.279205322265625
20220119-1336,2022-01-19 13:36:41Z,u01, 144,40,movements,el-ex, rt, d,230370.8149775, 1.7998323980332813, -0.4062197165649081, 2.710025124340377, -0.10448413342237473, 0.18429525196552277, -0.16820305585861206, 0.8946322798728943, 0.39513951539993286, 0.20856277644634247, 0.0045073628425598145, 0.06479102373123169, 0.0714820921421051, -0.7762324462190847, 0.041768148550582085, 0.2847077952355005,0.5609459230740038,0.9055023193359375,0.4577789306640625,0.265869140625
20220119-1336,2022-01-19 13:36:41Z,u01, 145,40,movements,el-ex, rt, d,230370.83992350003, 1.8066810030354505, -0.41209447538125543, 2.713521401770231, -0.06441085040569305, 0.24359539151191711, -0.2240164577960968, 0.8909103274345398, 0.40052932500839233, 0.21413858234882355, 0.01073157787322998, 0.056013673543930054, 0.04182790219783783, -0.7781424179894217, 0.03954321015757695, 0.2857155927930849,0.5579403523451569,0.8883819580078125,0.4651947021484375,0.259124755859375
20220119-1336,2022-01-19 13:36:41Z,u01, 146,40,movements,el-ex, rt, d,230370.86487050002, 1.813426310202742, -0.4192695515415547, 2.7155140834065574, -0.008283733390271664, 0.2758922278881073, -0.2408941090106964, 0.886633038520813, 0.4070933759212494, 0.21944698691368103, -0.015340924263000488, 0.05144849419593811, 0.036855071783065796, -0.7799473556627495, 0.0374915136007859, 0.28763252879803775,0.5545665746028994,0.873077392578125,0.4578857421875,0.2631072998046875
20220119-1336,2022-01-19 13:36:41Z,u01, 147,40,movements,el-ex, rt, d,230370.8898165, 1.8231851361816884, -0.42582136027073125, 2.7188165387325633, -0.0835474282503128, 0.34076929092407227, -0.31754806637763977, 0.881847620010376, 0.4130689203739166, 0.2274179458618164, -0.002285301685333252, 0.045244067907333374, 0.06106492877006531, -0.7825878526683498, 0.03557005617102582, 0.28892366980869383,0.5502855392744188,0.8857421875,0.453399658203125,0.3094940185546875
20220119-1336,2022-01-19 13:36:41Z,u01, 148,40,movements,el-ex, rt, d,230370.9147625, 1.83595571004691, -0.43391580234021165, 2.7260175553994572, -0.2655659317970276, 0.4248371124267578, -0.4196479916572571, 0.8756161332130432, 0.4204269349575043, 0.23777678608894348, 0.022729814052581787, 0.020903080701828003, 0.09115718305110931, -0.7860397533028297, 0.03209202153764307, 0.2896908187987232,0.5451521952776972,0.8980560302734375,0.4451141357421875,0.327362060546875
20220119-1336,2022-01-19 13:36:41Z,u01, 149,40,movements,el-ex, rt, d,230370.9397095, 1.8526280809558062, -0.44246676072281826, 2.737723086326787, -0.28846728801727295, 0.5214821100234985, -0.473649799823761, 0.868045449256897, 0.42816996574401855, 0.25133267045021057, 0.019024431705474854, 0.031760573387145996, 0.050349026918411255, -0.7905204066388105, 0.02727303141132781, 0.28941251447420024,0.5390494376089509,0.8667449951171875,0.492340087890625,0.3033599853515625
20220119-1336,2022-01-19 13:36:41Z,u01, 150,40,movements,el-ex, rt, d,230370.96465550002, 1.8701301438920712, -0.45319825871554964, 2.746814121381977, -0.056646838784217834, 0.5623927712440491, -0.5185227394104004, 0.8590734601020813, 0.4378431737422943, 0.2651156485080719, -0.004138767719268799, 0.09612292051315308, 0.030859321355819702, -0.7950036867389836, 0.02295551377618965, 0.2907302662511653,0.5319005245247783,0.8529205322265625,0.53253173828125,0.2990264892578125
20220119-1336,2022-01-19 13:36:41Z,u01, 151,40,movements,el-ex, rt, d,230370.9896015, 1.8860606067459098, -0.4658245512397378, 2.7507281284156417, 0.05282309651374817, 0.5733610391616821, -0.5382941961288452, 0.8494172692298889, 0.4491596519947052, 0.27703049778938293, -0.005224823951721191, 0.060056596994400024, 0.05320042371749878, -0.7988226933626908, 0.019938623101984188, 0.29422565574738124,0.5243243440097134,0.8400726318359375,0.48553466796875,0.33514404296875
20220119-1336,2022-01-19 13:36:41Z,u01, 152,40,movements,el-ex, rt, d,230371.0145485, 1.9030462657385045, -0.4787516331239935, 2.7556923745366704, -0.10102725028991699, 0.6312646865844727, -0.555597722530365, 0.8390305042266846, 0.4606715142726898, 0.2894997000694275, 0.014485180377960205, -0.021035224199295044, 0.04111278057098389, -0.802791002948695, 0.016626868661643646, 0.2976141865274978,0.5164069679133922,0.8589019775390625,0.435394287109375,0.3314208984375
20220119-1336,2022-01-19 13:36:41Z,u01, 153,40,movements,el-ex, rt, d,230371.0394945, 1.9245261651443062, -0.49086300653345727, 2.7667562893107474, -0.24827419221401215, 0.6647518873214722, -0.6006231307983398, 0.8273242712020874, 0.47138717770576477, 0.3054986596107483, 0.0462568998336792, -0.003201603889465332, 0.03971639275550842, -0.8078424743210748, 0.011826533739319744, 0.299189090855993,0.5076778757312079,0.875457763671875,0.4897613525390625,0.34832763671875
20220119-1336,2022-01-19 13:36:41Z,u01, 154,40,movements,el-ex, rt, d,230371.06444050002, 1.947333721298853, -0.5031831670312041, 2.7786850637379934, -0.18652670085430145, 0.7123406529426575, -0.629196286201477, 0.8146790862083435, 0.48221659660339355, 0.3221267759799957, 0.02952873706817627, 0.008185714483261108, 0.03839290142059326, -0.8130291317088236, 0.006856605963614426, 0.30075941684755464,0.49847827315772175,0.8393096923828125,0.487548828125,0.3643341064453125
20220119-1336,2022-01-19 13:36:41Z,u01, 155,40,movements,el-ex, rt, d,230371.08938750002, 1.971152219813075, -0.5161307496566894, 2.790187037060545, -0.16796806454658508, 0.7385700941085815, -0.6435385346412659, 0.8009588718414307, 0.4935186207294464, 0.33897605538368225, 0.030507981777191162, -0.008807778358459473, 0.032591015100479126, -0.8182198245797894, 0.002083143065422788, 0.30282485695313843,0.48868115585534794,0.8304901123046875,0.496246337890625,0.3655853271484375
20220119-1336,2022-01-19 13:36:41Z,u01, 156,40,movements,el-ex, rt, d,230371.1143335, 1.9954495529873617, -0.5289210673497236, 2.8017117447402473, -0.14904828369617462, 0.754124104976654, -0.6151067614555359, 0.7866708040237427, 0.5046021342277527, 0.3557053208351135, 0.033565521240234375, 0.00348508358001709, 0.009697198867797852, -0.823314211601254, -0.0025233448496880806, 0.3049785697622818,0.4786811013386902,0.8173980712890625,0.5018463134765625,0.36822509765625
20220119-1336,2022-01-19 13:36:41Z,u01, 157,40,movements,el-ex, rt, d,230371.13927950003, 2.020467347959945, -0.5415092913903151, 2.813212600780002, -0.14499890804290771, 0.7956958413124084, -0.6327741146087646, 0.7717444896697998, 0.5154299139976501, 0.3724820017814636, 0.04223567247390747, -0.002749800682067871, 0.006912827491760254, -0.8283679833521896, -0.006891004474416429, 0.30721536778057007,0.46837791186784195,0.8135528564453125,0.523284912109375,0.3902740478515625
20220119-1336,2022-01-19 13:36:41Z,u01, 158,40,movements,el-ex, rt, d,230371.16422650003, 2.046707063716027, -0.5543271146946257, 2.8251261371499767, -0.12288078665733337, 0.8102271556854248, -0.6536257863044739, 0.7557712197303772, 0.5263713002204895, 0.389542818069458, 0.04829072952270508, 0.01696377992630005, 0.015364646911621094, -0.8334537661244672, -0.011235030975616955, 0.3096090468267882,0.45757075571133676,0.8006134033203125,0.543701171875,0.4071197509765625
20220119-1336,2022-01-19 13:36:41Z,u01, 159,40,movements,el-ex, rt, d,230371.18917250002, 2.0733180962622386, -0.5676631277719733, 2.8369970728518004, -0.07644887268543243, 0.816214919090271, -0.6658058166503906, 0.7389207482337952, 0.5376631617546082, 0.40609708428382874, 0.04208517074584961, 0.005473494529724121, 0.007965683937072754, -0.8383354693615195, -0.01556241037814926, 0.31238433875198246,0.4465060111076375,0.7701263427734375,0.53778076171875,0.412994384765625
20220119-1336,2022-01-19 13:36:41Z,u01, 160,40,movements,el-ex, rt, d,230371.2141185, 2.100353160583737, -0.5814445307958567, 2.848841191025052, -0.11348189413547516, 0.8397889733314514, -0.6767981052398682, 0.7212092876434326, 0.5492316484451294, 0.42213955521583557, 0.04317969083786011, -0.00470656156539917, 0.005961209535598755, -0.8430161702275185, -0.019837177560816932, 0.3155136312615556,0.4351797135071063,0.7689971923828125,0.544647216796875,0.43194580078125
20220119-1336,2022-01-19 13:36:41Z,u01, 161,40,movements,el-ex, rt, d,230371.2390655, 2.129450780731782, -0.593621700734764, 2.8635486325962765, -0.1982574313879013, 0.8296381831169128, -0.6639346480369568, 0.7028989195823669, 0.559366762638092, 0.4393657445907593, 0.07107263803482056, -0.010019779205322266, -0.006977200508117676, -0.8479873650232232, -0.024501009025279297, 0.3175803204837301,0.4236271997853256,0.77008056640625,0.557220458984375,0.4315185546875
20220119-1336,2022-01-19 13:36:41Z,u01, 162,40,movements,el-ex, rt, d,230371.26401150002, 2.15844222550701, -0.6050222959978083, 2.8785008023899348, -0.11084842681884766, 0.8260273337364197, -0.6393527388572693, 0.684515655040741, 0.5687804222106934, 0.45599114894866943, 0.045648038387298584, 0.002615630626678467, -0.024975717067718506, -0.8527328287406688, -0.029022367116089187, 0.3194741038457129,0.41223898042659274,0.7237548828125,0.5740509033203125,0.437835693359375
20220119-1336,2022-01-19 13:36:41Z,u01, 163,40,movements,el-ex, rt, d,230371.28895750002, 2.186089050762037, -0.6172602480460411, 2.890869085272121, -0.020314298570156097, 0.8253667950630188, -0.6273711919784546, 0.6659145951271057, 0.5788031816482544, 0.4706859886646271, 0.04598432779312134, -0.004630029201507568, -0.01772850751876831, -0.8568947533739305, -0.032777579656691425, 0.32239806998802645,0.40089488722865496,0.711334228515625,0.5735626220703125,0.4672393798828125
20220119-1336,2022-01-19 13:36:41Z,u01, 164,40,movements,el-ex, rt, d,230371.3139045, 2.213742539126477, -0.6296850337321996, 2.9030922761744864, -0.06462550163269043, 0.8237777948379517, -0.6362471580505371, 0.6468396186828613, 0.5888902544975281, 0.48456913232803345, 0.06310606002807617, -0.016792356967926025, -0.0025436878204345703, -0.8607894116475361, -0.03641644406340927, 0.32558596335229467,0.38949887029590724,0.706298828125,0.570465087890625,0.485198974609375
20220119-1336,2022-01-19 13:36:41Z,u01, 165,40,movements,el-ex, rt, d,230371.3388505, 2.2438504056541473, -0.639956681724186, 2.9190293521272985, -0.23508065938949585, 0.823258101940155, -0.6274908185005188, 0.6271963715553284, 0.5971606969833374, 0.5000243186950684, 0.06868082284927368, -0.03437066078186035, -0.008889436721801758, -0.8650764687788939, -0.04067988925899291, 0.32737828828808074,0.3779040305003154,0.6942138671875,0.5536041259765625,0.4834136962890625
20220119-1336,2022-01-19 13:36:42Z,u01, 166,40,movements,el-ex, rt, d,230371.36379650002, 2.274782650725105, -0.6480806827772783, 2.936478147932938, -0.16533297300338745, 0.8162862658500671, -0.5948726534843445, 0.6077138781547546, 0.6036573648452759, 0.5160255432128906, 0.05927836894989014, -0.018055379390716553, -0.03401535749435425, -0.8694788337739259, -0.04493699796313494, 0.32819925326578075,0.36643242968562817,0.659210205078125,0.5937347412109375,0.48724365234375
20220119-1336,2022-01-19 13:36:42Z,u01, 167,40,movements,el-ex, rt, d,230371.38874350002, 2.3029251813079843, -0.6577974884698262, 2.9500461495984047, 0.01899505779147148, 0.7720291018486023, -0.5596970319747925, 0.5885623097419739, 0.6113753914833069, 0.5289754867553711, 0.0489652156829834, -0.005708158016204834, -0.03393429517745972, -0.8730177066499307, -0.04824761954842932, 0.33051204410681256,0.35535085500688574,0.6303863525390625,0.6077423095703125,0.502838134765625
20220119-1336,2022-01-19 13:36:42Z,u01, 168,40,movements,el-ex, rt, d,230371.4136895, 2.3291789772829747, -0.6687893379694588, 2.9617012171500385, -0.0064196535386145115, 0.7904996275901794, -0.5651917457580566, 0.5695603489875793, 0.6200366020202637, 0.5395888686180115, 0.046208083629608154, -0.02617967128753662, -0.014777779579162598, -0.8758834647496405, -0.051211114415528225, 0.3337981932839099,0.3446512864440825,0.6200408935546875,0.591705322265625,0.531524658203125
20220119-1336,2022-01-19 13:36:42Z,u01, 169,40,movements,el-ex, rt, d,230371.4386355, 2.3573778286342053, -0.6775099879786808, 2.976054012185998, -0.16721700131893158, 0.7293181419372559, -0.5598533153533936, 0.5502800941467285, 0.6268548965454102, 0.5515839457511902, 0.08697265386581421, -0.037545204162597656, -0.005685389041900635, -0.8791030537221101, -0.05449589263071536, 0.3358387782359007,0.333796902181435,0.6201934814453125,0.58807373046875,0.54803466796875
20220119-1336,2022-01-19 13:36:42Z,u01, 170,40,movements,el-ex, rt, d,230371.4635825, 2.3863699109744796, -0.6835133184915705, 2.9923039333200823, -0.1468961089849472, 0.7506743669509888, -0.5435450673103333, 0.5314704775810242, 0.6315209865570068, 0.5645534992218018, 0.04752427339553833, -0.01291435956954956, -0.02652841806411743, -0.8825661537240893, -0.057911331070041705, 0.3365694463790644,0.32317850491777567,0.5750732421875,0.6245269775390625,0.536285400390625
20220119-1336,2022-01-19 13:36:42Z,u01, 171,40,movements,el-ex, rt, d,230371.48852850002, 2.4135785216751935, -0.6905241716088119, 3.005807974714012, 0.014242781326174736, 0.7420464158058167, -0.4724644124507904, 0.5129562616348267, 0.6369413733482361, 0.5754839777946472, 0.044859230518341064, -0.008965909481048584, -0.03472757339477539, -0.8854796918453456, -0.06056153237378398, 0.3382663578960177,0.3127841868755008,0.543060302734375,0.6377716064453125,0.5404815673828125
20220119-1336,2022-01-19 13:36:42Z,u01, 172,40,movements,el-ex, rt, d,230371.5134745, 2.438712828220608, -0.699419883688385, 3.0170441790016, 0.0068521760404109955, 0.7311959862709045, -0.446751207113266, 0.494649201631546, 0.6437738537788391, 0.5838475227355957, 0.05074572563171387, -0.04398125410079956, -0.021499812602996826, -0.887680444691761, -0.06282667112729207, 0.3411870860194417,0.30276690033695264,0.547210693359375,0.583984375,0.5703277587890625
20220119-1336,2022-01-19 13:36:42Z,u01, 173,40,movements,el-ex, rt, d,230371.5384215, 2.4645158749860063, -0.7047425788813138, 3.030110331421856, -0.19025003910064697, 0.6944908499717712, -0.43931975960731506, 0.4772675633430481, 0.64783775806427, 0.5937360525131226, 0.0637175440788269, -0.06400591135025024, -0.014435768127441406, -0.8902962795432503, -0.06511952250548025, 0.342395537212152,0.2930826722610924,0.53839111328125,0.5923614501953125,0.5874481201171875
20220119-1336,2022-01-19 13:36:42Z,u01, 174,40,movements,el-ex, rt, d,230371.56336750003, 2.4912964992013666, -0.7080389094001208, 3.0448792691039044, -0.1272987723350525, 0.6761552691459656, -0.4379061460494995, 0.45990222692489624, 0.6503453254699707, 0.6046000719070435, 0.06513744592666626, -0.0029911398887634277, -0.01596158742904663, -0.8931537149383924, -0.0676496263764223, 0.3426063120165053,0.28340955869979023,0.51849365234375,0.66253662109375,0.5935821533203125
20220119-1336,2022-01-19 13:36:42Z,u01, 175,40,movements,el-ex, rt, d,230371.58831350002, 2.516607564726791, -0.7136398566856162, 3.0583212163062705, -0.014629414305090904, 0.6770955324172974, -0.44991955161094666, 0.4423152804374695, 0.6545897722244263, 0.6130820512771606, 0.04852938652038574, 0.024502694606781006, -0.01811116933822632, -0.8953301101317347, -0.07017851545879111, 0.34408225140855114,0.2739825372477904,0.4783172607421875,0.6696624755859375,0.5943145751953125
20220119-1336,2022-01-19 13:36:42Z,u01, 176,40,movements,el-ex, rt, d,230371.61326050002, 2.5413379977674975, -0.7195740343139962, 3.071124795322928, -0.05249207466840744, 0.6792365312576294, -0.459030419588089, 0.42481836676597595, 0.6590643525123596, 0.62061607837677, 0.01938033103942871, -0.0030278563499450684, -0.006800353527069092, -0.8972446702345841, -0.07252617442400383, 0.3458755872601541,0.2646928130048176,0.4429779052734375,0.6576995849609375,0.6187286376953125
20220119-1336,2022-01-19 13:36:42Z,u01, 177,40,movements,el-ex, rt, d,230371.6382065, 2.5669781044339057, -0.7244555918858699, 3.084613734866286, -0.06907923519611359, 0.7145463824272156, -0.44534456729888916, 0.40701428055763245, 0.6627278327941895, 0.6285951137542725, 0.03553640842437744, 0.014442145824432373, 0.006491243839263916, -0.8992764960207509, -0.07482877861493636, 0.34724358041395653,0.25519509633079973,0.4500732421875,0.66668701171875,0.638519287109375
20220119-1336,2022-01-19 13:36:42Z,u01, 178,40,movements,el-ex, rt, d,230371.66315250003, 2.592566916499698, -0.7290153577501138, 3.098220161661719, -0.0444493293762207, 0.6532394886016846, -0.44322749972343445, 0.389216810464859, 0.6661356091499329, 0.6362189650535583, 0.050923049449920654, 0.016893744468688965, 0.0053983330726623535, -0.9012009419625729, -0.07711245726906024, 0.3485527123593084,0.24576778894795548,0.4332122802734375,0.678558349609375,0.6412353515625
20220119-1336,2022-01-19 13:36:42Z,u01, 179,40,movements,el-ex, rt, d,230371.68809950002, 2.618631868062503, -0.7342873311813942, 3.1129007223960774, -0.06897441297769547, 0.6825464367866516, -0.4779927432537079, 0.3707440495491028, 0.6700583100318909, 0.6430946588516235, 0.04836905002593994, 0.016114115715026855, 0.0030083656311035156, -0.9028684842012714, -0.07984886931262924, 0.350175215288254,0.23628370947509875,0.4183197021484375,0.6807861328125,0.6595001220703125
20220119-1336,2022-01-19 13:36:42Z,u01, 180,40,movements,el-ex, rt, d,230371.7130450417, 2.645269698242667, -0.738280248406813, 3.127959766171543, -0.08666033297777176, 0.6798982620239258, -0.4710850417613983, 0.3522071838378906, 0.6730169057846069, 0.6503835916519165, 0.034786224365234375, 0.003252685070037842, -0.0016254186630249023, -0.9046503601631104, -0.08245929678103514, 0.35131362624021145,0.2266872087075899,0.3773956298828125,0.6723175048828125,0.651458740234375
20220119-1336,2022-01-19 13:36:42Z,u01, 181,40,movements,el-ex, rt, d,230371.73799104168, 2.6717051922411073, -0.7430663917813546, -3.1409010727514106, 0.047324568033218384, 0.6551432013511658, -0.4489135444164276, 0.3334307372570038, 0.6765491962432861, 0.656586766242981, 0.05147227644920349, -0.012196481227874756, -0.01734989881515503, -0.9061445518910564, -0.08482584242741364, 0.3529955832758464,0.21702774538028896,0.36181640625,0.6664886474609375,0.6405181884765625
20220119-1336,2022-01-19 13:36:42Z,u01, 182,40,movements,el-ex, rt, d,230371.76293804168, 2.696799905753212, -0.7496844946635031, -3.1284244350369046, 0.07249283790588379, 0.6632241606712341, -0.41067469120025635, 0.31491705775260925, 0.6814078688621521, 0.6606898903846741, 0.05089712142944336, -0.027217745780944824, -0.0035698413848876953, -0.9070958624059258, -0.08672974327749733, 0.35574949137741424,0.20759943264122616,0.3666534423828125,0.645355224609375,0.6611785888671875
20220119-1336,2022-01-19 13:36:42Z,u01, 183,40,movements,el-ex, rt, d,230371.78788404167, 2.721413442868522, -0.7545516725320871, -3.1157783053950054, -0.07862523943185806, 0.6596945524215698, -0.44002336263656616, 0.297204852104187, 0.6849620938301086, 0.6652039885520935, 0.05565458536148071, -0.03869140148162842, 0.00699162483215332, -0.9081629325926193, -0.08855554343453204, 0.3577567986482771,0.19851478217218838,0.347198486328125,0.6463623046875,0.69061279296875
20220119-1336,2022-01-19 13:36:42Z,u01, 184,40,movements,el-ex, rt, d,230371.8128300417, 2.7476312972697636, -0.7549715537616136, -3.1005733842523253, -0.18263590335845947, 0.628354012966156, -0.40439820289611816, 0.27955424785614014, 0.6852679252624512, 0.6725014448165894, 0.052690595388412476, -0.02627122402191162, -0.005676686763763428, -0.9099468041908787, -0.09081588580239064, 0.3576495702480397,0.18930490274682482,0.3187103271484375,0.66754150390625,0.6619415283203125
20220119-1336,2022-01-19 13:36:42Z,u01, 185,40,movements,el-ex, rt, d,230371.83777704168, 2.773555710725635, -0.7560952669735842, -3.0856102000286154, -0.0732167586684227, 0.6231884360313416, -0.41535770893096924, 0.2617507874965668, 0.6860858798027039, 0.6788028478622437, 0.03980866074562073, -0.004078924655914307, -0.019607603549957275, -0.9114474826315355, -0.09308543352764703, 0.35797300407228355,0.18015021863845665,0.3017425537109375,0.682586669921875,0.6635589599609375
20220119-1336,2022-01-19 13:36:42Z,u01, 186,40,movements,el-ex, rt, d,230371.86272304168, 2.797508128025587, -0.7588933196258517, -3.0729479758385163, -0.00047554541379213333, 0.6189298629760742, -0.3972766399383545, 0.24476981163024902, 0.6881188750267029, 0.6830673813819885, 0.033779412508010864, -0.00975865125656128, -0.003501594066619873, -0.9124421775329365, -0.09477852474371312, 0.3592665119823457,0.1714471958898772,0.2764434814453125,0.6783294677734375,0.679840087890625
20220119-1336,2022-01-19 13:36:42Z,u01, 187,40,movements,el-ex, rt, d,230371.8876690417, 2.8210134861823826, -0.7610957307315784, -3.06050440785165, -0.09117572009563446, 0.5920453667640686, -0.32980725169181824, 0.22816960513591766, 0.6897152662277222, 0.6871910095214844, 0.06484483182430267, -0.04535192251205444, -0.0145987868309021, -0.9134033346043346, -0.0963838158391484, 0.36036012774293263,0.1629265843255367,0.2816162109375,0.6551513671875,0.6668853759765625
20220119-1336,2022-01-19 13:36:42Z,u01, 188,40,movements,el-ex, rt, d,230371.9126160417, 2.844143132208891, -0.7610804102084874, -3.04797943390366, -0.11431147158145905, 0.5635434985160828, -0.3571071922779083, 0.2122187465429306, 0.689704179763794, 0.6922947764396667, 0.0527195930480957, -0.02843385934829712, -0.014758408069610596, -0.9146340122890089, -0.09793881611634081, 0.3604823706099964,0.1546133102249317,0.263275146484375,0.6649017333984375,0.6792449951171875
20220119-1336,2022-01-19 13:36:42Z,u01, 189,40,movements,el-ex, rt, d,230371.93756204168, 2.8660060530991514, -0.7609057452250588, -3.0360724894503446, -0.07038038969039917, 0.5151695609092712, -0.3103674352169037, 0.19706636667251587, 0.6895776987075806, 0.6968843340873718, 0.056717753410339355, -0.014986574649810791, -0.019180238246917725, -0.9157262688360677, -0.09943628916145486, 0.36058370584569016,0.1467559596276818,0.230560302734375,0.6778106689453125,0.6638946533203125
20220119-1336,2022-01-19 13:36:42Z,u01, 190,40,movements,el-ex, rt, d,230371.96250804167, 2.885739478476397, -0.7623896988320157, -3.0265515911472596, 0.0338296964764595, 0.5333872437477112, -0.2857988476753235, 0.18301783502101898, 0.6906515955924988, 0.699646532535553, 0.022945240139961243, -0.01120823621749878, -0.028381645679473877, -0.9163847787837102, -0.10031059209275539, 0.3615716453404741,0.13943747658996566,0.2066802978515625,0.6836700439453125,0.6720123291015625
20220119-1336,2022-01-19 13:36:42Z,u01, 191,40,movements,el-ex, rt, d,230371.98745504167, 2.905124807570683, -0.7651314432977784, -3.0169024831624314, -0.0032210308127105236, 0.47612738609313965, -0.28686845302581787, 0.16897717118263245, 0.6926318407058716, 0.7012192010879517, 0.06645061075687408, -0.03300958871841431, -0.027314484119415283, -0.9166998604064216, -0.10134581871659537, 0.3631574053049794,0.1323149208270824,0.2259368896484375,0.6581268310546875,0.683624267578125
20220119-1336,2022-01-19 13:36:42Z,u01, 192,40,movements,el-ex, rt, d,230372.0124010417, 2.9239567974078606, -0.7648630298246822, -3.0067581396081877, -0.11284017562866211, 0.46926793456077576, -0.2638133764266968, 0.15578274428844452, 0.6924381852149963, 0.7044582366943359, 0.048532381653785706, -0.012720167636871338, -0.012365162372589111, -0.9174471582932335, -0.10256623583973229, 0.36333972845110485,0.1255197739472857,0.2004241943359375,0.680816650390625,0.6945037841796875
20220119-1336,2022-01-19 13:36:42Z,u01, 193,40,movements,el-ex, rt, d,230372.03734704168, 2.941610751832003, -0.7644111591319396, -2.9977354256797835, -0.012498218566179276, 0.4368714392185211, -0.26058343052864075, 0.14338479936122894, 0.6921120882034302, 0.707405149936676, 0.05060012638568878, -0.0061836838722229, -0.021095097064971924, -0.9181469611979083, -0.10348299366688196, 0.3634888502598087,0.1190520859884994,0.1813812255859375,0.6934967041015625,0.673797607421875
20220119-1336,2022-01-19 13:36:42Z,u01, 194,40,movements,el-ex, rt, d,230372.06229404168, 2.957698743809451, -0.7669808848541347, -2.9904679639075726, 0.1448916792869568, 0.4490436911582947, -0.20207247138023376, 0.13166040182113647, 0.6939646005630493, 0.7078697085380554, 0.028694182634353638, -0.01429206132888794, -0.04318124055862427, -0.9182186831044824, -0.10396783757583311, 0.3650880499286233,0.1130314816259658,0.1569671630859375,0.6814727783203125,0.6701812744140625
20220119-1336,2022-01-19 13:36:42Z,u01, 195,40,movements,el-ex, rt, d,230372.08724004167, 2.972694634993349, -0.771853965038336, -2.984391328138778, 0.09688526391983032, 0.41429582238197327, -0.22776159644126892, 0.12046091258525848, 0.6974650025367737, 0.7064220309257507, 0.044974833726882935, -0.031388282775878906, -0.023926734924316406, -0.9178051777724836, -0.10413773513097829, 0.3677826903334872,0.10735449440877987,0.179351806640625,0.6634063720703125,0.7063140869140625
20220119-1336,2022-01-19 13:36:42Z,u01, 196,40,movements,el-ex, rt, d,230372.1121860417, 2.98753507571744, -0.7713732238381035, -2.976972933906407, -0.16149845719337463, 0.3633003830909729, -0.2069329470396042, 0.110015869140625, 0.6971204280853271, 0.7084632515907288, 0.05302426218986511, -0.014014899730682373, 0.011294126510620117, -0.9182853640471087, -0.10480268456590525, 0.36794794505921835,0.10189628599074738,0.15557861328125,0.6859893798828125,0.711181640625
20220119-1336,2022-01-19 13:36:42Z,u01, 197,40,movements,el-ex, rt, d,230372.1371330417, 3.0019689551551982, -0.7682278699075734, -2.9688603174555825, -0.1054023876786232, 0.3365894556045532, -0.20186194777488708, 0.10008350759744644, 0.694861888885498, 0.7121447920799255, 0.029173627495765686, 0.0013813376426696777, -0.03676021099090576, -0.9191704672874068, -0.10582089101865216, 0.3668530947885054,0.09667681770057565,0.1205291748046875,0.700531005859375,0.6565093994140625
20220119-1336,2022-01-19 13:36:42Z,u01, 198,40,movements,el-ex, rt, d,230372.16207904168, 3.014479888231738, -0.7685810688938441, -2.9626153001220477, 0.0734197124838829, 0.3367975056171417, -0.18226660788059235, 0.09113522619009018, 0.695115864276886, 0.7130979895591736, 0.010686635971069336, 0.012785196304321289, -0.031075716018676758, -0.9193628484083601, -0.10639991426773376, 0.367385249458263,0.09208265686088402,0.1012420654296875,0.7068634033203125,0.6937408447265625
20220119-1336,2022-01-19 13:36:42Z,u01, 199,40,movements,el-ex, rt, d,230372.18702504167, 3.026668431466669, -0.7715205311720243, -2.9568060901419075, 0.09790049493312836, 0.31644710898399353, -0.1598181426525116, 0.08220236748456955, 0.6972260475158691, 0.7121227383613586, 0.03272674232721329, -0.001318514347076416, -0.005198180675506592, -0.91904452409839, -0.10685756599914714, 0.36913114245821993,0.08764062958586794,0.12542724609375,0.674591064453125,0.697906494140625
20220119-1336,2022-01-19 13:36:42Z,u01, 200,40,movements,el-ex, rt, d,230372.2119710417, 3.037556595586869, -0.7731849764223944, -2.951525505110383, -0.007967083714902401, 0.2409302443265915, -0.1656627357006073, 0.07432332634925842, 0.6984182596206665, 0.7118203639984131, 0.050813935697078705, -0.03963524103164673, -0.05167919397354126, -0.9189125796195723, -0.10728401614657823, 0.37025589999633013,0.08366868044055886,0.116943359375,0.665740966796875,0.65142822265625
20220119-1336,2022-01-19 13:36:42Z,u01, 201,40,movements,el-ex, rt, d,230372.2369180417, 3.0459952846719482, -0.7733074161426227, -2.94650426240997, 0.0016731265932321548, 0.16090138256549835, -0.13233867287635803, 0.06830579042434692, 0.6985058784484863, 0.7123374342918396, 0.028312809765338898, -0.036915123462677, -0.08118778467178345, -0.9189659863317811, -0.10802888113330389, 0.3705602106310043,0.08072562183657361,0.0853271484375,0.66375732421875,0.638671875
20220119-1336,2022-01-19 13:36:42Z,u01, 202,40,movements,el-ex, rt, d,230372.26186404168, 3.0519358262152783, -0.774237232670563, -2.9423169600184043, 0.05473184585571289, 0.08120715618133545, -0.1153327152132988, 0.06401477754116058, 0.6991709470748901, 0.712083637714386, 0.011104181408882141, -0.05093151330947876, -0.07492190599441528, -0.9187995814226181, -0.10885377545431124, 0.37114408487062145,0.07880698256946059,0.0753173828125,0.6462249755859375,0.6298370361328125
20220119-1336,2022-01-19 13:36:42Z,u01, 203,40,movements,el-ex, rt, d,230372.28681004167, 3.0549301840295837, -0.776605140661571, -2.939665681166339, 0.10497824847698212, 0.009385429322719574, -0.04291364178061485, 0.06173873692750931, 0.700861930847168, 0.7106201648712158, 0.02845590189099312, -0.06513500213623047, -0.09715569019317627, -0.9183223021015051, -0.10951815232402123, 0.37229516934474916,0.07801449072182454,0.1117095947265625,0.6292572021484375,0.6226348876953125
20220119-1336,2022-01-19 13:36:42Z,u01, 204,40,movements,el-ex, rt, d,230372.3117570417, 3.0538550871535146, -0.7794146148137748, -2.9397164375980607, 0.0754263773560524, -0.085928775370121, 0.0030453940853476524, 0.06232992932200432, 0.7028631567955017, 0.7085894346237183, 0.0831778421998024, -0.06001025438308716, -0.06854397058486938, -0.9177478102307663, -0.10969806494562562, 0.37353247595508265,0.078606294307739,0.1495361328125,0.646759033203125,0.6460418701171875
20220119-1336,2022-01-19 13:36:42Z,u01, 205,40,movements,el-ex, rt, d,230372.33670304168, 3.049330622544408, -0.7814033691879979, -2.941520536610251, 0.06996753066778183, -0.16944584250450134, 0.08560358732938766, 0.06540635973215103, 0.7042763829231262, 0.7069069147109985, 0.083610899746418, -0.07018202543258667, -0.05732470750808716, -0.9172868116826693, -0.10971953201863993, 0.37427177965969205,0.08041989076227238,0.1262664794921875,0.630584716796875,0.6555633544921875
20220119-1336,2022-01-19 13:36:43Z,u01, 206,40,movements,el-ex, rt, d,230372.36164904168, 3.041013356111935, -0.7837603404580157, -2.946294595310594, 0.13941435515880585, -0.22229208052158356, 0.16567625105381012, 0.07111668586730957, 0.7059476971626282, 0.7046849131584167, 0.019337356090545654, -0.0739285945892334, -0.08761918544769287, -0.9167553472112977, -0.10909668319037646, 0.37509732640090043,0.08342489279118318,0.087554931640625,0.632049560546875,0.6136932373046875
20220119-1336,2022-01-19 13:36:43Z,u01, 207,40,movements,el-ex, rt, d,230372.38659604167, 3.0293922857576074, -0.7868584941482807, -2.9538589209894637, 0.13525770604610443, -0.27567747235298157, 0.22057178616523743, 0.07905565202236176, 0.708138644695282, 0.7016343474388123, 0.01774606853723526, -0.06923776865005493, -0.0757489800453186, -0.9160727590706825, -0.10783257209707708, 0.37621581228645445,0.08743425997912152,0.10943603515625,0.6414642333984375,0.643310546875
20220119-1336,2022-01-19 13:36:43Z,u01, 208,40,movements,el-ex, rt, d,230372.4115420417, 3.01553492407089, -0.788433412832736, -2.96247664761756, 0.04397624358534813, -0.33410701155662537, 0.23775070905685425, 0.08863016217947006, 0.7092497944831848, 0.6993637681007385, 0.05681656301021576, -0.039572060108184814, -0.0346144437789917, -0.9156077525819867, -0.1065097124408016, 0.37658483103388585,0.09220654205042678,0.1557769775390625,0.6707763671875,0.6627197265625
20220119-1336,2022-01-19 13:36:43Z,u01, 209,40,movements,el-ex, rt, d,230372.43648804168, 2.999213492535963, -0.7882787945024, -2.9719459308203455, 0.04163002967834473, -0.42583155632019043, 0.28682273626327515, 0.10004806518554688, 0.7091407775878906, 0.6979328393936157, 0.06419747322797775, -0.04353708028793335, -0.050334274768829346, -0.9153633640315548, -0.1052442215093834, 0.37609966877183365,0.09789156131103055,0.1525726318359375,0.6614837646484375,0.6370697021484375
20220119-1336,2022-01-19 13:36:43Z,u01, 210,40,movements,el-ex, rt, d,230372.46143504168, 2.9801002311381946, -0.7887603828717228, -2.9831202580975997, 0.08669677376747131, -0.45504629611968994, 0.3220415711402893, 0.11331383138895035, 0.7094802260398865, 0.6955561637878418, 0.011686131358146667, -0.020835697650909424, -0.02845686674118042, -0.9148865506785375, -0.10373369152019374, 0.3758881433553981,0.10454758719740437,0.1273651123046875,0.6902008056640625,0.6707916259765625
20220119-1336,2022-01-19 13:36:43Z,u01, 211,40,movements,el-ex, rt, d,230372.48638104167, 2.9595369057418783, -0.7895404100326888, -2.995752869500841, 0.07089734077453613, -0.4729868769645691, 0.3506530225276947, 0.12749159336090088, 0.7100297212600708, 0.6925347447395325, 0.021190017461776733, -0.03537750244140625, -0.022841453552246094, -0.9142733672194172, -0.1018409470000714, 0.3758725785896547,0.11159136715754561,0.1609649658203125,0.6794891357421875,0.6703338623046875
20220119-1336,2022-01-19 13:36:43Z,u01, 212,40,movements,el-ex, rt, d,230372.5113270417, 2.9373899688407215, -0.7891995285477856, -3.0090451282320356, 0.09482933580875397, -0.5459169745445251, 0.39853808283805847, 0.14284560084342957, 0.7097896337509155, 0.689778208732605, 0.040290310978889465, -0.03612929582595825, -0.0628097653388977, -0.9137319647343616, -0.09991503570779114, 0.37536585723163324,0.11921164918332286,0.1830596923828125,0.671051025390625,0.61529541015625
20220119-1336,2022-01-19 13:36:43Z,u01, 213,40,movements,el-ex, rt, d,230372.5362740417, 2.9116671844741195, -0.7914656325008786, -3.0252788315058785, 0.29948490858078003, -0.5798189043998718, 0.44637009501457214, 0.16017241775989532, 0.7113840579986572, 0.6843081116676331, 0.0234060138463974, -0.04024147987365723, -0.054455697536468506, -0.9125037116873393, -0.09742199344660651, 0.37614038122802096,0.12792337139373036,0.1904296875,0.6799774169921875,0.6661376953125
20220119-1336,2022-01-19 13:36:43Z,u01, 214,40,movements,el-ex, rt, d,230372.56122004168, 2.8840761671949475, -0.7961151286245779, -3.043161686982765, 0.23971028625965118, -0.6043984889984131, 0.45293647050857544, 0.17814549803733826, 0.7146440744400024, 0.6764230132102966, 0.046280696988105774, 0.003098785877227783, 0.03562849760055542, -0.910629473318846, -0.0946862030992236, 0.3781313071232396,0.1371321352016936,0.234893798828125,0.702392578125,0.714019775390625
20220119-1336,2022-01-19 13:36:43Z,u01, 215,40,movements,el-ex, rt, d,230372.58616604167, 2.8571010526034715, -0.7950278158156551, -3.0593147872175983, -0.05476291477680206, -0.6334995031356812, 0.42617109417915344, 0.1965431571006775, 0.713883101940155, 0.6721178293228149, 0.04985573887825012, -0.023666977882385254, 0.02403426170349121, -0.9096846645230752, -0.09237279142034482, 0.3775172046649238,0.14636268905841138,0.252593994140625,0.6943511962890625,0.6573028564453125
20220119-1336,2022-01-19 13:36:43Z,u01, 216,40,movements,el-ex, rt, d,230372.61111304167, 2.830599564566347, -0.7903341241599819, -3.0731846489243853, -0.009951571002602577, -0.6726666688919067, 0.4395591914653778, 0.21530717611312866, 0.7105883955955505, 0.6698564887046814, 0.024576246738433838, 0.0025464892387390137, -0.07673174142837524, -0.9092248628455287, -0.09076555636750894, 0.3752071981624753,0.15585745872648163,0.2354888916015625,0.71881103515625,0.593780517578125
20220119-1336,2022-01-19 13:36:43Z,u01, 217,40,movements,el-ex, rt, d,230372.6360590417, 2.802508878303314, -0.7895180041806246, -3.08966677640847, 0.22318284213542938, -0.6321091651916504, 0.46245113015174866, 0.23422931134700775, 0.7100139260292053, 0.6640915870666504, 0.0010459721088409424, 0.02095860242843628, -0.028410017490386963, -0.9078630953990752, -0.08848945409475145, 0.37490042121663336,0.1655419053711076,0.2488250732421875,0.7198486328125,0.67767333984375
20220119-1336,2022-01-19 13:36:43Z,u01, 218,40,movements,el-ex, rt, d,230372.66100504168, 2.7746079352509416, -0.7899141921989232, -3.10729369836629, 0.09344309568405151, -0.5891162157058716, 0.43993279337882996, 0.25256359577178955, 0.7102928757667542, 0.6570361256599426, 0.03739917278289795, 0.0004006028175354004, 0.058784544467926025, -0.906180707429354, -0.08575896554947127, 0.3753654425970441,0.1748798481725078,0.30560302734375,0.7159271240234375,0.724456787109375
20220119-1336,2022-01-19 13:36:43Z,u01, 219,40,movements,el-ex, rt, d,230372.68595204168, 2.750243030941918, -0.7855679209680317, -3.120968210226123, -0.09091167151927948, -0.5879009366035461, 0.40494900941848755, 0.26967060565948486, 0.7072268128395081, 0.6535354852676392, 0.06884562969207764, 0.034838855266571045, 0.07510250806808472, -0.9054015034330967, -0.08376081867102081, 0.3735851924310528,0.18348446469109725,0.3439178466796875,0.7388153076171875,0.6980438232421875
20220119-1336,2022-01-19 13:36:43Z,u01, 220,40,movements,el-ex, rt, d,230372.71089825002, 2.7270024747140464, -0.7798771529871775, -3.1330995438472358, -0.0038775671273469925, -0.5725669860839844, 0.4029415547847748, 0.2864013612270355, 0.7031920552253723, 0.6507651209831238, 0.019613564014434814, 0.028924524784088135, -0.014961779117584229, -0.9047903353424894, -0.08207924578836695, 0.37118169520406796,0.19194169630442362,0.2949371337890625,0.730926513671875,0.6231842041015625
20220119-1336,2022-01-19 13:36:43Z,u01, 221,40,movements,el-ex, rt, d,230372.73584425, 2.7019109437482154, -0.77983467388145, 3.134109592520569, 0.39210912585258484, -0.5390120148658752, 0.4259863495826721, 0.30265098810195923, 0.703161895275116, 0.6434019804000854, -0.02417808771133423, 0.013101041316986084, -0.0525052547454834, -0.9029830640352994, -0.07951468464739253, 0.3717155441671006,0.2003164265315363,0.2777862548828125,0.716339111328125,0.600067138671875
20220119-1336,2022-01-19 13:36:43Z,u01, 222,40,movements,el-ex, rt, d,230372.76079125, 2.6745668173566783, -0.7849392345605002, 3.1138624581624397, 0.36989760398864746, -0.5212159156799316, 0.4149657189846039, 0.3185086250305176, 0.7067822217941284, 0.6316733956336975, 0.004352003335952759, -0.010081231594085693, 0.08462005853652954, -0.9000310755947241, -0.07603124665444433, 0.37501949856608263,0.20862336940689755,0.34442138671875,0.69244384765625,0.7266387939453125
20220119-1336,2022-01-19 13:36:43Z,u01, 223,40,movements,el-ex, rt, d,230372.78573725, 2.650716029878773, -0.7828995039330081, 3.099173309199278, -0.09988225996494293, -0.5443492531776428, 0.40128186345100403, 0.3341614603996277, 0.7053377628326416, 0.625167965888977, 0.05954575538635254, -0.0216066837310791, 0.07768261432647705, -0.8984192267086586, -0.07366729686021412, 0.37477494457491556,0.21670216097678113,0.412139892578125,0.6754302978515625,0.6786346435546875
20220119-1336,2022-01-19 13:36:43Z,u01, 224,40,movements,el-ex, rt, d,230372.81068325002, 2.630135506523282, -0.7743407967937627, 3.0897300574000885, -0.1101834625005722, -0.551842987537384, 0.39646852016448975, 0.34989821910858154, 0.6992449760437012, 0.6234007477760315, 0.032868534326553345, 0.008137404918670654, 0.004041016101837158, -0.8980428173854849, -0.07224589703301959, 0.37124118562126407,0.22467721709869168,0.368499755859375,0.7101287841796875,0.611083984375
20220119-1336,2022-01-19 13:36:43Z,u01, 225,40,movements,el-ex, rt, d,230372.83562925, 2.6073172936278017, -0.7711168915648439, 3.075674327445879, 0.2841531038284302, -0.49703848361968994, 0.43600010871887207, 0.36517655849456787, 0.6969366073608398, 0.6171916127204895, -0.019763439893722534, 0.018441081047058105, -0.040775418281555176, -0.8965088572322069, -0.06976866123166825, 0.37060048190252615,0.2325069954263706,0.3499603271484375,0.70477294921875,0.5679168701171875
20220119-1336,2022-01-19 13:36:43Z,u01, 226,40,movements,el-ex, rt, d,230372.86057625, 2.580629932951634, -0.7732909334218953, 3.0549273795954734, 0.3892424702644348, -0.4836777448654175, 0.46680107712745667, 0.38070884346961975, 0.6984940767288208, 0.6059430241584778, 0.002530813217163086, -0.029075682163238525, 0.03153878450393677, -0.893672641368249, -0.06573225683495382, 0.3731142176725841,0.24044605775723588,0.3961029052734375,0.672210693359375,0.6587982177734375
20220119-1336,2022-01-19 13:36:43Z,u01, 227,40,movements,el-ex, rt, d,230372.88552225003, 2.556138701752523, -0.7719874908978006, 3.038101510678396, 0.018881674855947495, -0.5088953375816345, 0.41154780983924866, 0.39593636989593506, 0.697560727596283, 0.5971967577934265, 0.04939138889312744, -0.013982117176055908, 0.06093037128448486, -0.8914470146279542, -0.06261461892396131, 0.3738093037983621,0.24833120773440467,0.4732513427734375,0.688018798828125,0.63037109375
20220119-1336,2022-01-19 13:36:43Z,u01, 228,40,movements,el-ex, rt, d,230372.91046825002, 2.5364859144844445, -0.7643478692797507, 3.0288399360250295, -0.15629717707633972, -0.5378766059875488, 0.3785393238067627, 0.41061532497406006, 0.6920664310455322, 0.5936663746833801, 0.07572805881500244, 0.006358981132507324, -0.00659942626953125, -0.8905659292363188, -0.061036902325407094, 0.3710112105818832,0.25596424075379615,0.479034423828125,0.703887939453125,0.5795440673828125
20220119-1336,2022-01-19 13:36:43Z,u01, 229,40,movements,el-ex, rt, d,230372.93541525002, 2.516390689271638, -0.7577449501082839, 3.0189938769533127, 0.09460189938545227, -0.5371660590171814, 0.38793230056762695, 0.42512649297714233, 0.6872851252555847, 0.5889878869056702, 0.01344156265258789, 0.023865997791290283, -0.027693212032318115, -0.8893639949299741, -0.05937697999701752, 0.36879069301854184,0.2636276330477927,0.41949462890625,0.6987152099609375,0.545745849609375
20220119-1336,2022-01-19 13:36:43Z,u01, 230,40,movements,el-ex, rt, d,230372.96036125, 2.492967951722088, -0.7557561700991796, 3.00361477549689, 0.25900304317474365, -0.4983905553817749, 0.40869706869125366, 0.4396292269229889, 0.6858391761779785, 0.5799577832221985, -0.028038710355758667, -0.0033593177795410156, 0.01243436336517334, -0.8870062716588865, -0.056557677457623634, 0.369300521832072,0.27136379395546023,0.4191741943359375,0.6863250732421875,0.608154296875
20220119-1336,2022-01-19 13:36:43Z,u01, 231,40,movements,el-ex, rt, d,230372.98530725003, 2.470438285658546, -0.7536057441775244, 2.9889944638159855, 0.07003946602344513, -0.5067918300628662, 0.37754470109939575, 0.45349907875061035, 0.6842725872993469, 0.5710605978965759, 0.014121800661087036, 0.00023680925369262695, 0.046890199184417725, -0.8846613382236135, -0.05389441271981488, 0.36975560247378714,0.2788381239060741,0.50482177734375,0.6828460693359375,0.595611572265625
20220119-1336,2022-01-19 13:36:43Z,u01, 232,40,movements,el-ex, rt, d,230373.01025425002, 2.4511934501801833, -0.7471670264806806, 2.980020678015312, -0.06537877768278122, -0.5460448861122131, 0.3581812083721161, 0.46720072627067566, 0.6795631647109985, 0.5656132102012634, 0.07160252332687378, 0.008654296398162842, -0.001617431640625, -0.8832109937673872, -0.05239219433882075, 0.36772811599927685,0.2863035526887127,0.5347900390625,0.689605712890625,0.55645751953125
20220119-1336,2022-01-19 13:36:43Z,u01, 233,40,movements,el-ex, rt, d,230373.03520025001, 2.430547210241474, -0.7414429894780566, 2.9697422168772487, 0.1148260086774826, -0.5442089438438416, 0.41989701986312866, 0.48130860924720764, 0.6753528118133545, 0.5587852001190186, 0.03295835852622986, 0.014207184314727783, -0.01787620782852173, -0.8813778444461606, -0.050652813473129, 0.36622195406821,0.294090067632323,0.5023193359375,0.659881591796875,0.5339202880859375
20220119-1336,2022-01-19 13:36:43Z,u01, 234,40,movements,el-ex, rt, d,230373.06014625, 2.4074464645928337, -0.7372711893394168, 2.9554330465624217, 0.1682593822479248, -0.5297789573669434, 0.4371105432510376, 0.4959709048271179, 0.6722702383995056, 0.5496057271957397, -0.007292807102203369, -0.031873881816864014, 0.023240089416503906, -0.8789280643262278, -0.04783641608509376, 0.36599744035787773,0.30206505320261867,0.49029541015625,0.64404296875,0.579925537109375
20220119-1336,2022-01-19 13:36:43Z,u01, 235,40,movements,el-ex, rt, d,230373.08509325, 2.386494682832368, -0.732251252730534, 2.9433575685812223, -0.005849271547049284, -0.49722570180892944, 0.3779258728027344, 0.5096827745437622, 0.6685455441474915, 0.5415449142456055, 0.010977685451507568, 0.012027144432067871, 0.04225665330886841, -0.8767598880904452, -0.04543740143295805, 0.3652149399747705,0.30958966525036447,0.5563507080078125,0.67474365234375,0.5728759765625
20220119-1336,2022-01-19 13:36:43Z,u01, 236,40,movements,el-ex, rt, d,230373.11003925002, 2.3691716951373256, -0.7245460110874034, 2.936504336962318, -0.10548185557126999, -0.525709331035614, 0.3567121922969818, 0.5225666165351868, 0.6627955436706543, 0.5363086462020874, 0.05476498603820801, 0.02452152967453003, 0.018257200717926025, -0.8753326999258602, -0.0441246314593115, 0.3626280274603104,0.3167757132750768,0.5707244873046875,0.692169189453125,0.54541015625
20220119-1336,2022-01-19 13:36:43Z,u01, 237,40,movements,el-ex, rt, d,230373.13498525, 2.3513693761648122, -0.7181799170634233, 2.928523428801882, 0.10152022540569305, -0.48252713680267334, 0.35433217883110046, 0.5350178480148315, 0.658015251159668, 0.5298795700073242, 0.007584691047668457, 0.030644536018371582, -0.0004756450653076172, -0.8735693718231143, -0.04261860302354792, 0.36082593912795324,0.3238287021910703,0.5406036376953125,0.679656982421875,0.5165557861328125
20220119-1336,2022-01-19 13:36:43Z,u01, 238,40,movements,el-ex, rt, d,230373.15993225, 2.3309000649163916, -0.7144989136980291, 2.915613151481666, 0.2099633514881134, -0.48409441113471985, 0.374760240316391, 0.5475032925605774, 0.6552389860153198, 0.5204834342002869, -0.0016504526138305664, -0.021892130374908447, 0.0074253082275390625, -0.8710027560489197, -0.03994873567704915, 0.3609660461004698,0.3308505900029798,0.5479888916015625,0.631011962890625,0.5355072021484375
20220119-1336,2022-01-19 13:36:43Z,u01, 239,40,movements,el-ex, rt, d,230373.18487825, 2.311416039628414, -0.709938543589716, 2.9046336448781163, 0.019864480942487717, -0.49900418519973755, 0.35789942741394043, 0.559739351272583, 0.6517871618270874, 0.5117285847663879, 0.013182520866394043, -0.0026322007179260254, 0.04428672790527344, -0.8685843037314472, -0.037757238536622495, 0.3605130480432608,0.33788506441957855,0.586181640625,0.651336669921875,0.54833984375
20220119-1336,2022-01-19 13:36:43Z,u01, 240,40,movements,el-ex, rt, d,230373.20982425002, 2.295203090275685, -0.7035372873055423, 2.898232026956184, -0.04986483231186867, -0.4568389356136322, 0.29748183488845825, 0.5710749626159668, 0.6469191312789917, 0.5053413510322571, 0.03538566827774048, 0.014747917652130127, 0.017272531986236572, -0.8667952513733501, -0.03656027011804047, 0.358634786332164,0.3445442030816081,0.6130523681640625,0.662322998046875,0.520172119140625
20220119-1336,2022-01-19 13:36:43Z,u01, 241,40,movements,el-ex, rt, d,230373.23477125002, 2.279849655645664, -0.6973314897650087, 2.8922294811162224, 0.02891107276082039, -0.45902618765830994, 0.3013191819190979, 0.5818017721176147, 0.6421744227409363, 0.4991183578968048, 0.037216782569885254, 0.01721900701522827, 0.01015925407409668, -0.8650472219024967, -0.03539053354104038, 0.3568236654537944,0.3508814820200465,0.6061248779296875,0.6531524658203125,0.5027923583984375
20220119-1336,2022-01-19 13:36:43Z,u01, 242,40,movements,el-ex, rt, d,230373.25971725, 2.2633647925260627, -0.6926401059448435, 2.883218448350614, 0.1611046940088272, -0.42895716428756714, 0.3463633954524994, 0.5922622084617615, 0.6385711431503296, 0.4913782775402069, 0.01247406005859375, -0.0008910298347473145, 0.00460892915725708, -0.8628858869873337, -0.03342273251372202, 0.35619333336490183,0.3569835568542441,0.6037445068359375,0.6369171142578125,0.4987030029296875
20220119-1336,2022-01-19 13:36:43Z,u01, 243,40,movements,el-ex, rt, d,230373.28466325, 2.245562956145824, -0.6893450797939411, 2.8718683971002896, 0.165958434343338, -0.3945408761501312, 0.30931001901626587, 0.6025550961494446, 0.6360319256782532, 0.4820694625377655, -0.010697245597839355, 0.0005800127983093262, 0.022401630878448486, -0.8602761189948214, -0.030979566505057177, 0.35659340199778955,0.36305164702340487,0.605377197265625,0.6315460205078125,0.5083465576171875
20220119-1336,2022-01-19 13:36:43Z,u01, 244,40,movements,el-ex, rt, d,230373.30961025003, 2.230356544188326, -0.6844121912729552, 2.8639387648541286, -0.03458457812666893, -0.4194175899028778, 0.27867773175239563, 0.6122877597808838, 0.6322177052497864, 0.4747682213783264, 0.03433394432067871, -0.0216982364654541, 0.012796103954315186, -0.8582149787933606, -0.029174570526093735, 0.3557952070837348,0.3688167362136007,0.6511993408203125,0.6145477294921875,0.48443603515625
20220119-1336,2022-01-19 13:36:43Z,u01, 245,40,movements,el-ex, rt, d,230373.33455625002, 2.217298816717125, -0.677814305557684, 2.860077660315726, -0.0469515360891819, -0.4291027784347534, 0.2910189926624298, 0.6217508912086487, 0.6270920038223267, 0.46923553943634033, 0.03013509511947632, 0.005445897579193115, 0.0034973323345184326, -0.8566300140160965, -0.02833357547801768, 0.3536324682914852,0.37460176049342897,0.65362548828125,0.6251678466796875,0.4607086181640625
20220119-1336,2022-01-19 13:36:44Z,u01, 246,40,movements,el-ex, rt, d,230373.35950225, 2.2030193028573573, -0.6713268149781494, 2.85440004141797, 0.03242744505405426, -0.4332629144191742, 0.3164740204811096, 0.6316564083099365, 0.6220254302024841, 0.4627041220664978, 0.014980614185333252, -0.01969987154006958, -0.00661855936050415, -0.8547672395556188, -0.026926315096966302, 0.3518680021586249,0.38057462735556874,0.6461944580078125,0.6004638671875,0.4589080810546875
20220119-1336,2022-01-19 13:36:44Z,u01, 247,40,movements,el-ex, rt, d,230373.38444825003, 2.1865965114532693, -0.6657756586717033, 2.8460218843210576, 0.11218824982643127, -0.44164931774139404, 0.34222134947776794, 0.6419785618782043, 0.6176693439483643, 0.4542560875415802, 0.005329787731170654, -0.024865269660949707, -0.006181478500366211, -0.8523533501680048, -0.024936087883760283, 0.3510138898898797,0.386860921270852,0.65496826171875,0.5866241455078125,0.438629150390625
20220119-1336,2022-01-19 13:36:44Z,u01, 248,40,movements,el-ex, rt, d,230373.40939525003, 2.1704764694539613, -0.6592573669422358, 2.838250614704072, -0.03457649052143097, -0.476276159286499, 0.3470202088356018, 0.6525271534919739, 0.612529993057251, 0.4461115002632141, 0.03604090213775635, -0.03959298133850098, -0.00688701868057251, -0.8500184098119007, -0.022901045240776685, 0.3497090138119642,0.3932529888632934,0.6907196044921875,0.5726470947265625,0.4352569580078125
20220119-1336,2022-01-19 13:36:44Z,u01, 249,40,movements,el-ex, rt, d,230373.43434125002, 2.1556139333774547, -0.6507068264432597, 2.8336475663856286, -0.07131203263998032, -0.4863552153110504, 0.3810657262802124, 0.6634280681610107, 0.6057489514350891, 0.4392396807670593, 0.03266257047653198, -0.02539616823196411, -0.018600553274154663, -0.8480323449691282, -0.02147063658598075, 0.34702383510519963,0.3999432954569695,0.702606201171875,0.5827484130859375,0.41607666015625
20220119-1336,2022-01-19 13:36:44Z,u01, 250,40,movements,el-ex, rt, d,230373.45928725, 2.1393664012956193, -0.6421865192799838, 2.8275637725958234, 0.029706059023737907, -0.515412449836731, 0.40048283338546753, 0.6748015880584717, 0.5989478230476379, 0.43116649985313416, 0.03207707405090332, -0.020288705825805664, -0.026014864444732666, -0.8456940514007859, -0.019616954698182365, 0.3446762102178837,0.4069583993299943,0.706939697265625,0.576171875,0.4036407470703125
20220119-1336,2022-01-19 13:36:44Z,u01, 251,40,movements,el-ex, rt, d,230373.48423425, 2.121086324850032, -0.6339440509948665, 2.818890850404094, 0.05449716001749039, -0.5260879993438721, 0.43093341588974, 0.6867551803588867, 0.5923270583152771, 0.42132723331451416, 0.029614567756652832, -0.03368741273880005, -0.011308014392852783, -0.8428362813596613, -0.01704756437995414, 0.3430084432637587,0.4143450420942005,0.7172698974609375,0.557891845703125,0.4262542724609375
20220119-1336,2022-01-19 13:36:44Z,u01, 252,40,movements,el-ex, rt, d,230373.50918025002, 2.104810318508154, -0.6248464110819205, 2.813845097287736, -0.15055951476097107, -0.5207802057266235, 0.3684091866016388, 0.6981311440467834, 0.5849727392196655, 0.41282013058662415, 0.037434160709381104, -0.003414332866668701, 0.00919252634048462, -0.8403408225184152, -0.015406533604344852, 0.3403268838787227,0.42162514871348117,0.7380218505859375,0.5880584716796875,0.417144775390625
