SessionID,LoggingTime,UID,RecNo,Hertz,Activity,MoveType,Wrist,Side,TimeStamp,DMRoll,DMPitch,DMYaw,DMRotX,DMRotY,DMRotZ,DMGrvX,DMGrvY,DMGrvZ,DMUAccelX,DMUAccelY,DMUAccelZ,DMQuatX,DMQuatY,DMQuatW,DMQuatZ,AccelroX,AceelroY,AceelroZ
20220119-1824,2022-01-19 18:24:55Z,u01, 1,40,movements,el-ex, rt, d,234719.97468925003, 1.8845273583512367, -0.7248783847236064, 2.603704349393791, 0.06438500434160233, -0.3042077124118805, 0.4015543460845947, 0.712041437625885, 0.6630443930625916, 0.23101922869682312, 0.010096132755279541, -0.015507042407989502, -0.002915114164352417, -0.7845442084142491, 0.0, 0.4225666327559056,0.45379307583267936,0.722137451171875,0.6475372314453125,0.2281036376953125
20220119-1824,2022-01-19 18:24:55Z,u01, 2,40,movements,el-ex, rt, d,234719.99963525002, 1.8735852417865801, -0.7146835496601224, 2.5997597091140756, -0.09316613525152206, -0.3419007658958435, 0.4173485040664673, 0.7209414839744568, 0.6553784608840942, 0.2252182960510254, 0.016821086406707764, -0.03594774007797241, 0.0027637779712677, -0.7826900194981945, 0.002340684345198879, 0.42004405248518384,0.45929749190502933,0.7383575439453125,0.6236572265625,0.22869873046875
20220119-1824,2022-01-19 18:24:55Z,u01, 3,40,movements,el-ex, rt, d,234720.02458225001, 1.864397923197057, -0.7023449064617694, 2.6001565493686547, -0.22731372714042664, -0.8569108843803406, 0.822960376739502, 0.7306650876998901, 0.6460093855857849, 0.22090880572795868, 0.14660853147506714, -0.05644023418426514, -0.032004594802856445, -0.7813053733499634, 0.004039095185652236, 0.415822900936381,0.4654428424547955,0.8772735595703125,0.589569091796875,0.18890380859375
20220119-1824,2022-01-19 18:24:55Z,u01, 4,40,movements,el-ex, rt, d,234720.04952825, 1.8538810140415012, -0.6894759635754996, 2.5998036835239025, -0.06759093701839447, -0.3783494532108307, 0.4629629850387573, 0.7408698797225952, 0.6361329555511475, 0.2155168652534485, 0.009466052055358887, -0.036202847957611084, -0.017365768551826477, -0.7795658627555463, 0.005958099912554887, 0.41161230248046177,0.47203518363388297,0.758697509765625,0.600250244140625,0.195892333984375
20220119-1824,2022-01-19 18:24:55Z,u01, 5,40,movements,el-ex, rt, d,234720.07447425002, 1.842107602388625, -0.6771251694803406, 2.5965073177327587, -0.032966241240501404, -0.3782021701335907, 0.5063006281852722, 0.7508677840232849, 0.6265550255775452, 0.20886917412281036, 0.025621354579925537, -0.03434622287750244, -0.015692517161369324, -0.7774058040194165, 0.008648739350489182, 0.40830024965114975,0.47838930325332374,0.7764892578125,0.5922088623046875,0.19317626953125
20220119-1824,2022-01-19 18:24:55Z,u01, 6,40,movements,el-ex, rt, d,234720.09942025002, 1.8303706593490183, -0.6640527333637763, 2.593086856123996, -0.030146289616823196, -0.3807182013988495, 0.5338407754898071, 0.7611194252967834, 0.6163134574890137, 0.20212729275226593, 0.027592182159423828, -0.02923142910003662, -0.011834502220153809, -0.7751952426273956, 0.01166121544013976, 0.4048147171032879,0.48483152422942943,0.785491943359375,0.5880126953125,0.1923370361328125
20220119-1824,2022-01-19 18:24:55Z,u01, 7,40,movements,el-ex, rt, d,234720.12436725, 1.8177012497707359, -0.6507336300322795, 2.588708928015939, 0.03447561338543892, -0.4137897789478302, 0.5454854369163513, 0.771510899066925, 0.6057702898979187, 0.1944575011730194, 0.023823022842407227, -0.010112881660461426, -0.015730857849121094, -0.77266063110566, 0.014976595425865158, 0.4015291034628844,0.491473086918614,0.7953338623046875,0.5956573486328125,0.1787261962890625
20220119-1824,2022-01-19 18:24:55Z,u01, 8,40,movements,el-ex, rt, d,234720.14931325, 1.8040382720626535, -0.6374053917403297, 2.58305123430973, 0.04167287424206734, -0.40852218866348267, 0.558006227016449, 0.7818819880485535, 0.5951123237609863, 0.18574830889701843, 0.02037942409515381, -0.0020641088485717773, -0.027178525924682617, -0.769757726142383, 0.01863320221218895, 0.39861854396902996,0.49822619143850055,0.800537109375,0.5931396484375,0.1613311767578125
20220119-1824,2022-01-19 18:24:55Z,u01, 9,40,movements,el-ex, rt, d,234720.17425925002, 1.7904753345480275, -0.623556175431625, 2.577577770425806, 0.069162517786026, -0.4231720566749573, 0.5918967127799988, 0.7922975420951843, 0.5839257836341858, 0.17690609395503998, 0.025604188442230225, -0.0007348060607910156, -0.03518211841583252, -0.766778434770231, 0.022447235045618297, 0.3955511686457055,0.5050607985658713,0.817901611328125,0.58319091796875,0.1417236328125
20220119-1824,2022-01-19 18:24:55Z,u01, 10,40,movements,el-ex, rt, d,234720.19920525, 1.7757814299748338, -0.6091060317752566, 2.570905726508969, 0.11554283648729324, -0.44549405574798584, 0.6197094917297363, 0.80298912525177, 0.5721344947814941, 0.166945680975914, 0.02306067943572998, 0.0031219124794006348, -0.026335492730140686, -0.7633859861849914, 0.026733410647843597, 0.39267131303468805,0.5121879780517086,0.825164794921875,0.57806396484375,0.1440582275390625
20220119-1824,2022-01-19 18:24:55Z,u01, 11,40,movements,el-ex, rt, d,234720.22415125, 1.759947728740408, -0.5941367252843885, 2.5632473559441467, 0.12627430260181427, -0.4699546694755554, 0.6489942073822021, 0.8138527870178223, 0.5597936511039734, 0.15580397844314575, 0.020635128021240234, 0.006566822528839111, -0.030513659119606018, -0.7595505328621998, 0.03138434893917774, 0.3899742481296436,0.5196327305047249,0.8344879150390625,0.5663604736328125,0.1252899169921875
20220119-1824,2022-01-19 18:24:55Z,u01, 12,40,movements,el-ex, rt, d,234720.24909825, 1.7442878715730694, -0.5783960440291772, 2.5569623604011262, 0.04536417871713638, -0.4943651556968689, 0.6507047414779663, 0.8247706890106201, 0.5466815829277039, 0.1445438712835312, 0.025220274925231934, -0.016133427619934082, -0.01617133617401123, -0.7556368092525872, 0.035846223358608736, 0.38675462675267824,0.5273983915398681,0.849395751953125,0.53240966796875,0.1265716552734375
20220119-1824,2022-01-19 18:24:55Z,u01, 13,40,movements,el-ex, rt, d,234720.27404425002, 1.7295902856024272, -0.5621894163452076, 2.55359117799706, -0.001532054040580988, -0.5156402587890625, 0.6600839495658875, 0.8354454040527344, 0.533039927482605, 0.13379010558128357, 0.0280342698097229, -0.013371288776397705, -0.022965088486671448, -0.7518821561579135, 0.03960144924211553, 0.38267052171078664,0.5354141987188064,0.8634796142578125,0.5196685791015625,0.1108245849609375
20220119-1824,2022-01-19 18:24:56Z,u01, 14,40,movements,el-ex, rt, d,234720.29899025, 1.7152599526582395, -0.5460283289417471, 2.5504158404865227, 0.022993793711066246, -0.5019681453704834, 0.6417039036750793, 0.8456917405128479, 0.519297182559967, 0.12302874773740768, 0.023555755615234375, 0.001882016658782959, 0.009768828749656677, -0.748084911287472, 0.04339744418553597, 0.3786004920490026,0.5432746502985756,0.867889404296875,0.52447509765625,0.13616943359375
20220119-1824,2022-01-19 18:24:56Z,u01, 15,40,movements,el-ex, rt, d,234720.32393625, 1.7011009348281982, -0.5304955624561716, 2.54622218985531, 0.07064666599035263, -0.4551873207092285, 0.6185461282730103, 0.8552442193031311, 0.5059608817100525, 0.11207731068134308, 0.018931925296783447, 0.008062005043029785, 0.002760648727416992, -0.7441685978067066, 0.04745264620521336, 0.37506725087930626,0.550714139425221,0.874176025390625,0.5140228271484375,0.114837646484375
20220119-1824,2022-01-19 18:24:56Z,u01, 16,40,movements,el-ex, rt, d,234720.34888325, 1.6886098880310387, -0.5157405741603316, 2.5433049704958393, -0.022932151332497597, -0.4369491636753082, 0.580165684223175, 0.8638975620269775, 0.49317923188209534, 0.10225237905979156, 0.024133503437042236, 0.010513454675674438, 0.020962826907634735, -0.7406156616289381, 0.05113344788298897, 0.371448800599417,0.5575838377948181,0.883056640625,0.5036773681640625,0.12884521484375
20220119-1824,2022-01-19 18:24:56Z,u01, 17,40,movements,el-ex, rt, d,234720.37382925002, 1.6773153344908294, -0.5013565876871893, 2.5428597217150655, -0.05408168211579323, -0.4468976855278015, 0.5690153241157532, 0.8719612956047058, 0.48061561584472656, 0.09323333203792572, 0.02133411169052124, 0.03177458047866821, 0.01585209369659424, -0.7373575327192488, 0.05404198413005572, 0.36726657389557293,0.564356913900115,0.8932952880859375,0.51239013671875,0.1090850830078125
20220119-1824,2022-01-19 18:24:56Z,u01, 18,40,movements,el-ex, rt, d,234720.39877525, 1.6657503993014737, -0.4875699926534954, 2.5414626730010363, 0.03676140680909157, -0.41691288352012634, 0.5288566946983337, 0.8794942498207092, 0.4684804379940033, 0.08376345783472061, -0.007576406002044678, 0.04282641410827637, 0.01580047607421875, -0.7339086683204938, 0.05709461765330347, 0.36358139838928916,0.570900174743047,0.872650146484375,0.509796142578125,0.10107421875
20220119-1824,2022-01-19 18:24:56Z,u01, 19,40,movements,el-ex, rt, d,234720.42372125, 1.654700970375898, -0.47496900129325526, 2.5387064814326155, 0.0629311203956604, -0.369951993227005, 0.4912241995334625, 0.886178731918335, 0.45731088519096375, 0.0745294913649559, -0.0037932395935058594, 0.05099004507064819, 0.011286385357379913, -0.7304927135366983, 0.06037499109701221, 0.3606837251498323,0.5767519375664016,0.88238525390625,0.50830078125,0.0858154296875
20220119-1824,2022-01-19 18:24:56Z,u01, 20,40,movements,el-ex, rt, d,234720.44866825003, 1.6452010318337864, -0.4635324875376187, 2.5379730826406433, -0.08109685778617859, -0.3696637451648712, 0.41708558797836304, 0.8920040130615234, 0.4471106231212616, 0.06649204343557358, -0.003621995449066162, 0.03822574019432068, 0.044119350612163544, -0.727528965202852, 0.06283013131446988, 0.3575560285082887,0.582157863950804,0.8917236328125,0.4911956787109375,0.1151580810546875
20220119-1824,2022-01-19 18:24:56Z,u01, 21,40,movements,el-ex, rt, d,234720.47361425002, 1.6372647277953962, -0.45360246518226394, 2.5409196166500028, -0.1571090668439865, -0.366012305021286, 0.3758403956890106, 0.8968895673751831, 0.4382065236568451, 0.05970276519656181, -0.017723798751831055, 0.0649520754814148, 0.039220333099365234, -0.725112671648654, 0.06374163072242521, 0.35379573073793474,0.5873477052858037,0.8791656494140625,0.5031585693359375,0.0989227294921875
20220119-1824,2022-01-19 18:24:56Z,u01, 22,40,movements,el-ex, rt, d,234720.49856, 1.6297399523480738, -0.44427266170700913, 2.5426397120182074, 0.001569962128996849, -0.3032851815223694, 0.3531018793582916, 0.901355504989624, 0.42980125546455383, 0.05319077894091606, -0.0072972774505615234, 0.06925269961357117, 0.020585767924785614, -0.7227526728915684, 0.06499201893847553, 0.3505736419532401,0.5920327725882398,0.88861083984375,0.503814697265625,0.0781707763671875
20220119-1824,2022-01-19 18:24:56Z,u01, 23,40,movements,el-ex, rt, d,234720.52350600003, 1.622195322366316, -0.4361316068929394, 2.5411113146795925, 0.02538285031914711, -0.2709997594356537, 0.3104938864707947, 0.9051957726478577, 0.42243635654449463, 0.0465671680867672, 0.01452791690826416, 0.06427329778671265, 0.04373478889465332, -0.720271765172197, 0.06702364154369343, 0.34870049859630114,0.5959232721290803,0.9197235107421875,0.4867095947265625,0.090301513671875
20220119-1824,2022-01-19 18:24:56Z,u01, 24,40,movements,el-ex, rt, d,234720.54845200002, 1.6153292130167778, -0.42912505195138184, 2.5414250989042637, -0.07197202742099762, -0.27363380789756775, 0.2585916221141815, 0.9084286093711853, 0.41607534885406494, 0.04048171266913414, -0.018642902374267578, 0.02960336208343506, 0.038101427257061005, -0.7180520196204521, 0.0681333504066915, 0.34662601261736997,0.5996745439689951,0.898681640625,0.448394775390625,0.07830810546875
20220119-1824,2022-01-19 18:24:56Z,u01, 25,40,movements,el-ex, rt, d,234720.57339900002, 1.6099118307529636, -0.4226977959497517, 2.543648371423686, -0.07942551374435425, -0.2394225299358368, 0.23779983818531036, 0.9112880825996399, 0.41022229194641113, 0.03566368296742439, -0.030016660690307617, 0.046976834535598755, 0.05035054311156273, -0.7163258921988075, 0.06862257889082894, 0.3441153690721018,0.6031193014139866,0.8812713623046875,0.4571990966796875,0.0860137939453125
20220119-1824,2022-01-19 18:24:56Z,u01, 26,40,movements,el-ex, rt, d,234720.598345, 1.6050637298250316, -0.41712592339832, 2.544832912368914, -0.0421709269285202, -0.1765337735414505, 0.1990698277950287, 0.9137204885482788, 0.40513449907302856, 0.03132309019565582, -0.005013763904571533, 0.05722209811210632, 0.043964143842458725, -0.7147443100304482, 0.06929729866540603, 0.34216816382964454,0.6060193756417552,0.903656005859375,0.4635772705078125,0.0724334716796875
20220119-1824,2022-01-19 18:24:56Z,u01, 27,40,movements,el-ex, rt, d,234720.62329100003, 1.6020584942874594, -0.41330278237208845, 2.546079736573445, -0.042796336114406586, -0.10601933300495148, 0.1028892993927002, 0.9153520464897156, 0.4016362130641937, 0.028625214472413063, -0.0034714341163635254, 0.05594441294670105, 0.056397199630737305, -0.7137641832263311, 0.06966561656469183, 0.3406897796124646,0.6079622190801967,0.9118804931640625,0.45758056640625,0.08502197265625
20220119-1824,2022-01-19 18:24:56Z,u01, 28,40,movements,el-ex, rt, d,234720.64823700002, 1.6005780223922887, -0.4117404568285795, 2.5466947997728715, -0.009446635842323303, -0.04556211084127426, 0.03218955919146538, 0.9160194993019104, 0.40020492672920227, 0.027288682758808136, -0.02026742696762085, 0.05443072319030762, 0.05546009540557861, -0.7132889415331569, 0.06973684074319655, 0.3400622089367001,0.6088624935188042,0.896148681640625,0.463104248046875,0.08917236328125
20220119-1824,2022-01-19 18:24:56Z,u01, 29,40,movements,el-ex, rt, d,234720.673184, 1.5999318564684368, -0.41122166616648076, 2.5465174017942194, -0.000929979607462883, -0.011607339605689049, 0.01661885529756546, 0.9162443280220032, 0.399729460477829, 0.026702821254730225, -0.014907538890838623, 0.040028899908065796, 0.0452275276184082, -0.7130704891775181, 0.06987050755843112, 0.33997542639106637,0.6091514464035075,0.901336669921875,0.43975830078125,0.071929931640625
20220119-1824,2022-01-19 18:24:56Z,u01, 30,40,movements,el-ex, rt, d,234720.69813, 1.6046516220660272, -0.41372980459469094, 2.5489524115943225, -0.05069317668676376, 0.013140285387635231, -0.03332214057445526, 0.9151030778884888, 0.4020272195339203, 0.03099292702972889, 0.0018585920333862305, 0.039470553398132324, 0.04734611138701439, -0.714664076305838, 0.06893273067539409, 0.3398616638955511,0.6074517466433379,0.9152374267578125,0.4420623779296875,0.0783233642578125
20220119-1824,2022-01-19 18:24:56Z,u01, 31,40,movements,el-ex, rt, d,234720.72307600002, 1.6089576689444427, -0.41713832283964974, 2.5517511766986187, -0.07691099494695663, 0.08716298639774323, -0.12099220603704453, 0.9135867357254028, 0.4051458239555359, 0.034880630671978, -0.00970160961151123, 0.04167741537094116, 0.04754782095551491, -0.7161609213326091, 0.06748221956186845, 0.3399430389923471,0.6058041606778104,0.9038848876953125,0.4468231201171875,0.082427978515625
20220119-1824,2022-01-19 18:24:56Z,u01, 32,40,movements,el-ex, rt, d,234720.748022, 1.6147516267887225, -0.4219909942286358, 2.554347874389211, -0.018553148955106735, 0.1502402126789093, -0.15529237687587738, 0.911394476890564, 0.4095776081085205, 0.04008643701672554, -0.008257031440734863, 0.03173720836639404, 0.02433658018708229, -0.7181266550087494, 0.06585838336016164, 0.3405020448529886,0.603336936446877,0.9065704345703125,0.443084716796875,0.0664825439453125
20220119-1824,2022-01-19 18:24:56Z,u01, 33,40,movements,el-ex, rt, d,234720.772968, 1.6199391816286604, -0.42634392105100183, 2.5539411547980584, 0.0952814370393753, 0.2020571380853653, -0.15779568254947662, 0.9093847274780273, 0.41354477405548096, 0.044725771993398666, -0.01590627431869507, 0.02609148621559143, 0.02898978814482689, -0.719782870969956, 0.06538734389440966, 0.3418358250036525,0.600654233750811,0.8934783935546875,0.43963623046875,0.0737152099609375
20220119-1824,2022-01-19 18:24:56Z,u01, 34,40,movements,el-ex, rt, d,234720.797915, 1.627385271475745, -0.4328713352855171, 2.5534588170954007, 0.05666494369506836, 0.21134784817695618, -0.2726250886917114, 0.9063120484352112, 0.41947901248931885, 0.051342058926820755, -0.006684303283691406, 0.05259740352630615, 0.01608693227171898, -0.7221488925323734, 0.06459107522987675, 0.3438138728891513,0.5967588323852109,0.896240234375,0.4663543701171875,0.0763092041015625
20220119-1824,2022-01-19 18:24:56Z,u01, 35,40,movements,el-ex, rt, d,234720.82286100002, 1.6329242962302675, -0.4411028033041883, 2.5532088178239496, 0.04336394742131233, 0.17332036793231964, -0.3238815367221832, 0.902536928653717, 0.42693695425987244, 0.056145042181015015, 0.0025687813758850098, 0.040409237146377563, -0.0480879582464695, -0.7239663013153712, 0.06281174623890694, 0.34633301589270526,0.5932799242361539,0.9051055908203125,0.46734619140625,0.008056640625
20220119-1824,2022-01-19 18:24:56Z,u01, 36,40,movements,el-ex, rt, d,234720.847807, 1.6377142622014078, -0.45004417166993727, 2.5533256902416155, 0.0007917871698737144, 0.1695460081100464, -0.33962947130203247, 0.898412823677063, 0.4350053071975708, 0.06020983308553696, -0.020421981811523438, 0.057441651821136475, 0.004518389701843262, -0.7255618012847734, 0.06053914571848841, 0.34899919665677637,0.5899956363735329,0.8776092529296875,0.48712158203125,0.0607147216796875
20220119-1824,2022-01-19 18:24:56Z,u01, 37,40,movements,el-ex, rt, d,234720.872753, 1.6431642238417195, -0.45863994610916403, 2.555121705712958, -0.08095810562372208, 0.21232669055461884, -0.3790680468082428, 0.8943086862564087, 0.44272902607917786, 0.06483245640993118, 0.013955533504486084, 0.03249078989028931, 0.004595518112182617, -0.727367587167644, 0.0579018329919348, 0.3510494513923259,0.5868118874673387,0.90826416015625,0.4752197265625,0.069427490234375
20220119-1824,2022-01-19 18:24:56Z,u01, 38,40,movements,el-ex, rt, d,234720.8977, 1.6505384208062859, -0.46891526493147484, 2.558433457197672, -0.07006620615720749, 0.28259891271591187, -0.44836461544036865, 0.8892243504524231, 0.45191890001296997, 0.07105929404497147, 0.021664321422576904, 0.03286805748939514, -0.013365402817726135, -0.729767450760829, 0.05448957928004787, 0.3531542740315383,0.5828828711257107,0.9109649658203125,0.481475830078125,0.05133056640625
20220119-1824,2022-01-19 18:24:56Z,u01, 39,40,movements,el-ex, rt, d,234720.92264600002, 1.658662711586799, -0.48033378499594476, 2.5601833272758148, 0.026924386620521545, 0.3071884214878082, -0.4742755889892578, 0.8834196329116821, 0.46207520365715027, 0.07782327383756638, 0.03520524501800537, 0.02603819966316223, -0.0077239349484443665, -0.7323037376345624, 0.05140886982568216, 0.3560834349414195,0.5781808219823207,0.9186248779296875,0.4881134033203125,0.070098876953125
20220119-1824,2022-01-19 18:24:56Z,u01, 40,40,movements,el-ex, rt, d,234720.947592, 1.6667605003916062, -0.49267683527835093, 2.5608696710930534, -0.015437250956892967, 0.3339615762233734, -0.5216048359870911, 0.8770163059234619, 0.4729860723018646, 0.08442145586013794, 0.025297045707702637, 0.010412424802780151, 0.02242099493741989, -0.7347556186380181, 0.04842424103147497, 0.3596369400133067,0.5731062021270292,0.9075927734375,0.4887237548828125,0.09832763671875
20220119-1824,2022-01-19 18:24:56Z,u01, 41,40,movements,el-ex, rt, d,234720.972538, 1.677140571756871, -0.5065614253733788, 2.5643775508207436, -0.12317616492509842, 0.38050416111946106, -0.6007142066955566, 0.8694782257080078, 0.48517337441444397, 0.09281414747238159, 0.013486802577972412, 0.018244564533233643, 0.019323095679283142, -0.7378635758637507, 0.04432175406051808, 0.36285086266061817,0.5673906808968764,0.882965087890625,0.50341796875,0.1121368408203125
20220119-1824,2022-01-19 18:24:56Z,u01, 42,40,movements,el-ex, rt, d,234720.99748400002, 1.6904988962710537, -0.5215332609322119, 2.570450778686646, -0.15654312074184418, 0.4343566298484802, -0.6463537216186523, 0.8608520030975342, 0.4982101321220398, 0.10354121029376984, 0.024081528186798096, 0.023045390844345093, 0.014577500522136688, -0.7417626411067761, 0.03948148919294413, 0.3656785905367601,0.5608107573806121,0.883575439453125,0.5140380859375,0.1229095458984375
20220119-1824,2022-01-19 18:24:56Z,u01, 43,40,movements,el-ex, rt, d,234721.02243100002, 1.705471701389334, -0.5373772543038383, 2.577582391753689, -0.1761952042579651, 0.47889190912246704, -0.6740076541900635, 0.851275622844696, 0.5118846893310547, 0.11534405499696732, 0.02781379222869873, 0.017793715000152588, 0.024426810443401337, -0.7459866684648346, 0.034291654610608485, 0.36854169797391384,0.553629056289523,0.87908935546875,0.5296783447265625,0.1397705078125
20220119-1824,2022-01-19 18:24:56Z,u01, 44,40,movements,el-ex, rt, d,234721.047377, 1.7223891372048499, -0.5536894846702382, 2.5858840827720444, -0.18424861133098602, 0.5452831983566284, -0.7050979137420654, 0.840835690498352, 0.525829017162323, 0.12845009565353394, 0.006683290004730225, 0.018680870532989502, 0.0321490615606308, -0.7505924817919729, 0.028913230193009898, 0.3713009559111894,0.5458119224415298,0.849639892578125,0.541046142578125,0.159454345703125
20220119-1824,2022-01-19 18:24:56Z,u01, 45,40,movements,el-ex, rt, d,234721.072323, 1.740507471569497, -0.5706790226106737, 2.593720795254476, -0.11698661744594574, 0.5597904920578003, -0.7280969619750977, 0.8294448256492615, 0.5402035713195801, 0.1421332210302353, 0.02536797523498535, 0.022876381874084473, 0.013628855347633362, -0.7553157879712359, 0.02376286300212349, 0.37450472261952594,0.5372893250017496,0.8548126220703125,0.563079833984375,0.15576171875
20220119-1824,2022-01-19 18:24:56Z,u01, 46,40,movements,el-ex, rt, d,234721.09726900002, 1.7581750614212968, -0.5880482443226968, 2.600697697663317, -0.09326880425214767, 0.5508507490158081, -0.7180790305137634, 0.8174612522125244, 0.5547381639480591, 0.15499310195446014, 0.034284353256225586, 0.018519282341003418, 0.007772907614707947, -0.7596995387174916, 0.018792507824320348, 0.3781810314306072,0.5286611924542347,0.85321044921875,0.577545166015625,0.15838623046875
20220119-1824,2022-01-19 18:24:56Z,u01, 47,40,movements,el-ex, rt, d,234721.12221600002, 1.7744418312045662, -0.6050881831482159, 2.605624121516029, 0.05355366691946983, 0.5457388162612915, -0.6793497800827026, 0.805456817150116, 0.5688346028327942, 0.16633340716362, 0.01845681667327881, -0.0021384358406066895, 0.029727086424827576, -0.7635156200931693, 0.014512086934199198, 0.38239748873005985,0.5201976344373227,0.82391357421875,0.5666961669921875,0.1960601806640625
20220119-1824,2022-01-19 18:24:56Z,u01, 48,40,movements,el-ex, rt, d,234721.147162, 1.7885851852116226, -0.6223398474440023, 2.6051746877306723, 0.20345978438854218, 0.6077795028686523, -0.7131133675575256, 0.7933232188224792, 0.5829378962516785, 0.17556151747703552, -0.027805030345916748, 0.021645843982696533, 0.03632234036922455, -0.766576470486687, 0.011885823740038576, 0.3881513528684958,0.5114272591780128,0.7680511474609375,0.588043212890625,0.2254791259765625
20220119-1824,2022-01-19 18:24:56Z,u01, 49,40,movements,el-ex, rt, d,234721.17210800003, 1.8043952849143956, -0.6406681506498153, 2.606914777788996, -0.008083097636699677, 0.5684230327606201, -0.7684389352798462, 0.7799224257469177, 0.5977312326431274, 0.18557696044445038, 0.03453075885772705, 0.029694974422454834, -0.040267109870910645, -0.7698808210843107, 0.008485390494445494, 0.3937321413310162,0.5021819380734155,0.814453125,0.6274261474609375,0.1453094482421875
20220119-1824,2022-01-19 18:24:56Z,u01, 50,40,movements,el-ex, rt, d,234721.19705400002, 1.824540188526934, -0.6586591369014337, 2.617962525061346, -0.30833879113197327, 0.5027569532394409, -0.7866206169128418, 0.7654917240142822, 0.6120570302009583, 0.1985178142786026, 0.0716819167137146, -0.014461696147918701, -0.020019978284835815, -0.7741139708676549, 0.0025433203382622394, 0.39694761455819133,0.49312674705431153,0.8362884521484375,0.597747802734375,0.1738739013671875
20220119-1824,2022-01-19 18:24:56Z,u01, 51,40,movements,el-ex, rt, d,234721.22200100002, 1.8470303738249823, -0.6750679495751022, 2.634218826752599, -0.26635804772377014, 0.5109483599662781, -0.7591428756713867, 0.7510693073272705, 0.6249503493309021, 0.21291415393352509, 0.05607497692108154, -0.0010641813278198242, -0.02124810218811035, -0.7787411474896694, -0.004393099296702008, 0.3985237061719206,0.4844811385811542,0.8071441650390625,0.6238861083984375,0.1916656494140625
20220119-1824,2022-01-19 18:24:56Z,u01, 52,40,movements,el-ex, rt, d,234721.246947, 1.8670377520265826, -0.6923152436139217, 2.6447845306330624, 0.025431187823414803, 0.5696437954902649, -0.7525579929351807, 0.7362396717071533, 0.6383211016654968, 0.2247171252965927, 0.032193005084991455, 0.03790271282196045, -0.030380725860595703, -0.7824720237316772, -0.009802676876344785, 0.40193059495372885,0.47549281985988473,0.7722015380859375,0.6685028076171875,0.19085693359375
20220119-1824,2022-01-19 18:24:56Z,u01, 53,40,movements,el-ex, rt, d,234721.27189300003, 1.8843393592714917, -0.7118700230431858, 2.649304159140836, 0.09999530017375946, 0.5932937264442444, -0.8228593468666077, 0.7202289700508118, 0.6532508134841919, 0.23352597653865814, 0.04419076442718506, 0.05007272958755493, -0.020192354917526245, -0.7852177724103226, -0.01400146808681546, 0.407660536181438,0.46588644600659546,0.7644195556640625,0.7033233642578125,0.2133331298828125
20220119-1824,2022-01-19 18:24:57Z,u01, 54,40,movements,el-ex, rt, d,234721.29683900002, 1.906025651835551, -0.7320934097877149, 2.6588079537894656, -0.11793229728937149, 0.6295331120491028, -0.8923975229263306, 0.7023746371269226, 0.6684281229972839, 0.24469205737113953, 0.07240569591522217, 0.03187406063079834, 0.005338907241821289, -0.7886517154155165, -0.019351930562417657, 0.41260381158308645,0.4554253741903431,0.771148681640625,0.69683837890625,0.246826171875
20220119-1824,2022-01-19 18:24:57Z,u01, 55,40,movements,el-ex, rt, d,234721.321785, 1.931838917897595, -0.7522186894192102, 2.673948533898605, -0.1340150237083435, 0.6341952085494995, -0.9180710315704346, 0.6831000447273254, 0.6832605004310608, 0.25793424248695374, 0.08449339866638184, 0.036985039710998535, -0.022933214902877808, -0.7926507198337607, -0.02592204557329561, 0.4164602089597909,0.44451550782741134,0.7675933837890625,0.720245361328125,0.2350006103515625
20220119-1824,2022-01-19 18:24:57Z,u01, 56,40,movements,el-ex, rt, d,234721.346732, 1.958180053439925, -0.7725722451282668, 2.688838050333746, -0.06491298973560333, 0.6573379039764404, -0.9249455332756042, 0.6630541086196899, 0.6979795694351196, 0.2705259919166565, 0.03871297836303711, 0.027499675750732422, -0.007708162069320679, -0.796382433349234, -0.032218274747277176, 0.42068892320767126,0.4333105879980212,0.710601806640625,0.7238616943359375,0.2611541748046875
20220119-1824,2022-01-19 18:24:57Z,u01, 57,40,movements,el-ex, rt, d,234721.37167800002, 1.9849649363577933, -0.7935803225561932, 2.7032959888835983, -0.04360297694802284, 0.6859651803970337, -0.9479972124099731, 0.6420040130615234, 0.7128686904907227, 0.28222259879112244, 0.04221546649932861, 0.031317830085754395, -0.021892040967941284, -0.7997782439549241, -0.0382891183056949, 0.42547613712319104,0.4217332917946733,0.6842193603515625,0.7441864013671875,0.2603302001953125
20220119-1824,2022-01-19 18:24:57Z,u01, 58,40,movements,el-ex, rt, d,234721.39662400002, 2.0141717977456994, -0.8147686406703516, 2.719913343091614, -0.0973709300160408, 0.6835335493087769, -0.9730486273765564, 0.6197032928466797, 0.7275668978691101, 0.2943037152290344, 0.08325392007827759, 0.014284968376159668, -0.014808058738708496, -0.8032205681334225, -0.04459353220158693, 0.43016328004226967,0.4096435839188521,0.704559326171875,0.7484893798828125,0.2741851806640625
20220119-1824,2022-01-19 18:24:57Z,u01, 59,40,movements,el-ex, rt, d,234721.42157, 2.045578016743883, -0.8348129949058457, 2.7396557905710415, -0.12733598053455353, 0.6770267486572266, -0.9354715943336487, 0.5970640182495117, 0.7411710023880005, 0.3068885803222656, 0.06977558135986328, -0.008215010166168213, -0.013156414031982422, -0.8067362709333735, -0.051194539541960404, 0.4341327221663773,0.3975986378967985,0.666839599609375,0.7329559326171875,0.293731689453125
20220119-1824,2022-01-19 18:24:57Z,u01, 60,40,movements,el-ex, rt, d,234721.446517, 2.0770607805007715, -0.854350456505008, 2.7593728612808297, -0.08873257040977478, 0.6830054521560669, -0.9386619329452515, 0.5743327736854553, 0.7541444897651672, 0.31844717264175415, 0.03667503595352173, -0.00393068790435791, -0.007670968770980835, -0.8098899903313922, -0.05746123024631222, 0.438221747261194,0.38566613546430384,0.6151123046875,0.74676513671875,0.308349609375
20220119-1824,2022-01-19 18:24:57Z,u01, 61,40,movements,el-ex, rt, d,234721.47146300002, 2.109856526842181, -0.8733916790300708, 2.7798578696629597, -0.0924752801656723, 0.6830477118492126, -0.9227234125137329, 0.5511571764945984, 0.7665115594863892, 0.32967624068260193, 0.07161509990692139, -0.02389669418334961, -0.011072248220443726, -0.8129041008254637, -0.06344324344159383, 0.44231308992969764,0.3735254490056841,0.622772216796875,0.74261474609375,0.318603515625
20220119-1824,2022-01-19 18:24:57Z,u01, 62,40,movements,el-ex, rt, d,234721.4964086667, 2.144562992376163, -0.8914308575381643, 2.803492370399149, -0.1490946114063263, 0.6586707234382629, -0.9341910481452942, 0.5276855826377869, 0.7779715657234192, 0.34104087948799133, 0.06461489200592041, -0.03238123655319214, -0.008658289909362793, -0.8158685963837735, -0.06984887802506431, 0.44582109891894617,0.3615568617123445,0.6013641357421875,0.7436065673828125,0.336151123046875
20220119-1824,2022-01-19 18:24:57Z,u01, 63,40,movements,el-ex, rt, d,234721.52135466668, 2.1800203112643404, -0.908283804198815, 2.828334041459753, -0.12797097861766815, 0.6360870599746704, -0.877246081829071, 0.504439115524292, 0.7884492874145508, 0.35197967290878296, 0.06591928005218506, -0.02268671989440918, -0.025776773691177368, -0.8186552646379216, -0.07611432994271128, 0.4490253173282156,0.34983812983998674,0.5703582763671875,0.7657623291015625,0.326202392578125
20220119-1824,2022-01-19 18:24:57Z,u01, 64,40,movements,el-ex, rt, d,234721.54630066667, 2.2154765804208267, -0.9247010792612842, 2.853172312222682, -0.08924353122711182, 0.6483350396156311, -0.8892749547958374, 0.48123276233673096, 0.7984408140182495, 0.3618119955062866, 0.05650228261947632, -0.015298545360565186, -0.005534142255783081, -0.8210758225947778, -0.082100457892502, 0.45239066506741044,0.33828527390563023,0.5407562255859375,0.7761688232421875,0.3603363037109375
20220119-1824,2022-01-19 18:24:57Z,u01, 65,40,movements,el-ex, rt, d,234721.57124766667, 2.2515536283111603, -0.9405046973260214, 2.8776944346521756, -0.05310549959540367, 0.651423990726471, -0.8531805872917175, 0.45800545811653137, 0.8078556656837463, 0.3709453344345093, 0.07921063899993896, -0.022791028022766113, -0.013873964548110962, -0.8232965418782695, -0.08749556291808122, 0.4559126537029837,0.32660535969330107,0.5372161865234375,0.785064697265625,0.3570709228515625
20220119-1824,2022-01-19 18:24:57Z,u01, 66,40,movements,el-ex, rt, d,234721.5961936667, 2.286964897978023, -0.9557576882972031, 2.9015469253721915, -0.030031606554985046, 0.6280545592308044, -0.8226456046104431, 0.4352392554283142, 0.8167511820793152, 0.378793865442276, 0.06022888422012329, -0.033242762088775635, -0.01767897605895996, -0.8251350038023836, -0.09246163513625288, 0.4595951969391186,0.31523877036601977,0.5057373046875,0.7816314697265625,0.3543853759765625
20220119-1824,2022-01-19 18:24:57Z,u01, 67,40,movements,el-ex, rt, d,234721.62113966668, 2.323147787005346, -0.9696268319250304, 2.926622978645115, -0.07490400969982147, 0.6013481020927429, -0.7916903495788574, 0.4129411280155182, 0.8246747255325317, 0.38651221990585327, 0.05446609854698181, -0.031248152256011963, -0.02448180317878723, -0.8269166197619823, -0.0972882794836337, 0.4628613306032088,0.30414378095314476,0.4674072265625,0.793426513671875,0.362030029296875
20220119-1824,2022-01-19 18:24:57Z,u01, 68,40,movements,el-ex, rt, d,234721.64608566667, 2.360638456912363, -0.9819454371101008, 2.9536697369441733, -0.11102009564638138, 0.5812408924102783, -0.760245680809021, 0.39098218083381653, 0.8315794467926025, 0.39447274804115295, 0.049462705850601196, -0.018484413623809814, -0.01039344072341919, -0.8287341830512821, -0.10215684341165279, 0.46556436428204095,0.29328061810138506,0.4476470947265625,0.8054656982421875,0.38385009765625
20220119-1824,2022-01-19 18:24:57Z,u01, 69,40,movements,el-ex, rt, d,234721.6710316667, 2.400059320174317, -0.9930251667431689, 2.982735444748976, -0.11815181374549866, 0.5691346526145935, -0.727578341960907, 0.36888593435287476, 0.8376820087432861, 0.40275558829307556, 0.06707283854484558, -0.019597411155700684, -0.03706306219100952, -0.830615333673948, -0.10703252816932834, 0.4678710591682973,0.2823453676524894,0.4359588623046875,0.818084716796875,0.365692138671875
20220119-1824,2022-01-19 18:24:57Z,u01, 70,40,movements,el-ex, rt, d,234721.69597866668, 2.44014147752781, -1.003051892120187, 3.0123148259902623, -0.11073218286037445, 0.5927524566650391, -0.7189642190933228, 0.3470127582550049, 0.8431159853935242, 0.4107767343521118, 0.06856024265289307, -0.03597193956375122, -0.04494699835777283, -0.8324204986770821, -0.11164446713222281, 0.4700141220895798,0.27147439375361,0.4022064208984375,0.810302734375,0.3721923828125
20220119-1824,2022-01-19 18:24:57Z,u01, 71,40,movements,el-ex, rt, d,234721.72092466668, 2.477214545408065, -1.0125785933921527, 3.03885349201142, -0.009148428216576576, 0.6108118891716003, -0.6776122450828552, 0.32658177614212036, 0.8482005000114441, 0.41701364517211914, 0.04954725503921509, -0.025004208087921143, -0.0349484384059906, -0.8337686267436671, -0.11548465856293272, 0.4724638750187488,0.26128738015189346,0.376129150390625,0.8231964111328125,0.3820648193359375
20220119-1824,2022-01-19 18:24:57Z,u01, 72,40,movements,el-ex, rt, d,234721.7458706667, 2.5110578893652815, -1.0226505214561066, 3.0621886265975027, 0.02412833645939827, 0.566658616065979, -0.6011131405830383, 0.30723193287849426, 0.8534922003746033, 0.42090365290641785, 0.058490633964538574, -0.02706092596054077, -0.03123965859413147, -0.8344832247663336, -0.1186995357577261, 0.4755823132988152,0.25173348235873244,0.375701904296875,0.825408935546875,0.388031005859375
20220119-1824,2022-01-19 18:24:57Z,u01, 73,40,movements,el-ex, rt, d,234721.77081666669, 2.5471480104713646, -1.0312778788105446, 3.087552309518047, -0.07484950870275497, 0.5194529891014099, -0.5882790684700012, 0.28771013021469116, 0.8579561710357666, 0.4255990982055664, 0.09139436483383179, -0.033722102642059326, -0.03015187382698059, -0.8354304740198932, -0.1218830384947297, 0.4781819357591369,0.2419559084665231,0.3791046142578125,0.8242340087890625,0.39544677734375
20220119-1824,2022-01-19 18:24:57Z,u01, 74,40,movements,el-ex, rt, d,234721.79576366668, 2.5830672255744718, -1.0375130413362754, 3.113547355521306, -0.06781280785799026, 0.5507602691650391, -0.5930691361427307, 0.26940059661865234, 0.861142635345459, 0.4311118423938751, 0.05500122904777527, -0.023175477981567383, -0.03809076547622681, -0.8366266696186031, -0.12494692794809337, 0.47990246456435365,0.23267563409958292,0.324066162109375,0.8332977294921875,0.3922271728515625
20220119-1824,2022-01-19 18:24:57Z,u01, 75,40,movements,el-ex, rt, d,234721.82070966667, 2.6167273972714056, -1.0438183710319284, 3.13765610127272, -0.006308266893029213, 0.5173685550689697, -0.5170659422874451, 0.252013623714447, 0.8643308877944946, 0.4352265000343323, 0.06396538019180298, -0.020199179649353027, -0.037292033433914185, -0.8374420261398402, -0.12768749887254618, 0.4819086149719478,0.22394447006872348,0.31597900390625,0.8441314697265625,0.3979339599609375
20220119-1824,2022-01-19 18:24:57Z,u01, 76,40,movements,el-ex, rt, d,234721.8456556667, 2.64888910184526, -1.050507779283302, -3.1231307155061843, -0.02402288280427456, 0.5092268586158752, -0.5475315451622009, 0.23514774441719055, 0.86767578125, 0.4380009174346924, 0.05019155144691467, -0.01191699504852295, -0.01838374137878418, -0.8379107306662008, -0.13002332052850038, 0.4843252468923672,0.21547337350729795,0.2826385498046875,0.8498382568359375,0.419677734375
20220119-1824,2022-01-19 18:24:57Z,u01, 77,40,movements,el-ex, rt, d,234721.87060166668, 2.6817240219643725, -1.0551838972581729, -3.0991472388108385, -0.06925071775913239, 0.4839784502983093, -0.5204653739929199, 0.21883860230445862, 0.8699909448623657, 0.4418436586856842, 0.054675087332725525, -0.007930338382720947, -0.021997720003128052, -0.8386576831530707, -0.13257116291132587, 0.48591459989992614,0.20728071582696714,0.2735137939453125,0.862060546875,0.4198455810546875
20220119-1824,2022-01-19 18:24:57Z,u01, 78,40,movements,el-ex, rt, d,234721.89554866668, 2.715277385782533, -1.059552476684922, -3.0741250376164233, -0.044959455728530884, 0.46668049693107605, -0.5128939747810364, 0.2023194581270218, 0.8721365928649902, 0.44547197222709656, 0.04572737216949463, -0.003239929676055908, -0.024145781993865967, -0.8393051731902488, -0.13528787526625036, 0.48746528370959274,0.19910263391637006,0.2533721923828125,0.8756866455078125,0.4167938232421875
20220119-1824,2022-01-19 18:24:57Z,u01, 79,40,movements,el-ex, rt, d,234721.92049466667, 2.7469726377986725, -1.0636366047805645, -3.050417988018646, -0.04288128763437271, 0.4471234977245331, -0.4701603651046753, 0.18672969937324524, 0.8741275668144226, 0.4483673572540283, 0.0382457971572876, -0.023877382278442383, -0.03392300009727478, -0.8397554554896856, -0.13782036696636543, 0.4890459694363511,0.19144305047532828,0.2249755859375,0.850250244140625,0.4144439697265625
20220119-1824,2022-01-19 18:24:57Z,u01, 80,40,movements,el-ex, rt, d,234721.9454406667, 2.778210761589094, -1.0668721412077076, -3.027312892742248, -0.06609313935041428, 0.45226019620895386, -0.4787757098674774, 0.17162875831127167, 0.8756944537162781, 0.4513353109359741, 0.04492391645908356, -0.00638580322265625, -0.011835992336273193, -0.8402622378591287, -0.1400965166824689, 0.49042311573786423,0.18389609768536183,0.215240478515625,0.8640594482421875,0.438568115234375
20220119-1824,2022-01-19 18:24:57Z,u01, 81,40,movements,el-ex, rt, d,234721.97038666668, 2.8114566655199984, -1.067725267578088, -3.0018627769216253, -0.21954554319381714, 0.4185626804828644, -0.47261980175971985, 0.1562892496585846, 0.8761060833930969, 0.4560835361480713, 0.05312226712703705, 0.00012987852096557617, -0.012876302003860474, -0.8412380910710832, -0.14268931610758467, 0.4908461529983879,0.17614885762345736,0.20941162109375,0.8762359619140625,0.443206787109375
20220119-1824,2022-01-19 18:24:57Z,u01, 82,40,movements,el-ex, rt, d,234721.99533266667, 2.845088414461631, -1.0647107735166919, -2.974072345737487, -0.35076436400413513, 0.35330337285995483, -0.4790661334991455, 0.14163585007190704, 0.8746487498283386, 0.46360448002815247, 0.04784765839576721, 0.002578914165496826, 0.004962831735610962, -0.8429029131347533, -0.14600316546442652, 0.4895890310967345,0.1688207199312079,0.1956024169921875,0.872772216796875,0.45538330078125
20220119-1824,2022-01-19 18:24:57Z,u01, 83,40,movements,el-ex, rt, d,234722.02027966667, 2.880051015423757, -1.059098910331395, -2.9443751267281817, -0.3769208788871765, 0.35780805349349976, -0.5008415579795837, 0.12661100924015045, 0.8719146251678467, 0.47300636768341064, 0.03914514183998108, 0.018161118030548096, 0.008530855178833008, -0.8450244156209186, -0.14978958987223634, 0.4873190897260073,0.16129810045652374,0.1657562255859375,0.89007568359375,0.481536865234375
20220119-1824,2022-01-19 18:24:57Z,u01, 84,40,movements,el-ex, rt, d,234722.0452256667, 2.9142771736070907, -1.0552854036683208, -2.916149145231616, -0.1582934409379959, 0.42534056305885315, -0.5273694396018982, 0.11109928786754608, 0.8700409531593323, 0.48029759526252747, 0.012389995157718658, 0.040710270404815674, -0.01627752184867859, -0.8465507838591066, -0.15329895889686404, 0.48605256925254814,0.15363638023486886,0.128387451171875,0.90472412109375,0.4635467529296875
20220119-1824,2022-01-19 18:24:57Z,u01, 85,40,movements,el-ex, rt, d,234722.07017166668, 2.9489926085093714, -1.0572966996483122, -2.8888311572943572, 0.05293777957558632, 0.4871009588241577, -0.5472865700721741, 0.09402681887149811, 0.8710307478904724, 0.4821457862854004, 0.02992023527622223, 0.06154054403305054, -0.00892457365989685, -0.8465214645365933, -0.15644264265900765, 0.48756094924738475,0.14564159100650692,0.1239471435546875,0.9325714111328125,0.4732208251953125
20220119-1824,2022-01-19 18:24:57Z,u01, 86,40,movements,el-ex, rt, d,234722.09511766667, 2.9841464530760256, -1.0607958477706423, -2.862231924666515, -0.025352131575345993, 0.4871680736541748, -0.5402428507804871, 0.0765446126461029, 0.8727442622184753, 0.4821397364139557, 0.05046942085027695, 0.011227905750274658, 0.027031153440475464, -0.8460202504643796, -0.15912136955665757, 0.48995342418597965,0.13738958075626423,0.1257781982421875,0.8926544189453125,0.509979248046875
20220119-1824,2022-01-19 18:24:57Z,u01, 87,40,movements,el-ex, rt, d,234722.12006466667, 3.0188385649813867, -1.0600253901427266, -2.835579378101372, -0.16320987045764923, 0.44936898350715637, -0.508642315864563, 0.059857774525880814, 0.8723679184913635, 0.48517173528671265, 0.05079885572195053, -0.0364609956741333, -0.027194082736968994, -0.8463891006346953, -0.16189922884327598, 0.49063130589722204,0.1292097417989596,0.11065673828125,0.835906982421875,0.457977294921875
20220119-1824,2022-01-19 18:24:57Z,u01, 88,40,movements,el-ex, rt, d,234722.1450106667, 3.0511923240142385, -1.0580487393916174, -2.811337473759608, -0.06343686580657959, 0.4428473114967346, -0.44602328538894653, 0.04428762570023537, 0.8713998794555664, 0.48857030272483826, 0.030922826379537582, -0.04940903186798096, -0.03240853548049927, -0.8469384941396922, -0.16425691282408889, 0.4909056555488099,0.12135292015490606,0.0808563232421875,0.8349609375,0.451812744140625
20220119-1824,2022-01-19 18:24:57Z,u01, 89,40,movements,el-ex, rt, d,234722.16995666668, 3.080905756680351, -1.0584139248520883, -2.7893496715689285, 0.009667702950537205, 0.40243062376976013, -0.4093709886074066, 0.029733816161751747, 0.8715789914131165, 0.489352822303772, 0.03922053426504135, -0.037671029567718506, -0.03613588213920593, -0.8467796649435192, -0.16625467252113443, 0.49222183542479675,0.11419864240036642,0.0689544677734375,0.8339080810546875,0.453216552734375
20220119-1824,2022-01-19 18:24:57Z,u01, 90,40,movements,el-ex, rt, d,234722.19490266667, 3.1073117591736246, -1.0602577997946177, -2.769748393633697, 0.06503719091415405, 0.3305625319480896, -0.37121835350990295, 0.016747983172535896, 0.8724814653396606, 0.48836013674736023, 0.057363834232091904, -0.05595332384109497, -0.04229971766471863, -0.8461470161537102, -0.16797407193728667, 0.4941239463432263,0.10798832951405185,0.080596923828125,0.820556640625,0.44744873046875
20220119-1824,2022-01-19 18:24:57Z,u01, 91,40,movements,el-ex, rt, d,234722.2198486667, 3.1297454034153054, -1.061408449568468, -2.7527835275528822, -0.006094182375818491, 0.2872202396392822, -0.2838846445083618, 0.005777097772806883, 0.8730431795120239, 0.4876091480255127, 0.044012218713760376, -0.07659536600112915, -0.06466567516326904, -0.8456108263605522, -0.1695491242203474, 0.49561086198182563,0.1027883440392385,0.0497894287109375,0.79644775390625,0.422943115234375
20220119-1824,2022-01-19 18:24:57Z,u01, 92,40,movements,el-ex, rt, d,234722.2447956667, -3.1361225993932043, -1.0602574075462932, -2.7407254778954715, -0.06876438856124878, 0.2563551962375641, -0.19959060847759247, -0.0026729186065495014, 0.8724812865257263, 0.48864084482192993, 0.051684051752090454, -0.07726937532424927, -0.05522972345352173, -0.8457425485087658, -0.17041118170831004, 0.4959893738990945,0.09835815420287145,0.0467071533203125,0.795501708984375,0.429779052734375
20220119-1824,2022-01-19 18:24:57Z,u01, 93,40,movements,el-ex, rt, d,234722.26974166668, -3.1226732108909, -1.0594672660073543, -2.7316956368656724, 0.016205962747335434, 0.1908751279115677, -0.167049840092659, -0.009257429279386997, 0.8720949292182922, 0.4892493188381195, 0.05289745330810547, -0.04548066854476929, -0.039496153593063354, -0.845816630344301, -0.17093533253856974, 0.49636739672044067,0.09484090122377943,0.04364013671875,0.8266143798828125,0.4497528076171875
20220119-1824,2022-01-19 18:24:58Z,u01, 94,40,movements,el-ex, rt, d,234722.29468766667, -3.1130334958510977, -1.0615202269744566, -2.725039199919284, 0.1347576379776001, 0.11677107214927673, -0.08862613886594772, -0.013922012411057949, 0.8730976581573486, 0.48734724521636963, 0.044607341289520264, -0.05273926258087158, -0.08564382791519165, -0.8451931915868934, -0.17123694197576028, 0.4977453470120405,0.09260768527974383,0.0343170166015625,0.827484130859375,0.4100494384765625
20220119-1824,2022-01-19 18:24:58Z,u01, 95,40,movements,el-ex, rt, d,234722.3196336667, -3.109184421255336, -1.0654955685619638, -2.7228363099195354, 0.1558331698179245, 0.030757760629057884, 0.013400491327047348, -0.01568514294922352, 0.8750289082527161, 0.4838169515132904, 0.042326897382736206, -0.09260398149490356, -0.10304871201515198, -0.844201801662783, -0.1709730760950375, 0.49964568288191513,0.09190147106561997,0.026641845703125,0.7824249267578125,0.380767822265625
20220119-1824,2022-01-19 18:24:58Z,u01, 96,40,movements,el-ex, rt, d,234722.3445806667, -3.113101239207336, -1.0685546526014866, -2.7266859300322985, 0.06074566766619682, -0.07633113861083984, 0.14493641257286072, -0.01371367834508419, 0.8765056133270264, 0.48119646310806274, 0.051906291395425797, -0.13447082042694092, -0.11402389407157898, -0.843592300818106, -0.17014776065646015, 0.5007754085836981,0.09287540312002013,0.035552978515625,0.749114990234375,0.369903564453125
20220119-1824,2022-01-19 18:24:58Z,u01, 97,40,movements,el-ex, rt, d,234722.36952666668, -3.1268464884515055, -1.069937827397891, -2.738148531330618, 0.07926861941814423, -0.2146967500448227, 0.29218870401382446, -0.00708054518327117, 0.8771706223487854, 0.4801269769668579, 0.060654014348983765, -0.1490822434425354, -0.13337066769599915, -0.8435708095610531, -0.16867655526538952, 0.5007339829275977,0.09592770391185103,0.0535736083984375,0.72808837890625,0.3467559814453125
20220119-1824,2022-01-19 18:24:58Z,u01, 98,40,movements,el-ex, rt, d,234722.39447266667, 3.132476433935503, -1.0738447390979577, -2.757591346716939, 0.19843429327011108, -0.3213805854320526, 0.42382821440696716, 0.004346082452684641, 0.8790399432182312, 0.47672852873802185, 0.06856030225753784, -0.12701064348220825, -0.11610192060470581, -0.8430434598455685, -0.16625878627582327, 0.5013421986441733,0.1014486093199142,0.0648040771484375,0.7378692626953125,0.356231689453125
20220119-1824,2022-01-19 18:24:58Z,u01, 99,40,movements,el-ex, rt, d,234722.4194186667, 3.0994364890968864, -1.078913506126256, -2.783891999976269, 0.1657811850309372, -0.4517941474914551, 0.5376920104026794, 0.01990390755236149, 0.8814451694488525, 0.47186729311943054, 0.09089004993438721, -0.10230082273483276, -0.11944997310638428, -0.8421885871296814, -0.16325449535853526, 0.5021469538738549,0.10915571952978671,0.1107940673828125,0.779144287109375,0.3524169921875
20220119-1824,2022-01-19 18:24:58Z,u01, 100,40,movements,el-ex, rt, d,234722.44436466668, 3.057103956675217, -1.0811018593783581, -2.816947638042869, 0.0004156148061156273, -0.5276192426681519, 0.6093711853027344, 0.03969262167811394, 0.8824766278266907, 0.46867960691452026, 0.0533096008002758, -0.0869288444519043, -0.07689440250396729, -0.8418872379234947, -0.15989271418474268, 0.5015384108427182,0.11882665926431846,0.098388671875,0.7791748046875,0.374664306640625
20220119-1824,2022-01-19 18:24:58Z,u01, 101,40,movements,el-ex, rt, d,234722.46931166667, 3.014231719603928, -1.078485142557355, -2.849962368892406, -0.07703989744186401, -0.5743513107299805, 0.6157404184341431, 0.060036398470401764, 0.8812428116798401, 0.46883633732795715, 0.06243056803941727, 0.0038281679153442383, -0.019128859043121338, -0.8425229976562175, -0.15675829411183698, 0.49907270668138193,0.12848549541675244,0.122467041015625,0.88507080078125,0.44970703125
20220119-1824,2022-01-19 18:24:58Z,u01, 102,40,movements,el-ex, rt, d,234722.49425841667, 2.971324300250331, -1.0737023931939265, -2.8819317690509996, -0.1708456426858902, -0.591932475566864, 0.5912959575653076, 0.08080470561981201, 0.8789721131324768, 0.46997761726379395, 0.06334494799375534, 0.05436217784881592, -0.0009830594062805176, -0.8433750063759673, -0.15397210477607057, 0.49583164836384697,0.13842785857944223,0.1459503173828125,0.926055908203125,0.473114013671875
20220119-1824,2022-01-19 18:24:58Z,u01, 103,40,movements,el-ex, rt, d,234722.5192044167, 2.9300104954358717, -1.0676307466797008, -2.9120186835996567, -0.0997261330485344, -0.5637063384056091, 0.5977103114128113, 0.1012658178806305, 0.8760604858398438, 0.4714488685131073, 0.027197852730751038, 0.033714473247528076, -0.03043884038925171, -0.8442720413703151, -0.15142375801052033, 0.4922354810968027,0.148256783029027,0.1284637451171875,0.9097747802734375,0.441009521484375
20220119-1824,2022-01-19 18:24:58Z,u01, 104,40,movements,el-ex, rt, d,234722.54415041668, 2.887190365083576, -1.064204885580565, -2.945146243673215, 0.1433074176311493, -0.507820725440979, 0.651220977306366, 0.12210880219936371, 0.8744034171104431, 0.4695832431316376, 0.0034098774194717407, 0.02014303207397461, 0.011374175548553467, -0.8443485846785127, -0.14787524989053186, 0.4901011353204879,0.15814348750270635,0.1264801025390625,0.9066314697265625,0.470062255859375
20220119-1824,2022-01-19 18:24:58Z,u01, 105,40,movements,el-ex, rt, d,234722.56909741668, 2.8440689899650393, -1.065829118178398, -2.980306274317525, 0.28226470947265625, -0.4806880056858063, 0.6002008318901062, 0.14182166755199432, 0.8751903176307678, 0.46252477169036865, 0.005990117788314819, 0.04137468338012695, 0.03546154499053955, -0.8429829757512645, -0.1436735394014043, 0.49051787105613476,0.16772019979333222,0.1478118896484375,0.91656494140625,0.49798583984375
20220119-1824,2022-01-19 18:24:58Z,u01, 106,40,movements,el-ex, rt, d,234722.59404341667, 2.801762381578525, -1.0661990731855207, -3.0141780002832412, 0.09571576863527298, -0.5135007500648499, 0.5888845324516296, 0.16114892065525055, 0.8753692507743835, 0.4558075964450836, 0.04168613255023956, -0.008654475212097168, 0.012652993202209473, -0.8416406228420482, -0.13980292198979538, 0.490598648313864,0.17722716582961462,0.2036895751953125,0.881988525390625,0.4739227294921875
20220119-1824,2022-01-19 18:24:58Z,u01, 107,40,movements,el-ex, rt, d,234722.6189894167, 2.7632351331486324, -1.0606596392911243, -3.042784605550372, -0.1026209220290184, -0.5461264252662659, 0.5900800228118896, 0.1803743690252304, 0.872677743434906, 0.4537612199783325, 0.008559852838516235, -0.03881537914276123, -0.0021921396255493164, -0.8415189319806294, -0.1368447709969767, 0.4881761683912679,0.18655735146369384,0.188934326171875,0.8338623046875,0.451568603515625
20220119-1824,2022-01-19 18:24:58Z,u01, 108,40,movements,el-ex, rt, d,234722.64393541668, 2.725468209850522, -1.052173628736085, -3.070145588476293, -0.10549980401992798, -0.5325855612754822, 0.6275985836982727, 0.2003651112318039, 0.8685027360916138, 0.4533843696117401, -0.0020314455032348633, -0.011401236057281494, 0.011108875274658203, -0.8418836367004895, -0.1338810241536249, 0.48462963216132693,0.19606660581171836,0.194122314453125,0.8518829345703125,0.4508514404296875
20220119-1824,2022-01-19 18:24:58Z,u01, 109,40,movements,el-ex, rt, d,234722.66888141667, 2.689299929386742, -1.0437559870567683, -3.0967874679845875, -0.08270367234945297, -0.5294526219367981, 0.5950673222541809, 0.21981607377529144, 0.864299476146698, 0.45240265130996704, 0.009676098823547363, 0.0060163140296936035, 0.05104637145996094, -0.8420959875651117, -0.13067391510274312, 0.48133960040967544,0.20521006044718398,0.2294921875,0.8703155517578125,0.503448486328125
20220119-1824,2022-01-19 18:24:58Z,u01, 110,40,movements,el-ex, rt, d,234722.69382841667, 2.6538835151507865, -1.0345912213094641, -3.1218783880731267, -0.09233309328556061, -0.5393118858337402, 0.6163265705108643, 0.23939915001392365, 0.8596535921096802, 0.4513140618801117, 0.03609824180603027, -0.02418893575668335, -0.027088820934295654, -0.8422274918396581, -0.12771014925405694, 0.47780849617087084,0.21457452761538498,0.2767486572265625,0.846282958984375,0.4289398193359375
20220119-1824,2022-01-19 18:24:58Z,u01, 111,40,movements,el-ex, rt, d,234722.7187744167, 2.619907481421541, -1.0249558404097157, 3.13704529299526, -0.09924805909395218, -0.49822524189949036, 0.6136776208877563, 0.25870752334594727, 0.8546912670135498, 0.45008140802383423, 0.016667723655700684, 0.012694478034973145, 0.007880926132202148, -0.8423362103563962, -0.12454079220662076, 0.4742614881087003,0.22368581103608892,0.2753753662109375,0.8673858642578125,0.4579620361328125
20220119-1824,2022-01-19 18:24:58Z,u01, 112,40,movements,el-ex, rt, d,234722.74372041668, 2.588868217984788, -1.014561983235359, 3.114871876462416, -0.11070085316896439, -0.46803992986679077, 0.5722660422325134, 0.2772000730037689, 0.8492493629455566, 0.4493727385997772, 0.03250744938850403, 0.043786466121673584, 0.03398030996322632, -0.8425975109984776, -0.1213086839992312, 0.4705129412766517,0.23223109685274138,0.30615234375,0.8969268798828125,0.4890899658203125
20220119-1824,2022-01-19 18:24:58Z,u01, 113,40,movements,el-ex, rt, d,234722.76866641667, 2.5592921216400715, -1.006263634084754, 3.0932878466510654, 0.05775284022092819, -0.4392099380493164, 0.5485609173774719, 0.294233113527298, 0.8448387384414673, 0.44684940576553345, 0.015199780464172363, 0.031763315200805664, 0.01623988151550293, -0.8423043289590205, -0.11810216836940832, 0.4678176815819646,0.2402538241785935,0.3094329833984375,0.8766021728515625,0.4630889892578125
20220119-1824,2022-01-19 18:24:58Z,u01, 114,40,movements,el-ex, rt, d,234722.79361341667, 2.527236699428728, -1.0013922965418276, 3.0680096827061076, 0.20072707533836365, -0.4175397455692291, 0.5560569763183594, 0.3107723891735077, 0.8422224521636963, 0.440547913312912, 0.0071443915367126465, 0.034517109394073486, 0.014744281768798828, -0.8409584494058906, -0.11429277670467766, 0.4670132983047649,0.2482434728294281,0.3141021728515625,0.8720550537109375,0.4481964111328125
20220119-1824,2022-01-19 18:24:58Z,u01, 115,40,movements,el-ex, rt, d,234722.8185594167, 2.4952858374883773, -0.9972027313462081, 3.04222923061762, 0.12755516171455383, -0.4068574607372284, 0.5246866345405579, 0.3268093466758728, 0.8399563431739807, 0.43320825695991516, 0.014590740203857422, 0.030481278896331787, 0.039784133434295654, -0.8393066625087259, -0.11031071771472267, 0.46673633216514876,0.25603358708598234,0.341400146484375,0.8704376220703125,0.472991943359375
20220119-1824,2022-01-19 18:24:58Z,u01, 116,40,movements,el-ex, rt, d,234722.84350541668, 2.4690773166298787, -0.9899947537723487, 3.0228030715479144, -0.05516738444566727, -0.3818083107471466, 0.48003843426704407, 0.341812402009964, 0.8360230922698975, 0.4292203485965729, 0.027358680963516235, 0.003561258316040039, 0.035089731216430664, -0.8385275023666454, -0.10715316160302996, 0.4648702941543389,0.26322156915307815,0.3683319091796875,0.8397064208984375,0.4664154052734375
20220119-1824,2022-01-19 18:24:58Z,u01, 117,40,movements,el-ex, rt, d,234722.86845141667, 2.4469026623203702, -0.9810369090715986, 3.0081590833832488, -0.03670835122466087, -0.4156874418258667, 0.49961748719215393, 0.35602518916130066, 0.8310744762420654, 0.42727217078208923, 0.016182392835617065, 0.014399707317352295, -0.013667166233062744, -0.838255687359419, -0.1047066551262715, 0.46198247462608083,0.27006703610909255,0.3722076416015625,0.8454742431640625,0.413604736328125
20220119-1824,2022-01-19 18:24:58Z,u01, 118,40,movements,el-ex, rt, d,234722.8933974167, 2.4195846881130274, -0.9736063262799804, 2.9881014412883875, 0.17109641432762146, -0.4331747591495514, 0.5636740326881409, 0.37163421511650085, 0.8269190192222595, 0.42201101779937744, -0.011358976364135742, -0.005538344383239746, -0.03899979591369629, -0.8370981185512977, -0.10135212648969377, 0.460296305157108,0.27770831911284555,0.3608551025390625,0.8203582763671875,0.3811492919921875
20220119-1824,2022-01-19 18:24:58Z,u01, 119,40,movements,el-ex, rt, d,234722.91834441668, 2.3865336954981355, -0.9685158097403163, 2.961012807426855, 0.299653559923172, -0.4225171208381653, 0.5929107069969177, 0.3882564604282379, 0.8240457773208618, 0.4125600755214691, -0.0013699233531951904, -0.038797974586486816, -0.01451900601387024, -0.8348187996965938, -0.09673470770999834, 0.460420098468705,0.2858905890178395,0.3868865966796875,0.785247802734375,0.398040771484375
20220119-1824,2022-01-19 18:24:58Z,u01, 120,40,movements,el-ex, rt, d,234722.94329041668, 2.3556904552989604, -0.9614504293494907, 2.9368822650799205, 0.050298452377319336, -0.46617722511291504, 0.5857843160629272, 0.4049035608768463, 0.8200225830078125, 0.40449559688568115, 0.0601537823677063, -0.03666675090789795, -0.01155078411102295, -0.8328868722553614, -0.09245135804237889, 0.459632726993763,0.29409209854762,0.456298828125,0.785064697265625,0.4036865234375
20220119-1824,2022-01-19 18:24:58Z,u01, 121,40,movements,el-ex, rt, d,234722.9682364167, 2.328517913924811, -0.9506915282125536, 2.91870401876054, 0.01035972498357296, -0.5226154327392578, 0.614248514175415, 0.42212823033332825, 0.81381756067276, 0.3993857204914093, 0.05405274033546448, -0.03191143274307251, -0.02726951241493225, -0.8317260585993863, -0.08902035247142487, 0.45683992644704746,0.3026623472438244,0.4761810302734375,0.7819061279296875,0.3721160888671875
20220119-1824,2022-01-19 18:24:58Z,u01, 122,40,movements,el-ex, rt, d,234722.99318241669, 2.298289225208487, -0.9407960947472439, 2.897730771382955, 0.16462822258472443, -0.5243515968322754, 0.619573175907135, 0.43999961018562317, 0.8080273866653442, 0.391781210899353, 0.021929681301116943, -0.0026378631591796875, -0.011608123779296875, -0.829838570160852, -0.08519717873771177, 0.45484559057705654,0.31180928366873445,0.462615966796875,0.807952880859375,0.3813018798828125
20220119-1824,2022-01-19 18:24:58Z,u01, 123,40,movements,el-ex, rt, d,234723.01812941668, 2.267521558819594, -0.9307829171130076, 2.8755144270299535, 0.08811650425195694, -0.5242893695831299, 0.6603327989578247, 0.4580264389514923, 0.8020877242088318, 0.38323333859443665, 0.03327608108520508, -0.01622939109802246, -0.01860874891281128, -0.8276937108016821, -0.0808689943799338, 0.4531721628994869,0.32096510983424625,0.491302490234375,0.785858154296875,0.3646240234375
20220119-1824,2022-01-19 18:24:58Z,u01, 124,40,movements,el-ex, rt, d,234723.04307541667, 2.2388894720277652, -0.9188042946849811, 2.856175964929036, 0.06175413727760315, -0.5271924734115601, 0.6765756607055664, 0.4763180613517761, 0.7948766946792603, 0.3758888244628906, 0.039810389280319214, -0.011856675148010254, -0.028522074222564697, -0.8258673762850922, -0.07673001624378953, 0.45055588808693425,0.330234849672115,0.5126800537109375,0.7738800048828125,0.3490447998046875
20220119-1824,2022-01-19 18:24:58Z,u01, 125,40,movements,el-ex, rt, d,234723.0680214167, 2.2088002168780485, -0.9072348271343391, 2.8350695888615305, 0.19764848053455353, -0.5295756459236145, 0.651917040348053, 0.49476540088653564, 0.787803590297699, 0.36684170365333557, 0.028122693300247192, 0.03437042236328125, -0.009892404079437256, -0.8235358095454228, -0.0721777295414597, 0.4485328753502328,0.33970202104185465,0.52288818359375,0.822174072265625,0.3569488525390625
20220119-1824,2022-01-19 18:24:58Z,u01, 126,40,movements,el-ex, rt, d,234723.09296741668, 2.178827888906942, -0.8970070766189013, 2.8135684669523844, 0.1506325751543045, -0.5330978035926819, 0.6258548498153687, 0.5121235251426697, 0.7814629673957825, 0.35643431544303894, 0.03910017013549805, 0.03808659315109253, 0.019527405500411987, -0.8207549778372988, -0.06766405103484208, 0.4473031002965021,0.34885940152855893,0.55047607421875,0.8227386474609375,0.3772430419921875
20220119-1824,2022-01-19 18:24:58Z,u01, 127,40,movements,el-ex, rt, d,234723.11791341667, 2.153735544525722, -0.8857501888032218, 2.7975806108065346, 0.02718597650527954, -0.4947848320007324, 0.5704064965248108, 0.5282163619995117, 0.7743898630142212, 0.3482939600944519, 0.019497990608215332, 0.03376162052154541, 0.012958377599716187, -0.8185660391074432, -0.06400482195426516, 0.4450667748452781,0.35744777160227903,0.5477142333984375,0.8081512451171875,0.3612518310546875
20220119-1824,2022-01-19 18:24:58Z,u01, 128,40,movements,el-ex, rt, d,234723.14286041667, 2.131033729496057, -0.8738281592950586, 2.784388161325835, 0.05717100948095322, -0.48915767669677734, 0.5822886228561401, 0.543769121170044, 0.766791820526123, 0.3410956561565399, -0.0014563798904418945, 0.04563206434249878, -0.012954920530319214, -0.8166158971765134, -0.06071489009150427, 0.4422947161316755,0.36582489296173054,0.5455169677734375,0.8122711181640625,0.33599853515625
20220119-1824,2022-01-19 18:24:58Z,u01, 129,40,movements,el-ex, rt, d,234723.1678064167, 2.1053553072962505, -0.8627727629269963, 2.7675230447541397, 0.22064396739006042, -0.5132776498794556, 0.6199747920036316, 0.5596081018447876, 0.7596486806869507, 0.331320196390152, -0.006736397743225098, 0.026301085948944092, -0.025976181030273438, -0.8139056742872854, -0.05672430682358445, 0.44056945363471767,0.374484481980796,0.5528717041015625,0.78594970703125,0.3053436279296875
20220119-1824,2022-01-19 18:24:58Z,u01, 130,40,movements,el-ex, rt, d,234723.19275241668, 2.0771265400970873, -0.8521423571646, 2.7475955889642476, 0.22083629667758942, -0.5400965809822083, 0.6211762428283691, 0.575766384601593, 0.7526925802230835, 0.3192915618419647, 0.014672398567199707, -0.01978248357772827, 0.012953728437423706, -0.8105130683852886, -0.05209944267906241, 0.43968300360664747,0.38344900455816583,0.581878662109375,0.73797607421875,0.32635498046875
20220119-1824,2022-01-19 18:24:58Z,u01, 131,40,movements,el-ex, rt, d,234723.21769841667, 2.0536932175603364, -0.839952136688569, 2.7342398945310022, -0.07009276747703552, -0.5242418646812439, 0.5736235976219177, 0.5911725759506226, 0.7446111440658569, 0.30995088815689087, 0.032820284366607666, -0.012814879417419434, 0.03630205988883972, -0.8078441131221974, -0.048614102918642266, 0.43726099476305924,0.39220852399612444,0.623992919921875,0.7317962646484375,0.34625244140625
20220119-1824,2022-01-19 18:24:58Z,u01, 132,40,movements,el-ex, rt, d,234723.2426444167, 2.0363289671905767, -0.8261475327329219, 2.728439040306004, -0.10481663048267365, -0.5280740261077881, 0.5282080173492432, 0.605593204498291, 0.7353259921073914, 0.3042249083518982, 0.04600280523300171, 0.029139399528503418, 0.021947354078292847, -0.8062038348091387, -0.046344740246775706, 0.4330208267872256,0.4004754622998633,0.6545257568359375,0.755767822265625,0.3282318115234375
20220119-1824,2022-01-19 18:24:58Z,u01, 133,40,movements,el-ex, rt, d,234723.2675914167, 2.017975537529585, -0.8136078021386005, 2.7206078124395576, 0.05314294248819351, -0.4839448630809784, 0.5552989840507507, 0.6193404197692871, 0.7267700433731079, 0.2970237731933594, 0.01907205581665039, 0.02532052993774414, -1.1086463928222656e-05, -0.8041138194537651, -0.04373621647104292, 0.4296900516488473,0.408478542624169,0.6384124755859375,0.7520904541015625,0.2970123291015625
20220119-1824,2022-01-19 18:24:59Z,u01, 134,40,movements,el-ex, rt, d,234723.29253741668, 1.9969480485869873, -0.8023567901636963, 2.707924245258529, 0.17902231216430664, -0.4552628695964813, 0.5844318866729736, 0.632854700088501, 0.7189961075782776, 0.2872979938983917, 0.00017154216766357422, -0.0046558380126953125, -0.005986571311950684, -0.8012774679010986, -0.04004265578079605, 0.4278529042451173,0.4162848903470181,0.62884521484375,0.71875,0.283782958984375
20220119-1824,2022-01-19 18:24:59Z,u01, 135,40,movements,el-ex, rt, d,234723.31748341667, 1.9757792873212108, -0.7909829079939399, 2.6944927360738316, 0.09453023225069046, -0.46968090534210205, 0.5604861378669739, 0.646268904209137, 0.7110447287559509, 0.2770421504974365, 0.011888444423675537, 0.006454110145568848, 0.01314997673034668, -0.798264017490845, -0.035994854028847, 0.4262498948322194,0.4240166847511033,0.6581573486328125,0.717498779296875,0.290191650390625
20220119-1824,2022-01-19 18:24:59Z,u01, 136,40,movements,el-ex, rt, d,234723.3424294167, 1.9581603036578372, -0.7789583909045029, 2.687200112437791, -0.08487091958522797, -0.5170773863792419, 0.4775519073009491, 0.6589188575744629, 0.7025385499000549, 0.26882362365722656, 0.02850496768951416, 0.02149111032485962, 0.020483404397964478, -0.7957990269570471, -0.033402362976842875, 0.42328187716011856,0.43176484086704503,0.6916046142578125,0.720367431640625,0.2879791259765625
20220119-1824,2022-01-19 18:24:59Z,u01, 137,40,movements,el-ex, rt, d,234723.3673764167, 1.9441933500650637, -0.7665842796520204, 2.6850073425104393, -0.11808982491493225, -0.4744608700275421, 0.4780920743942261, 0.6706522703170776, 0.6936789751052856, 0.26274573802948, 0.013628125190734863, 0.024216532707214355, 0.022029489278793335, -0.7939488934785606, -0.03190647369291352, 0.4192035733275943,0.43919886384485735,0.6842803955078125,0.7178955078125,0.2847747802734375
20220119-1824,2022-01-19 18:24:59Z,u01, 138,40,movements,el-ex, rt, d,234723.39232241668, 1.9292691490137381, -0.7544680236118332, 2.680367031894702, 0.019383613020181656, -0.4349086582660675, 0.5102230906486511, 0.6823196411132812, 0.6849011778831482, 0.25563809275627136, -0.005210816860198975, 0.018864810466766357, 0.004723072052001953, -0.7917951251704529, -0.02965673920515105, 0.4157774610448136,0.446441779006502,0.6823272705078125,0.7057647705078125,0.2631988525390625
20220119-1824,2022-01-19 18:24:59Z,u01, 139,40,movements,el-ex, rt, d,234723.41726841667, 1.9135560539056256, -0.7427101356079441, 2.6721678240355966, 0.09413691610097885, -0.3865925967693329, 0.5071734189987183, 0.693789005279541, 0.6762867569923401, 0.24757511913776398, 0.0014167428016662598, 0.0021800994873046875, 0.020689964294433594, -0.7893670234430099, -0.026215728730675347, 0.4133220436171434,0.45318595768546455,0.6952056884765625,0.678466796875,0.2682647705078125
20220119-1824,2022-01-19 18:24:59Z,u01, 140,40,movements,el-ex, rt, d,234723.4422144167, 1.8989116837811768, -0.7314393785929034, 2.664864101336339, 0.010030025616288185, -0.3941429555416107, 0.4901537299156189, 0.7045109868049622, 0.6679415106773376, 0.23982995748519897, 0.02885681390762329, 0.004009664058685303, 0.022301137447357178, -0.787010573279874, -0.023007352407129505, 0.41091773156695366,0.4595994477189598,0.7306365966796875,0.67974853515625,0.262420654296875
20220119-1824,2022-01-19 18:24:59Z,u01, 141,40,movements,el-ex, rt, d,234723.46716041668, 1.8859272801910012, -0.7197066431951398, 2.660583531215124, -0.04879883676767349, -0.4048595428466797, 0.48363956809043884, 0.714967668056488, 0.6591640710830688, 0.23307539522647858, 0.022794783115386963, -0.0037380456924438477, 0.019366472959518433, -0.7849323689766934, -0.02046636505702093, 0.4077337440217168,0.46606392998389873,0.737762451171875,0.655426025390625,0.25244140625
20220119-1824,2022-01-19 18:24:59Z,u01, 142,40,movements,el-ex, rt, d,234723.49210687503, 1.873512229225468, -0.7077921449829178, 2.6568396043812323, -0.020743731409311295, -0.3791258931159973, 0.4982662796974182, 0.7252517342567444, 0.6501578092575073, 0.22650665044784546, 0.010496675968170166, 0.004184901714324951, 0.0035352706909179688, -0.78289985578675, -0.017920484623483057, 0.404410043215916,0.47243983403560086,0.7365570068359375,0.658203125,0.23077392578125
20220119-1824,2022-01-19 18:24:59Z,u01, 143,40,movements,el-ex, rt, d,234723.51705287502, 1.8610520334172962, -0.6955773851168272, 2.6522295052178393, 0.011410010047256947, -0.37566259503364563, 0.5111185312271118, 0.7355722784996033, 0.6408287882804871, 0.21970903873443604, 0.0014730095863342285, 0.0022376179695129395, 0.0034815967082977295, -0.7807894823380119, -0.014909735381870043, 0.40123109904553256,0.47870572247277066,0.7370452880859375,0.64306640625,0.2231903076171875
20220119-1824,2022-01-19 18:24:59Z,u01, 144,40,movements,el-ex, rt, d,234723.541998875, 1.84757337801785, -0.6837355794653569, 2.646097186491313, 0.05979175865650177, -0.374118834733963, 0.49507585167884827, 0.7457144856452942, 0.6316933035850525, 0.21183370053768158, 0.006391167640686035, -0.0019936561584472656, 0.003514006733894348, -0.7783204527408356, -0.011581179734732938, 0.39858899141638776,0.48498453653899265,0.75030517578125,0.6320953369140625,0.2115478515625
20220119-1824,2022-01-19 18:24:59Z,u01, 145,40,movements,el-ex, rt, d,234723.56694487503, 1.835570715648074, -0.6719784511460568, 2.6423653964479654, -0.10163255035877228, -0.39725634455680847, 0.47981005907058716, 0.7553198337554932, 0.6225355267524719, 0.2047976851463318, 0.024190902709960938, -0.008857429027557373, 0.009832888841629028, -0.7760927848781592, -0.008878547342380999, 0.395451612883778,0.4911409577484173,0.779510498046875,0.613677978515625,0.214630126953125
20220119-1824,2022-01-19 18:24:59Z,u01, 146,40,movements,el-ex, rt, d,234723.59189187502, 1.826085309324041, -0.6596269879935328, 2.643420014324373, -0.17189353704452515, -0.4189230501651764, 0.4600158631801605, 0.7646104097366333, 0.6128221154212952, 0.19955064356327057, 0.025138795375823975, 0.01706075668334961, -0.003795146942138672, -0.7744171231051394, -0.007310184544112475, 0.39097183109970957,0.4973589506762597,0.790374755859375,0.625701904296875,0.1999664306640625
20220119-1824,2022-01-19 18:24:59Z,u01, 147,40,movements,el-ex, rt, d,234723.61683787502, 1.814843655989602, -0.6483148013397142, 2.642274787214382, 0.06866474449634552, -0.40655186772346497, 0.4293926954269409, 0.7734832167625427, 0.6038439869880676, 0.19260559976100922, -0.002944648265838623, 0.0672682523727417, -0.008217886090278625, -0.7721867454307124, -0.005516023196903502, 0.38739862949577003,0.5036068286894327,0.770538330078125,0.671112060546875,0.18438720703125
20220119-1824,2022-01-19 18:24:59Z,u01, 148,40,movements,el-ex, rt, d,234723.641783875, 1.797832940089414, -0.6401881534482741, 2.6306292514420613, 0.4949811100959778, -0.3844757080078125, 0.3648551106452942, 0.7814028859138489, 0.5973463654518127, 0.18051943182945251, -0.009903132915496826, 0.07629871368408203, -0.01381683349609375, -0.7682815938437336, -0.001763791325962355, 0.3875852936744846,0.5094291761217574,0.770172119140625,0.678924560546875,0.1724395751953125
20220119-1824,2022-01-19 18:24:59Z,u01, 149,40,movements,el-ex, rt, d,234723.66672987503, 1.7771756976854176, -0.6345217304113052, 2.612088685285008, 0.46034783124923706, -0.3849744200706482, 0.35689374804496765, 0.7882652878761292, 0.5927923917770386, 0.16503140330314636, -0.000331878662109375, 0.0535089373588562, 0.017753958702087402, -0.763220771193359, 0.003123936957008161, 0.3904563982025143,0.5148089625636745,0.787933349609375,0.64630126953125,0.1827850341796875
20220119-1824,2022-01-19 18:24:59Z,u01, 150,40,movements,el-ex, rt, d,234723.69167587502, 1.7614844070647722, -0.6265968223358135, 2.602936389258256, 0.003256043419241905, -0.4210892617702484, 0.38008880615234375, 0.7953453660011292, 0.5863915085792542, 0.15352827310562134, 0.01512521505355835, -0.01040273904800415, 0.023336753249168396, -0.7594254055755074, 0.006098240610087902, 0.39025554420362807,0.5205156548753128,0.8105926513671875,0.5787811279296875,0.19488525390625
20220119-1824,2022-01-19 18:24:59Z,u01, 151,40,movements,el-ex, rt, d,234723.716622875, 1.751707408665922, -0.6170458242412807, 2.6035666988045696, -0.10282019525766373, -0.3958264887332916, 0.3567928075790405, 0.8022812604904175, 0.5786283016204834, 0.14674600958824158, 0.010996997356414795, 0.010971307754516602, -0.037431612610816956, -0.7571810941137677, 0.007056759574711496, 0.3869975574752738,0.5261748867183048,0.8132781982421875,0.589599609375,0.10931396484375
20220119-1824,2022-01-19 18:24:59Z,u01, 152,40,movements,el-ex, rt, d,234723.741568875, 1.7417524424578583, -0.6083410395103996, 2.602808337151511, 0.008819419890642166, -0.37279462814331055, 0.3451961278915405, 0.808635413646698, 0.571506917476654, 0.139603853225708, 0.019001483917236328, 0.014949500560760498, -0.03073190152645111, -0.7548070538933247, 0.008260434771377279, 0.38439421504536947,0.5314503103191333,0.8258056640625,0.592987060546875,0.0983734130859375
20220119-1824,2022-01-19 18:24:59Z,u01, 153,40,movements,el-ex, rt, d,234723.76651487502, 1.7308887231387369, -0.5996959376014284, 2.600135723043526, 0.041786957532167435, -0.3643372356891632, 0.36952918767929077, 0.8149515390396118, 0.5643914937973022, 0.1315937042236328, 0.016225457191467285, -0.019255876541137695, 0.0060715824365615845, -0.7521279884709876, 0.010016956770611124, 0.3823439216043705,0.5366717555304579,0.8311767578125,0.545135498046875,0.137664794921875
20220119-1824,2022-01-19 18:24:59Z,u01, 154,40,movements,el-ex, rt, d,234723.791460875, 1.7208618249704106, -0.5904369180443299, 2.597793519465584, 0.005349920131266117, -0.32173052430152893, 0.38306429982185364, 0.8213617205619812, 0.5567240118980408, 0.12419170886278152, 0.014362215995788574, -0.04048866033554077, 0.018539421260356903, -0.7496339321198434, 0.012034185690877108, 0.3800273874026835,0.5417411291868193,0.8330230712890625,0.521209716796875,0.1513214111328125
20220119-1824,2022-01-19 18:24:59Z,u01, 155,40,movements,el-ex, rt, d,234723.816407875, 1.7115966465442338, -0.5809197366692344, 2.5950265938386585, 0.07341965287923813, -0.3083377480506897, 0.40160441398620605, 0.8276857137680054, 0.5487930178642273, 0.11731468141078949, 0.02788984775543213, -0.019160449504852295, -0.023564234375953674, -0.7472938888129227, 0.014463226554708636, 0.3777634808388404,0.5464773358599027,0.8555755615234375,0.529632568359375,0.09375
20220119-1824,2022-01-19 18:24:59Z,u01, 156,40,movements,el-ex, rt, d,234723.841353875, 1.700822865336895, -0.5710120953558286, 2.5901882553636955, 0.11941922456026077, -0.3491719663143158, 0.4325585961341858, 0.8342522978782654, 0.540483832359314, 0.1090904250741005, 0.021323442459106445, -0.03177100419998169, -0.02632640302181244, -0.7444715288232109, 0.01753157639561398, 0.37598431170999835,0.5514442624907084,0.8551177978515625,0.520751953125,0.079742431640625
20220119-1824,2022-01-19 18:24:59Z,u01, 157,40,movements,el-ex, rt, d,234723.86629987502, 1.6896242162647972, -0.5598828565337958, 2.586774909902185, -0.015337515622377396, -0.38880330324172974, 0.4783886969089508, 0.8413423299789429, 0.5310869216918945, 0.10044815391302109, 0.012081742286682129, -0.04980945587158203, 0.012207850813865662, -0.7414897541442244, 0.02042110987873827, 0.37346300183382836,0.5570469744919422,0.853424072265625,0.4812774658203125,0.1126556396484375
20220119-1824,2022-01-19 18:24:59Z,u01, 158,40,movements,el-ex, rt, d,234723.891245875, 1.6798927474857277, -0.5478072508602541, 2.586706308893892, -0.06649740785360336, -0.3736169636249542, 0.4791097939014435, 0.8485934138298035, 0.5208166241645813, 0.09294755756855011, 0.016000032424926758, -0.018009066581726074, -0.009527340531349182, -0.7388902170669888, 0.02269414232226913, 0.3697198373131538,0.5628796165089965,0.8595428466796875,0.494171142578125,0.09136962890625
20220119-1824,2022-01-19 18:24:59Z,u01, 159,40,movements,el-ex, rt, d,234723.916191875, 1.6703284359158654, -0.5356121579440841, 2.5864337048386004, -0.00820859894156456, -0.3792981207370758, 0.49115273356437683, 0.8557004928588867, 0.5103675723075867, 0.08545204252004623, 0.03173553943634033, -0.010901570320129395, -0.022264957427978516, -0.7362700126597949, 0.025149373639478306, 0.3660121760713764,0.5686029259890302,0.8874359130859375,0.4994659423828125,0.0631866455078125
20220119-1824,2022-01-19 18:24:59Z,u01, 160,40,movements,el-ex, rt, d,234723.941138875, 1.6602671292496387, -0.5235043414067678, 2.5848425385262646, 0.0129142627120018, -0.36327654123306274, 0.48591428995132446, 0.8626088500022888, 0.49991822242736816, 0.07738490402698517, 0.012299835681915283, -0.005640149116516113, 0.01070452481508255, -0.733422292671611, 0.028003468362080564, 0.36273684656996696,0.5742210842954653,0.8773651123046875,0.492462158203125,0.0838165283203125
20220119-1824,2022-01-19 18:24:59Z,u01, 161,40,movements,el-ex, rt, d,234723.96608487502, 1.650248017789838, -0.5112772770123633, 2.582907061093144, 0.028792861849069595, -0.34553930163383484, 0.4906771779060364, 0.8693693280220032, 0.48929157853126526, 0.06921857595443726, -0.003265082836151123, 0.004955917596817017, 0.015254497528076172, -0.7305096239063081, 0.031064058926122268, 0.3595507608439449,0.5797535567116565,0.8661041259765625,0.4942474365234375,0.08447265625
20220119-1824,2022-01-19 18:24:59Z,u01, 162,40,movements,el-ex, rt, d,234723.991030875, 1.6409139309309586, -0.4994159870009121, 2.5810110069177994, 0.014159856364130974, -0.3289105296134949, 0.4521692097187042, 0.8757055401802063, 0.47891294956207275, 0.061503201723098755, 0.020244896411895752, 0.01995795965194702, 0.014226555824279785, -0.7277267113366799, 0.03413845514401975, 0.3564878287971659,0.5849487498106828,0.8880462646484375,0.4958038330078125,0.07965087890625
20220119-1824,2022-01-19 18:24:59Z,u01, 163,40,movements,el-ex, rt, d,234724.015976875, 1.632957320855095, -0.48867055284943633, 2.5814084449370807, -0.10436149686574936, -0.32841816544532776, 0.39908567070961, 0.881252646446228, 0.46945247054100037, 0.05485020577907562, 0.017520666122436523, 0.03219553828239441, 0.030812975019216537, -0.7253341751296929, 0.03626894480540305, 0.35310417765085816,0.5898241233524651,0.898773193359375,0.50164794921875,0.085662841796875
20220119-1824,2022-01-19 18:24:59Z,u01, 164,40,movements,el-ex, rt, d,234724.04092287502, 1.6263508977092986, -0.4791236506651819, 2.5837709064564263, -0.05994050204753876, -0.28017792105674744, 0.36069780588150024, 0.8860304355621338, 0.4610016942024231, 0.049273740500211716, -0.02195560932159424, 0.06109309196472168, 0.028241276741027832, -0.7233448335377699, 0.037538285781860636, 0.349501977343598,0.5943161415892069,0.8662261962890625,0.5227203369140625,0.0788116455078125
20220119-1824,2022-01-19 18:24:59Z,u01, 165,40,movements,el-ex, rt, d,234724.06586987502, 1.6195405237514717, -0.4704720707430702, 2.5825039327159782, 0.0874011442065239, -0.22139957547187805, 0.3324568271636963, 0.8902959823608398, 0.4533071219921112, 0.04343116655945778, -0.012869596481323242, 0.07258719205856323, 0.02868235483765602, -0.7212017187031218, 0.039795274372372194, 0.34727297564210186,0.5980686944678847,0.8774261474609375,0.5258941650390625,0.072113037109375
20220119-1824,2022-01-19 18:24:59Z,u01, 166,40,movements,el-ex, rt, d,234724.090815875, 1.6133813476413454, -0.4633303441685721, 2.580118640472548, 0.028685372322797775, -0.18912287056446075, 0.23759478330612183, 0.8937581777572632, 0.44692981243133545, 0.03808373585343361, -0.006139039993286133, 0.06483477354049683, 0.04573321342468262, -0.7192169127198752, 0.04205829391620941, 0.3458578583428954,0.6011161512027697,0.886627197265625,0.510498046875,0.0836944580078125
20220119-1824,2022-01-19 18:24:59Z,u01, 167,40,movements,el-ex, rt, d,234724.115761875, 1.6093879760569696, -0.45843402041689063, 2.5808988559521113, -0.08871256560087204, -0.15548674762248993, 0.16229483485221863, 0.8960791230201721, 0.4425443708896637, 0.034598350524902344, -0.010580956935882568, 0.05329000949859619, 0.04746389389038086, -0.7179613110571955, 0.04278703919020829, 0.3441628385495843,0.6035337249843723,0.885498046875,0.4958343505859375,0.082061767578125
20220119-1824,2022-01-19 18:24:59Z,u01, 168,40,movements,el-ex, rt, d,234724.14070787502, 1.606760661801774, -0.4549248713315492, 2.582904737755101, -0.03555067628622055, -0.10891258716583252, 0.11191554367542267, 0.897713303565979, 0.43939483165740967, 0.03229958936572075, -0.02246910333633423, 0.07626071572303772, 0.040866609662771225, -0.7171575575491383, 0.04283493601796391, 0.34250600915552815,0.6054254232023943,0.8780975341796875,0.509124755859375,0.0751495361328125
20220119-1824,2022-01-19 18:24:59Z,u01, 169,40,movements,el-ex, rt, d,234724.16565487502, 1.6047340704062016, -0.45251633077375075, 2.5825537454236316, 0.027248863130807877, -0.04342638701200485, 0.07003694027662277, 0.8988320231437683, 0.4372299909591675, 0.030516047030687332, -0.01136547327041626, 0.06234279274940491, 0.04202461242675781, -0.7164984404288287, 0.043451220152653666, 0.3418966116632338,0.6065054158787255,0.8874664306640625,0.49957275390625,0.072540283203125
20220119-1824,2022-01-19 18:24:59Z,u01, 170,40,movements,el-ex, rt, d,234724.190600875, 1.6040204535609137, -0.4515579265423425, 2.5825992073357416, -0.031783364713191986, -0.01864953711628914, 0.001513938419520855, 0.8992718458175659, 0.43636783957481384, 0.029888520017266273, -0.003886103630065918, 0.04417717456817627, 0.04207241162657738, -0.7162675892203373, 0.043646313809325016, 0.34159623344522805,0.606933100238944,0.899749755859375,0.4832916259765625,0.0748138427734375
20220119-1824,2022-01-19 18:24:59Z,u01, 171,40,movements,el-ex, rt, d,234724.21554687503, 1.606133956059639, -0.4530764175910554, 2.5843590481392034, -0.04236810281872749, 0.01780913956463337, -0.05703246220946312, 0.8985435366630554, 0.43773362040519714, 0.03176562115550041, -0.01022249460220337, 0.048563987016677856, 0.044696565717458725, -0.71697057056965, 0.04284870691683869, 0.3414957293238637,0.6062161127164281,0.8883209228515625,0.486297607421875,0.0764617919921875
20220119-1824,2022-01-19 18:24:59Z,u01, 172,40,movements,el-ex, rt, d,234724.24049287502, 1.609718447058969, -0.4568977466177231, 2.5865465367600113, -0.04361212998628616, 0.07458067685365677, -0.10483554005622864, 0.8967458009719849, 0.4411661922931671, 0.03492088243365288, -0.012239515781402588, 0.0413472056388855, 0.025336500257253647, -0.7181578426634496, 0.04134918467915741, 0.34196495109253056,0.6046483166762745,0.88397216796875,0.484130859375,0.0699615478515625
20220119-1824,2022-01-19 18:24:59Z,u01, 173,40,movements,el-ex, rt, d,234724.265438875, 1.6142046173573525, -0.46050980632184696, 2.587731537068723, 0.033613551408052444, 0.12041313946247101, -0.13278673589229584, 0.8949824571609497, 0.44440487027168274, 0.038874078541994095, 0.00038826465606689453, 0.0378493070602417, 0.019063953310251236, -0.7195844245956163, 0.040438787632713954, 0.3426582980056109,0.6026180404709176,0.8953704833984375,0.4822540283203125,0.0579376220703125
20220119-1824,2022-01-19 18:25:00Z,u01, 174,40,movements,el-ex, rt, d,234724.290385875, 1.619631218133194, -0.46551565248738286, 2.587950150410717, 0.005853656679391861, 0.16760987043380737, -0.19395029544830322, 0.8925249576568604, 0.44888365268707275, 0.043621040880680084, -0.0055620670318603516, 0.02091917395591736, 0.03828846663236618, -0.7212804907552264, 0.039559752082721625, 0.34407037221105596,0.5998375650163945,0.88873291015625,0.468292236328125,0.08123779296875
20220119-1824,2022-01-19 18:25:00Z,u01, 175,40,movements,el-ex, rt, d,234724.31533187503, 1.6268331124447617, -0.4715651617242173, 2.5898310509323106, -0.03648078441619873, 0.23148119449615479, -0.25030046701431274, 0.8894601464271545, 0.45428118109703064, 0.049894724041223526, -0.006021976470947266, 0.03509870171546936, 0.025941841304302216, -0.723533521052898, 0.038034264472697074, 0.3452894987397058,0.5965131125412438,0.8834381103515625,0.4893798828125,0.075836181640625
20220119-1824,2022-01-19 18:25:00Z,u01, 176,40,movements,el-ex, rt, d,234724.34027787502, 1.6341219637644324, -0.4796293616616285, 2.591715971986144, -0.07317408174276352, 0.2883133292198181, -0.3295353651046753, 0.8853879570960999, 0.46145039796829224, 0.05614282563328743, 0.005160868167877197, 0.03818345069885254, 0.045191168785095215, -0.725800903751043, 0.03583936517486519, 0.3471621869340982,0.5927960545039226,0.892486572265625,0.50091552734375,0.0977630615234375
20220119-1824,2022-01-19 18:25:00Z,u01, 177,40,movements,el-ex, rt, d,234724.365223875, 1.6439901849840062, -0.4881563105465997, 2.594755389985349, -0.0355801023542881, 0.3432823121547699, -0.374911367893219, 0.8808346390724182, 0.46899834275245667, 0.0645870640873909, -0.004552602767944336, 0.043346107006073, 0.04568863660097122, -0.7288136438399304, 0.03352916053086437, 0.3488169715916804,0.5882460840018116,0.87628173828125,0.5123443603515625,0.1102752685546875
20220119-1824,2022-01-19 18:25:00Z,u01, 178,40,movements,el-ex, rt, d,234724.39016987503, 1.6537255266135333, -0.4976501567166731, 2.5949048700675794, 0.06213850528001785, 0.4402509927749634, -0.38814374804496765, 0.8756868839263916, 0.4773620367050171, 0.07278694957494736, 0.003127753734588623, 0.04644164443016052, 0.014066442847251892, -0.7316920778463889, 0.031940222465729834, 0.3516557080467708,0.5830478494277823,0.873382568359375,0.5210113525390625,0.086578369140625
20220119-1824,2022-01-19 18:25:00Z,u01, 179,40,movements,el-ex, rt, d,234724.41511687502, 1.6635942733524387, -0.5079008955788707, 2.593252455889775, 0.09972163289785385, 0.40215301513671875, -0.4316660463809967, 0.8700079917907715, 0.48634418845176697, 0.0809675082564354, 0.039721131324768066, 0.03346177935600281, 0.020076632499694824, -0.73453020247483, 0.03080801720747084, 0.35527221352674054,0.5773197082135975,0.90972900390625,0.519805908203125,0.101043701171875
20220119-1824,2022-01-19 18:25:00Z,u01, 180,40,movements,el-ex, rt, d,234724.44006287502, 1.673939618932693, -0.5192986946215341, 2.593910831386116, -0.06180844455957413, 0.42304760217666626, -0.48632991313934326, 0.8635539412498474, 0.49627140164375305, 0.08938699960708618, -0.005307793617248535, 0.020879626274108887, 0.04855289310216904, -0.7374808100265393, 0.02855794616019769, 0.3585979699501932,0.5715893061260439,0.8713531494140625,0.51690673828125,0.134490966796875
20220119-1824,2022-01-19 18:25:00Z,u01, 181,40,movements,el-ex, rt, d,234724.465008875, 1.6881170066802973, -0.5322008371114486, 2.599058690660551, -0.16092094779014587, 0.4960247874259949, -0.5847798585891724, 0.8557692170143127, 0.5074310302734375, 0.10086261481046677, -0.007990717887878418, 0.03605663776397705, 0.033766165375709534, -0.7414937205741268, 0.024867064448657578, 0.36111443212231653,0.5649471521147785,0.8477783203125,0.543487548828125,0.1346282958984375
20220119-1824,2022-01-19 18:25:00Z,u01, 182,40,movements,el-ex, rt, d,234724.48995504167, 1.7045552344260095, -0.5466353673900695, 2.6069346393934376, -0.22576908767223358, 0.4935852885246277, -0.6257531642913818, 0.8466479778289795, 0.5198158621788025, 0.113926962018013, 0.01947164535522461, 0.03255242109298706, 0.018031492829322815, -0.7460292169431285, 0.020096974077464524, 0.36341060379162554,0.5576464479952122,0.8679046630859375,0.554168701171875,0.130859375
20220119-1824,2022-01-19 18:25:00Z,u01, 183,40,movements,el-ex, rt, d,234724.51490204167, 1.7216775591427638, -0.5616517285362629, 2.6156125529009007, -0.16500426828861237, 0.5292431116104126, -0.6505115032196045, 0.8367611765861511, 0.5325849056243896, 0.12721841037273407, 0.010452687740325928, 0.023323357105255127, 0.014795541763305664, -0.7505892508032651, 0.014999344949649773, 0.36577062079541545,0.5500934999715532,0.8472137451171875,0.555908203125,0.1420135498046875
20220119-1824,2022-01-19 18:25:00Z,u01, 184,40,movements,el-ex, rt, d,234724.5398480417, 1.7384789619482717, -0.576936216475129, 2.6214393086185748, -0.043583035469055176, 0.5596279501914978, -0.625890851020813, 0.8263824582099915, 0.5454586148262024, 0.13988350331783295, 0.030947983264923096, 0.012845277786254883, -0.011510848999023438, -0.7548665349242036, 0.010875075654436572, 0.3691038900825173,0.5420523595359843,0.855712890625,0.5591278076171875,0.1284332275390625
20220119-1824,2022-01-19 18:25:00Z,u01, 185,40,movements,el-ex, rt, d,234724.56479404168, 1.7548347148782473, -0.5922668896671746, 2.625618078921284, -0.03296787291765213, 0.5600562691688538, -0.620257556438446, 0.815666675567627, 0.5582432150840759, 0.15183205902576447, 0.04001593589782715, -0.010773003101348877, -0.01656244695186615, -0.7588558459317479, 0.007337182589525065, 0.3729804536460663,0.5338256620226802,0.855682373046875,0.5474700927734375,0.1352691650390625
20220119-1824,2022-01-19 18:25:00Z,u01, 186,40,movements,el-ex, rt, d,234724.58974004167, 1.77187134738805, -0.606465874208187, 2.632498282127616, -0.2532447278499603, 0.4921070635318756, -0.574970006942749, 0.805112898349762, 0.5699671506881714, 0.16410572826862335, 0.04437440633773804, -0.05907243490219116, 0.019000127911567688, -0.7629166408698135, 0.0033266116352057284, 0.37583847230213363,0.5260157506443957,0.8530426025390625,0.51763916015625,0.17236328125
20220119-1824,2022-01-19 18:25:00Z,u01, 187,40,movements,el-ex, rt, d,234724.6146860417, 1.793003748438724, -0.6175120769390402, 2.648577938051286, -0.5805370211601257, 0.47378891706466675, -0.5045095682144165, 0.7952757477760315, 0.5790085196495056, 0.17968329787254333, 0.03889179229736328, -0.09504544734954834, 0.02780616283416748, -0.768007784513129, -0.002386537850367909, 0.3753423276500426,0.5189187395779411,0.83416748046875,0.4839630126953125,0.207489013671875
20220119-1824,2022-01-19 18:25:00Z,u01, 188,40,movements,el-ex, rt, d,234724.6396330417, 1.8176309193423505, -0.6252595251502452, 2.671463948788188, -0.6686137318611145, 0.433318167924881, -0.4613668918609619, 0.7862361073493958, 0.5853077173233032, 0.19811014831066132, 0.0523563027381897, -0.073283851146698, -0.018498584628105164, -0.7739335974986644, -0.009047737842587361, 0.37214913007889694,0.5122986886214986,0.8406829833984375,0.5015106201171875,0.1884765625
20220119-1824,2022-01-19 18:25:00Z,u01, 189,40,movements,el-ex, rt, d,234724.66457904168, 1.8408769553820257, -0.632432527809887, 2.692480969097249, -0.5002570748329163, 0.45489031076431274, -0.4452667534351349, 0.7773529291152954, 0.5911085605621338, 0.21520623564720154, 0.02757883071899414, -0.04682743549346924, -0.07157477736473083, -0.7793422372383859, -0.01512595360740826, 0.3694168544781147,0.5058936137442019,0.804931640625,0.544281005859375,0.1436309814453125
20220119-1824,2022-01-19 18:25:00Z,u01, 190,40,movements,el-ex, rt, d,234724.68952504167, 1.8625958610523738, -0.6405063787296248, 2.709906822136671, -0.40858662128448486, 0.46075236797332764, -0.4667378067970276, 0.7678998112678528, 0.5976015329360962, 0.23065684735774994, 0.04801821708679199, 0.0014585256576538086, -0.042759671807289124, -0.7841633367680444, -0.020403029373703557, 0.3680552616649815,0.49920637842771187,0.811920166015625,0.5977325439453125,0.181304931640625
20220119-1824,2022-01-19 18:25:00Z,u01, 191,40,movements,el-ex, rt, d,234724.7144710417, 1.8849052156117758, -0.6493982162758604, 2.725616913267051, -0.3216249644756317, 0.5708482265472412, -0.49741238355636597, 0.7574793696403503, 0.6047072410583496, 0.2460777759552002, 0.03551989793777466, 0.030195653438568115, -0.022505685687065125, -0.7889270517185113, -0.02515933469483933, 0.36756310370549666,0.4917911136386919,0.792999267578125,0.6349029541015625,0.22357177734375
20220119-1824,2022-01-19 18:25:00Z,u01, 192,40,movements,el-ex, rt, d,234724.73941704168, 1.9065260741272034, -0.660270132190484, 2.7356629432963464, 0.0059587182477116585, 0.6632627844810486, -0.5337404012680054, 0.7457308769226074, 0.6133302450180054, 0.2602149546146393, 0.020458757877349854, 0.08141767978668213, -0.02721288800239563, -0.7932856121500413, -0.02837986441575896, 0.36928803674402577,0.4832380266980264,0.768035888671875,0.686187744140625,0.23828125
20220119-1824,2022-01-19 18:25:00Z,u01, 193,40,movements,el-ex, rt, d,234724.76436404168, 1.924358487061259, -0.6742788134245006, 2.737742766156714, 0.1997581422328949, 0.657639741897583, -0.5657241344451904, 0.7328394055366516, 0.6243340969085693, 0.27046945691108704, 0.029596567153930664, 0.09118103981018066, -0.051581740379333496, -0.796451338428335, -0.02999984146578888, 0.37408745192336856,0.4741560948160381,0.7624359130859375,0.71551513671875,0.2188873291015625
20220119-1824,2022-01-19 18:25:00Z,u01, 194,40,movements,el-ex, rt, d,234724.78931004167, 1.9406915887390708, -0.6894783425047392, 2.7383673149012036, 0.1706099808216095, 0.6285842061042786, -0.5917780995368958, 0.7193925976753235, 0.6361347436904907, 0.2789391875267029, 0.018247783184051514, 0.060932457447052, -0.00896504521369934, -0.7990446784593216, -0.031578489526897346, 0.3796761973088746,0.4651628341310323,0.74188232421875,0.69921875,0.2621612548828125
20220119-1824,2022-01-19 18:25:00Z,u01, 195,40,movements,el-ex, rt, d,234724.8142560417, 1.9586206868870042, -0.7048939198479105, 2.74205461252521, 0.0497838631272316, 0.6146074533462524, -0.655957043170929, 0.7051136493682861, 0.6479530334472656, 0.28804874420166016, 0.04166680574417114, 0.04453665018081665, -0.009560108184814453, -0.8017887362663352, -0.03404704155310234, 0.3847015939857982,0.45604879074269183,0.7467803955078125,0.6924896240234375,0.2784881591796875
20220119-1824,2022-01-19 18:25:00Z,u01, 196,40,movements,el-ex, rt, d,234724.83920204168, 1.980024011987077, -0.7199820237748987, 2.752119270268748, -0.09857244789600372, 0.5883010029792786, -0.6893106698989868, 0.6897393465042114, 0.6593711376190186, 0.29914912581443787, 0.038898587226867676, 0.04184669256210327, 0.0017394423484802246, -0.8050552113585748, -0.03821869148311641, 0.3883074257079553,0.44681440624621616,0.7404632568359375,0.6964263916015625,0.297698974609375
20220119-1824,2022-01-19 18:25:00Z,u01, 197,40,movements,el-ex, rt, d,234724.86414904168, 2.0031574999831303, -0.7349756934245406, 2.764147888461421, -0.08487022668123245, 0.636238157749176, -0.7031484842300415, 0.6735815405845642, 0.670569121837616, 0.3108457326889038, 0.026354312896728516, 0.025063753128051758, -0.01380246877670288, -0.8084536024868487, -0.04272745007440659, 0.3916125227581867,0.4372834606782474,0.6999359130859375,0.6956329345703125,0.2970428466796875
20220119-1824,2022-01-19 18:25:00Z,u01, 198,40,movements,el-ex, rt, d,234724.88909504167, 2.027845690448406, -0.7498437520152228, 2.776823326633241, -0.07158008217811584, 0.6570465564727783, -0.7054020166397095, 0.6566831469535828, 0.6815244555473328, 0.3229431211948395, 0.03862941265106201, 0.009408891201019287, -0.0006008148193359375, -0.811946200144869, -0.0470629564733622, 0.39491926408142863,0.42727909736076986,0.693145751953125,0.68939208984375,0.317169189453125
20220119-1824,2022-01-19 18:25:00Z,u01, 199,40,movements,el-ex, rt, d,234724.9140410417, 2.054000253322672, -0.7644370517825481, 2.7907887170855363, -0.17006556689739227, 0.6633837223052979, -0.7106629610061646, 0.6391372084617615, 0.6921308040618896, 0.33534887433052063, 0.04514312744140625, -0.011604070663452148, 0.0025269389152526855, -0.8154915509342574, -0.051458442832075096, 0.3980516337435015,0.4169898783148423,0.6842803955078125,0.6805267333984375,0.3378753662109375
20220119-1824,2022-01-19 18:25:00Z,u01, 200,40,movements,el-ex, rt, d,234724.93898704168, 2.0827599527151963, -0.77780733200607, 2.8082161601403777, -0.15768024325370789, 0.6758862137794495, -0.7080007791519165, 0.6211062073707581, 0.7017189264297485, 0.3490241765975952, 0.05398833751678467, 0.009203314781188965, -0.0029086172580718994, -0.819352798090197, -0.056330057601968964, 0.4002659361651542,0.40654052981267375,0.680938720703125,0.6944732666015625,0.35516357421875
20220119-1824,2022-01-19 18:25:00Z,u01, 201,40,movements,el-ex, rt, d,234724.96393304167, 2.1106169151074043, -0.7921710223782108, 2.823537998348507, -0.005782192572951317, 0.6841691732406616, -0.7433728575706482, 0.6024351716041565, 0.7118796706199646, 0.3609705865383148, 0.06182575225830078, 0.0032845735549926758, -0.022301316261291504, -0.8226807916327702, -0.06067621772309062, 0.4034593000112013,0.39589834563344845,0.6642608642578125,0.7151641845703125,0.3386688232421875
20220119-1824,2022-01-19 18:25:00Z,u01, 202,40,movements,el-ex, rt, d,234724.98888004167, 2.1376062657194246, -0.808268285432594, 2.8375425424136322, -0.06277544051408768, 0.6779349446296692, -0.7486651539802551, 0.5827309489250183, 0.7230920791625977, 0.3708949089050293, 0.05342322587966919, -0.02561277151107788, 0.0012979507446289062, -0.8253648135990728, -0.06496438737487087, 0.40773220229418217,0.3851067500965552,0.641998291015625,0.7050323486328125,0.3622283935546875
20220119-1824,2022-01-19 18:25:00Z,u01, 203,40,movements,el-ex, rt, d,234725.0138260417, 2.1681055816482004, -0.8214219039846269, 2.8564041242632094, -0.17369164526462555, 0.6665929555892944, -0.7115591764450073, 0.563235878944397, 0.7321151494979858, 0.3831096291542053, 0.04980117082595825, -0.03283536434173584, -0.02506178617477417, -0.8286718227103743, -0.06969806437133955, 0.4102543515145578,0.37434827864788445,0.613037109375,0.69927978515625,0.3580474853515625
20220119-1824,2022-01-19 18:25:00Z,u01, 204,40,movements,el-ex, rt, d,234725.03877204168, 2.1979742804787956, -0.8343716509253127, 2.8749964641245236, -0.07870933413505554, 0.6330991983413696, -0.7142534852027893, 0.5438210368156433, 0.7408746480941772, 0.39416220784187317, 0.05720728635787964, 0.0023505091667175293, -0.0005612671375274658, -0.8316017717639551, -0.07429403355121311, 0.41294333477941364,0.36386376720611213,0.60540771484375,0.74285888671875,0.388275146484375
20220119-1824,2022-01-19 18:25:00Z,u01, 205,40,movements,el-ex, rt, d,234725.06371804167, 2.228493382171056, -0.8474301084217398, 2.894191597962816, -0.15314248204231262, 0.6749682426452637, -0.7331807017326355, 0.5238383412361145, 0.7495818138122559, 0.40462395548820496, 0.04592472314834595, -0.00670778751373291, 0.007501065731048584, -0.8343164809083298, -0.07891757347826905, 0.415804125630632,0.353263340973491,0.56976318359375,0.7428741455078125,0.4121246337890625
20220119-1824,2022-01-19 18:25:00Z,u01, 206,40,movements,el-ex, rt, d,234725.0886640417, 2.2627109433001062, -0.8585239500140756, 2.9175575682352206, -0.2414080649614334, 0.6666510701179504, -0.7338622808456421, 0.5032547116279602, 0.7568787336349487, 0.4169767200946808, 0.05636131763458252, -0.02308356761932373, -0.02618354558944702, -0.8375184989057105, -0.08397095279568273, 0.4175376612509422,0.3423069220710008,0.5659027099609375,0.734039306640625,0.38922119140625
20220119-1824,2022-01-19 18:25:00Z,u01, 207,40,movements,el-ex, rt, d,234725.11361104168, 2.298527384949155, -0.8680969764352756, 2.942296872836141, -0.17022432386875153, 0.6886431574821472, -0.6839714646339417, 0.4825682044029236, 0.7631004452705383, 0.429890900850296, 0.055578768253326416, 0.0036537647247314453, -0.01500403881072998, -0.8408622544162462, -0.0888601437790138, 0.41876010743039316,0.33120190421520773,0.53814697265625,0.766754150390625,0.414886474609375
20220119-1824,2022-01-19 18:25:00Z,u01, 208,40,movements,el-ex, rt, d,234725.13855704168, 2.3317524765630724, -0.87939784375631, 2.963620869121468, -0.06921509653329849, 0.6711966395378113, -0.7444317936897278, 0.46174654364585876, 0.7703550457954407, 0.43970876932144165, 0.05079615116119385, 0.0305941104888916, 0.003971457481384277, -0.8433174062897962, -0.09311359506656386, 0.4213761637795497,0.32029354889641504,0.5159912109375,0.798431396484375,0.4490509033203125
20220119-1824,2022-01-19 18:25:00Z,u01, 209,40,movements,el-ex, rt, d,234725.1635030417, 2.366713303667398, -0.8899586642305726, 2.9865841171097016, -0.20221355557441711, 0.7064844965934753, -0.7056293487548828, 0.44037795066833496, 0.777045726776123, 0.44974127411842346, 0.054205119609832764, -0.026999950408935547, -0.010394930839538574, -0.8457998704378756, -0.09743316081563158, 0.4237430291034155,0.3091459360397109,0.4945831298828125,0.7500457763671875,0.4393463134765625
20220119-1824,2022-01-19 18:25:00Z,u01, 210,40,movements,el-ex, rt, d,234725.18844904169, 2.404580136386648, -0.897362699702566, 3.013826965002915, -0.2937699556350708, 0.657988965511322, -0.6746375560760498, 0.41915813088417053, 0.7816848158836365, 0.46181803941726685, 0.05632096529006958, -0.0111464262008667, -0.03931689262390137, -0.8487921305129879, -0.10227871088950322, 0.42455145097933655,0.29807255835153573,0.4775390625,0.7694549560546875,0.423095703125
20220119-1824,2022-01-19 18:25:00Z,u01, 211,40,movements,el-ex, rt, d,234725.21339604168, 2.442337578638661, -0.903936174786709, 3.041091520413984, -0.18463152647018433, 0.6565914154052734, -0.7060009837150574, 0.39811041951179504, 0.7857676148414612, 0.4733685553073883, 0.06445971131324768, 0.004958093166351318, -0.029673129320144653, -0.8516122020359159, -0.10696232510729417, 0.42527475846098484,0.28715369391313156,0.4625701904296875,0.7907257080078125,0.443695068359375
20220119-1824,2022-01-19 18:25:00Z,u01, 212,40,movements,el-ex, rt, d,234725.23834204167, 2.479144140577929, -0.9112855017564675, 3.0661264630807623, -0.1548076570034027, 0.6760674715042114, -0.6730865240097046, 0.376859575510025, 0.7902920842170715, 0.48313117027282715, 0.0584888756275177, -0.009286165237426758, -0.008536696434020996, -0.853962695316678, -0.11096528605454037, 0.42684128251845926,0.2761178579963275,0.4316558837890625,0.783355712890625,0.4780731201171875
20220119-1824,2022-01-19 18:25:00Z,u01, 213,40,movements,el-ex, rt, d,234725.2632880417, 2.5165283532406355, -0.9168968663932621, 3.0924131322764534, -0.23075927793979645, 0.6622278690338135, -0.6420684456825256, 0.3559383451938629, 0.7937178611755371, 0.4932748079299927, 0.06555512547492981, -0.023393213748931885, -0.0198248028755188, -0.8563881270644225, -0.11505122202554144, 0.42777082770373753,0.2652824307115352,0.4214935302734375,0.77032470703125,0.47344970703125
20220119-1824,2022-01-19 18:25:01Z,u01, 214,40,movements,el-ex, rt, d,234725.28823404168, 2.5527854773467964, -0.9213670971748882, 3.117910478608794, -0.17334283888339996, 0.6437008380889893, -0.5650167465209961, 0.3358500599861145, 0.7964290976524353, 0.5028979182243347, 0.04163721203804016, -0.008037745952606201, -0.02305424213409424, -0.8586770883698254, -0.11883866176671448, 0.4284811532175521,0.25486315774059826,0.396514892578125,0.7852783203125,0.47918701171875
20220119-1824,2022-01-19 18:25:01Z,u01, 215,40,movements,el-ex, rt, d,234725.31318004167, 2.588219955158031, -0.92634239429674, -3.1415870077255197, -0.14850449562072754, 0.6526995897293091, -0.5111002922058105, 0.3157362937927246, 0.7994279265403748, 0.5111024975776672, 0.07172998785972595, -0.028126776218414307, -0.02304971218109131, -0.8606130190622558, -0.12205114986096002, 0.4297935550328424,0.24438968760939456,0.3874664306640625,0.77130126953125,0.4880523681640625
20220119-1824,2022-01-19 18:25:01Z,u01, 216,40,movements,el-ex, rt, d,234725.33812704167, 2.62349511580569, -0.9295955422920774, -3.1175396022724358, -0.20831413567066193, 0.6293485760688782, -0.5343645811080933, 0.29622507095336914, 0.801378071308136, 0.519658088684082, 0.07309862971305847, -0.02964937686920166, 0.0011400580406188965, -0.8626427973661538, -0.1252056287137912, 0.43050076984143404,0.23417996712717826,0.3727264404296875,0.773284912109375,0.512542724609375
20220119-1824,2022-01-19 18:25:01Z,u01, 217,40,movements,el-ex, rt, d,234725.3630730417, 2.6582440721287415, -0.9319438806871035, -3.0941263639732806, -0.1377885490655899, 0.6153022646903992, -0.5370780825614929, 0.2771170437335968, 0.8027805685997009, 0.5279682278633118, 0.039487600326538086, -0.014373958110809326, -0.01965165138244629, -0.8646264649325432, -0.1280827457158596, 0.4310373610319247,0.22410483078165844,0.3166046142578125,0.7884063720703125,0.5083160400390625
20220119-1824,2022-01-19 18:25:01Z,u01, 218,40,movements,el-ex, rt, d,234725.38801904168, 2.689524023716367, -0.9350889323631947, -3.0734737965933223, -0.07644900679588318, 0.584969162940979, -0.4765760004520416, 0.2593652009963989, 0.8046518564224243, 0.5341029763221741, 0.032474398612976074, -0.02762836217880249, -0.053359031677246094, -0.8660265378424921, -0.1305738580650926, 0.43216366482551216,0.21490319952785714,0.2982635498046875,0.7810516357421875,0.4819793701171875
20220119-1824,2022-01-19 18:25:01Z,u01, 219,40,movements,el-ex, rt, d,234725.41296504167, 2.7191945644780358, -0.9387871750240544, -3.054717210316066, -0.04200894013047218, 0.5658374428749084, -0.4387674927711487, 0.24218444526195526, 0.8068422079086304, 0.5388438701629639, 0.06415091454982758, -0.044482648372650146, -0.04772406816482544, -0.8670860263721144, -0.13260380178253492, 0.43375875880859516,0.2059891160867245,0.30633544921875,0.762359619140625,0.491119384765625
20220119-1824,2022-01-19 18:25:01Z,u01, 220,40,movements,el-ex, rt, d,234725.4379110417, 2.7473362426198213, -0.9422592990836687, -3.0367421838606927, -0.04959818348288536, 0.5337406396865845, -0.43882614374160767, 0.22584909200668335, 0.8088885545730591, 0.5428552627563477, 0.05431742966175079, -0.03763312101364136, -0.03142601251602173, -0.8679403619155489, -0.13456280044084645, 0.43534617753914573,0.19760107472519794,0.2828216552734375,0.77532958984375,0.51605224609375
20220119-1824,2022-01-19 18:25:01Z,u01, 221,40,movements,el-ex, rt, d,234725.4628580417, 2.7745070335175406, -0.944410256371886, -3.0187719994693443, -0.10995873063802719, 0.46716323494911194, -0.3766802251338959, 0.2103928029537201, 0.8101513385772705, 0.5471653342247009, 0.06621842086315155, -0.04168832302093506, -0.055404722690582275, -0.8688634519934179, -0.13659788152368693, 0.4363927144625976,0.18968081177127913,0.276611328125,0.768463134765625,0.49176025390625
20220119-1824,2022-01-19 18:25:01Z,u01, 222,40,movements,el-ex, rt, d,234725.48780375, 2.7982001559256857, -0.9457340114398768, -3.0030841857244215, -0.03281843662261963, 0.40461164712905884, -0.34957677125930786, 0.19700968265533447, 0.8109266757965088, 0.5509859323501587, 0.05683541297912598, -0.027723610401153564, -0.06738871335983276, -0.869688812304444, -0.1383268985776424, 0.4371426539971306,0.18279346526825607,0.2530670166015625,0.777313232421875,0.4829864501953125
20220119-1824,2022-01-19 18:25:01Z,u01, 223,40,movements,el-ex, rt, d,234725.51274975002, 2.8184516975384613, -0.9480332876039392, -2.9899038692378346, -0.012172148562967777, 0.37978991866111755, -0.3023887574672699, 0.18521930277347565, 0.812269926071167, 0.5530933141708374, 0.05110876262187958, -0.040800631046295166, -0.07965832948684692, -0.8700655915452876, -0.139758777119231, 0.43837810273771316,0.17685659361569844,0.236328125,0.7714691162109375,0.4734344482421875
20220119-1824,2022-01-19 18:25:01Z,u01, 224,40,movements,el-ex, rt, d,234725.53769575, 2.8370605775120588, -0.949265452622399, -2.978194118667084, -0.059644993394613266, 0.3656826317310333, -0.25508835911750793, 0.17459505796432495, 0.8129879832267761, 0.5554885864257812, 0.045543402433395386, -0.05140656232833862, -0.03676557540893555, -0.8705801111630498, -0.14083524040327508, 0.4392073720447016,0.17132645885317688,0.2187347412109375,0.764404296875,0.5152740478515625
20220119-1824,2022-01-19 18:25:01Z,u01, 225,40,movements,el-ex, rt, d,234725.56264275, 2.8538409578775683, -0.9493841702688002, -2.967725213972199, -0.07419011741876602, 0.28543439507484436, -0.2120862901210785, 0.16522221267223358, 0.8130571246147156, 0.558247447013855, 0.06674182415008545, -0.020698726177215576, -0.03902101516723633, -0.8712296793941287, -0.14171297570484206, 0.4395613654258962,0.1663196953082221,0.231964111328125,0.7923583984375,0.51922607421875
20220119-1824,2022-01-19 18:25:01Z,u01, 226,40,movements,el-ex, rt, d,234725.58758875, 2.8673234276535515, -0.9493085915631, -2.958914494608289, -0.04837123304605484, 0.2337508201599121, -0.18102438747882843, 0.15769745409488678, 0.8130131363868713, 0.5604832172393799, 0.033952802419662476, -0.018304944038391113, -0.06518256664276123, -0.871728785358559, -0.1425851300763502, 0.43976227423456615,0.1623811103096015,0.19976806640625,0.792816162109375,0.49163818359375
20220119-1824,2022-01-19 18:25:01Z,u01, 227,40,movements,el-ex, rt, d,234725.61253475002, 2.879929754061206, -0.9500353177784886, -2.950837372951409, -0.009948940947651863, 0.25801393389701843, -0.20230823755264282, 0.15046679973602295, 0.8134360313415527, 0.5618564486503601, 0.03269967436790466, 0.007044613361358643, -0.018917620182037354, -0.8719954573350118, -0.14336022412534563, 0.44033597290259097,0.15867062209768512,0.18316650390625,0.8204803466796875,0.542938232421875
20220119-1824,2022-01-19 18:25:01Z,u01, 228,40,movements,el-ex, rt, d,234725.63748075, 2.893247456500718, -0.9514812240594335, -2.942365744141645, 0.003109303303062916, 0.24265195429325104, -0.2063395231962204, 0.14268167316913605, 0.8142762184143066, 0.5626693367958069, 0.04834303259849548, 0.01583242416381836, 0.006438136100769043, -0.8720952877912895, -0.14416818574837362, 0.4412682114708739,0.15475106089249538,0.1930389404296875,0.840118408203125,0.5756988525390625
20220119-1824,2022-01-19 18:25:01Z,u01, 229,40,movements,el-ex, rt, d,234725.66242675, 2.9059297483528375, -0.9519838618824312, -2.9340372418629093, -0.059017617255449295, 0.22342440485954285, -0.1772323101758957, 0.13543888926506042, 0.8145678639411926, 0.5640355944633484, 0.025007203221321106, -0.006889522075653076, -0.016442954540252686, -0.8723463728404298, -0.1450158462659462, 0.44177035471820914,0.15106745315533956,0.1604461669921875,0.80767822265625,0.5475921630859375
20220119-1824,2022-01-19 18:25:01Z,u01, 230,40,movements,el-ex, rt, d,234725.68737375003, 2.9172822413742603, -0.9519147644164125, -2.9266843700002605, -0.001810920424759388, 0.20323100686073303, -0.15620878338813782, 0.12903957068920135, 0.8145278096199036, 0.5655914545059204, 0.028858289122581482, 0.00726473331451416, -0.03498190641403198, -0.8726759617066642, -0.14571343472307974, 0.44201571183363303,0.14773801167602563,0.1534576416015625,0.8187408447265625,0.528472900390625
20220119-1824,2022-01-19 18:25:01Z,u01, 231,40,movements,el-ex, rt, d,234725.71231975002, 2.9272320486670402, -0.9538118053051103, -2.9205243767460907, 0.08028927445411682, 0.18658064305782318, -0.15274134278297424, 0.123076893389225, 0.815626859664917, 0.5653368234634399, 0.030624791979789734, -0.003004610538482666, -0.025739848613739014, -0.8725142469709375, -0.14624398036056654, 0.4431294167814033,0.14480388804733635,0.1537017822265625,0.8126220703125,0.5395965576171875
20220119-1824,2022-01-19 18:25:01Z,u01, 232,40,movements,el-ex, rt, d,234725.73726575, 2.9353097435728523, -0.9568990749572222, -2.915645382489778, 0.09911871701478958, 0.13281108438968658, -0.11249172687530518, 0.11798989027738571, 0.8174092173576355, 0.5638447403907776, 0.020788684487342834, -0.05933737754821777, -0.07145851850509644, -0.8720195825393343, -0.14664315068039452, 0.4447336726353365,0.14244186244931092,0.13946533203125,0.7696075439453125,0.504730224609375
20220119-1824,2022-01-19 18:25:01Z,u01, 233,40,movements,el-ex, rt, d,234725.76221175003, 2.938948278222456, -0.9593049630399134, -2.9135238248372293, 0.07193730026483536, 0.025349613279104233, -0.01611778512597084, 0.11554138362407684, 0.8187927603721619, 0.5623421669006348, 0.012647569179534912, -0.10820633172988892, -0.11113941669464111, -0.8715617055838671, -0.14680352087854912, 0.4459116217125908,0.14139226876833966,0.1281890869140625,0.7105865478515625,0.451202392578125
20220119-1824,2022-01-19 18:25:01Z,u01, 234,40,movements,el-ex, rt, d,234725.78715775002, 2.934863697453765, -0.9628447919162924, -2.9170807442485307, 0.15542517602443695, -0.08237758278846741, 0.07417196780443192, 0.11724170297384262, 0.8208197951316833, 0.5590254664421082, 0.05800537019968033, -0.09721755981445312, -0.09602773189544678, -0.8707056704481546, -0.1462339107153953, 0.44742549999190745,0.14247022538506215,0.1656494140625,0.719146728515625,0.45513916015625
20220119-1824,2022-01-19 18:25:01Z,u01, 235,40,movements,el-ex, rt, d,234725.81210475002, 2.926537766425029, -0.9660771581266799, -2.923028152730972, 0.09911709278821945, -0.1802310347557068, 0.13061220943927765, 0.12132520228624344, 0.822661817073822, 0.5554351210594177, 0.08186071366071701, -0.08886665105819702, -0.07244831323623657, -0.8697841191473961, -0.14557866767298852, 0.4486691787278522,0.1448396913679313,0.20318603515625,0.733795166015625,0.4829864501953125
20220119-1824,2022-01-19 18:25:01Z,u01, 236,40,movements,el-ex, rt, d,234725.83705075, 2.9148360211793407, -0.9665220492760561, -2.9307310295526237, 0.024661831557750702, -0.23996081948280334, 0.20561493933200836, 0.1277339905500412, 0.8229146599769592, 0.5536205768585205, 0.06145961582660675, -0.0666433572769165, -0.07571500539779663, -0.8693816526796078, -0.14486492059141617, 0.44857973497298986,0.14820931648722602,0.1959991455078125,0.7519378662109375,0.479766845703125
20220119-1824,2022-01-19 18:25:01Z,u01, 237,40,movements,el-ex, rt, d,234725.86199675003, 2.8984904448364195, -0.9681604388369851, -2.9427785319585262, 0.22097505629062653, -0.26208123564720154, 0.29140448570251465, 0.13644105195999146, 0.8238444328308105, 0.5501495599746704, 0.029666021466255188, -0.05187177658081055, -0.08359652757644653, -0.8686352886362306, -0.14334403626095313, 0.4490291393565766,0.15263733379176592,0.166107177734375,0.77197265625,0.466552734375
20220119-1824,2022-01-19 18:25:01Z,u01, 238,40,movements,el-ex, rt, d,234725.88694275002, 2.8765792243062513, -0.9737622465428445, -2.960679058768549, 0.3902626931667328, -0.29642221331596375, 0.36742061376571655, 0.14725078642368317, 0.8270066380500793, 0.5425660610198975, 0.04381971061229706, -0.033900439739227295, -0.05239218473434448, -0.8668834264839129, -0.1406987674294139, 0.4513261365528997,0.15818323071554455,0.184234619140625,0.7904815673828125,0.4790496826171875
20220119-1824,2022-01-19 18:25:01Z,u01, 239,40,movements,el-ex, rt, d,234725.91188875, 2.851316356900485, -0.9797469826493042, -2.9813381103827132, 0.2594296336174011, -0.35412806272506714, 0.38576212525367737, 0.15948954224586487, 0.8303564190864563, 0.5339210629463196, 0.058833107352256775, -0.0342748761177063, -0.022781789302825928, -0.8648667477395932, -0.13771723283137619, 0.4538585510294974,0.1644749487205152,0.21832275390625,0.79608154296875,0.511138916015625
20220119-1824,2022-01-19 18:25:01Z,u01, 240,40,movements,el-ex, rt, d,234725.93683575, 2.826402137534955, -0.9785726022275989, -2.999602907891778, -0.04625784605741501, -0.43892788887023926, 0.41704362630844116, 0.1730431467294693, 0.8297014236450195, 0.5307091474533081, 0.05428221821784973, -0.051411569118499756, -0.0424426794052124, -0.8643018893290799, -0.1354135508420758, 0.4531756536683179,0.17110652645233582,0.227294921875,0.7698822021484375,0.5042724609375
20220119-1824,2022-01-19 18:25:01Z,u01, 241,40,movements,el-ex, rt, d,234725.96178175003, 2.7989352338734133, -0.9748272116200802, -3.0185948049468068, 0.09212219715118408, -0.484814316034317, 0.4794709384441376, 0.18859587609767914, 0.8276048898696899, 0.528680145740509, 0.026934459805488586, -0.030455052852630615, -0.07553935050964355, -0.8640580792326839, -0.1332055190492063, 0.4513545226571383,0.1787158258631612,0.2155303955078125,0.797149658203125,0.4531402587890625
20220119-1824,2022-01-19 18:25:01Z,u01, 242,40,movements,el-ex, rt, d,234725.98672775002, 2.7666100867095214, -0.9750422811537894, -3.0428512835073853, 0.25932085514068604, -0.4671851098537445, 0.5091756582260132, 0.20551858842372894, 0.8277255892753601, 0.5221423506736755, 0.0279560387134552, -0.010052919387817383, -0.01010286808013916, -0.8626468022518584, -0.13004487116743993, 0.45154003924242825,0.18719105159933402,0.2263336181640625,0.814239501953125,0.4957733154296875
20220119-1824,2022-01-19 18:25:01Z,u01, 243,40,movements,el-ex, rt, d,234726.01167375, 2.7344308213802395, -0.9745409410784808, -3.0673120788523653, 0.08597888797521591, -0.4871199429035187, 0.5212589502334595, 0.2223757952451706, 0.8274441957473755, 0.5156407952308655, 0.050237640738487244, -0.030584514141082764, 0.003875553607940674, -0.8612548422235933, -0.12673004652402023, 0.4515968524116493,0.19555046879750493,0.272613525390625,0.7968597412109375,0.5195159912109375
20220119-1824,2022-01-19 18:25:01Z,u01, 244,40,movements,el-ex, rt, d,234726.03662075, 2.703275271649555, -0.9691986491864848, -3.08937389960223, -0.01392760407179594, -0.5446250438690186, 0.5568745136260986, 0.2402031570672989, 0.8244324326515198, 0.5124589800834656, 0.04562443494796753, -0.029464662075042725, -0.05673950910568237, -0.8607580944757854, -0.12379411544400995, 0.4495336282662446,0.20418186507647587,0.283782958984375,0.79217529296875,0.4723358154296875
20220119-1824,2022-01-19 18:25:01Z,u01, 245,40,movements,el-ex, rt, d,234726.06156675002, 2.6689918786477356, -0.9644479758799668, -3.1140030652711133, 0.1731894165277481, -0.5553613305091858, 0.5868464708328247, 0.2594071924686432, 0.8217344880104065, 0.5074058175086975, 0.01921817660331726, -0.026019155979156494, -0.04701727628707886, -0.8597658875746275, -0.12043887191919636, 0.4479593637200198,0.21361084927059026,0.27862548828125,0.79571533203125,0.46038818359375
20220119-1824,2022-01-19 18:25:01Z,u01, 246,40,movements,el-ex, rt, d,234726.08651275001, 2.6334518129539743, -0.961688784618472, -3.1405092063548277, 0.14956408739089966, -0.5353900790214539, 0.5714430212974548, 0.27837514877319336, 0.8201589584350586, 0.49984726309776306, 0.03256842494010925, 0.015931308269500732, 0.02755802869796753, -0.858079383836238, -0.11671933652458188, 0.44755872304859357,0.22308696377887394,0.3001251220703125,0.83929443359375,0.522003173828125
20220119-1824,2022-01-19 18:25:01Z,u01, 247,40,movements,el-ex, rt, d,234726.11145875, 2.601657238292078, -0.9554841842870804, 3.12042436940373, -0.06689981371164322, -0.5526921153068542, 0.5577316284179688, 0.2967345714569092, 0.8165932893753052, 0.4951007068157196, 0.04750367999076843, 0.00419241189956665, 0.017915546894073486, -0.8571202883507697, -0.11355686867030126, 0.44560372939388354,0.23213619921977893,0.34423828125,0.8207855224609375,0.5130157470703125
20220119-1824,2022-01-19 18:25:01Z,u01, 248,40,movements,el-ex, rt, d,234726.13640475002, 2.5726953291157977, -0.9459015937356487, 3.102105029233555, -0.0783720389008522, -0.5592619180679321, 0.5668505430221558, 0.3151480257511139, 0.8110247254371643, 0.49287012219429016, 0.030890733003616333, 0.020991265773773193, -0.014644056558609009, -0.8568127964633427, -0.11093642262829431, 0.4420578486816059,0.24114290910674116,0.3472747802734375,0.824798583984375,0.473480224609375
20220119-1824,2022-01-19 18:25:01Z,u01, 249,40,movements,el-ex, rt, d,234726.16135175002, 2.5413452045175484, -0.9386747938334439, 3.080934616083001, 0.14011210203170776, -0.5614374876022339, 0.5708684921264648, 0.3337442874908447, 0.8067758083343506, 0.4875737428665161, 0.014537543058395386, 0.037828803062438965, -0.01798415184020996, -0.8556647456091987, -0.10781799959703814, 0.4398746379903786,0.2504468668076297,0.3482818603515625,0.8446044921875,0.4695892333984375
20220119-1824,2022-01-19 18:25:01Z,u01, 250,40,movements,el-ex, rt, d,234726.18629775, 2.509779726126117, -0.9336153426959237, 3.058710248671031, 0.08936579525470734, -0.5344410538673401, 0.5112138986587524, 0.3513721525669098, 0.8037760853767395, 0.4800854027271271, 0.03144025802612305, 0.03361093997955322, 0.04016345739364624, -0.8538828928389275, -0.10453088203879038, 0.4388945371224274,0.2594783328984941,0.3737640380859375,0.8411102294921875,0.5213775634765625
20220119-1824,2022-01-19 18:25:01Z,u01, 251,40,movements,el-ex, rt, d,234726.21124375, 2.4833423361511686, -0.9263429340065731, 3.0424292177386105, -0.06667250394821167, -0.5339400768280029, 0.468944787979126, 0.36750656366348267, 0.7994282841682434, 0.4752413332462311, 0.028443753719329834, 0.027994990348815918, 0.026987016201019287, -0.8527374855016313, -0.10227141970290807, 0.4366180789159246,0.26785128060192526,0.3959503173828125,0.827423095703125,0.502227783203125
20220119-1824,2022-01-19 18:25:01Z,u01, 252,40,movements,el-ex, rt, d,234726.23618975002, 2.458917534559863, -0.9178283091527859, 3.02858035106986, -0.03264123946428299, -0.5262303352355957, 0.4855464994907379, 0.38328346610069275, 0.7942841053009033, 0.471388041973114, 0.009752333164215088, 0.005459487438201904, -0.02236732840538025, -0.8518371856163561, -0.10033656890283191, 0.43370162135036333,0.2760596381087933,0.3914947509765625,0.8068695068359375,0.45135498046875
