SessionID,LoggingTime,UID,RecNo,Hertz,Activity,MoveType,Wrist,Side,TimeStamp,DMRoll,DMPitch,DMYaw,DMRotX,DMRotY,DMRotZ,DMGrvX,DMGrvY,DMGrvZ,DMUAccelX,DMUAccelY,DMUAccelZ,DMQuatX,DMQuatY,DMQuatW,DMQuatZ,AccelroX,AceelroY,AceelroZ
20220112-1457,2022-01-12 14:57:30Z,u01, 1,40,movements,el-ex, rt, d,96969.89191650001, -1.1878722411477662, -0.21696005254230355, -0.14682001573941883, 0.18653225898742676, -0.21950343251228333, -0.07093138992786407, -0.9058303236961365, 0.21526193618774414, -0.36487504839897156, 0.1369398832321167, -0.03650522232055664, 0.047110795974731445, -0.13028840865097224, -0.5482585238814928, 0.8260978261580099,5.551115123125783e-17,-0.7700042724609375,0.1748809814453125,-0.3163909912109375
20220112-1457,2022-01-12 14:57:30Z,u01, 2,40,movements,el-ex, rt, d,96969.91685950001, -1.1931940689684917, -0.21357286155604174, -0.1441544934118349, 0.1425488144159317, -0.24244922399520874, -0.09552594274282455, -0.9084318280220032, 0.21195292472839355, -0.3603159785270691, 0.13861066102981567, -0.03420330584049225, 0.06125900149345398, -0.12817226565195913, -0.5508301770824234, 0.8247167914152507,0.0004913416211378419,-0.7698211669921875,0.1777496337890625,-0.2990570068359375
20220112-1457,2022-01-12 14:57:30Z,u01, 3,40,movements,el-ex, rt, d,96969.94180350001, -1.1987341763519193, -0.2102465180767216, -0.14147410732505467, 0.12022799998521805, -0.053851477801799774, -0.17984601855278015, -0.9110658168792725, 0.2087009996175766, -0.3555319905281067, -0.24809861183166504, -0.0179661363363266, 0.20344772934913635, -0.12607388111492923, -0.5534793387964012, 0.823264852522919,0.0010087147298344923,-0.4738616943359375,0.0951995849609375,-0.31597900390625
20220112-1457,2022-01-12 14:57:30Z,u01, 4,40,movements,el-ex, rt, d,96969.9667475, -1.2027576012711931, -0.20678997605205426, -0.1394093039386578, 0.0923122763633728, -0.1419742852449417, -0.0993821993470192, -0.9131565690040588, 0.2053193300962448, -0.352120965719223, 0.15192604064941406, -0.08497324585914612, 0.11860048770904541, -0.12409161672288771, -0.5554644759276415, 0.8222282413233514,0.0011306438675635078,-0.76123046875,0.1203460693359375,-0.2335205078125
20220112-1457,2022-01-12 14:57:30Z,u01, 5,40,movements,el-ex, rt, d,96969.9916915, -1.2058899319309517, -0.20418962428084964, -0.1386794711588896, 0.039351753890514374, -0.12134430557489395, -0.08694463968276978, -0.9147506356239319, 0.20277369022369385, -0.3494482636451721, 0.16601711511611938, -0.06167568266391754, 0.07625499367713928, -0.1228290535400107, -0.5569460346519675, 0.821415464407411,0.0008854697996557026,-0.74957275390625,0.136383056640625,-0.2670745849609375
20220112-1457,2022-01-12 14:57:30Z,u01, 6,40,movements,el-ex, rt, d,96970.0166345, -1.208935255315662, -0.2019840238518508, -0.1393444280893171, -0.02469133958220482, -0.11242231726646423, -0.09490549564361572, -0.9162266850471497, 0.20061340928077698, -0.3468184471130371, 0.15694928169250488, -0.048345983028411865, 0.05294942855834961, -0.12211703777031235, -0.5582814735131609, 0.8206151822537315,0.00017126088451413501,-0.75927734375,0.1522674560546875,-0.2938690185546875
20220112-1457,2022-01-12 14:57:30Z,u01, 7,40,movements,el-ex, rt, d,96970.04157850001, -1.2116836516317258, -0.20036831422872758, -0.1409486578056168, -0.045794527977705, -0.07041794061660767, -0.06957490742206573, -0.917478621006012, 0.1990302950143814, -0.3444124460220337, 0.13209348917007446, -0.04645761847496033, 0.10797756910324097, -0.12190953483550415, -0.559403112770162, 0.8198814880884333,-0.0007798060727128298,-0.783111572265625,0.1519622802734375,-0.2450714111328125
20220112-1457,2022-01-12 14:57:30Z,u01, 8,40,movements,el-ex, rt, d,96970.06652250001, -1.212972957892033, -0.1997484735213086, -0.14274009124990852, -0.059020187705755234, -0.007711679674685001, -0.018550070002675056, -0.9180374145507812, 0.19842280447483063, -0.3432724177837372, 0.15772229433059692, -0.061581969261169434, 0.13302162289619446, -0.1221600213673047, -0.559857763481625, 0.8195326797802971,-0.0016124162654409524,-0.76031494140625,0.1368408203125,-0.2102508544921875
20220112-1457,2022-01-12 14:57:30Z,u01, 9,40,movements,el-ex, rt, d,96970.09146550001, -1.2130726400837315, -0.2006972326907341, -0.14452145358420512, -0.1066511869430542, 0.03302915766835213, 0.03462107107043266, -0.917894721031189, 0.19935262203216553, -0.34311479330062866, 0.19801563024520874, -0.052425727248191833, 0.11842915415763855, -0.12304360685435464, -0.559734647692818, 0.8194834364867278,-0.002065066606134036,-0.719512939453125,0.1403656005859375,-0.2270660400390625
20220112-1457,2022-01-12 14:57:30Z,u01, 10,40,movements,el-ex, rt, d,96970.11640950001, -1.211803617414354, -0.2027723096179091, -0.14662950631060404, -0.08769334107637405, 0.10493797063827515, 0.05539692938327789, -0.9170693159103394, 0.20138561725616455, -0.34413328766822815, 0.20225608348846436, -0.023620694875717163, 0.13411134481430054, -0.12447349771440697, -0.5589630635199941, 0.8197931823429867,-0.002414683487065361,-0.714813232421875,0.177764892578125,-0.21002197265625
20220112-1457,2022-01-12 14:57:30Z,u01, 11,40,movements,el-ex, rt, d,96970.1413535, -1.2089658620886519, -0.20449730688210033, -0.1486822109859637, -0.11512459814548492, 0.1504659801721573, 0.005782166495919228, -0.9157629013061523, 0.20307496190071106, -0.3466108441352844, 0.28186696767807007, -0.06762269139289856, 0.1067885160446167, -0.12574270840684748, -0.5575691420736884, 0.820546710564441,-0.002941845493248829,-0.6517486572265625,0.1464385986328125,-0.22247314453125
20220112-1457,2022-01-12 14:57:30Z,u01, 12,40,movements,el-ex, rt, d,96970.1662975, -1.2064722492733544, -0.20497552426210514, -0.15111079750969017, -0.06048671901226044, 0.10193159431219101, -0.04748118668794632, -0.9148047566413879, 0.20354320108890533, -0.34885862469673157, 0.32491523027420044, -0.08093886077404022, 0.03922739624977112, -0.12660894389826596, -0.5563639628992773, 0.8212268669572043,-0.00395976046502039,-0.5898895263671875,0.1226043701171875,-0.30963134765625
20220112-1457,2022-01-12 14:57:30Z,u01, 13,40,movements,el-ex, rt, d,96970.1912405, -1.2055514773065916, -0.20389715634574992, -0.15228610757288655, 0.0206487774848938, 0.005957992747426033, -0.058355607092380524, -0.9146876931190491, 0.2024872899055481, -0.34977900981903076, 0.2743526101112366, -0.05382092297077179, 0.03408995270729065, -0.1264956195475918, -0.5559760313337945, 0.8215025231200177,-0.004807451948134478,-0.6240234375,0.1395416259765625,-0.328155517578125
20220112-1457,2022-01-12 14:57:30Z,u01, 14,40,movements,el-ex, rt, d,96970.21618450001, -1.2063724064639179, -0.2026426631157225, -0.1516506986170881, 0.03872891142964363, -0.0785548985004425, -0.017402980476617813, -0.9152111411094666, 0.2012586146593094, -0.34911826252937317, 0.21971547603607178, -0.03675362467765808, 0.08833038806915283, -0.1258111502562248, -0.5564282671742056, 0.8213011745466384,-0.004851542790681729,-0.69549560546875,0.1645050048828125,-0.2607879638671875
20220112-1457,2022-01-12 14:57:30Z,u01, 15,40,movements,el-ex, rt, d,96970.24112850001, -1.2093576129725543, -0.20274195643567808, -0.15137089823294714, -0.02849167212843895, -0.15801191329956055, 0.03231503814458847, -0.9162304401397705, 0.20135587453842163, -0.34637752175331116, 0.16908389329910278, -0.02203461527824402, 0.10852357745170593, -0.12578054676563746, -0.5576652150756968, 0.8204682709659297,-0.0045206468479696005,-0.73712158203125,0.1782073974609375,-0.23675537109375
20220112-1457,2022-01-12 14:57:30Z,u01, 16,40,movements,el-ex, rt, d,96970.26607150001, -1.2135768455241123, -0.20479285558549015, -0.15198325636107196, -0.05286708474159241, -0.1498994529247284, 0.10466799885034561, -0.9172950983047485, 0.20336434245109558, -0.3423636257648468, 0.13560247421264648, -0.030360162258148193, 0.1112540066242218, -0.12679214133901123, -0.5592333564278854, 0.819247579661826,-0.003919617141441956,-0.7816925048828125,0.173004150390625,-0.231109619140625
20220112-1457,2022-01-12 14:57:30Z,u01, 17,40,movements,el-ex, rt, d,96970.2910155, -1.2159215454941015, -0.2078157644758973, -0.15139828275541592, 0.018874213099479675, -0.03260265290737152, 0.13301202654838562, -0.9175145626068115, 0.20632316172122955, -0.33999669551849365, 0.13228201866149902, -0.04712817072868347, 0.14773601293563843, -0.12785657655646543, -0.5600485241287686, 0.8185299311578551,-0.002665586174070367,-0.791259765625,0.1646270751953125,-0.1980743408203125
20220112-1457,2022-01-12 14:57:30Z,u01, 18,40,movements,el-ex, rt, d,96970.3159595, -1.2140207031157177, -0.21022720609356288, -0.1493247844869635, 0.04717625677585602, 0.15158602595329285, 0.09710188955068588, -0.916397750377655, 0.2086821049451828, -0.3415653705596924, 0.19104069471359253, -0.11061389744281769, 0.16198477149009705, -0.12825092339706837, -0.5592575612964821, 0.8190122728898501,-0.0012481292993068438,-0.7253570556640625,0.0980682373046875,-0.1795806884765625
20220112-1457,2022-01-12 14:57:31Z,u01, 19,40,movements,el-ex, rt, d,96970.34090350001, -1.2085113497658782, -0.21182993624405347, -0.1480898931213882, 0.011100011877715588, 0.25598087906837463, 0.055295057594776154, -0.9141882061958313, 0.21024928987026215, -0.34648996591567993, 0.30131882429122925, -0.16741779446601868, 0.10259351134300232, -0.1285534986238284, -0.5569820593557449, 0.820514909157134,-0.0006381179104043011,-0.6234130859375,0.03857421875,-0.222930908203125
20220112-1457,2022-01-12 14:57:31Z,u01, 20,40,movements,el-ex, rt, d,96970.3658465, -1.2010797011110015, -0.21236910902977676, -0.1468786608952753, 0.0753229409456253, 0.3207729458808899, 0.03205525130033493, -0.9114820957183838, 0.21077637374401093, -0.3532332181930542, 0.2765638828277588, -0.11958988010883331, 0.07849881052970886, -0.1284341439869211, -0.5539747840152708, 0.8225669655617247,-0.00046481686647342757,-0.634918212890625,0.0911865234375,-0.2747344970703125
20220112-1457,2022-01-12 14:57:31Z,u01, 21,40,movements,el-ex, rt, d,96970.39079050001, -1.191531621544968, -0.2126122309409021, -0.143321693641734, 0.15607938170433044, 0.3894956707954407, 0.09499093890190125, -0.9080203175544739, 0.2110140323638916, -0.3619009256362915, 0.21083086729049683, -0.049606502056121826, 0.1412588655948639, -0.12755129050621009, -0.5502546744600523, 0.8251971544671581,0.0004580645954083695,-0.69146728515625,0.1549530029296875,-0.2297210693359375
20220112-1457,2022-01-12 14:57:31Z,u01, 22,40,movements,el-ex, rt, d,96970.41573450001, -1.1802617689887391, -0.21457637017507122, -0.1393730834958743, 0.054679714143276215, 0.4388878643512726, 0.15801237523555756, -0.9034991264343262, 0.2129335254430771, -0.37195247411727905, 0.21871525049209595, -0.03297136723995209, 0.18997618556022644, -0.12727972743858396, -0.5457322059143508, 0.8282345885601587,0.0019227264154370038,-0.684783935546875,0.179962158203125,-0.181976318359375
20220112-1457,2022-01-12 14:57:31Z,u01, 23,40,movements,el-ex, rt, d,96970.44067750001, -1.1698944999684335, -0.21853075602929353, -0.138495487162201, -0.09891986846923828, 0.35775643587112427, 0.15683040022850037, -0.8988122344017029, 0.21679556369781494, -0.38096752762794495, 0.2729882597923279, -0.03315602242946625, 0.08815142512321472, -0.12867711682600438, -0.5412563446621297, 0.8309490529976757,0.002722646949619101,-0.6241912841796875,0.1901397705078125,-0.2682647705078125
20220112-1457,2022-01-12 14:57:31Z,u01, 24,40,movements,el-ex, rt, d,96970.4656215, -1.1627592760265677, -0.22401950734564172, -0.13972135818864798, -0.149746835231781, 0.24205701053142548, 0.20956231653690338, -0.8949652910232544, 0.22215047478675842, -0.38689300417900085, 0.20145338773727417, -0.05534137785434723, 0.05368688702583313, -0.1312782162450505, -0.5378843111998675, 0.8327279150935969,0.003265019898289423,-0.693511962890625,0.16680908203125,-0.3332061767578125
20220112-1457,2022-01-12 14:57:31Z,u01, 25,40,movements,el-ex, rt, d,96970.4905655, -1.157086174612728, -0.23083513307088177, -0.14118965506249462, -0.1546815037727356, 0.26367688179016113, 0.2440740168094635, -0.8913490176200867, 0.22879058122634888, -0.3913462162017822, 0.0647193193435669, 0.028823524713516235, 0.06685280799865723, -0.13449288309425717, -0.5350126723131755, 0.8340598882872026,0.004149758573719076,-0.8174285888671875,0.244781494140625,-0.3322601318359375
20220112-1457,2022-01-12 14:57:31Z,u01, 26,40,movements,el-ex, rt, d,96970.51550950001, -1.1492992500092585, -0.23799562154208875, -0.1422446971716538, -0.1434749960899353, 0.37978899478912354, 0.2442227602005005, -0.886756956577301, 0.23575522005558014, -0.397594690322876, 0.0696641206741333, 0.015923261642456055, 0.03413039445877075, -0.13774937794794032, -0.5312511373243636, 0.835925188594862,0.005137750741859959,-0.8170928955078125,0.251678466796875,-0.36346435546875
20220112-1457,2022-01-12 14:57:31Z,u01, 27,40,movements,el-ex, rt, d,96970.5404525, -1.1380884925504378, -0.24484276550102574, -0.14178775548817452, -0.040995046496391296, 0.5066090226173401, 0.27903565764427185, -0.8807578682899475, 0.2424037754535675, -0.4068242311477661, 0.08772808313369751, -0.06976588070392609, -0.004964619874954224, -0.14049586593621882, -0.5261642224268839, 0.8386721775176051,0.006408488845597027,-0.7919921875,0.170196533203125,-0.4096527099609375
20220112-1457,2022-01-12 14:57:31Z,u01, 28,40,movements,el-ex, rt, d,96970.56539650001, -1.1237033414960116, -0.25130566243900654, -0.1380523700412855, 0.07020490616559982, 0.5701178312301636, 0.3029395341873169, -0.8733838200569153, 0.2486688196659088, -0.41876548528671265, 0.04634219408035278, -0.011501476168632507, 0.009875744581222534, -0.14225916970888494, -0.5199803713291392, 0.842203714243587,0.008698807532047659,-0.8270416259765625,0.2371673583984375,-0.4088897705078125
20220112-1457,2022-01-12 14:57:31Z,u01, 29,40,movements,el-ex, rt, d,96970.5903405, -1.1080965019469722, -0.2570436601118445, -0.13300762755978174, 0.05893421545624733, 0.5655575394630432, 0.2763112783432007, -0.8654510974884033, 0.25422245264053345, -0.4317007064819336, 0.03332817554473877, 0.02257201075553894, 0.05125325918197632, -0.14342935414122918, -0.5133981593632125, 0.8460048358485746,0.011237477927269923,-0.838775634765625,0.280059814453125,-0.3779754638671875
20220112-1457,2022-01-12 14:57:31Z,u01, 30,40,movements,el-ex, rt, d,96970.61528350001, -1.0941120173407548, -0.262270500964348, -0.12970840309117423, -0.010062663815915585, 0.47364553809165955, 0.21845415234565735, -0.8581371307373047, 0.25927406549453735, -0.443145215511322, 0.07439994812011719, -0.02119120955467224, 0.022765636444091797, -0.14486427578201552, -0.5073871651360001, 0.8493548503652143,0.012999664835027458,-0.7837371826171875,0.2380828857421875,-0.420379638671875
20220112-1457,2022-01-12 14:57:31Z,u01, 31,40,movements,el-ex, rt, d,96970.6402275, -1.082849395059957, -0.2662701453992532, -0.1266215816662269, 0.10075666755437851, 0.3712320923805237, 0.1815563291311264, -0.8521690368652344, 0.2631348669528961, -0.45229199528694153, 0.0114554762840271, 0.011950582265853882, -0.012719571590423584, -0.14584616224054806, -0.5025762607642414, 0.8520181065457675,0.014532841577298394,-0.8222503662109375,0.2596588134765625,-0.4740753173828125
20220112-1457,2022-01-12 14:57:31Z,u01, 32,40,movements,el-ex, rt, d,96970.6651715, -1.0725904038996859, -0.2687170767120782, -0.12090836991892688, 0.14991438388824463, 0.3363167941570282, 0.21061307191848755, -0.8469160199165344, 0.26549476385116577, -0.4607013463973999, -0.047233760356903076, 0.05968526005744934, 0.08702895045280457, -0.14553041283061782, -0.49846787675098014, 0.8544393463296494,0.01685259227197522,-0.8941497802734375,0.3251800537109375,-0.3736724853515625
20220112-1457,2022-01-12 14:57:31Z,u01, 33,40,movements,el-ex, rt, d,96970.69011550001, -1.063600002977195, -0.2728872511233845, -0.11758531055229574, -0.09404867887496948, 0.3121040165424347, 0.18904559314250946, -0.8417649269104004, 0.26951298117637634, -0.46775496006011963, -0.017137110233306885, 0.04516902565956116, 0.09504377841949463, -0.14655186997038985, -0.49461608770973464, 0.8564628493978449,0.018681666287463206,-0.8667144775390625,0.329803466796875,-0.3554534912109375
20220112-1457,2022-01-12 14:57:31Z,u01, 34,40,movements,el-ex, rt, d,96970.7150585, -1.0562659792905928, -0.27822802528244045, -0.11878011047611949, -0.14866970479488373, 0.2925944924354553, 0.1463753581047058, -0.83704674243927, 0.27465224266052246, -0.4732006788253784, 0.014521658420562744, -0.04105544090270996, -0.012791693210601807, -0.14918266549099246, -0.4910643443122258, 0.8580443496690076,0.018980774599582362,-0.8225250244140625,0.2335968017578125,-0.485992431640625
20220112-1457,2022-01-12 14:57:31Z,u01, 35,40,movements,el-ex, rt, d,96970.74000250001, -1.0488786590392185, -0.2822475486869213, -0.1187328832217053, 0.006222832947969437, 0.31769776344299316, 0.1607559621334076, -0.8325645327568054, 0.2785149812698364, -0.4788169860839844, -0.07612687349319458, -0.06917968392372131, -0.027805298566818237, -0.15095147505678555, -0.4876527041274855, 0.8596684327875659,0.019459065328404745,-0.886322021484375,0.20428466796875,-0.523345947265625
20220112-1457,2022-01-12 14:57:31Z,u01, 36,40,movements,el-ex, rt, d,96970.7649465, -1.039445761631882, -0.28597958911310456, -0.11575652999639477, -0.0008826474659144878, 0.3555082082748413, 0.2084866762161255, -0.8271090984344482, 0.28209739923477173, -0.48611903190612793, -0.11162692308425903, 0.013495862483978271, -0.0031845569610595703, -0.15191476361504663, -0.4835932094103883, 0.8617542125305275,0.020958746915169357,-0.9387359619140625,0.29559326171875,-0.4893035888671875
20220112-1457,2022-01-12 14:57:31Z,u01, 37,40,movements,el-ex, rt, d,96970.78988950001, -1.0306018329327977, -0.29155879642636695, -0.11412199024394022, -0.10776828229427338, 0.3105371296405792, 0.22907385230064392, -0.8214150071144104, 0.2874455749988556, -0.49259766936302185, -0.0475577712059021, 0.08277839422225952, -0.07139763236045837, -0.15400071108762545, -0.4795674547323838, 0.863596211672246,0.02237091219056453,-0.8796539306640625,0.3700408935546875,-0.55859375
20220112-1457,2022-01-12 14:57:31Z,u01, 38,40,movements,el-ex, rt, d,96970.8148335, -1.022915613978142, -0.297347588158702, -0.11302699155065349, -0.044089142233133316, 0.28760313987731934, 0.21480602025985718, -0.8161704540252686, 0.2929852306842804, -0.49802154302597046, -0.020835161209106445, 0.04312014579772949, -0.06145721673965454, -0.1563057591697215, -0.47598081538345227, 0.8651302578454585,0.02367274067270575,-0.837005615234375,0.3361053466796875,-0.559478759765625
20220112-1457,2022-01-12 14:57:31Z,u01, 39,40,movements,el-ex, rt, d,96970.8397775, -1.0144687290076242, -0.30139553816730846, -0.10935971326508873, 0.10597176104784012, 0.30611616373062134, 0.20245833694934845, -0.8109208345413208, 0.29685312509536743, -0.5042673945426941, -0.0029982328414916992, 0.03630724549293518, -0.03218579292297363, -0.15727674243920564, -0.4723667438657925, 0.8668788532116647,0.025587494318631387,-0.8204803466796875,0.324066162109375,-0.533538818359375
20220112-1457,2022-01-12 14:57:31Z,u01, 40,40,movements,el-ex, rt, d,96970.86472162501, -1.005464971983071, -0.3038550899568169, -0.10370466563268423, 0.11875264346599579, 0.27464815974235535, 0.188327819108963, -0.8057287931442261, 0.2992009222507477, -0.5111554861068726, 0.028537631034851074, 0.0639735758304596, -0.029661715030670166, -0.15712437188367984, -0.4687581260825344, 0.8687909381889953,0.027929594494372545,-0.777191162109375,0.3631744384765625,-0.5408172607421875
20220112-1457,2022-01-12 14:57:31Z,u01, 41,40,movements,el-ex, rt, d,96970.889664625, -0.9974892941773571, -0.30637015025548786, -0.09905318362756216, 0.08074044436216354, 0.2574003040790558, 0.17847418785095215, -0.8009917140007019, 0.30159980058670044, -0.517155647277832, 0.03785383701324463, 0.02454155683517456, -0.012003898620605469, -0.15723757588607049, -0.4655088868072163, 0.8704494144946566,0.029929713084684006,-0.7587432861328125,0.333831787109375,-0.5343475341796875
20220112-1457,2022-01-12 14:57:31Z,u01, 42,40,movements,el-ex, rt, d,96970.91460862501, -0.9897846447938171, -0.3090567689587179, -0.09469739815286364, 0.09391606599092484, 0.2519097328186035, 0.1887713521718979, -0.7963032126426697, 0.3041602373123169, -0.5228649377822876, 0.013130605220794678, 0.004540294408798218, -0.014488518238067627, -0.15750706506684353, -0.4623408507447248, 0.8720190973398064,0.0318616588096689,-0.783172607421875,0.3087005615234375,-0.537353515625
20220112-1457,2022-01-12 14:57:31Z,u01, 43,40,movements,el-ex, rt, d,96970.939552625, -0.9821027937512337, -0.31178801281269397, -0.09014029585907142, 0.06008453294634819, 0.2561386525630951, 0.18676267564296722, -0.7915694117546082, 0.3067609369754791, -0.5285032987594604, -0.02411973476409912, 0.010103106498718262, -0.015609800815582275, -0.1577661225285662, -0.4591929893291247, 0.8735577689521203,0.03389129323100548,-0.8124847412109375,0.3153228759765625,-0.5453033447265625
20220112-1457,2022-01-12 14:57:31Z,u01, 44,40,movements,el-ex, rt, d,96970.96449562501, -0.9744494659690037, -0.3155850703456042, -0.08684871494300858, -0.008148216642439365, 0.2707870602607727, 0.2126690298318863, -0.7865320444107056, 0.3103727102279663, -0.5338878631591797, -0.03161376714706421, 0.01785910129547119, -0.03573799133300781, -0.15879364429637707, -0.45589543258119497, 0.8750288681072802,0.03561634198571989,-0.818145751953125,0.3282318115234375,-0.5696258544921875
20220112-1457,2022-01-12 14:57:31Z,u01, 45,40,movements,el-ex, rt, d,96970.989439625, -0.9665523661638943, -0.3202059297073364, -0.08394154600419788, -0.02368300035595894, 0.2822151482105255, 0.20788539946079254, -0.7811027765274048, 0.31476202607154846, -0.5392618775367737, -0.06876599788665771, 0.06551748514175415, -0.09278762340545654, -0.16028634981456935, -0.45241279591141836, 0.8764913428179106,0.03733629337328065,-0.8419647216796875,0.372711181640625,-0.6238250732421875
20220112-1457,2022-01-12 14:57:31Z,u01, 46,40,movements,el-ex, rt, d,96971.014383625, -0.9591139998817588, -0.32435765697382646, -0.08168359082847974, -0.013246506452560425, 0.2623388469219208, 0.1618182361125946, -0.7759934663772583, 0.31870001554489136, -0.5443019270896912, -0.12851709127426147, 0.07978326082229614, -0.10109901428222656, -0.16172697271671072, -0.44910290449522167, 0.8778692119694331,0.03868795175393841,-0.904510498046875,0.3984832763671875,-0.6454010009765625
20220112-1457,2022-01-12 14:57:31Z,u01, 47,40,movements,el-ex, rt, d,96971.03932762501, -0.9520580491512357, -0.32753387422411057, -0.07966396900750444, -0.022106077522039413, 0.24664664268493652, 0.1333572268486023, -0.7713050842285156, 0.3217089772224426, -0.5491737723350525, -0.17396169900894165, 0.07941406965255737, -0.10049962997436523, -0.16279903845436078, -0.4459928044089345, 0.8792088933169024,0.03973187544482237,-0.9434814453125,0.3963623046875,-0.641448974609375
20220112-1457,2022-01-12 14:57:31Z,u01, 48,40,movements,el-ex, rt, d,96971.06427062501, -0.9462351101728463, -0.3303547595731885, -0.07877064812071638, -0.0437496192753315, 0.18930630385875702, 0.09071250259876251, -0.7673549056053162, 0.32437863945961, -0.5531228184700012, -0.17737776041030884, 0.10451540350914001, -0.139198899269104, -0.16394941221000556, -0.44334994293101326, 0.8803055576067482,0.040292627386926405,-0.944732666015625,0.42889404296875,-0.69232177734375
20220112-1457,2022-01-12 14:57:31Z,u01, 49,40,movements,el-ex, rt, d,96971.08921462501, -0.9424477495013488, -0.3325558927543768, -0.07887110970581786, -0.0650332048535347, 0.11920417845249176, 0.047649458050727844, -0.7646750807762146, 0.32645994424819946, -0.5556040406227112, -0.1977730393409729, 0.11900517344474792, -0.18157845735549927, -0.16501078787289994, -0.44155340099689616, 0.881003326004925,0.04043660874105881,-0.95672607421875,0.44482421875,-0.7392120361328125
20220112-1457,2022-01-12 14:57:31Z,u01, 50,40,movements,el-ex, rt, d,96971.114158625, -0.9406040252622837, -0.33439880024793367, -0.07980714366264603, -0.08743811398744583, 0.06581287086009979, 0.03498426079750061, -0.7631620764732361, 0.3282013237476349, -0.5566574931144714, -0.2257906198501587, 0.11747735738754272, -0.1905043125152588, -0.16606085269515525, -0.44056217780441964, 0.8813090577022282,0.040288823935907325,-0.98895263671875,0.4456787109375,-0.747161865234375
20220112-1457,2022-01-12 14:57:31Z,u01, 51,40,movements,el-ex, rt, d,96971.13910162501, -0.9404095664571636, -0.3371049380567586, -0.08176494712693862, -0.15348663926124573, 0.011654825881123543, 0.048238545656204224, -0.7623335123062134, 0.33075636625289917, -0.5562803149223328, -0.2825425863265991, 0.15610581636428833, -0.23162245750427246, -0.16767997178180516, -0.4401627786099588, 0.8812141339209512,0.04002206087353599,-1.033416748046875,0.476806640625,-0.7835235595703125
20220112-1457,2022-01-12 14:57:31Z,u01, 52,40,movements,el-ex, rt, d,96971.164045625, -0.9416748446118536, -0.34080367871299416, -0.08494128999335857, -0.210720032453537, -0.03269093483686447, 0.04914894700050354, -0.7620424032211304, 0.33424466848373413, -0.5545916557312012, -0.31470930576324463, 0.20158299803733826, -0.25413936376571655, -0.16997139604523187, -0.440243009672824, 0.8807555081698524,0.039566976481381466,-1.076751708984375,0.53582763671875,-0.8087310791015625
20220112-1457,2022-01-12 14:57:31Z,u01, 53,40,movements,el-ex, rt, d,96971.188989625, -0.9440121536715973, -0.34513309155802085, -0.08862441021425618, -0.22165250778198242, -0.06189209222793579, 0.06851079314947128, -0.7621573805809021, 0.3383219242095947, -0.5519550442695618, -0.3525887131690979, 0.23670554161071777, -0.28160202503204346, -0.17262781421338402, -0.4407063976525007, 0.8800263849369238,0.03912793309842444,-1.1116485595703125,0.5683746337890625,-0.8296051025390625
20220112-1457,2022-01-12 14:57:31Z,u01, 54,40,movements,el-ex, rt, d,96971.21393362501, -0.9476899885175812, -0.34999467090869874, -0.09258163666199375, -0.2327190488576889, -0.1132405698299408, 0.057468995451927185, -0.7628375291824341, 0.3428927958011627, -0.5481818914413452, -0.39766961336135864, 0.2641628682613373, -0.30154949426651, -0.1755496478701159, -0.4416914933954188, 0.8789677684775146,0.03881423739138601,-1.1605072021484375,0.6070556640625,-0.8497314453125
20220112-1457,2022-01-12 14:57:31Z,u01, 55,40,movements,el-ex, rt, d,96971.23887662501, -0.9524465724822861, -0.3542094183700967, -0.09681297693761369, -0.2033682018518448, -0.14515270292758942, 0.021662529557943344, -0.7642519474029541, 0.3468489646911621, -0.543704628944397, -0.4481655955314636, 0.2781662940979004, -0.30932265520095825, -0.17822893052575697, -0.4431502481666024, 0.8777142708242518,0.038340065413979885,-1.20648193359375,0.63055419921875,-0.8488922119140625
20220112-1457,2022-01-12 14:57:31Z,u01, 56,40,movements,el-ex, rt, d,96971.26382062501, -0.9582141821965363, -0.35635532616796917, -0.10141426610115177, -0.1602175086736679, -0.19670157134532928, -0.08640582114458084, -0.7667644023895264, 0.34886085987091064, -0.5388585329055786, -0.4503377079963684, 0.26657187938690186, -0.3272455930709839, -0.1800740240278854, -0.4451337924080622, 0.8763764272874524,0.03733214972735582,-1.21710205078125,0.6154327392578125,-0.8661041259765625
20220112-1457,2022-01-12 14:57:31Z,u01, 57,40,movements,el-ex, rt, d,96971.288764625, -0.9653215904562816, -0.355137267538131, -0.10619707577003525, -0.0786340981721878, -0.2356066256761551, -0.1969459056854248, -0.7709237337112427, 0.34771907329559326, -0.5336366891860962, -0.4014853239059448, 0.18960395455360413, -0.3061307668685913, -0.18048409595485268, -0.44789188565415444, 0.8749579007031232,0.03559687057662764,-1.1833953857421875,0.553192138671875,-0.842742919921875
20220112-1457,2022-01-12 14:57:31Z,u01, 58,40,movements,el-ex, rt, d,96971.313707625, -0.973396727719429, -0.35082834340227637, -0.11089359535395894, -0.005849676206707954, -0.2814897894859314, -0.28006693720817566, -0.7764393091201782, 0.343675822019577, -0.5282319188117981, -0.3354839086532593, 0.15730074048042297, -0.28356605768203735, -0.17953643574642883, -0.45127674773620546, 0.873504114929548,0.033265819984442335,-1.1119232177734375,0.5009765625,-0.811798095703125
20220112-1457,2022-01-12 14:57:32Z,u01, 59,40,movements,el-ex, rt, d,96971.338651625, -0.9820625422765464, -0.34385519399683623, -0.11472991625013013, 0.06478238105773926, -0.3098682165145874, -0.3430670499801636, -0.7829617261886597, 0.33711910247802734, -0.5228018164634705, -0.2422611117362976, 0.12990662455558777, -0.20806360244750977, -0.1772560564241914, -0.45516963084702877, 0.8720418207606416,0.030724500024835455,-1.0449371337890625,0.4697265625,-0.74267578125
20220112-1457,2022-01-12 14:57:32Z,u01, 60,40,movements,el-ex, rt, d,96971.36359562501, -0.9917933522561594, -0.3354915875769891, -0.11858741964552083, 0.06576155871152878, -0.3698323369026184, -0.3676968514919281, -0.7903441786766052, 0.3292333781719208, -0.5166831016540527, -0.15861517190933228, 0.11632323265075684, -0.173639714717865, -0.1743913774336374, -0.4596151740266427, 0.8703805519706306,0.027914291408262903,-0.9489593505859375,0.445556640625,-0.6903228759765625
20220112-1457,2022-01-12 14:57:32Z,u01, 61,40,movements,el-ex, rt, d,96971.388538625, -1.0025910970204188, -0.3268974222318395, -0.12236678711502548, 0.06746954470872879, -0.3961750566959381, -0.3596254289150238, -0.7982326149940491, 0.32110631465911865, -0.5096230506896973, -0.0934910774230957, 0.07299774885177612, -0.10318511724472046, -0.17142614416353213, -0.46454444174649073, 0.8684350969046912,0.025144357792671934,-0.8986663818359375,0.4022216796875,-0.6292724609375
20220112-1457,2022-01-12 14:57:32Z,u01, 62,40,movements,el-ex, rt, d,96971.41348262501, -1.012971803813653, -0.3186580772094045, -0.1250611399562479, 0.11441788077354431, -0.3597653806209564, -0.3115295469760895, -0.805696964263916, 0.3132924735546112, -0.5026929378509521, -0.060849666595458984, 0.04957681894302368, -0.045295894145965576, -0.1683964428280994, -0.4693571858284343, 0.8665008858448655,0.02286227207019159,-0.866546630859375,0.3628692626953125,-0.5479888916015625
20220112-1457,2022-01-12 14:57:32Z,u01, 63,40,movements,el-ex, rt, d,96971.43842662501, -1.022245526578532, -0.31094214121786135, -0.12661008713781402, 0.10164991766214371, -0.35515379905700684, -0.2753392457962036, -0.8123626708984375, 0.3059557378292084, -0.4964454174041748, 0.044189453125, 0.014188915491104126, -0.01803511381149292, -0.1653572449322141, -0.47374494476994755, 0.8647418254854722,0.021079994806369295,-0.7837371826171875,0.3262176513671875,-0.5179901123046875
20220112-1457,2022-01-12 14:57:32Z,u01, 64,40,movements,el-ex, rt, d,96971.463370625, -1.0317141335900506, -0.30404631975716184, -0.1280390806310073, 0.09924671798944473, -0.3687126636505127, -0.24976351857185364, -0.8188180327415466, 0.29938337206840515, -0.4898027777671814, 0.08519065380096436, -0.006155222654342651, 0.004329204559326172, -0.16265583837721648, -0.47816491294992924, 0.8628555583704123,0.01953968682994922,-0.7336273193359375,0.2932281494140625,-0.4854736328125
20220112-1457,2022-01-12 14:57:32Z,u01, 65,40,movements,el-ex, rt, d,96971.488313625, -1.040969548553631, -0.29789175484447616, -0.1289458199140046, 0.08063780516386032, -0.3555184602737427, -0.2075304388999939, -0.8248904943466187, 0.29350546002388, -0.4831254482269287, 0.11198461055755615, -0.035631924867630005, 0.10370048880577087, -0.16016291390030293, -0.48247809551252274, 0.8609444906073095,0.018366337664014964,-0.717742919921875,0.2606048583984375,-0.3840179443359375
20220112-1457,2022-01-12 14:57:32Z,u01, 66,40,movements,el-ex, rt, d,96971.513257625, -1.050275610114904, -0.2929093662741324, -0.12994782030308627, 0.054243654012680054, -0.3642764687538147, -0.17340250313282013, -0.8306090831756592, 0.2887389063835144, -0.4761495292186737, 0.11520075798034668, -0.02163374423980713, 0.1163473129272461, -0.15820380987501567, -0.4867204359878583, 0.8589360082845785,0.017427864359597256,-0.7154083251953125,0.2671051025390625,-0.35980224609375
20220112-1457,2022-01-12 14:57:32Z,u01, 67,40,movements,el-ex, rt, d,96971.53820162501, -1.059941393062038, -0.28934396200684365, -0.13203577747058134, -0.04580847918987274, -0.3622734248638153, -0.1507469117641449, -0.8360653519630432, 0.28532353043556213, -0.4685993194580078, 0.11466026306152344, -0.025954604148864746, 0.1282367706298828, -0.1571201481959589, -0.49093136062370163, 0.8567560999179287,0.016393563075443984,-0.7248992919921875,0.26300048828125,-0.3402252197265625
20220112-1457,2022-01-12 14:57:32Z,u01, 68,40,movements,el-ex, rt, d,96971.563144625, -1.0698285074866458, -0.28714866071267997, -0.1352228114631567, -0.07826675474643707, -0.35230162739753723, -0.12146053463220596, -0.8412049412727356, 0.2832188010215759, -0.460610032081604, 0.12814640998840332, -0.03775060176849365, 0.12767857313156128, -0.15689905836654644, -0.49505320307245765, 0.8544429476590358,0.015247048255284668,-0.7130584716796875,0.2454681396484375,-0.3329315185546875
20220112-1457,2022-01-12 14:57:32Z,u01, 69,40,movements,el-ex, rt, d,96971.58808862501, -1.07933967662288, -0.2858126878036037, -0.13887340549908836, -0.12203051149845123, -0.32870420813560486, -0.10835518687963486, -0.8458805084228516, 0.28193727135658264, -0.4527665674686432, 0.11481666564941406, -0.047043442726135254, 0.11779040098190308, -0.15717313860382262, -0.49891213660322026, 0.8521647028399593,0.014093124566543103,-0.7270355224609375,0.2332305908203125,-0.3358001708984375
20220112-1457,2022-01-12 14:57:32Z,u01, 70,40,movements,el-ex, rt, d,96971.61303262501, -1.0885488918084183, -0.2848739344257559, -0.1435185879934118, -0.15182942152023315, -0.3046848773956299, -0.12489049136638641, -0.8502482771873474, 0.28103646636009216, -0.44508013129234314, 0.10639762878417969, -0.04003915190696716, 0.1024288535118103, -0.15788005633766602, -0.502527440397785, 0.8499301657114591,0.012598738750369098,-0.7438507080078125,0.240997314453125,-0.3426513671875
20220112-1457,2022-01-12 14:57:32Z,u01, 71,40,movements,el-ex, rt, d,96971.637976625, -1.0975198671377822, -0.2833984458769878, -0.14847303293553996, -0.13149096071720123, -0.3064824938774109, -0.15950486063957214, -0.854574978351593, 0.27962014079093933, -0.4376232624053955, 0.12547951936721802, -0.05948159098625183, 0.04966866970062256, -0.15845845469022002, -0.5060427666421908, 0.8477584933992375,0.010820369727305212,-0.73468017578125,0.2198638916015625,-0.381103515625
20220112-1457,2022-01-12 14:57:32Z,u01, 72,40,movements,el-ex, rt, d,96971.662919625, -1.1066051783046382, -0.28063466399986303, -0.1530551018895589, -0.07333817332983017, -0.3197660446166992, -0.20428591966629028, -0.8592033982276917, 0.27696552872657776, -0.43018561601638794, 0.14869308471679688, -0.059146344661712646, 0.022928595542907715, -0.15842258459971548, -0.5097150886030777, 0.845585088707808,0.008873574524329852,-0.71051025390625,0.2178192138671875,-0.407257080078125
20220112-1457,2022-01-12 14:57:32Z,u01, 73,40,movements,el-ex, rt, d,96971.687863625, -1.1161441805015753, -0.2757806695060436, -0.1571193094850963, -0.036224525421857834, -0.36163023114204407, -0.27896368503570557, -0.8644653558731079, 0.2722981870174408, -0.4225556254386902, 0.16639107465744019, -0.07062280178070068, -0.011312752962112427, -0.15740351489918278, -0.5137570709546739, 0.8433468096382702,0.006624420654875285,-0.6969146728515625,0.2089385986328125,-0.4263916015625
20220112-1457,2022-01-12 14:57:32Z,u01, 74,40,movements,el-ex, rt, d,96971.71280762501, -1.1264986721863037, -0.26854333547033626, -0.16098593349713, 0.013520194217562675, -0.3649981617927551, -0.3723941743373871, -0.8705510497093201, 0.2653272747993469, -0.4144183099269867, 0.16767001152038574, -0.09711432456970215, 0.011464178562164307, -0.1553679816364024, -0.5183161555712071, 0.8409484706514649,0.0038724726088070205,-0.702880859375,0.168212890625,-0.4029541015625
20220112-1457,2022-01-12 14:57:32Z,u01, 75,40,movements,el-ex, rt, d,96971.737750625, -1.1356003671309762, -0.25957085947141445, -0.16540597113867664, -0.04536809027194977, -0.2764492630958557, -0.3995417356491089, -0.8764103055000305, 0.25666582584381104, -0.40746501088142395, 0.21308016777038574, -0.12205275893211365, 0.16691023111343384, -0.15279199931119486, -0.5224194659477689, 0.8388876558429488,0.0003016415732547406,-0.66802978515625,0.133026123046875,-0.2466583251953125
20220112-1457,2022-01-12 14:57:32Z,u01, 76,40,movements,el-ex, rt, d,96971.76269462501, -1.1439564323142875, -0.251618496767972, -0.1723518399057486, -0.15515919029712677, -0.2532106041908264, -0.40150535106658936, -0.8816145658493042, 0.2489718198776245, -0.40095987915992737, 0.1785048246383667, -0.05248439311981201, 0.07605451345443726, -0.1513348503419365, -0.5259447017220442, 0.8369366310638561,-0.004129277706936274,-0.7031097412109375,0.1964874267578125,-0.3249053955078125
20220112-1457,2022-01-12 14:57:32Z,u01, 77,40,movements,el-ex, rt, d,96971.787638625, -1.152609422686085, -0.2447636138738647, -0.18061956724139167, -0.20576488971710205, -0.2864263951778412, -0.35618990659713745, -0.8865898251533508, 0.2423269897699356, -0.39400020241737366, 0.12511521577835083, 0.00022673606872558594, 0.032672107219696045, -0.15071985635232255, -0.5294180113760656, 0.8348189262946235,-0.008802672078172147,-0.7527008056640625,0.24249267578125,-0.357421875
20220112-1457,2022-01-12 14:57:32Z,u01, 78,40,movements,el-ex, rt, d,96971.812582625, -1.162680076068943, -0.24005237517424402, -0.18917579104014148, -0.25448957085609436, -0.36117392778396606, -0.25748974084854126, -0.8915506601333618, 0.2377534955739975, -0.3855006694793701, 0.11876928806304932, -0.01604330539703369, -0.0028507113456726074, -0.1511130390294676, -0.5333052791999849, 0.8322162390402984,-0.012904381844848878,-0.7727813720703125,0.221710205078125,-0.3883514404296875
20220112-1457,2022-01-12 14:57:32Z,u01, 79,40,movements,el-ex, rt, d,96971.837525625, -1.1741768992359518, -0.23738356151570375, -0.1965288851657501, -0.15438908338546753, -0.40435338020324707, -0.1693873256444931, -0.8965056538581848, 0.23516036570072174, -0.3754691481590271, 0.1270049810409546, -0.012092143297195435, -0.037708282470703125, -0.15207287815214846, -0.5377167166702914, 0.8291465315764018,-0.015827134217238192,-0.7668914794921875,0.220489501953125,-0.42071533203125
20220112-1457,2022-01-12 14:57:32Z,u01, 80,40,movements,el-ex, rt, d,96971.86246904168, -1.1849155491885055, -0.23465697772644245, -0.19994242849076432, -0.01437072642147541, -0.3859573006629944, -0.14374907314777374, -0.90107661485672, 0.23250937461853027, -0.36606037616729736, 0.11561524868011475, 0.017017602920532227, -0.015302449464797974, -0.15197225994091637, -0.5421016855079273, 0.8262776448284814,-0.01718606011079754,-0.78546142578125,0.2495269775390625,-0.3813629150390625
20220112-1457,2022-01-12 14:57:32Z,u01, 81,40,movements,el-ex, rt, d,96971.88741304167, -1.1940664374845964, -0.23098427249498, -0.2011619648134605, 0.01996760629117489, -0.3261883854866028, -0.1716676503419876, -0.9051766991615295, 0.22893576323986053, -0.35811132192611694, 0.06656885147094727, 0.05301618576049805, 0.04551976919174194, -0.15089338049033463, -0.5460545136755899, 0.8238511201882763,-0.01803079600831564,-0.8326873779296875,0.2870635986328125,-0.325103759765625
20220112-1457,2022-01-12 14:57:32Z,u01, 82,40,movements,el-ex, rt, d,96971.91235604168, -1.201300679412457, -0.22658404858792877, -0.20204122945523403, 0.03358231857419014, -0.23730066418647766, -0.18143032491207123, -0.9086742401123047, 0.22465020418167114, -0.3519141376018524, 0.07345378398895264, -0.012644559144973755, 0.06643745303153992, -0.14941931474479073, -0.5492875376928973, 0.8219443737666532,-0.01909612537059191,-0.8352203369140625,0.212005615234375,-0.2854766845703125
20220112-1457,2022-01-12 14:57:32Z,u01, 83,40,movements,el-ex, rt, d,96971.93730004167, -1.2058245717439773, -0.22238327147146997, -0.20228116974693108, 0.09892144054174423, -0.12009561061859131, -0.1417674720287323, -0.911130428314209, 0.22055482864379883, -0.34813353419303894, 0.15028142929077148, -0.09009218215942383, 0.08116579055786133, -0.1478313322327645, -0.5514336994465034, 0.8207707816500651,-0.02005358629797316,-0.7783050537109375,0.13543701171875,-0.2676849365234375
20220112-1457,2022-01-12 14:57:32Z,u01, 84,40,movements,el-ex, rt, d,96971.96224404167, -1.2071405770764823, -0.2183972656724171, -0.20021308131921445, 0.14887075126171112, -0.021265706047415733, -0.1068827286362648, -0.9124021530151367, 0.21666523814201355, -0.34724414348602295, 0.20723247528076172, -0.09148210287094116, 0.08642572164535522, -0.14566333438854825, -0.5524130030702662, 0.8204951322975996,-0.020244703145038567,-0.705169677734375,0.12518310546875,-0.2608184814453125
20220112-1457,2022-01-12 14:57:32Z,u01, 85,40,movements,el-ex, rt, d,96971.98718804168, -1.2061411261370794, -0.2152366444008185, -0.19736529799130278, 0.14432817697525024, 0.05333629250526428, -0.05618446320295334, -0.9126899242401123, 0.21357861161231995, -0.348398357629776, 0.26101744174957275, -0.09140145778656006, 0.11826536059379578, -0.1435890050340433, -0.5524337259107377, 0.8208515671197019,-0.020049374476486415,-0.6553802490234375,0.1243133544921875,-0.239105224609375
20220112-1457,2022-01-12 14:57:32Z,u01, 86,40,movements,el-ex, rt, d,96972.01213104167, -1.2035974349816883, -0.21353134879034122, -0.1948535431531924, 0.09197095781564713, 0.09398572146892548, 0.004689537920057774, -0.9121392965316772, 0.2119123637676239, -0.3508490324020386, 0.25994813442230225, -0.0776960551738739, 0.14961612224578857, -0.14218032629574467, -0.5516885305676459, 0.8216063505129008,-0.019685162584179405,-0.652191162109375,0.13421630859375,-0.20123291015625
20220112-1457,2022-01-12 14:57:32Z,u01, 87,40,movements,el-ex, rt, d,96972.03707504168, -1.2002597495097618, -0.21346463038051697, -0.19228802986801438, 0.09749322384595871, 0.12580423057079315, 0.0686233788728714, -0.9109763503074646, 0.21184715628623962, -0.3538966476917267, 0.2099723219871521, -0.06707175076007843, 0.17121848464012146, -0.1414141832331384, -0.5505031441581487, 0.8225518901834737,-0.018886222638119177,-0.694305419921875,0.1451873779296875,-0.18450927734375
20220112-1457,2022-01-12 14:57:32Z,u01, 88,40,movements,el-ex, rt, d,96972.06201904167, -1.1962057158175585, -0.21513871558920603, -0.18889419211651323, 0.10417699068784714, 0.13640367984771729, 0.15473595261573792, -0.9092028737068176, 0.21348294615745544, -0.35745659470558167, 0.19026976823806763, -0.06487759947776794, 0.17805904150009155, -0.14112402237728547, -0.5489587503413168, 0.8236680325224238,-0.017301612908615205,-0.71893310546875,0.1486053466796875,-0.1793975830078125
20220112-1457,2022-01-12 14:57:32Z,u01, 89,40,movements,el-ex, rt, d,96972.08696204168, -1.1916158574949578, -0.2188455855487233, -0.18450347360469782, 0.09761852771043777, 0.16320860385894775, 0.23872746527194977, -0.9068112969398499, 0.21710288524627686, -0.3613305389881134, 0.17907381057739258, -0.07525718212127686, 0.1999383568763733, -0.14139079568394006, -0.5471228203165528, 0.8248922375809205,-0.014769491649501365,-0.72943115234375,0.1413421630859375,-0.161651611328125
20220112-1457,2022-01-12 14:57:32Z,u01, 90,40,movements,el-ex, rt, d,96972.11190604167, -1.1861530477399391, -0.22394422818494958, -0.18006170091236098, 0.08890392631292343, 0.19885912537574768, 0.25846561789512634, -0.9037860035896301, 0.22207707166671753, -0.36585870385169983, 0.19733458757400513, -0.07827825844287872, 0.1795031726360321, -0.14221785741687668, -0.5448345845305422, 0.826309868654534,-0.011888893158355673,-0.706451416015625,0.143798828125,-0.1863555908203125
20220112-1457,2022-01-12 14:57:32Z,u01, 91,40,movements,el-ex, rt, d,96972.13685004167, -1.1792822231451379, -0.22880894716313543, -0.175286105236677, 0.09016826748847961, 0.27013811469078064, 0.22721928358078003, -0.9002417325973511, 0.22681766748428345, -0.37164315581321716, 0.2469366192817688, -0.12807804346084595, 0.16880810260772705, -0.14286921082476733, -0.5420025944801006, 0.8280941288497006,-0.00904113326425432,-0.6638336181640625,0.10345458984375,-0.1963958740234375
20220112-1457,2022-01-12 14:57:32Z,u01, 92,40,movements,el-ex, rt, d,96972.16179304167, -1.1709569247574416, -0.23284537820782036, -0.17134001941289095, 0.06465265154838562, 0.31949687004089355, 0.1922282725572586, -0.8962658047676086, 0.2307470440864563, -0.3787654638290405, 0.2953900098800659, -0.1289099007844925, 0.15694847702980042, -0.14342125652848506, -0.5385606884467429, 0.8302622183169093,-0.006877084877232653,-0.6008758544921875,0.101837158203125,-0.2218170166015625
20220112-1457,2022-01-12 14:57:32Z,u01, 93,40,movements,el-ex, rt, d,96972.18673704167, -1.162114708526913, -0.23643262002388502, -0.16811318227485367, 0.05470697581768036, 0.3210791349411011, 0.18216505646705627, -0.8921164274215698, 0.2342359870672226, -0.3863441050052643, 0.3127249479293823, -0.08968949317932129, 0.09542012214660645, -0.1440002816731924, -0.5348755565579558, 0.8325534589641841,-0.005178658398618752,-0.5782928466796875,0.139007568359375,-0.2788848876953125
20220112-1457,2022-01-12 14:57:32Z,u01, 94,40,movements,el-ex, rt, d,96972.21168104168, -1.153792614248274, -0.24040357322182498, -0.1649896877320981, 0.05873987078666687, 0.28931599855422974, 0.22220581769943237, -0.8880129456520081, 0.23809461295604706, -0.39337509870529175, 0.26900964975357056, -0.05526381731033325, 0.07385611534118652, -0.14478349061118378, -0.5313663422089402, 0.834671269319715,-0.003386201222286056,-0.6190032958984375,0.182830810546875,-0.31951904296875
20220112-1457,2022-01-12 14:57:32Z,u01, 95,40,movements,el-ex, rt, d,96972.23662504167, -1.1463273684454967, -0.24575299570213052, -0.16083374509158377, 0.031188668683171272, 0.21429315209388733, 0.28498852252960205, -0.8838782906532288, 0.24328675866127014, -0.39946305751800537, 0.17512279748916626, 0.0013573914766311646, 0.02968159317970276, -0.1458812011433531, -0.5281923451312941, 0.8364992552177215,-0.000731047155248854,-0.691009521484375,0.23175048828125,-0.3597564697265625
20220112-1457,2022-01-12 14:57:32Z,u01, 96,40,movements,el-ex, rt, d,96972.26156804168, -1.1411208935269412, -0.252375409887972, -0.15742164868521247, 0.0011273734271526337, 0.15181447565555573, 0.3007393777370453, -0.8803025484085083, 0.24970482289791107, -0.40337949991226196, 0.0814744234085083, -0.0009407997131347656, 0.04612547159194946, -0.14772028058260633, -0.5258221853323395, 0.8376666157961796,0.002114905249355481,-0.798828125,0.2487640380859375,-0.3572540283203125
20220112-1457,2022-01-12 14:57:32Z,u01, 97,40,movements,el-ex, rt, d,96972.28651204167, -1.1371020785190085, -0.258980213580724, -0.15463656200319317, -0.02668987773358822, 0.11904772371053696, 0.2617347240447998, -0.8771585822105408, 0.25609490275382996, -0.40621206164360046, 0.04480689764022827, -0.041525840759277344, 0.04193904995918274, -0.1497286148216721, -0.5239039112600623, 0.838500640195273,0.004771703489654333,-0.8314056396484375,0.223052978515625,-0.3581695556640625
20220112-1457,2022-01-12 14:57:32Z,u01, 98,40,movements,el-ex, rt, d,96972.31145604167, -1.1340013409048413, -0.2643166001070238, -0.15290955716829538, -0.015243776142597198, 0.0926584005355835, 0.19174838066101074, -0.8746440410614014, 0.2612496614456177, -0.4083459973335266, 0.031061887741088867, -0.05350121855735779, 0.004644274711608887, -0.15149513949695956, -0.5223755582804267, 0.8391234263718002,0.006703435632524735,-0.8435821533203125,0.2077484130859375,-0.4037017822265625
20220112-1457,2022-01-12 14:57:33Z,u01, 99,40,movements,el-ex, rt, d,96972.33639904167, -1.1314579793972503, -0.2681877214609013, -0.15066566709630533, 0.03475554287433624, 0.06912843883037567, 0.17044107615947723, -0.8726808428764343, 0.2649843692779541, -0.41013598442077637, -0.05081164836883545, -0.0036318600177764893, 0.0005748867988586426, -0.15252314934171654, -0.5212184794877563, 0.8396403213636094,0.008494716135302005,-0.906707763671875,0.24566650390625,-0.40887451171875
20220112-1457,2022-01-12 14:57:33Z,u01, 100,40,movements,el-ex, rt, d,96972.36134304167, -1.1289478234560408, -0.2711403879909918, -0.14834085811814898, 0.038533765822649, 0.1021505743265152, 0.11886550486087799, -0.8709375262260437, 0.26783034205436707, -0.41198888421058655, -0.11041629314422607, 0.046409159898757935, 0.015275716781616211, -0.1531536678386748, -0.5201437408377707, 0.8401744196677721,0.010072934605778405,-0.981353759765625,0.314239501953125,-0.3967132568359375
20220112-1457,2022-01-12 14:57:33Z,u01, 101,40,movements,el-ex, rt, d,96972.38628704168, -1.1237525270393403, -0.27265747198700074, -0.1459061151361402, 0.055699340999126434, 0.2692091166973114, 0.07991152256727219, -0.8684179782867432, 0.2692916989326477, -0.416331946849823, -0.06349736452102661, -0.05051112174987793, 0.09180808067321777, -0.15317897152312604, -0.5180446229393852, 0.841452725868705,0.011105182070031028,-0.95404052734375,0.23931884765625,-0.3327178955078125
20220112-1457,2022-01-12 14:57:33Z,u01, 102,40,movements,el-ex, rt, d,96972.41123104167, -1.1146129288922715, -0.2728584334142955, -0.1448047565481605, 0.014856001362204552, 0.43056759238243103, 0.0224915724247694, -0.8645280599594116, 0.269485205411911, -0.42422762513160706, 0.03948533535003662, -0.09918183088302612, 0.09712499380111694, -0.15302867490644978, -0.5142649312674673, 0.8437977402546774,0.010923083944614886,-0.825042724609375,0.1703033447265625,-0.3271026611328125
20220112-1457,2022-01-12 14:57:33Z,u01, 103,40,movements,el-ex, rt, d,96972.43617404168, -1.102738828580189, -0.27307935758441115, -0.1434073126885486, 0.07277236133813858, 0.4924364387989044, 0.06558431684970856, -0.8593767881393433, 0.26969796419143677, -0.4344360828399658, 0.10592824220657349, -0.06317025423049927, 0.024539291858673096, -0.15282738066100698, -0.5093385360517911, 0.8468202268275046,0.0106641531157457,-0.752716064453125,0.1898651123046875,-0.4089202880859375
20220112-1457,2022-01-12 14:57:33Z,u01, 104,40,movements,el-ex, rt, d,96972.46111804167, -1.0901350450718177, -0.2751241063106249, -0.1410844933290761, -0.007937260903418064, 0.4568483531475067, 0.16207410395145416, -0.8533423542976379, 0.27166637778282166, -0.4449767768383026, 0.06847596168518066, 0.020264804363250732, 0.032958984375, -0.1531648768648706, -0.5040358408005265, 0.84991919566564,0.011220273531246105,-0.7848663330078125,0.29193115234375,-0.412017822265625
20220112-1457,2022-01-12 14:57:33Z,u01, 105,40,movements,el-ex, rt, d,96972.48606204167, -1.0790045995856856, -0.28011447623777347, -0.139994990400904, -0.0886143296957016, 0.42048752307891846, 0.23544085025787354, -0.8471312522888184, 0.27646565437316895, -0.4538012742996216, -0.02370321750640869, 0.033165693283081055, 0.08475226163864136, -0.15505552251619248, -0.499056256464797, 0.8524986330215942,0.012119297806855611,-0.862884521484375,0.3209075927734375,-0.3792266845703125
20220112-1457,2022-01-12 14:57:33Z,u01, 106,40,movements,el-ex, rt, d,96972.51100504167, -1.0684820850915369, -0.2871182595835936, -0.13935729534040112, -0.12982894480228424, 0.40479421615600586, 0.2735822796821594, -0.8405914306640625, 0.2831896245479584, -0.4617462754249573, -0.019622802734375, -9.331107139587402e-05, 0.09237685799598694, -0.15791833915748793, -0.49415448375714033, 0.8548066434021708,0.01336661010726986,-0.8602142333984375,0.2830963134765625,-0.3693695068359375
20220112-1457,2022-01-12 14:57:33Z,u01, 107,40,movements,el-ex, rt, d,96972.53594904167, -1.0585733894183096, -0.29455245679510017, -0.13873474747977152, -0.10004018992185593, 0.3807356655597687, 0.2691009044647217, -0.8341168165206909, 0.2903116047382355, -0.4690078794956207, 0.021723568439483643, 0.022768229246139526, 0.0451492965221405, -0.16097823688021795, -0.48947121772756663, 0.8569053848883361,0.014735672023622637,-0.8145751953125,0.3074493408203125,-0.4190826416015625
20220112-1457,2022-01-12 14:57:33Z,u01, 108,40,movements,el-ex, rt, d,96972.56089304168, -1.0487075248061026, -0.3014632333695188, -0.13768778857020408, -0.11092586070299149, 0.3874513506889343, 0.2468448430299759, -0.8276903629302979, 0.29691776633262634, -0.4762023091316223, -0.0034102201461791992, 0.04107967019081116, 0.06043088436126709, -0.16372825983528716, -0.4848627680557821, 0.8589767897008032,0.016128501740831747,-0.8311004638671875,0.3379974365234375,-0.415771484375
20220112-1457,2022-01-12 14:57:33Z,u01, 109,40,movements,el-ex, rt, d,96972.58583604168, -1.0387696286363777, -0.3079504197721607, -0.13783716977348645, -0.1670713871717453, 0.417785108089447, 0.18510885536670685, -0.8212398886680603, 0.3031060993671417, -0.483416885137558, -0.05511826276779175, 0.012842386960983276, 0.0638306736946106, -0.16660206001013267, -0.48014092570381944, 0.8610598863840934,0.016867351249027662,-0.8756256103515625,0.32623291015625,-0.4157257080078125
20220112-1457,2022-01-12 14:57:33Z,u01, 110,40,movements,el-ex, rt, d,96972.61078004168, -1.0289219191105272, -0.3136945719555952, -0.13959554672756067, -0.16477683186531067, 0.4180295169353485, 0.15438441932201385, -0.8149344325065613, 0.30857500433921814, -0.49057456851005554, -0.036536574363708496, -0.028011620044708252, 0.03427577018737793, -0.1695503405494459, -0.47535817786984885, 0.8631386009560227,0.01670753193010649,-0.851470947265625,0.2805633544921875,-0.456298828125
20220112-1457,2022-01-12 14:57:33Z,u01, 111,40,movements,el-ex, rt, d,96972.63572404167, -1.019213532082977, -0.318885413576809, -0.14120599186875715, -0.14686095714569092, 0.39720892906188965, 0.13973143696784973, -0.8087582588195801, 0.31350836157798767, -0.4976169168949127, 4.2438507080078125e-05, 0.01666131615638733, -0.05169945955276489, -0.1722265093502231, -0.47066928260313834, 0.8651806517968279,0.016459830577837786,-0.814910888671875,0.3134002685546875,-0.534912109375
20220112-1457,2022-01-12 14:57:33Z,u01, 112,40,movements,el-ex, rt, d,96972.66066804167, -1.0099276429166015, -0.32324419923477876, -0.1419370113721023, -0.08698105067014694, 0.3820524513721466, 0.1268722414970398, -0.8029378056526184, 0.3176444172859192, -0.5043736696243286, -0.013743102550506592, 0.05976644158363342, -0.06261229515075684, -0.17433780794931536, -0.46628262398153, 0.8671318959818448,0.016402778025100484,-0.816680908203125,0.377410888671875,-0.566986083984375
20220112-1457,2022-01-12 14:57:33Z,u01, 113,40,movements,el-ex, rt, d,96972.68561104167, -1.000726970839621, -0.3268970409032667, -0.14188056819535794, -0.056255992501974106, 0.35061949491500854, 0.11738186329603195, -0.7972812652587891, 0.32110595703125, -0.511110246181488, -0.02214634418487549, 0.07702645659446716, -0.06793028116226196, -0.17596572367899177, -0.4620399777020331, 0.8690700959660168,0.016505980453694002,-0.81671142578125,0.3913726806640625,-0.5753173828125
20220112-1457,2022-01-12 14:57:33Z,u01, 114,40,movements,el-ex, rt, d,96972.71055504167, -0.9917573852161121, -0.32930080708178827, -0.14071838688613753, 0.035235077142715454, 0.3393014073371887, 0.09045896679162979, -0.7920164465904236, 0.3233814835548401, -0.517816960811615, -0.04369223117828369, 0.08994859457015991, -0.07307958602905273, -0.17680551673596956, -0.45807349175760137, 0.8709916095304351,0.01679778487483946,-0.8357086181640625,0.413330078125,-0.5908966064453125
20220112-1457,2022-01-12 14:57:33Z,u01, 115,40,movements,el-ex, rt, d,96972.73549904168, -0.9824776216798928, -0.33004302550084735, -0.13823151321632954, 0.07467632740736008, 0.3380486071109772, 0.06095267832279205, -0.7869772911071777, 0.32408374547958374, -0.525010883808136, -0.039850711822509766, 0.07273632287979126, -0.07256895303726196, -0.17663690882927552, -0.45419593446802164, 0.8730453637398993,0.017238885483887634,-0.831207275390625,0.402496337890625,-0.59515380859375
20220112-1457,2022-01-12 14:57:33Z,u01, 116,40,movements,el-ex, rt, d,96972.76044204168, -0.9730637349327509, -0.3295779620781755, -0.13524558340076126, 0.1461838334798813, 0.3367343842983246, 0.03478319197893143, -0.7821246385574341, 0.3236437439918518, -0.5324808359146118, -0.04081237316131592, 0.06516548991203308, -0.08002215623855591, -0.17584284211453863, -0.4503763675453434, 0.8751745742476796,0.01760457029052742,-0.82293701171875,0.3888092041015625,-0.6125030517578125
20220112-1457,2022-01-12 14:57:33Z,u01, 117,40,movements,el-ex, rt, d,96972.78538604167, -0.9632978236246096, -0.327642183082745, -0.13086638753372412, 0.21089161932468414, 0.32846295833587646, 0.03063671663403511, -0.7774001359939575, 0.3218115270137787, -0.5404500365257263, -0.022206127643585205, 0.032268643379211426, -0.06375211477279663, -0.17410990582292918, -0.4466102424883112, 0.8774355356125791,0.018216216964346832,-0.8030853271484375,0.3610687255859375,-0.60955810546875
20220112-1457,2022-01-12 14:57:33Z,u01, 118,40,movements,el-ex, rt, d,96972.81033004167, -0.9534258407585151, -0.32538701719693963, -0.12548179273306687, 0.21124722063541412, 0.3254427909851074, 0.05100870132446289, -0.7726168632507324, 0.3196755051612854, -0.5485168099403381, -0.027935504913330078, 0.022121340036392212, -0.045843422412872314, -0.17202500858243458, -0.44288710275413495, 0.8797099023349184,0.019205020825890096,-0.8005523681640625,0.341796875,-0.5943603515625
20220112-1457,2022-01-12 14:57:33Z,u01, 119,40,movements,el-ex, rt, d,96972.83527304167, -0.9441431200983597, -0.32385485199820196, -0.12072990428522998, 0.1466795802116394, 0.3049141466617584, 0.057025112211704254, -0.7678878307342529, 0.31822338700294495, -0.555951714515686, -0.04195713996887207, 0.03706228733062744, -0.031511664390563965, -0.17040052362002994, -0.43930377299716666, 0.8817992518554123,0.020151509039877002,-0.808868408203125,0.355987548828125,-0.59246826171875
20220112-1457,2022-01-12 14:57:33Z,u01, 120,40,movements,el-ex, rt, d,96972.86021704167, -0.9355034784252015, -0.32301086197198114, -0.11689303921974874, 0.14054609835147858, 0.30013036727905273, 0.07469525188207626, -0.7632718682289124, 0.31742313504219055, -0.5627242922782898, -0.037417829036712646, 0.010320395231246948, -0.02704310417175293, -0.16928089071692226, -0.43586904342963817, 0.8836993877649231,0.02091948098232932,-0.800689697265625,0.3277435302734375,-0.5897674560546875
20220112-1457,2022-01-12 14:57:33Z,u01, 121,40,movements,el-ex, rt, d,96972.8851615, -0.9271684435033665, -0.3230445526712749, -0.1133159289874881, 0.07840035855770111, 0.274410218000412, 0.08850228041410446, -0.7585465312004089, 0.31745508313179016, -0.5690601468086243, -0.018064796924591064, 0.012851923704147339, -0.04574686288833618, -0.16860813417235213, -0.4324826232899811, 0.8854685903892423,0.02180513235801651,-0.77471923828125,0.3292236328125,-0.60711669921875
20220112-1457,2022-01-12 14:57:33Z,u01, 122,40,movements,el-ex, rt, d,96972.9101055, -0.9200235324025985, -0.324420971139459, -0.11096296507719296, -0.013852275907993317, 0.23466186225414276, 0.09965520352125168, -0.754112958908081, 0.3187600076198578, -0.5742000937461853, -0.04614955186843872, 0.0341147780418396, -0.06953763961791992, -0.16878468991459866, -0.42943180691890764, 0.8868999460829153,0.022552766420050774,-0.800262451171875,0.352874755859375,-0.64373779296875
20220112-1457,2022-01-12 14:57:33Z,u01, 123,40,movements,el-ex, rt, d,96972.9350485, -0.9143967711283834, -0.3274432332315029, -0.11031581594510645, -0.08964411169290543, 0.20380115509033203, 0.12086541950702667, -0.7501035332679749, 0.32162317633628845, -0.5778436660766602, -0.10248130559921265, 0.061036765575408936, -0.06687068939208984, -0.17003927537007252, -0.42680770739534174, 0.8879140426610479,0.023034543555312037,-0.8450775146484375,0.380950927734375,-0.6376800537109375
20220112-1457,2022-01-12 14:57:33Z,u01, 124,40,movements,el-ex, rt, d,96972.95999250001, -0.9099533734834446, -0.33193765289108396, -0.11081526106627979, -0.14622226357460022, 0.16836947202682495, 0.1407848596572876, -0.7463797330856323, 0.32587552070617676, -0.5802778005599976, -0.1260262131690979, 0.08669161796569824, -0.10195785760879517, -0.1721753470607344, -0.42451944774714584, 0.888588751227098,0.023425743452298864,-0.872406005859375,0.412567138671875,-0.6822357177734375
20220112-1457,2022-01-12 14:57:33Z,u01, 125,40,movements,el-ex, rt, d,96972.98493650001, -0.9065814502087607, -0.3372082489510474, -0.11188858605209122, -0.18156550824642181, 0.12811864912509918, 0.14169719815254211, -0.7430561184883118, 0.3308538496494293, -0.5817243456840515, -0.13231009244918823, 0.1295037865638733, -0.15644997358322144, -0.1747632761031513, -0.42260574712974874, 0.8889852969919402,0.023816398585381038,-0.8733062744140625,0.4575347900390625,-0.732452392578125
20220112-1457,2022-01-12 14:57:33Z,u01, 126,40,movements,el-ex, rt, d,96973.00987950001, -0.904549666980442, -0.3431681869848261, -0.11380657487947529, -0.21843074262142181, 0.07707644253969193, 0.14272668957710266, -0.7403093576431274, 0.3364722430706024, -0.5820038914680481, -0.15904366970062256, 0.12815788388252258, -0.19576704502105713, -0.1778165584399471, -0.42116426612885827, 0.889056486164431,0.02409310203739251,-0.89935302734375,0.464630126953125,-0.77777099609375
20220112-1457,2022-01-12 14:57:33Z,u01, 127,40,movements,el-ex, rt, d,96973.03482350001, -0.9040892355059089, -0.34942926319483586, -0.11616913095939296, -0.2080499827861786, 0.017429690808057785, 0.14154139161109924, -0.7383713126182556, 0.3423616290092468, -0.581030547618866, -0.22120821475982666, 0.17793256044387817, -0.25620394945144653, -0.18107486273343595, -0.42035298242456787, 0.8887751537014548,0.024374680325525644,-0.9508819580078125,0.5132598876953125,-0.8263092041015625
20220112-1457,2022-01-12 14:57:33Z,u01, 128,40,movements,el-ex, rt, d,96973.0597675, -0.9054259591993682, -0.35539846536484754, -0.11855818414309924, -0.25525787472724915, -0.06848421692848206, 0.12182355672121048, -0.7375264167785645, 0.34796395897865295, -0.5787709951400757, -0.27976179122924805, 0.21275076270103455, -0.28817230463027954, -0.18418543217795408, -0.4203453613454191, 0.8881290172624292,0.02474525169825187,-1.0172882080078125,0.5607147216796875,-0.866943359375
20220112-1457,2022-01-12 14:57:33Z,u01, 129,40,movements,el-ex, rt, d,96973.0847115, -0.9088681974860974, -0.361029100283484, -0.1215867168031369, -0.22819706797599792, -0.12791365385055542, 0.085669606924057, -0.7379570603370667, 0.35323718190193176, -0.5750154852867126, -0.35617440938949585, 0.24855419993400574, -0.3292813301086426, -0.18725234242825922, -0.42122301786186356, 0.887065192725939,0.024959590185538783,-1.0849609375,0.6042633056640625,-0.8966064453125
20220112-1457,2022-01-12 14:57:33Z,u01, 130,40,movements,el-ex, rt, d,96973.1096545, -0.9141769393414253, -0.3654339417019032, -0.12515596074480803, -0.16508889198303223, -0.19790759682655334, 0.01557980291545391, -0.7397596836090088, 0.35735461115837097, -0.5701344013214111, -0.3833329677581787, 0.26048898696899414, -0.3942820429801941, -0.18987009372885216, -0.4229446261689398, 0.8856915042306523,0.02485190372949342,-1.1230926513671875,0.6178436279296875,-0.96441650390625
20220112-1457,2022-01-12 14:57:33Z,u01, 131,40,movements,el-ex, rt, d,96973.13459850001, -0.9209713812827394, -0.3662140946092617, -0.12762777337879483, -0.013997551053762436, -0.2602804899215698, -0.09387271851301193, -0.743394136428833, 0.35808315873146057, -0.5649261474609375, -0.4370410442352295, 0.27405795454978943, -0.42166125774383545, -0.19065176143048645, -0.4256628026510113, 0.884227871642117,0.024578073472246886,-1.17041015625,0.6291656494140625,-0.9880828857421875
20220112-1457,2022-01-12 14:57:33Z,u01, 132,40,movements,el-ex, rt, d,96973.15954250001, -0.9287098268449022, -0.36230665453662175, -0.12954713284494618, 0.07120795547962189, -0.30855628848075867, -0.2526145577430725, -0.7488582730293274, 0.354432076215744, -0.5599902272224426, -0.44347870349884033, 0.3037710189819336, -0.4339976906776428, -0.18926283977944158, -0.4291671576401057, 0.8828582015485893,0.023589391446512287,-1.1923370361328125,0.658203125,-0.993988037109375
20220112-1457,2022-01-12 14:57:33Z,u01, 133,40,movements,el-ex, rt, d,96973.18448550001, -0.9380011192110789, -0.35361059150746976, -0.13129119015407256, 0.24559924006462097, -0.3954934775829315, -0.37827709317207336, -0.7564858198165894, 0.34628725051879883, -0.5548102259635925, -0.39022743701934814, 0.26427796483039856, -0.3916313648223877, -0.185743539518829, -0.4336983073906216, 0.8814381584550586,0.021725205054488217,-1.158050537109375,0.6400299072265625,-0.9623565673828125
20220112-1457,2022-01-12 14:57:33Z,u01, 134,40,movements,el-ex, rt, d,96973.2094295, -0.9486051739982099, -0.3407203787703386, -0.1310356114168678, 0.3872567117214203, -0.45483365654945374, -0.4373975396156311, -0.7658901810646057, 0.33416613936424255, -0.5493133664131165, -0.3147982954978943, 0.13208141922950745, -0.34038078784942627, -0.17996766433509181, -0.4392663761518552, 0.8799216514673246,0.019864093999084953,-1.0806884765625,0.46624755859375,-0.8896942138671875
20220112-1457,2022-01-12 14:57:33Z,u01, 135,40,movements,el-ex, rt, d,96973.2343735, -0.9585986370646608, -0.32506322042421487, -0.1272990659673826, 0.5500891804695129, -0.4423891603946686, -0.4175787568092346, -0.7755285501480103, 0.3193686902523041, -0.5445723533630371, -0.17622315883636475, 0.08314290642738342, -0.22884976863861084, -0.1722384727871745, -0.4450255283084047, 0.8785975165162389,0.018776571407694786,-0.9754791259765625,0.404144287109375,-0.7989349365234375
20220112-1457,2022-01-12 14:57:33Z,u01, 136,40,movements,el-ex, rt, d,96973.25931750001, -0.9676736429452905, -0.309287524959837, -0.12128833684869937, 0.514898419380188, -0.4322119653224945, -0.35883963108062744, -0.7844905853271484, 0.30438005924224854, -0.5403029322624207, -0.09737581014633179, 0.09150922298431396, -0.13624119758605957, -0.16395427358506787, -0.45051919371995663, 0.877387505256565,0.018508848517360066,-0.881866455078125,0.3958892822265625,-0.676544189453125
20220112-1457,2022-01-12 14:57:33Z,u01, 137,40,movements,el-ex, rt, d,96973.2842605, -0.9767059779667153, -0.29632278243600624, -0.11649866667670901, 0.38203564286231995, -0.4018595218658447, -0.27694061398506165, -0.7925423979759216, 0.2920052409172058, -0.5353592038154602, -0.01501375436782837, 0.03174048662185669, 0.002720773220062256, -0.1571573154533351, -0.45565552998413583, 0.8759822899347309,0.018293628874240797,-0.82049560546875,0.3416595458984375,-0.5556488037109375
20220112-1457,2022-01-12 14:57:33Z,u01, 138,40,movements,el-ex, rt, d,96973.30920450001, -0.9849917560035039, -0.28739663781450137, -0.11221030071817485, 0.28259676694869995, -0.35460925102233887, -0.14031599462032318, -0.799091100692749, 0.28345659375190735, -0.5301940441131592, 0.009708166122436523, -0.020547688007354736, 0.050656139850616455, -0.15222751270209545, -0.4601410248172725, 0.8744982568909405,0.01870210770996583,-0.7893829345703125,0.262908935546875,-0.4795379638671875
20220112-1457,2022-01-12 14:57:34Z,u01, 139,40,movements,el-ex, rt, d,96973.33414850001, -0.9921432863110567, -0.28293128785059246, -0.10874932438613508, 0.12436455488204956, -0.30073556303977966, -0.018956735730171204, -0.8039140105247498, 0.27917158603668213, -0.5251528024673462, 0.007191598415374756, -0.06017744541168213, 0.12232083082199097, -0.14942521586589905, -0.46378409976335555, 0.8730341950333259,0.01969121114958916,-0.7933197021484375,0.22503662109375,-0.41119384765625
20220112-1457,2022-01-12 14:57:34Z,u01, 140,40,movements,el-ex, rt, d,96973.35909150001, -0.9989139305568785, -0.2829353592758476, -0.1078048654485918, -0.05155155062675476, -0.2604205012321472, 0.04968930408358574, -0.8074502348899841, 0.2791754901409149, -0.5196971893310547, -0.007353842258453369, -0.06816169619560242, 0.11996275186538696, -0.1491390327191993, -0.4668071820740133, 0.8714493176221874,0.020609451904211817,-0.8148040771484375,0.2110137939453125,-0.3997344970703125
20220112-1457,2022-01-12 14:57:34Z,u01, 141,40,movements,el-ex, rt, d,96973.3840355, -1.0052380577756037, -0.28565244954087776, -0.10903744708008213, -0.13591580092906952, -0.22284482419490814, 0.08699200302362442, -0.8100772500038147, 0.2817835211753845, -0.5141720175743103, -0.010723531246185303, -0.05734202265739441, 0.10705232620239258, -0.15053420062051048, -0.4693116816590881, 0.869848517836906,0.021200856917897193,-0.82440185546875,0.224273681640625,-0.3993682861328125
20220112-1457,2022-01-12 14:57:34Z,u01, 142,40,movements,el-ex, rt, d,96973.4089795, -1.0117412662147665, -0.29081689260987664, -0.11284925430046415, -0.33254674077033997, -0.2115056961774826, 0.10530675947666168, -0.8121593594551086, 0.2867349088191986, -0.5081144571304321, 0.0017650127410888672, -0.05394679307937622, 0.0868956446647644, -0.15358572977446688, -0.4715444703989288, 0.868103702406344,0.021289859070211414,-0.810394287109375,0.2327880859375,-0.4212188720703125
20220112-1457,2022-01-12 14:57:34Z,u01, 143,40,movements,el-ex, rt, d,96973.4339225, -1.0194044692006452, -0.2984062643042432, -0.12053653846307592, -0.47029909491539, -0.22742465138435364, 0.0731118693947792, -0.814152181148529, 0.29399728775024414, -0.5007213950157166, 0.04500234127044678, -0.0018067359924316406, 0.014149188995361328, -0.15858126051711405, -0.47380510587670716, 0.8659932913511248,0.020405713666443226,-0.7719879150390625,0.28497314453125,-0.472686767578125
20220112-1457,2022-01-12 14:57:34Z,u01, 144,40,movements,el-ex, rt, d,96973.4588665, -1.0282880621333095, -0.30586590753256343, -0.1306375626965383, -0.4751873314380646, -0.23882192373275757, 0.02759498730301857, -0.8166672587394714, 0.30111899971961975, -0.4923231899738312, 0.05993807315826416, -0.0029164552688598633, 0.0040419697761535645, -0.16408513679474013, -0.4763554123579441, 0.8636065143671418,0.01858803241756446,-0.7567291259765625,0.2982025146484375,-0.48828125
20220112-1457,2022-01-12 14:57:34Z,u01, 145,40,movements,el-ex, rt, d,96973.48381050001, -1.0370802222181292, -0.31126307270285947, -0.1400704231336314, -0.36049389839172363, -0.23246356844902039, -0.03152472525835037, -0.8195530772209167, 0.306261271238327, -0.48429009318351746, 0.07495462894439697, 0.013471424579620361, 0.026129722595214844, -0.16856052500232255, -0.47900135253452625, 0.8613187232126318,0.01658929236789769,-0.7429656982421875,0.3170166015625,-0.459991455078125
20220112-1457,2022-01-12 14:57:34Z,u01, 146,40,movements,el-ex, rt, d,96973.5087535, -1.0449121228089548, -0.3140086645806313, -0.14767082566036085, -0.2705639898777008, -0.2183578610420227, -0.0794307291507721, -0.8225904107093811, 0.3088737726211548, -0.4774327278137207, 0.0798535943031311, 0.010965675115585327, 0.03695729374885559, -0.1714902495527194, -0.48153372628352664, 0.8593608531867654,0.014671606484262356,-0.74273681640625,0.3198394775390625,-0.4404754638671875
20220112-1457,2022-01-12 14:57:34Z,u01, 147,40,movements,el-ex, rt, d,96973.53369750001, -1.0527331170765106, -0.3146708911409696, -0.15467878956431058, -0.21446837484836578, -0.24326908588409424, -0.14068396389484406, -0.8261213302612305, 0.3095035254955292, -0.4708833396434784, 0.08098888397216797, -0.0031681060791015625, 0.03271201252937317, -0.17340945964698906, -0.48423908207970856, 0.8574878009220488,0.012504718193882491,-0.7449493408203125,0.3104095458984375,-0.4324188232421875
20220112-1457,2022-01-12 14:57:34Z,u01, 148,40,movements,el-ex, rt, d,96973.5586415, -1.0616709969768896, -0.3131145090534389, -0.16108848395580197, -0.1463594138622284, -0.3157641887664795, -0.22054246068000793, -0.8307166695594788, 0.30802321434020996, -0.4637151062488556, 0.07645940780639648, -0.011361837387084961, 0.0006719231605529785, -0.17425937159247523, -0.48762291899752347, 0.8554267057282836,0.010142020465333357,-0.7542572021484375,0.296661376953125,-0.463043212890625
20220112-1457,2022-01-12 14:57:34Z,u01, 149,40,movements,el-ex, rt, d,96973.5835855, -1.0716978435110482, -0.3082723212810907, -0.16613287593371043, 0.014099964872002602, -0.3567967116832733, -0.30688148736953735, -0.8366241455078125, 0.30341285467147827, -0.45607101917266846, 0.094482421875, -0.02230018377304077, -0.023268520832061768, -0.17341275258513067, -0.4918256905588605, 0.8532159998636222,0.007620367857106736,-0.7485198974609375,0.2867431640625,-0.48480224609375
20220112-1457,2022-01-12 14:57:34Z,u01, 150,40,movements,el-ex, rt, d,96973.6085285, -1.081205684695237, -0.300177521092079, -0.16803622516252156, 0.1455971747636795, -0.34918373823165894, -0.3297877907752991, -0.8430624008178711, 0.29568979144096375, -0.44923630356788635, 0.14260774850845337, -0.04216507077217102, 0.016069859266281128, -0.17045483715293247, -0.4963134066257963, 0.8512270186053331,0.0055391095972117665,-0.7004547119140625,0.2535247802734375,-0.43316650390625
20220112-1457,2022-01-12 14:57:34Z,u01, 151,40,movements,el-ex, rt, d,96973.6334725, -1.0897416723163333, -0.2909473771898037, -0.1680215226744169, 0.1835661679506302, -0.3363102078437805, -0.3315192759037018, -0.8492497801780701, 0.286859929561615, -0.44326767325401306, 0.22601979970932007, -0.05173727869987488, 0.04380789399147034, -0.16656552743379716, -0.5006216966410206, 0.8494815484897889,0.0038664232109433816,-0.6327056884765625,0.2335205078125,-0.400360107421875
20220112-1457,2022-01-12 14:57:34Z,u01, 152,40,movements,el-ex, rt, d,96973.65841650001, -1.0979556535871766, -0.2813800825941469, -0.1674646043977808, 0.22093696892261505, -0.3303138315677643, -0.3222312331199646, -0.8552663922309875, 0.27768170833587646, -0.4375070035457611, 0.24700522422790527, -0.041811347007751465, 0.061896681785583496, -0.16241275197875382, -0.5048451236942655, 0.8477902989318074,0.002275757098113229,-0.6082611083984375,0.235870361328125,-0.3756103515625
20220112-1457,2022-01-12 14:57:34Z,u01, 153,40,movements,el-ex, rt, d,96973.6833595, -1.1057189081611143, -0.2718494951560522, -0.1655536611308549, 0.2493496984243393, -0.3352185785770416, -0.2917436361312866, -0.8609634041786194, 0.2685134708881378, -0.4320215582847595, 0.2809920310974121, -0.0634964108467102, 0.0822749137878418, -0.15794273194013622, -0.5089629758509185, 0.8461733963235429,0.0011981158935893688,-0.5858612060546875,0.208160400390625,-0.352386474609375
20220112-1457,2022-01-12 14:57:34Z,u01, 154,40,movements,el-ex, rt, d,96973.70830350001, -1.1135312733956675, -0.2629036959811257, -0.16220539809458392, 0.3105749487876892, -0.3645056188106537, -0.2368934601545334, -0.866432785987854, 0.2598855793476105, -0.4263257384300232, 0.3064200282096863, -0.057187825441360474, 0.09926888346672058, -0.15335346712796544, -0.5131470059195361, 0.8444892443913004,0.0008524454931674308,-0.5600128173828125,0.20269775390625,-0.327056884765625
20220112-1457,2022-01-12 14:57:34Z,u01, 155,40,movements,el-ex, rt, d,96973.7332475, -1.1217515779003353, -0.25485260250570885, -0.15723456938954797, 0.29571208357810974, -0.40386781096458435, -0.17257292568683624, -0.8717647194862366, 0.2521027624607086, -0.42008376121520996, 0.32733118534088135, -0.0785951018333435, 0.171502947807312, -0.14871607566232148, -0.5175341999542027, 0.8426385644825689,0.0014250012140444857,-0.546875,0.1826934814453125,-0.259857177734375
20220112-1457,2022-01-12 14:57:34Z,u01, 156,40,movements,el-ex, rt, d,96973.7581915, -1.1315234466962127, -0.24954270118350821, -0.15300064124904417, 0.16574758291244507, -0.46969839930534363, -0.08345550298690796, -0.8770273327827454, 0.24696084856987, -0.4121086001396179, 0.3270699977874756, -0.11579629778862, 0.1961662769317627, -0.14539941175620055, -0.522307102888197, 0.8402666815126129,0.0025007208043127394,-0.549957275390625,0.13116455078125,-0.2159423828125
20220112-1457,2022-01-12 14:57:34Z,u01, 157,40,movements,el-ex, rt, d,96973.7831345, -1.1442424489842606, -0.2475275982262061, -0.15152455328398343, 0.025626059621572495, -0.5769057869911194, -0.03316350281238556, -0.8826491236686707, 0.24500766396522522, -0.4011257588863373, 0.23662245273590088, -0.09901157021522522, 0.14634978771209717, -0.14415806117203134, -0.5278783728606457, 0.8369891049684357,0.00349532368113864,-0.624267578125,0.1381988525390625,-0.2490386962890625
20220112-1457,2022-01-12 14:57:34Z,u01, 158,40,movements,el-ex, rt, d,96973.8080785, -1.159623575429956, -0.24690877314384932, -0.1514572296718375, 0.015984315425157547, -0.6468716263771057, -0.029739009216427803, -0.8888530135154724, 0.24440765380859375, -0.38756319880485535, 0.1803874373435974, -0.08757783472537994, 0.12050393223762512, -0.1438543890888179, -0.5343447541082369, 0.8329235675253293,0.004461756108394499,-0.708465576171875,0.156829833984375,-0.267059326171875
20220112-1457,2022-01-12 14:57:34Z,u01, 159,40,movements,el-ex, rt, d,96973.83302250001, -1.175574491848743, -0.2460614349278994, -0.15162879656552924, 0.010374201461672783, -0.6084451675415039, -0.044186726212501526, -0.8951125144958496, 0.24358592927455902, -0.37341609597206116, 0.16575753688812256, -0.12815314531326294, 0.13659974932670593, -0.1435139297788761, -0.541013585993935, 0.8286615892369862,0.0053020510866910175,-0.7344512939453125,0.125518798828125,-0.2402801513671875
20220112-1457,2022-01-12 14:57:34Z,u01, 160,40,movements,el-ex, rt, d,96973.8579655, -1.1894283691219607, -0.24461447096953623, -0.1511691755909266, 0.07246746867895126, -0.5001606941223145, -0.05168392136693001, -0.9005259275436401, 0.24218228459358215, -0.3611106872558594, 0.19346410036087036, -0.13694241642951965, 0.12173086404800415, -0.14275878709955617, -0.5468679714739162, 0.8249354671916906,0.006078905287073999,-0.707061767578125,0.1052398681640625,-0.2393798828125
20220112-1457,2022-01-12 14:57:34Z,u01, 161,40,movements,el-ex, rt, d,96973.88290954167, -1.199895310371839, -0.24254996453413596, -0.1491752465922817, 0.1423705816268921, -0.38164693117141724, -0.042737431824207306, -0.9047203063964844, 0.24017873406410217, -0.35184580087661743, 0.18593978881835938, -0.07608570158481598, 0.13399609923362732, -0.1413374011567376, -0.5514533900990902, 0.8221150110378539,0.007060914155603448,-0.710968017578125,0.1552581787109375,-0.2220611572265625
20220112-1457,2022-01-12 14:57:34Z,u01, 162,40,movements,el-ex, rt, d,96973.90785354168, -1.207717740439028, -0.24051433136430675, -0.1462355972910708, 0.11639837920665741, -0.3035065829753876, -0.024721413850784302, -0.9079000949859619, 0.23820218443870544, -0.3449309468269348, 0.13156330585479736, -0.04031091928482056, 0.1439727544784546, -0.1396688807539253, -0.5550019242709252, 0.8199986026259873,0.008239260129847381,-0.776336669921875,0.1978912353515625,-0.200958251953125
20220112-1457,2022-01-12 14:57:34Z,u01, 163,40,movements,el-ex, rt, d,96973.93279654167, -1.2140685600198073, -0.23956134389613615, -0.14410311968616127, 0.08176765590906143, -0.23822246491909027, 0.010605616495013237, -0.9102845788002014, 0.23727652430534363, -0.3392372131347656, 0.02693796157836914, 0.014264613389968872, 0.1534462571144104, -0.1386622051469894, -0.5578119687637093, 0.8182496248114562,0.009282631196305624,-0.866424560546875,0.244384765625,-0.19091796875
20220112-1457,2022-01-12 14:57:34Z,u01, 164,40,movements,el-ex, rt, d,96973.95774054168, -1.2182735742844901, -0.23981525132088458, -0.1418530125528177, 0.06948928534984589, -0.13281506299972534, 0.0656646117568016, -0.9116464257240295, 0.2375231683254242, -0.33538565039634705, -0.009953916072845459, 0.008616343140602112, 0.17345944046974182, -0.13811528972131532, -0.5596707478559247, 0.8170564188648796,0.010566213250047585,-0.921600341796875,0.2461395263671875,-0.16192626953125
20220112-1457,2022-01-12 14:57:34Z,u01, 165,40,movements,el-ex, rt, d,96973.98268454167, -1.219103811207473, -0.24155954328427387, -0.14011053789637748, 0.019551953300833702, 0.04379778355360031, 0.10361412167549133, -0.9115341901779175, 0.23921717703342438, -0.33448541164398193, 0.010136544704437256, -0.03673304617404938, 0.19729366898536682, -0.13832690856341515, -0.5600205062882482, 0.8167634783219583,0.011835679448289615,-0.910186767578125,0.20904541015625,-0.1377410888671875
20220112-1457,2022-01-12 14:57:34Z,u01, 166,40,movements,el-ex, rt, d,96974.00762854167, -1.2152599737948644, -0.24380231280990303, -0.13929769459909097, -0.02869373932480812, 0.2459287792444229, 0.07659049332141876, -0.9097365736961365, 0.24139423668384552, -0.3377991318702698, 0.050544679164886475, -0.06817646324634552, 0.16247567534446716, -0.13902869980798824, -0.5583649875086361, 0.8177666297355142,0.012543916441762892,-0.85919189453125,0.1732177734375,-0.175323486328125
20220112-1457,2022-01-12 14:57:34Z,u01, 167,40,movements,el-ex, rt, d,96974.03257154167, -1.2073860991831062, -0.2454253949760733, -0.13996000682476997, -0.047620490193367004, 0.3932027816772461, 0.01776113174855709, -0.9066811203956604, 0.24296899139881134, -0.34481197595596313, 0.09747707843780518, -0.08533045649528503, 0.0849396288394928, -0.139918396829131, -0.5549926595904295, 0.8199130600241578,0.012186785126090394,-0.816162109375,0.158447265625,-0.249786376953125
20220112-1457,2022-01-12 14:57:34Z,u01, 168,40,movements,el-ex, rt, d,96974.05751554167, -1.1965061907513612, -0.24537725397276514, -0.14077153583326393, -0.007948213256895542, 0.5162458419799805, -0.04136883467435837, -0.9028869867324829, 0.24292229115962982, -0.3546602725982666, 0.12574154138565063, -0.08279654383659363, 0.11299163103103638, -0.14018641358414838, -0.5504703711327312, 0.8229261496426217,0.011077948235769075,-0.7771453857421875,0.160125732421875,-0.241668701171875
20220112-1457,2022-01-12 14:57:34Z,u01, 169,40,movements,el-ex, rt, d,96974.08245954168, -1.1825790591878553, -0.24397747884296891, -0.14133354227154238, 0.002095499075949192, 0.5856502056121826, -0.06200433522462845, -0.8981740474700928, 0.24156421422958374, -0.3673284947872162, 0.2422749400138855, -0.08787769079208374, 0.14442813396453857, -0.1398412957116538, -0.5447753389627696, 0.8267856640908,0.009477902537050387,-0.681365966796875,0.152069091796875,-0.21185302734375
20220112-1457,2022-01-12 14:57:34Z,u01, 170,40,movements,el-ex, rt, d,96974.10740254167, -1.1693964066196005, -0.24308591586912648, -0.14231351743088153, -0.029370581731200218, 0.47349560260772705, -0.022082554176449776, -0.8934517502784729, 0.24069896340370178, -0.37922054529190063, 0.2927435636520386, -0.0668250322341919, 0.08567196130752563, -0.1397990487355836, -0.53930135361695, 0.8303902794499938,0.007902274660685216,-0.6007080078125,0.1738739013671875,-0.293548583984375
20220112-1457,2022-01-12 14:57:34Z,u01, 171,40,movements,el-ex, rt, d,96974.13234654168, -1.158939605451573, -0.24348024111672106, -0.14153045375191894, 0.0929839238524437, 0.36395466327667236, 0.08386857807636261, -0.889350414276123, 0.24108166992664337, -0.3885042369365692, 0.17662757635116577, -0.0027088671922683716, 0.11267116665840149, -0.13979142557106636, -0.5349824710331127, 0.8331832186946286,0.007605791834856712,-0.690704345703125,0.231109619140625,-0.2953033447265625
20220112-1457,2022-01-12 14:57:34Z,u01, 172,40,movements,el-ex, rt, d,96974.15729054167, -1.1495632402786222, -0.24611996755817805, -0.1384716847286429, -0.013742286711931229, 0.3388785719871521, 0.18775495886802673, -0.8850848078727722, 0.2436426877975464, -0.3965643346309662, 0.11973440647125244, -0.007268786430358887, 0.19688785076141357, -0.140103960034252, -0.5311202474119071, 0.8355849326520437,0.00894823610772355,-0.765350341796875,0.2363739013671875,-0.199676513671875
20220112-1457,2022-01-12 14:57:34Z,u01, 173,40,movements,el-ex, rt, d,96974.18223354167, -1.1409374972883504, -0.2519226274356332, -0.13855593511350692, -0.15048354864120483, 0.3722555637359619, 0.21436381340026855, -0.8803311586380005, 0.2492663562297821, -0.4035879671573639, 0.14816874265670776, -0.044386595487594604, 0.16043901443481445, -0.14256719134141616, -0.5271438191470978, 0.8376731647663003,0.00988054620372153,-0.7363128662109375,0.215179443359375,-0.2292327880859375
20220112-1457,2022-01-12 14:57:34Z,u01, 174,40,movements,el-ex, rt, d,96974.20717754167, -1.1312413380134925, -0.25850028324255425, -0.13990165893945747, -0.15445579588413239, 0.4365527927875519, 0.2111717313528061, -0.8748739361763, 0.2556309401988983, -0.4113980829715729, 0.17617398500442505, -0.08209279179573059, 0.08518049120903015, -0.14569696774436247, -0.5225642065780272, 0.8399946367348006,0.010392607224482375,-0.698699951171875,0.1735382080078125,-0.3262176513671875
20220112-1457,2022-01-12 14:57:34Z,u01, 175,40,movements,el-ex, rt, d,96974.23212154167, -1.1191255390682662, -0.264750792719426, -0.14019561071885311, -0.0809379369020462, 0.5449990034103394, 0.22657060623168945, -0.8683708906173706, 0.26166874170303345, -0.42126181721687317, 0.12992173433303833, -0.049937814474105835, 0.04130274057388306, -0.14843767556280865, -0.5170448215599238, 0.8429168681833763,0.011050793135692571,-0.7277069091796875,0.19671630859375,-0.36859130859375
20220112-1457,2022-01-12 14:57:34Z,u01, 176,40,movements,el-ex, rt, d,96974.25706554168, -1.1038344832087008, -0.2707762978569847, -0.1384614182272255, -0.028595568612217903, 0.6371450424194336, 0.2635023891925812, -0.8604045510292053, 0.2674795389175415, -0.4337727129459381, 0.07244068384170532, -0.013237535953521729, 0.037547767162323, -0.15059682815178496, -0.5103275872132034, 0.8466030527965009,0.012235337582391148,-0.7879638671875,0.254241943359375,-0.3962249755859375
20220112-1457,2022-01-12 14:57:34Z,u01, 177,40,movements,el-ex, rt, d,96974.28200854168, -1.0866397096150067, -0.27717168470627807, -0.13638466673291835, -0.07032699882984161, 0.6896187663078308, 0.26070186495780945, -0.8512876629829407, 0.2736363708972931, -0.44769689440727234, 0.049758732318878174, 0.004729717969894409, 0.08675026893615723, -0.15286392442832603, -0.5027764574029991, 0.8506860517068013,0.013483091957672777,-0.8072967529296875,0.283477783203125,-0.364105224609375
20220112-1457,2022-01-12 14:57:34Z,u01, 178,40,movements,el-ex, rt, d,96974.30695254168, -1.0694510464070703, -0.2836337796495684, -0.13578229844495782, -0.11230897158384323, 0.6577595472335815, 0.21088126301765442, -0.8418986797332764, 0.27984607219696045, -0.4614030420780182, 0.10065722465515137, -0.03158560395240784, 0.033683985471725464, -0.1555557272021393, -0.49507665824578606, 0.854694842696827,0.014079359438618377,-0.741241455078125,0.248260498046875,-0.4277191162109375
20220112-1457,2022-01-12 14:57:35Z,u01, 179,40,movements,el-ex, rt, d,96974.33189654167, -1.0536850593437093, -0.2886013678835071, -0.1346200867861767, 0.0011227456852793694, 0.5727625489234924, 0.1862698495388031, -0.8333011865615845, 0.28461170196533203, -0.4739254117012024, 0.12298929691314697, -0.02576160430908203, -0.03257483243942261, -0.1574863539749314, -0.48809358532454095, 0.8583410574666555,0.014605506413252145,-0.7046356201171875,0.2451171875,-0.5055389404296875
20220112-1457,2022-01-12 14:57:35Z,u01, 180,40,movements,el-ex, rt, d,96974.35683954167, -1.0396636114955746, -0.29231379149405906, -0.13127251145193816, 0.025030776858329773, 0.47172948718070984, 0.19647303223609924, -0.8256576657295227, 0.28816863894462585, -0.48502400517463684, 0.06793665885925293, 0.05419284105300903, -0.003196120262145996, -0.15835964655081036, -0.4820894249220936, 0.8615452665350101,0.015869074938063665,-0.757720947265625,0.3423614501953125,-0.48822021484375
20220112-1457,2022-01-12 14:57:35Z,u01, 181,40,movements,el-ex, rt, d,96974.38178354167, -1.028709806870717, -0.2970391191927285, -0.12959359594027797, -0.07896077632904053, 0.37590914964675903, 0.19178499281406403, -0.8191196918487549, 0.2926902770996094, -0.4933307468891144, 0.026883423328399658, 0.08197399973869324, 0.008223384618759155, -0.16006276932239694, -0.4771944478432066, 0.8639327775206085,0.016893880734417666,-0.7960357666015625,0.3838958740234375,-0.47967529296875
20220112-1457,2022-01-12 14:57:35Z,u01, 182,40,movements,el-ex, rt, d,96974.40672754167, -1.0196581943037188, -0.30188674583298997, -0.12889267536650986, -0.059664804488420486, 0.34869012236595154, 0.1621968001127243, -0.813402533531189, 0.297322154045105, -0.49997594952583313, 0.05291968584060669, 0.010157734155654907, -0.013741672039031982, -0.1620478923096465, -0.47302484134572587, 0.8658384143741885,0.017660358414280597,-0.7604827880859375,0.3074798583984375,-0.5137176513671875
20220112-1457,2022-01-12 14:57:35Z,u01, 183,40,movements,el-ex, rt, d,96974.43167054167, -1.0100427830767418, -0.3054064022880045, -0.12698437944818422, 0.030856607481837273, 0.3842892050743103, 0.16148953139781952, -0.8076663017272949, 0.3006807863712311, -0.5072142481803894, 0.025973796844482422, -0.005301117897033691, -0.0014069080352783203, -0.16319467429456902, -0.46878606318991234, 0.8679070196774766,0.018564106915827827,-0.7719268798828125,0.2839813232421875,-0.512603759765625
20220112-1457,2022-01-12 14:57:35Z,u01, 184,40,movements,el-ex, rt, d,96974.45661454168, -0.9994405365679822, -0.308476228717997, -0.12395989379442825, -0.0013381815515458584, 0.3934401273727417, 0.16527849435806274, -0.8014631867408752, 0.30360713601112366, -0.5152470469474792, -0.02757740020751953, 0.04911503195762634, 0.013599157333374023, -0.1639105222456168, -0.4642303422587186, 0.8701915758337372,0.019753160596163888,-0.82904052734375,0.35272216796875,-0.50164794921875
20220112-1457,2022-01-12 14:57:35Z,u01, 185,40,movements,el-ex, rt, d,96974.48155854167, -0.9897050958648835, -0.31251985985133846, -0.12257884319355047, -0.08242125064134598, 0.3552180528640747, 0.15777117013931274, -0.7953764200210571, 0.30745741724967957, -0.5223469138145447, -0.02960526943206787, 0.05104786157608032, -0.028007030487060547, -0.16543253831915528, -0.4598462846606038, 0.8722112315819754,0.020521179756297636,-0.8264617919921875,0.366058349609375,-0.5382537841796875
20220112-1457,2022-01-12 14:57:35Z,u01, 186,40,movements,el-ex, rt, d,96974.50650254167, -0.9807566568078468, -0.31647230537362875, -0.12201921297870118, -0.015241246670484543, 0.35700908303260803, 0.13167518377304077, -0.7896544933319092, 0.31121599674224854, -0.5287629961967468, -0.04754948616027832, 0.013292640447616577, -0.0561826229095459, -0.16710486511716216, -0.4557350926589896, 0.874037780969011,0.02095961761923193,-0.8372039794921875,0.3245086669921875,-0.5849456787109375
20220112-1457,2022-01-12 14:57:35Z,u01, 187,40,movements,el-ex, rt, d,96974.53144554167, -0.9702372894811053, -0.31822265653677884, -0.11859998850098163, 0.12969490885734558, 0.40093767642974854, 0.1258404552936554, -0.7835981249809265, 0.31287893652915955, -0.5367316603660583, -0.08333003520965576, 0.042238831520080566, -0.032894134521484375, -0.16720057700708435, -0.4513071488734153, 0.8762890212159216,0.02198822619376045,-0.8686370849609375,0.3502044677734375,-0.57318115234375
20220112-1457,2022-01-12 14:57:35Z,u01, 188,40,movements,el-ex, rt, d,96974.55638954167, -0.958312235250524, -0.31872228661084395, -0.11397184399069017, 0.11349153518676758, 0.43788495659828186, 0.10801000148057938, -0.7770139575004578, 0.31335344910621643, -0.545947790145874, -0.056573688983917236, 0.03779709339141846, -0.019832849502563477, -0.16651349948781768, -0.4464295830533607, 0.8788847884267601,0.02314036817805243,-0.833587646484375,0.3511505126953125,-0.5657806396484375
20220112-1457,2022-01-12 14:57:35Z,u01, 189,40,movements,el-ex, rt, d,96974.58133354168, -0.9462528193060117, -0.3191227987792482, -0.11023757652705511, 0.11927089095115662, 0.4395526945590973, 0.08634205162525177, -0.7702719569206238, 0.3137337565422058, -0.5552047491073608, 0.011574387550354004, -0.00842064619064331, -0.06508028507232666, -0.1660010079764946, -0.4414083069083063, 0.8814944687601453,0.02387339365742902,-0.7629547119140625,0.3118438720703125,-0.6198577880859375
20220112-1457,2022-01-12 14:57:35Z,u01, 190,40,movements,el-ex, rt, d,96974.60627654167, -0.9336254114364848, -0.31812236458400317, -0.10565527551095782, 0.218234583735466, 0.45998865365982056, 0.06825166940689087, -0.763451874256134, 0.31278368830680847, -0.5650732517242432, 0.007897615432739258, -0.011392086744308472, -0.025365591049194336, -0.16471088488841779, -0.43627251776322273, 0.8842682702593725,0.02462505624205663,-0.75555419921875,0.3013916015625,-0.5904388427734375
20220112-1457,2022-01-12 14:57:35Z,u01, 191,40,movements,el-ex, rt, d,96974.63122054168, -0.9198895755861692, -0.3162828405141437, -0.09981660680857331, 0.1990569680929184, 0.4875813126564026, 0.08840447664260864, -0.7560747265815735, 0.3110359311103821, -0.5758538842201233, 0.014238178730010986, 0.022673755884170532, 0.027453064918518066, -0.16280996200893139, -0.4307737097180246, 0.8872811176714763,0.02567418282689743,-0.7501373291015625,0.323944091796875,-0.550872802734375
20220112-1457,2022-01-12 14:57:35Z,u01, 192,40,movements,el-ex, rt, d,96974.65616454167, -0.9062541436291986, -0.31609752499617233, -0.09540452206403201, 0.07566748559474945, 0.4938042163848877, 0.10438922792673111, -0.7481979727745056, 0.3108597993850708, -0.5861449241638184, 0.038557469844818115, 0.04039749503135681, 0.042626917362213135, -0.1619620232239481, -0.42508334555284893, 0.8901521073269032,0.02648672888498599,-0.7096405029296875,0.35125732421875,-0.54351806640625
20220112-1457,2022-01-12 14:57:35Z,u01, 193,40,movements,el-ex, rt, d,96974.68110754168, -0.8926336335030819, -0.3178288307462159, -0.09248314910679407, 0.021222220733761787, 0.5322358012199402, 0.1482379138469696, -0.7397250533103943, 0.3125048577785492, -0.5959425568580627, 0.05402559041976929, -0.04399591684341431, 0.04923546314239502, -0.16229394393938218, -0.4191531964669138, 0.8928823511148405,0.027061792407062357,-0.6873779296875,0.2833709716796875,-0.5395050048828125
20220112-1457,2022-01-12 14:57:35Z,u01, 194,40,movements,el-ex, rt, d,96974.70605154167, -0.8779244704914554, -0.320821997235207, -0.08898086813767711, 0.025992078706622124, 0.549061119556427, 0.2070106863975525, -0.7301566004753113, 0.31534671783447266, -0.6061582565307617, 0.06031101942062378, -0.056099921464920044, 0.020770132541656494, -0.16309749331541162, -0.412698530993386, 0.8957070294268855,0.02807325313175446,-0.6698455810546875,0.259246826171875,-0.58538818359375
20220112-1457,2022-01-12 14:57:35Z,u01, 195,40,movements,el-ex, rt, d,96974.73099554167, -0.8637256312517708, -0.32519125532344484, -0.0851616528131174, -0.03463834524154663, 0.48188212513923645, 0.24600954353809357, -0.720422089099884, 0.3194900155067444, -0.6155632138252258, 0.04728060960769653, 0.008726537227630615, -0.024497151374816895, -0.16446666469369287, -0.4064100168296476, 0.8982809283546687,0.029545884425541624,-0.669952392578125,0.317413330078125,-0.639373779296875
20220112-1457,2022-01-12 14:57:35Z,u01, 196,40,movements,el-ex, rt, d,96974.75593854167, -0.8519211832881456, -0.33158887868225023, -0.0820217461345167, -0.13657651841640472, 0.37284812331199646, 0.28803110122680664, -0.7115529775619507, 0.3255457580089569, -0.6226655840873718, 0.026540100574493408, 0.01678517460823059, -0.017211735248565674, -0.16687078235893674, -0.4010253865180746, 0.9001958101657619,0.031310994082476784,-0.6850128173828125,0.3423309326171875,-0.6398773193359375
20220112-1457,2022-01-12 14:57:35Z,u01, 197,40,movements,el-ex, rt, d,96974.78088254167, -0.8434854283595489, -0.33992971901030855, -0.08042584011497941, -0.19460134208202362, 0.2682124972343445, 0.28809183835983276, -0.7042222619056702, 0.33342084288597107, -0.6268186569213867, 0.000395357608795166, 0.03855794668197632, -0.0675477385520935, -0.17042133626874534, -0.39692219675236823, 0.9012870065392864,0.033033881411422605,-0.6979522705078125,0.3668365478515625,-0.683990478515625
20220112-1457,2022-01-12 14:57:35Z,u01, 198,40,movements,el-ex, rt, d,96974.80582654168, -0.8373867558760517, -0.3484720088186878, -0.07932682818372852, -0.21231606602668762, 0.21126073598861694, 0.28008735179901123, -0.6982449889183044, 0.34146204590797424, -0.6291722059249878, -0.03313934803009033, 0.04435643553733826, -0.10822403430938721, -0.17413439714758122, -0.393816086142658, 0.9018752228098342,0.03474598805336032,-0.73138427734375,0.3858184814453125,-0.737396240234375
20220112-1457,2022-01-12 14:57:35Z,u01, 199,40,movements,el-ex, rt, d,96974.83077054167, -0.8325972269862951, -0.35763620243414984, -0.0790685301026679, -0.26170065999031067, 0.17291948199272156, 0.28384536504745483, -0.6928797364234924, 0.35006096959114075, -0.6303768754005432, -0.09621328115463257, 0.08020636439323425, -0.1609134078025818, -0.17827606250036254, -0.391189488629575, 0.9021479782483603,0.03629724551005975,-0.7730712890625,0.4202880859375,-0.7752685546875
20220112-1457,2022-01-12 14:57:35Z,u01, 200,40,movements,el-ex, rt, d,96974.85571354168, -0.8284179788871179, -0.36705873283328105, -0.07873150856362834, -0.260111927986145, 0.15092796087265015, 0.2828565835952759, -0.6877780556678772, 0.3588716387748718, -0.631009042263031, -0.1424831748008728, 0.09243753552436829, -0.20788854360580444, -0.18251145167933275, -0.3888251973635482, 0.9022542465084629,0.03797102593226731,-0.83026123046875,0.4513092041015625,-0.838897705078125
20220112-1457,2022-01-12 14:57:35Z,u01, 201,40,movements,el-ex, rt, d,96974.88065666668, -0.8254290475919566, -0.37713726664560393, -0.07914346244383817, -0.27106016874313354, 0.12324440479278564, 0.27862003445625305, -0.6831963658332825, 0.3682604432106018, -0.6305767893791199, -0.2149817943572998, 0.13938426971435547, -0.23392516374588013, -0.1871659260511372, -0.386885682533185, 0.9020675357252181,0.039530827758631204,-0.888885498046875,0.4967803955078125,-0.863800048828125
20220112-1457,2022-01-12 14:57:35Z,u01, 202,40,movements,el-ex, rt, d,96974.90560066668, -0.8231640351517799, -0.38685400194222763, -0.08040019896782531, -0.3176722824573517, 0.08298912644386292, 0.20864279568195343, -0.6791102290153503, 0.37727677822113037, -0.62965989112854, -0.24024707078933716, 0.17358079552650452, -0.30024123191833496, -0.19180631092386727, -0.38520175568473547, 0.901761707997235,0.040692446035230256,-0.9193572998046875,0.5508575439453125,-0.929901123046875
20220112-1457,2022-01-12 14:57:35Z,u01, 203,40,movements,el-ex, rt, d,96974.93054366668, -0.8224884933145333, -0.39453183147287624, -0.08271935837922788, -0.20736128091812134, 0.03701750561594963, 0.12567055225372314, -0.6765419244766235, 0.38437601923942566, -0.6281290650367737, -0.27855145931243896, 0.23839619755744934, -0.3345784544944763, -0.19570288432414518, -0.3842341122085226, 0.9013180331777332,0.04111419331873467,-0.954315185546875,0.6173248291015625,-0.96246337890625
20220112-1457,2022-01-12 14:57:35Z,u01, 204,40,movements,el-ex, rt, d,96974.95548766667, -0.8225956608965498, -0.39900036151059426, -0.08394885795567066, -0.11964838206768036, -0.01729479990899563, 0.07949553430080414, -0.6753436326980591, 0.38849741220474243, -0.6268817782402039, -0.2988232374191284, 0.23795220255851746, -0.34337878227233887, -0.1979354916145138, -0.3839018860314143, 0.9009560422469395,0.04146250219237374,-0.9741668701171875,0.6264495849609375,-0.9702606201171875
20220112-1457,2022-01-12 14:57:35Z,u01, 205,40,movements,el-ex, rt, d,96974.98043166667, -0.8242610114457566, -0.4016232963152939, -0.08492470744690588, -0.055223383009433746, -0.09063546359539032, 0.027318483218550682, -0.675636351108551, 0.3909129798412323, -0.6250620484352112, -0.351097047328949, 0.2703266739845276, -0.36767470836639404, -0.19926072977263795, -0.3844010096790869, 0.9004394074859488,0.04171237299410607,-1.0180206298828125,0.65411376953125,-0.9906768798828125
20220112-1457,2022-01-12 14:57:35Z,u01, 206,40,movements,el-ex, rt, d,96975.00537566667, -0.8273917371866069, -0.4017407015739095, -0.08513987406111223, 0.044466860592365265, -0.14595437049865723, -0.038186490535736084, -0.6775561571121216, 0.3910210430622101, -0.6229127049446106, -0.3699291944503784, 0.2836463451385498, -0.38834822177886963, -0.19928911449257644, -0.3857816697694935, 0.8998313909127114,0.04195098446252965,-1.0474853515625,0.6746673583984375,-1.011260986328125
20220112-1457,2022-01-12 14:57:35Z,u01, 207,40,movements,el-ex, rt, d,96975.03031866667, -0.8313142989101642, -0.3992413837145349, -0.08505602228474748, 0.09220105409622192, -0.17625534534454346, -0.11937488615512848, -0.6807142496109009, 0.38871949911117554, -0.6209067702293396, -0.3473924398422241, 0.27174192667007446, -0.39567941427230835, -0.19807508730643586, -0.387702027063283, 0.8992773698206645,0.041875730721533444,-1.0330657958984375,0.6679534912109375,-1.0132598876953125
20220112-1457,2022-01-12 14:57:35Z,u01, 208,40,movements,el-ex, rt, d,96975.05526266668, -0.8360285755263115, -0.394395332871094, -0.08526909069972191, 0.17010147869586945, -0.18449777364730835, -0.1744798719882965, -0.6850234866142273, 0.3842500150203705, -0.6189464926719666, -0.3409164547920227, 0.2252318263053894, -0.36927366256713867, -0.1958566326694833, -0.3900857943725614, 0.8987605685019049,0.04126473743866188,-1.02593994140625,0.6094818115234375,-0.98822021484375
20220112-1457,2022-01-12 14:57:35Z,u01, 209,40,movements,el-ex, rt, d,96975.08020666667, -0.8399061148448795, -0.3874606528547826, -0.08434139911817783, 0.2402040660381317, -0.16472074389457703, -0.18421998620033264, -0.6893858909606934, 0.37783852219581604, -0.6180495619773865, -0.3043885827064514, 0.16613733768463135, -0.27532196044921875, -0.19250305899808667, -0.39232356899130627, 0.8985391255491189,0.04064943915104158,-1.0072021484375,0.54449462890625,-0.8950653076171875
20220112-1457,2022-01-12 14:57:35Z,u01, 210,40,movements,el-ex, rt, d,96975.10514966668, -0.8439169835990777, -0.3798908815467827, -0.08270768933828482, 0.2473861277103424, -0.20622950792312622, -0.18534325063228607, -0.6939765810966492, 0.3708191215991974, -0.6171625852584839, -0.27767258882522583, 0.15936273336410522, -0.27442365884780884, -0.1887247112008716, -0.3947172338639625, 0.8983114922996879,0.040221171166199166,-0.971649169921875,0.530181884765625,-0.8915863037109375
20220112-1457,2022-01-12 14:57:35Z,u01, 211,40,movements,el-ex, rt, d,96975.13009366667, -0.8494177395549185, -0.3728795558652446, -0.08147406184848575, 0.19177666306495667, -0.26683345437049866, -0.1771383136510849, -0.6992960572242737, 0.36429861187934875, -0.6150378584861755, -0.22935384511947632, 0.11417123675346375, -0.22912412881851196, -0.18524413928131794, -0.3977005083950232, 0.8977364860088912,0.039851309879895824,-0.9371490478515625,0.48919677734375,-0.85406494140625
20220112-1457,2022-01-12 14:57:35Z,u01, 212,40,movements,el-ex, rt, d,96975.15503766667, -0.8565363509636188, -0.367006011652134, -0.08120658735168619, 0.13138657808303833, -0.29724961519241333, -0.1711738407611847, -0.7052611112594604, 0.35882243514060974, -0.6114354133605957, -0.20133984088897705, 0.06761494278907776, -0.16253608465194702, -0.1824328066549986, -0.4012487699989215, 0.8967521332459258,0.039412483543978916,-0.9066009521484375,0.4264373779296875,-0.7739715576171875
20220112-1457,2022-01-12 14:57:35Z,u01, 213,40,movements,el-ex, rt, d,96975.17998066667, -0.8642217087124681, -0.3622353405238899, -0.08261779071753406, 0.03623226284980774, -0.27527472376823425, -0.18661503493785858, -0.7112332582473755, 0.35436540842056274, -0.6071016788482666, -0.181421160697937, 0.020329415798187256, -0.07340973615646362, -0.18044461947949703, -0.4048319280182213, 0.8955835938363474,0.03848377037043815,-0.8928985595703125,0.3818359375,-0.6937103271484375
20220112-1457,2022-01-12 14:57:35Z,u01, 214,40,movements,el-ex, rt, d,96975.20492466667, -0.8721523913489095, -0.3590489093310493, -0.08667107785881227, -0.08187513798475266, -0.24702858924865723, -0.200982928276062, -0.716886579990387, 0.3513839542865753, -0.6021652817726135, -0.1569843292236328, 0.01890110969543457, -0.0756911039352417, -0.17970373833037956, -0.40819594435737383, 0.8942788797382775,0.03671451929009212,-0.873870849609375,0.3702850341796875,-0.6778564453125
20220112-1457,2022-01-12 14:57:35Z,u01, 215,40,movements,el-ex, rt, d,96975.22986866668, -0.8802377924936727, -0.35697425322254783, -0.09231443171540382, -0.14217372238636017, -0.25707024335861206, -0.20646843314170837, -0.7222922444343567, 0.3494408428668976, -0.5968124270439148, -0.09162682294845581, 0.020676374435424805, -0.07780909538269043, -0.1797962471419008, -0.4114208218410769, 0.8928703703813601,0.03447972632238877,-0.8212738037109375,0.3720855712890625,-0.66754150390625
20220112-1457,2022-01-12 14:57:35Z,u01, 216,40,movements,el-ex, rt, d,96975.25481166667, -0.8895148525748018, -0.3553240809048095, -0.0992661900628643, -0.1487152874469757, -0.2927204668521881, -0.22310766577720642, -0.7282446622848511, 0.34789422154426575, -0.5904484391212463, -0.07302486896514893, 0.0032410621643066406, -0.08772844076156616, -0.180348713445982, -0.41503027870420856, 0.8911840965471853,0.03186081973401811,-0.80126953125,0.35113525390625,-0.6781768798828125
20220112-1457,2022-01-12 14:57:35Z,u01, 217,40,movements,el-ex, rt, d,96975.27975566668, -0.9000674909341309, -0.35304897768979887, -0.10590139973151455, -0.13861830532550812, -0.3708956837654114, -0.23282314836978912, -0.7350529432296753, 0.3457603454589844, -0.5832212567329407, -0.03492087125778198, 0.018634796142578125, -0.06451427936553955, -0.18056734108059452, -0.41926698819707636, 0.8892402992651354,0.029366517614913545,-0.7706298828125,0.3601837158203125,-0.654510498046875
20220112-1457,2022-01-12 14:57:35Z,u01, 218,40,movements,el-ex, rt, d,96975.30469966667, -0.9119556253338392, -0.35060130167468695, -0.11318548867391265, -0.20213443040847778, -0.36254000663757324, -0.25436732172966003, -0.742601215839386, 0.34346258640289307, -0.5749582648277283, -0.014890909194946289, 0.014035582542419434, 0.010718822479248047, -0.18085982400997389, -0.42404079232140046, 0.8869994800915366,0.026668957909331104,-0.7574920654296875,0.3574981689453125,-0.564239501953125
20220112-1457,2022-01-12 14:57:36Z,u01, 219,40,movements,el-ex, rt, d,96975.32964266668, -0.9238925363077862, -0.35023248248348604, -0.1233057149908103, -0.37205684185028076, -0.31864938139915466, -0.22753050923347473, -0.7495123744010925, 0.3431161940097809, -0.5661293864250183, 0.029099106788635254, -0.025596022605895996, 0.06696867942810059, -0.18270620653253158, -0.4284317212659483, 0.884605526413677,0.023189629624029262,-0.722503662109375,0.3152618408203125,-0.4897003173828125
20220112-1457,2022-01-12 14:57:36Z,u01, 220,40,movements,el-ex, rt, d,96975.35458666667, -0.935505685214118, -0.35130796323633806, -0.13459126644701672, -0.3372444212436676, -0.3149559199810028, -0.2089662253856659, -0.7557387948036194, 0.3441261649131775, -0.5571679472923279, 0.03874349594116211, -0.00039142370223999023, 0.016060829162597656, -0.18548073659095465, -0.4324499074666345, 0.8821582433894404,0.019516083748395308,-0.7169952392578125,0.3437347412109375,-0.541107177734375
20220112-1457,2022-01-12 14:57:36Z,u01, 221,40,movements,el-ex, rt, d,96975.37953066667, -0.947954752885076, -0.3516903889791484, -0.14422310313475023, -0.2746884822845459, -0.4325922131538391, -0.2043096125125885, -0.7625093460083008, 0.34448522329330444, -0.5476399660110474, 0.0773133635520935, 0.026852697134017944, -0.03619182109832764, -0.18762853403437973, -0.43700749736341593, 0.8795152341697512,0.016522501410828283,-0.68829345703125,0.361968994140625,-0.5832061767578125
20220112-1457,2022-01-12 14:57:36Z,u01, 222,40,movements,el-ex, rt, d,96975.40447466668, -0.9639435712922041, -0.35103378411852315, -0.15330482840572787, -0.24266771972179413, -0.5912554264068604, -0.23804287612438202, -0.7713532447814941, 0.3438687324523926, -0.5355077385902405, 0.06891483068466187, 0.04370450973510742, -0.027846693992614746, -0.1892212107746704, -0.44321716095626873, 0.876105634422069,0.013890701789440352,-0.7024383544921875,0.3875732421875,-0.5633544921875
20220112-1457,2022-01-12 14:57:36Z,u01, 223,40,movements,el-ex, rt, d,96975.42941766667, -0.9831464734819715, -0.34846574908513717, -0.16224049264768967, -0.19377699494361877, -0.6949631571769714, -0.31600290536880493, -0.782226026058197, 0.34145617485046387, -0.5210855603218079, 0.06903022527694702, 0.037373751401901245, 0.006208360195159912, -0.18999245014626284, -0.4509546574263897, 0.8720190823303098,0.01120077903624922,-0.7158050537109375,0.3872222900390625,-0.5196533203125
20220112-1457,2022-01-12 14:57:36Z,u01, 224,40,movements,el-ex, rt, d,96975.45436166668, -1.0034648596823577, -0.34301955712973237, -0.17024336596125098, -0.062290649861097336, -0.7047737836837769, -0.38498178124427795, -0.7942079901695251, 0.3363322615623474, -0.5060773491859436, 0.09799522161483765, 0.0082569420337677, 0.013783097267150879, -0.1893829341992782, -0.45945123632869694, 0.8677379042841074,0.00833904406137198,-0.6962127685546875,0.3445892333984375,-0.4922943115234375
20220112-1457,2022-01-12 14:57:36Z,u01, 225,40,movements,el-ex, rt, d,96975.47930566667, -1.022423814162038, -0.33427101348317745, -0.17610462879264546, 0.05872794985771179, -0.6581484079360962, -0.4528332054615021, -0.8061396479606628, 0.3280806243419647, -0.49244505167007446, 0.14110052585601807, 0.006117373704910278, 0.009382367134094238, -0.18695088353077693, -0.4677893103801357, 0.8638246377228578,0.005445893702993809,-0.6690826416015625,0.3294830322265625,-0.4859466552734375
20220112-1457,2022-01-12 14:57:36Z,u01, 226,40,movements,el-ex, rt, d,96975.50424866668, -1.0387903125294167, -0.32230942706688664, -0.1784385312451327, 0.286529541015625, -0.5907348394393921, -0.4465112090110779, -0.8174145221710205, 0.3167579174041748, -0.4811423420906067, 0.168748140335083, 0.004866898059844971, 0.021990180015563965, -0.18239540534194115, -0.4755636036855122, 0.8605593329909043,0.0029793838582939935,-0.6486663818359375,0.321624755859375,-0.4591522216796875
20220112-1457,2022-01-12 14:57:36Z,u01, 227,40,movements,el-ex, rt, d,96975.52919266667, -1.0518064056995198, -0.308849692595665, -0.17617173265991226, 0.34308063983917236, -0.5330828428268433, -0.39494186639785767, -0.8272349834442139, 0.30396294593811035, -0.47253432869911194, 0.24761468172073364, -0.07151058316230774, 0.07537862658500671, -0.1761475523772807, -0.48239494273879824, 0.8580582897232911,0.0017342879127762445,-0.589996337890625,0.2477569580078125,-0.3989715576171875
20220112-1457,2022-01-12 14:57:36Z,u01, 228,40,movements,el-ex, rt, d,96975.55413666667, -1.0640015989699498, -0.29683559889042127, -0.1742328432865799, 0.26984503865242004, -0.4992159605026245, -0.3539361357688904, -0.8360686302185059, 0.2924956679344177, -0.4641502797603607, 0.24361568689346313, -0.10308831930160522, 0.102684885263443, -0.1706026972345925, -0.48869170547809115, 0.8556136940002239,0.0005685141518324,-0.5924530029296875,0.1894073486328125,-0.3614654541015625
20220112-1457,2022-01-12 14:57:36Z,u01, 229,40,movements,el-ex, rt, d,96975.57907966667, -1.0757814300725985, -0.2865082494722892, -0.17272812563467907, 0.23228658735752106, -0.46862637996673584, -0.32850372791290283, -0.8440912961959839, 0.28260454535484314, -0.4556802809238434, 0.1762140989303589, -0.05639299750328064, 0.12430521845817566, -0.16588695604568432, -0.4946123542289899, 0.8531353522027454,-0.000448344246736454,-0.6595611572265625,0.2118072509765625,-0.3417510986328125
20220112-1457,2022-01-12 14:57:36Z,u01, 230,40,movements,el-ex, rt, d,96975.60402366667, -1.0864632727040762, -0.2767122866709773, -0.17190756161786064, 0.1805587261915207, -0.3968101739883423, -0.3347133696079254, -0.8513198494911194, 0.27319449186325073, -0.44790560007095337, 0.2066206932067871, -0.04876816272735596, 0.13398653268814087, -0.16157661096023407, -0.49994020093894237, 0.850852397240359,-0.0017614182983657356,-0.6446990966796875,0.22442626953125,-0.3139190673828125
20220112-1457,2022-01-12 14:57:36Z,u01, 231,40,movements,el-ex, rt, d,96975.62896766668, -1.0959587665022463, -0.26815504538442536, -0.17308881624019032, 0.06527097523212433, -0.3499641716480255, -0.30774998664855957, -0.8575822114944458, 0.2649528682231903, -0.4408544898033142, 0.2941666841506958, -0.0954430103302002, 0.1092657744884491, -0.15830219783527089, -0.5044929880265249, 0.8487715838147999,-0.003738351443277388,-0.567535400390625,0.173553466796875,-0.3284149169921875
20220112-1457,2022-01-12 14:57:36Z,u01, 232,40,movements,el-ex, rt, d,96975.65391066668, -1.1043801220440408, -0.2612562116272343, -0.1749560707215753, 0.08792188763618469, -0.2827373147010803, -0.24902929365634918, -0.8628765344619751, 0.25829434394836426, -0.4344286024570465, 0.2663341760635376, -0.07138943672180176, 0.1096910834312439, -0.1559117193670665, -0.5084065644707704, 0.8468660237577077,-0.005682791120756814,-0.5965423583984375,0.1869049072265625,-0.324737548828125
20220112-1457,2022-01-12 14:57:36Z,u01, 233,40,movements,el-ex, rt, d,96975.67885466668, -1.110830860473295, -0.25520130973167526, -0.17500642981877312, 0.09457413107156754, -0.2399497777223587, -0.19543862342834473, -0.8670464754104614, 0.2524402141571045, -0.4295397996902466, 0.22033315896987915, -0.04286074638366699, 0.13477057218551636, -0.15341887502378274, -0.5115591330923329, 0.8454132740284782,-0.0068071341634291516,-0.6416015625,0.2111053466796875,-0.2992095947265625
20220112-1457,2022-01-12 14:57:36Z,u01, 234,40,movements,el-ex, rt, d,96975.70379866667, -1.1168160100775566, -0.25051829677646625, -0.1757747269964664, 0.03033369593322277, -0.22279010713100433, -0.16439801454544067, -0.8706546425819397, 0.24790610373020172, -0.4248565137386322, 0.2245364785194397, -0.057384833693504333, 0.13579413294792175, -0.1516873878810351, -0.5143565640761322, 0.844017513593456,-0.007920102812017882,-0.6461181640625,0.190521240234375,-0.2890625
20220112-1457,2022-01-12 14:57:36Z,u01, 235,40,movements,el-ex, rt, d,96975.72874266667, -1.1224253630809404, -0.2470065539936901, -0.17696788498769436, 0.028004495427012444, -0.20616823434829712, -0.1282549351453781, -0.8738031983375549, 0.2445024698972702, -0.4203408360481262, 0.2312403917312622, -0.07000294327735901, 0.147055983543396, -0.1505582137694011, -0.5168769774965782, 0.8426686463916643,-0.008937237189528768,-0.6403961181640625,0.1772613525390625,-0.2741851806640625
20220112-1457,2022-01-12 14:57:36Z,u01, 236,40,movements,el-ex, rt, d,96975.75368566667, -1.1273325122885065, -0.24387310960734568, -0.17747115274752376, 0.04084635525941849, -0.1861029863357544, -0.128190815448761, -0.8765430450439453, 0.24146293103694916, -0.4163745939731598, 0.2185536026954651, -0.06645987927913666, 0.15583083033561707, -0.14941012555115907, -0.5191236078376373, 0.8414835954512727,-0.009621414399635042,-0.657989501953125,0.1750030517578125,-0.2605438232421875
20220112-1457,2022-01-12 14:57:36Z,u01, 237,40,movements,el-ex, rt, d,96975.77862966667, -1.1321519157228175, -0.24114872931291972, -0.1779746787484776, 0.014760326594114304, -0.1916992962360382, -0.11017419397830963, -0.8791319131851196, 0.23881827294826508, -0.4124232530593872, 0.21055281162261963, -0.07165823876857758, 0.18431970477104187, -0.14843517382702873, -0.5213016160496968, 0.8403020137029448,-0.010207600420009566,-0.666412353515625,0.16998291015625,-0.233673095703125
20220112-1457,2022-01-12 14:57:36Z,u01, 238,40,movements,el-ex, rt, d,96975.80357366668, -1.1372178740830183, -0.23916007537985753, -0.17903530614625937, -0.01741824857890606, -0.2073214054107666, -0.061157919466495514, -0.8816392421722412, 0.23688669502735138, -0.40816307067871094, 0.22790682315826416, -0.07233592867851257, 0.1951046586036682, -0.14791533662677164, -0.5234878430948271, 0.8390260218067914,-0.010814903402848908,-0.6537322998046875,0.16455078125,-0.2130584716796875
20220112-1457,2022-01-12 14:57:36Z,u01, 239,40,movements,el-ex, rt, d,96975.82851666668, -1.1431860296375347, -0.23852131489528725, -0.17976982179152604, -0.013137316331267357, -0.2717948853969574, -0.007395553402602673, -0.884196937084198, 0.23626606166362762, -0.4029567241668701, 0.20077097415924072, -0.03065386414527893, 0.1269405484199524, -0.1478763469850521, -0.5259793067083303, 0.83747270862759,-0.010854747963860878,-0.66766357421875,0.1974029541015625,-0.267120361328125
20220112-1457,2022-01-12 14:57:36Z,u01, 240,40,movements,el-ex, rt, d,96975.85346066667, -1.150844066019177, -0.2389415453990391, -0.17965823192252767, 0.01162375696003437, -0.33876070380210876, 0.04336816072463989, -0.8871661424636841, 0.23667438328266144, -0.3961332440376282, 0.12892639636993408, 1.996755599975586e-05, 0.12179553508758545, -0.14806039074888105, -0.5291611230328779, 0.8354424956195861,-0.0101268856634541,-0.75823974609375,0.2366943359375,-0.2743377685546875
20220112-1457,2022-01-12 14:57:36Z,u01, 241,40,movements,el-ex, rt, d,96975.87840491667, -1.1596918574597714, -0.24060969492272372, -0.1795896163574272, -0.08519193530082703, -0.3676503002643585, 0.07314642518758774, -0.8902730941772461, 0.2382947951555252, -0.38811004161834717, 0.0821065902709961, 0.008317723870277405, 0.18579384684562683, -0.14877051342103864, -0.5327403802549433, 0.8330511842772649,-0.00898383442951417,-0.8038177490234375,0.25006103515625,-0.2151031494140625
20220112-1457,2022-01-12 14:57:36Z,u01, 242,40,movements,el-ex, rt, d,96975.90334791667, -1.1689471686411093, -0.24396404766408097, -0.18125653182875479, -0.1349465399980545, -0.3385844826698303, 0.11809878796339035, -0.8930863738059998, 0.24155117571353912, -0.3795390725135803, 0.08450788259506226, -0.012074202299118042, 0.19226795434951782, -0.15063035074828182, -0.5362284649365172, 0.8304846541466617,-0.00805739649273124,-0.8085784912109375,0.2294769287109375,-0.1872711181640625
20220112-1457,2022-01-12 14:57:36Z,u01, 243,40,movements,el-ex, rt, d,96975.92829191667, -1.1770000371169744, -0.24810421990885015, -0.1828290381618641, -0.08820829540491104, -0.26868999004364014, 0.14503805339336395, -0.8951824307441711, 0.24556666612625122, -0.3719479441642761, 0.05778014659881592, 0.0033499449491500854, 0.1584012806415558, -0.15277460627027456, -0.5391529850176693, 0.8282062747522206,-0.006947104427485196,-0.8315582275390625,0.246612548828125,-0.208404541015625
20220112-1457,2022-01-12 14:57:36Z,u01, 244,40,movements,el-ex, rt, d,96975.95323591668, -1.182449898415926, -0.25217246118788655, -0.18306781342744977, -0.06204327195882797, -0.15945354104042053, 0.14897660911083221, -0.8962641954421997, 0.24950829148292542, -0.3666825294494629, 0.005547642707824707, -0.012264668941497803, 0.14350757002830505, -0.15451331477561614, -0.5410955327869168, 0.8266263191011345,-0.005490016570867062,-0.890716552734375,0.23724365234375,-0.223175048828125
20220112-1457,2022-01-12 14:57:36Z,u01, 245,40,movements,el-ex, rt, d,96975.97817891667, -1.1847164944677477, -0.256191739488403, -0.18310262995777746, -0.07122678309679031, -0.014128834009170532, 0.14520077407360077, -0.8961567878723145, 0.25339841842651367, -0.36426955461502075, -0.04798084497451782, -0.03654053807258606, 0.13467061519622803, -0.15616274259844876, -0.5417364871562604, 0.8259038327098938,-0.004201658543900588,-0.936187744140625,0.217742919921875,-0.23089599609375
20220112-1457,2022-01-12 14:57:36Z,u01, 246,40,movements,el-ex, rt, d,96976.00312291668, -1.182624875006691, -0.26024357635171624, -0.18368034427136284, -0.10386821627616882, 0.20267458260059357, 0.14223960041999817, -0.8944352865219116, 0.2573159337043762, -0.36575159430503845, -0.03682398796081543, -0.06645897030830383, 0.16319116950035095, -0.1579620534624788, -0.5405295497111058, 0.8263558109098418,-0.0034686240161437842,-0.9312591552734375,0.19085693359375,-0.2025604248046875
20220112-1457,2022-01-12 14:57:36Z,u01, 247,40,movements,el-ex, rt, d,96976.02806691667, -1.1749714911118307, -0.26468043012641435, -0.18536426031237077, -0.15033791959285736, 0.4385460913181305, 0.14115583896636963, -0.8905476927757263, 0.2616008520126343, -0.37214240431785583, 0.11178481578826904, -0.10799062252044678, 0.14977610111236572, -0.1602078628846461, -0.5369005899079946, 0.8282866716292738,-0.003534392412602949,-0.812164306640625,0.163970947265625,-0.2109222412109375
20220112-1457,2022-01-12 14:57:36Z,u01, 248,40,movements,el-ex, rt, d,96976.05301091667, -1.1625226184651047, -0.26941318355964766, -0.18795033212283213, -0.1807626336812973, 0.6021745204925537, 0.12087353318929672, -0.8846997022628784, 0.2661658227443695, -0.3827037215232849, 0.2246655821800232, -0.1599189043045044, 0.1050853431224823, -0.1628054504177077, -0.53117090268571, 0.8314645898171491,-0.004300028381072796,-0.6600341796875,0.1062469482421875,-0.277618408203125
