SessionID,LoggingTime,UID,RecNo,Hertz,Activity,MoveType,Wrist,Side,TimeStamp,DMRoll,DMPitch,DMYaw,DMRotX,DMRotY,DMRotZ,DMGrvX,DMGrvY,DMGrvZ,DMUAccelX,DMUAccelY,DMUAccelZ,DMQuatX,DMQuatY,DMQuatW,DMQuatZ,AccelroX,AceelroY,AceelroZ
20220227-1527,2022-02-27 15:27:16Z,u01, 1,40,movements,el-ex, rt, d,296851.37994841667, -1.1144261257850034, 0.09865742272997348, 0.061501378756599064, -0.7445456385612488, -0.02456032484769821, 0.4037587642669678, -0.893293023109436, -0.09849745780229568, -0.4385497570037842, -0.08629071712493896, -0.10941880941390991, -0.08174443244934082, 0.058069430046835846, -0.5266432035322125, 0.8481007736539113,-5.551115123125783e-17,-0.9626007080078125,-0.2239227294921875,-0.5103607177734375
20220227-1527,2022-02-27 15:27:16Z,u01, 2,40,movements,el-ex, rt, d,296851.4048944167, -1.1144270998952523, 0.0830588240603076, 0.05487818974968378, -0.1861325204372406, 0.023693222552537918, 0.4692712128162384, -0.8945638537406921, -0.08296335488557816, -0.43917256593704224, -0.15411162376403809, -0.06393300741910934, -0.13153663277626038, 0.0497200468130474, -0.5272016979638088, 0.8482832719268687,0.0013182920189268033,-1.048675537109375,-0.1468963623046875,-0.570709228515625
20220227-1527,2022-02-27 15:27:16Z,u01, 3,40,movements,el-ex, rt, d,296851.4298394167, -1.1133461339594286, 0.07167920570741504, 0.05918286677804899, -0.0651126280426979, 0.061008110642433167, 0.4979390799999237, -0.8948776721954346, -0.07161784172058105, -0.4405277669429779, -0.10826551914215088, -0.04946061223745346, -0.0704738199710846, 0.04603136713448003, -0.5268939475724362, 0.8486610711739009,0.0061798180037305195,-1.020294189453125,-0.1103668212890625,-0.5269775390625
20220227-1527,2022-02-27 15:27:16Z,u01, 4,40,movements,el-ex, rt, d,296851.45478541666, -1.112319683936152, 0.057325716006643684, 0.05696920830051369, -0.6546421051025391, -0.024402465671300888, 0.4376751482486725, -0.8952547311782837, -0.0572943240404129, -0.4418555796146393, -0.08042275905609131, -0.1390862762928009, -0.030022501945495605, 0.03935946417771069, -0.5268045593579653, 0.8490264077337621,0.009054710406869781,-0.975677490234375,-0.196380615234375,-0.4718780517578125
20220227-1527,2022-02-27 15:27:16Z,u01, 5,40,movements,el-ex, rt, d,296851.4797304167, -1.1137117324965338, 0.039876417897667674, 0.04305835113451031, -0.8309210538864136, -0.6036112904548645, 0.6649928689002991, -0.8966296315193176, -0.039865851402282715, -0.44098302721977234, -0.1793438196182251, -0.08173143863677979, -0.03835660219192505, 0.028296373526584595, -0.5279278333447682, 0.8487824823446672,0.007736930294988398,-0.995025634765625,-0.1593170166015625,-0.4901275634765625
20220227-1527,2022-02-27 15:27:16Z,u01, 6,40,movements,el-ex, rt, d,296851.5046764167, -1.1158700284855552, 0.026677826338124433, 0.03282329779511911, -0.2959711253643036, -0.0980059802532196, 0.2798401117324829, -0.8979737162590027, -0.02667466178536415, -0.4392397403717041, -0.25409531593322754, -0.01334911398589611, -0.024230748414993286, 0.020001957542734677, -0.5291314118561132, 0.8482763365472137,0.006860027949788405,-1.152069091796875,-0.0400238037109375,-0.463470458984375
20220227-1527,2022-02-27 15:27:16Z,u01, 7,40,movements,el-ex, rt, d,296851.5296214167, -1.1161749048878473, 0.022437817020892887, 0.03609123919711461, 0.27088871598243713, 0.04310240596532822, 0.170077383518219, -0.8982011675834656, -0.022435935214161873, -0.43901169300079346, -0.21134161949157715, -0.011453837156295776, -0.08727920055389404, 0.019070113758350632, -0.5292735474988148, 0.8481851948037353,0.009365707038988258,-1.1158447265625,-0.0215606689453125,-0.5253143310546875
20220227-1527,2022-02-27 15:27:16Z,u01, 8,40,movements,el-ex, rt, d,296851.55456741666, -1.1157473784344019, 0.02164592821292941, 0.04193581108019277, 0.07643494755029678, -0.001707407645881176, 0.09088322520256042, -0.8980291485786438, -0.021644238382577896, -0.43940335512161255, -0.21116280555725098, -0.0469287633895874, -0.05371499061584473, 0.020278414558490082, -0.5290435787784107, 0.8482667107713721,0.012058335689698607,-1.10919189453125,-0.068572998046875,-0.4931182861328125
20220227-1527,2022-02-27 15:27:16Z,u01, 9,40,movements,el-ex, rt, d,296851.5795124167, -1.1157243709236855, 0.020190133175539266, 0.04314216000921539, 0.06338286399841309, 0.024275055155158043, 0.07457470148801804, -0.8980463743209839, -0.02018876187503338, -0.4394373893737793, -0.3439427614212036, -0.03890851140022278, -0.0943760871887207, 0.019980096639821643, -0.5290388452105069, 0.848263493108178,0.012955581409467565,-1.21533203125,-0.0624542236328125,-0.512176513671875
20220227-1527,2022-02-27 15:27:16Z,u01, 10,40,movements,el-ex, rt, d,296851.6044584167, -1.1140242192256864, 0.021621955210833366, 0.049643288544861185, 0.46749094128608704, 0.1009269654750824, 0.03972563520073891, -0.8972710967063904, -0.021620269864797592, -0.4409503638744354, -0.4368200898170471, -0.005433559417724609, -0.18562132120132446, 0.02229367245403549, -0.528230831252458, 0.8486692799924495,0.01535279505945808,-1.3340911865234375,-0.0270538330078125,-0.6265716552734375
20220227-1527,2022-02-27 15:27:16Z,u01, 11,40,movements,el-ex, rt, d,296851.6294034167, -1.1124423297519117, 0.02951146814034126, 0.06309352703102404, 0.7208231687545776, 0.05318547040224075, -0.12951938807964325, -0.8963915109634399, -0.029507184401154518, -0.4422799050807953, -0.5725567936897278, -0.045245617628097534, -0.30404266715049744, 0.029176221385154688, -0.5272653868670553, 0.8489870442404435,0.018997343467881955,-1.4429779052734375,-0.0548858642578125,-0.72772216796875
20220227-1527,2022-02-27 15:27:16Z,u01, 12,40,movements,el-ex, rt, d,296851.65434941667, -1.1129519203001907, 0.041786518348493236, 0.076834033357323, 0.6409648656845093, -0.04697801545262337, -0.2281760573387146, -0.8962244391441345, -0.041774358600378036, -0.4416297376155853, -0.6666112542152405, -0.09616509079933167, -0.34680718183517456, 0.03800887758136945, -0.5270108704432684, 0.8487339703821302,0.02157876970749989,-1.562835693359375,-0.137939453125,-0.7884368896484375
20220227-1527,2022-02-27 15:27:16Z,u01, 13,40,movements,el-ex, rt, d,296851.6792944167, -1.116450692077568, 0.05447495082612364, 0.08774896924533553, 0.6141787767410278, -0.18524567782878876, -0.30057093501091003, -0.8972154855728149, -0.05444801226258278, -0.43822339177131653, -0.7330945134162903, -0.13881981372833252, -0.37629076838493347, 0.046301088876944646, -0.5279626082149738, 0.8476985492439542,0.02277691556928374,-1.6189727783203125,-0.19140625,-0.8101348876953125
20220227-1527,2022-02-27 15:27:16Z,u01, 14,40,movements,el-ex, rt, d,296851.7042404167, -1.12254004409911, 0.06921538567120405, 0.09734693439373206, 0.5612362027168274, -0.25017619132995605, -0.4508158564567566, -0.8990463614463806, -0.06916013360023499, -0.4323570430278778, -0.7592788338661194, -0.10294374823570251, -0.3974617123603821, 0.05513892186467015, -0.5298878887332883, 0.8459670089520006,0.022770179358911957,-1.6583251953125,-0.1721038818359375,-0.8298187255859375
20220227-1527,2022-02-27 15:27:16Z,u01, 15,40,movements,el-ex, rt, d,296851.7291854167, -1.1299370129182473, 0.08678998943361192, 0.10203851973472218, 0.34116917848587036, -0.3431083559989929, -0.6710004806518555, -0.9009813070297241, -0.0866810753941536, -0.42511066794395447, -0.7605940103530884, -0.081104576587677, -0.3795310854911804, 0.06387007987214299, -0.5323206564525208, 0.843896837372504,0.019836205609580992,-1.661346435546875,-0.167022705078125,-0.8217315673828125
20220227-1527,2022-02-27 15:27:16Z,u01, 16,40,movements,el-ex, rt, d,296851.7541314167, -1.1398658573918719, 0.1073190634811307, 0.0995489788957376, 0.20763558149337769, -0.45354515314102173, -0.8999530076980591, -0.903350293636322, -0.10711317509412766, -0.4153132140636444, -0.7765966057777405, -0.07632797956466675, -0.336487352848053, 0.0719077202896766, -0.5358849492635084, 0.8411239820587172,0.012925759310601248,-1.6799468994140625,-0.183441162109375,-0.751800537109375
20220227-1527,2022-02-27 15:27:17Z,u01, 17,40,movements,el-ex, rt, d,296851.7790764167, -1.1510178812667098, 0.1328527715651215, 0.09460301862827633, 0.3455662131309509, -0.4720250070095062, -1.1105895042419434, -0.9051323533058167, -0.1324623078107834, -0.4039667546749115, -0.7654303312301636, -0.061919406056404114, -0.2713262736797333, 0.08130091508399587, -0.5398210716460121, 0.8378371589659226,0.003493328411158514,-1.6790618896484375,-0.1836700439453125,-0.6948089599609375
20220227-1527,2022-02-27 15:27:17Z,u01, 18,40,movements,el-ex, rt, d,296851.8040224167, -1.1636455761211775, 0.16505438498491395, 0.09894292408777111, 0.9924768209457397, -0.5136680603027344, -1.0994678735733032, -0.9057733416557312, -0.16430597007274628, -0.3906128406524658, -0.7115667462348938, -0.09181278944015503, -0.2916533946990967, 0.09586920571582164, -0.5436015761153143, 0.8338404969435006,-0.004071662977173096,-1.617340087890625,-0.2561187744140625,-0.6822662353515625
20220227-1527,2022-02-27 15:27:17Z,u01, 19,40,movements,el-ex, rt, d,296851.82896841667, -1.180298770436645, 0.20193373863638392, 0.11337379882213955, 1.113128662109375, -0.6162579655647278, -1.2064152956008911, -0.9059300422668457, -0.20056414604187012, -0.37291401624679565, -0.6118617057800293, 0.03489948809146881, -0.20849168300628662, 0.11498005782245935, -0.5480169456264089, 0.8284763619871047,-0.009167262840869606,-1.529541015625,-0.17694091796875,-0.6020965576171875
20220227-1527,2022-02-27 15:27:17Z,u01, 20,40,movements,el-ex, rt, d,296851.8539134167, -1.198710570340119, 0.2407938227293793, 0.1248677456118451, 0.894702672958374, -0.6248881816864014, -1.3149888515472412, -0.9046942591667175, -0.23847362399101257, -0.3530701696872711, -0.5718529224395752, 0.004113897681236267, -0.12803944945335388, 0.133920378641403, -0.552747904303745, 0.822352441978066,-0.016475974543931737,-1.4765472412109375,-0.2343597412109375,-0.481109619140625
20220227-1527,2022-02-27 15:27:17Z,u01, 21,40,movements,el-ex, rt, d,296851.8788594167, -1.2159428248543787, 0.27729157208688177, 0.1310062925937356, 0.6609398126602173, -0.6511666774749756, -1.2440910339355469, -0.901877760887146, -0.2737516760826111, -0.33418044447898865, -0.355171799659729, 0.07575362920761108, -0.05172961950302124, 0.15022420897282926, -0.5570838950950411, 0.8163558716987074,-0.02556065511443606,-1.2963104248046875,-0.2108306884765625,-0.401824951171875
20220227-1527,2022-02-27 15:27:17Z,u01, 22,40,movements,el-ex, rt, d,296851.9038044167, -1.2341743798107987, 0.3113190698150569, 0.13905540869003447, 0.7925218939781189, -0.5912839770317078, -1.1004064083099365, -0.8985040783882141, -0.3063145577907562, -0.3144230842590332, -0.2450506091117859, 0.1316014528274536, 0.0008854866027832031, 0.16584790341885025, -0.5615006004964042, 0.8099925719558827,-0.03352037863514051,-1.1435546875,-0.174713134765625,-0.31353759765625
20220227-1527,2022-02-27 15:27:17Z,u01, 23,40,movements,el-ex, rt, d,296851.92874941666, -1.2516446278705702, 0.34228075706404304, 0.1507574051560843, 0.8274083733558655, -0.5154911875724792, -0.9779338836669922, -0.8944228887557983, -0.3356364071369171, -0.29556044936180115, -0.14163362979888916, 0.17450359463691711, 0.030652642250061035, 0.18110597724023447, -0.5651728933693109, 0.80388636696063,-0.039332357964524556,-1.0528411865234375,-0.1674041748046875,-0.263458251953125
20220227-1527,2022-02-27 15:27:17Z,u01, 24,40,movements,el-ex, rt, d,296851.9536954167, -1.2673871463112294, 0.36974754232146273, 0.16138210491537905, 0.6032975912094116, -0.45938563346862793, -0.8718656301498413, -0.8898289203643799, -0.36138004064559937, -0.27858373522758484, -0.09181469678878784, 0.27077338099479675, 0.07367345690727234, 0.19456467808194533, -0.5682013058506158, 0.7983098717540885,-0.04464460069789733,-0.9816436767578125,-0.090606689453125,-0.2049102783203125
20220227-1527,2022-02-27 15:27:17Z,u01, 25,40,movements,el-ex, rt, d,296851.9786414167, -1.2785640017336808, 0.391538165257107, 0.1668334336738677, 0.21422840654850006, -0.2590978741645813, -0.6698486804962158, -0.885134756565094, -0.381610631942749, -0.2662888467311859, -0.11529242992401123, 0.3080785572528839, 0.14824679493904114, 0.20432579740404244, -0.5701811558958954, 0.7941272981610282,-0.05006237081479337,-0.9980621337890625,-0.0709228515625,-0.1363983154296875
20220227-1527,2022-02-27 15:27:17Z,u01, 26,40,movements,el-ex, rt, d,296852.00358641666, -1.279181555559777, 0.40350217607738403, 0.15895637880365315, -0.43482506275177, -0.03363138437271118, -0.41448715329170227, -0.8808628916740417, -0.39264166355133057, -0.2644105553627014, -0.0736047625541687, 0.38170117139816284, 0.18697217106819153, 0.20669639235687276, -0.5701502623867132, 0.7930807613727975,-0.0568164264485998,-0.9544677734375,-0.0109405517578125,-0.0774383544921875
20220227-1527,2022-02-27 15:27:17Z,u01, 27,40,movements,el-ex, rt, d,296852.0285324167, -1.2702127120382902, 0.4072445761016634, 0.1413389258510959, -0.7065833806991577, 0.16154709458351135, -0.23233550786972046, -0.877046525478363, -0.39608076214790344, -0.2718632221221924, 0.07028377056121826, 0.555199384689331, 0.23910260200500488, 0.20340623898262974, -0.5680618766092, 0.7948808361056299,-0.06400123096459248,-0.8324737548828125,0.1343536376953125,-0.0330352783203125
20220227-1527,2022-02-27 15:27:17Z,u01, 28,40,movements,el-ex, rt, d,296852.0534774167, -1.2556298339776544, 0.4043223277640285, 0.12126951303542022, -0.7275040745735168, 0.35653021931648254, 0.015214168466627598, -0.8740854859352112, -0.3933958113193512, -0.28498125076293945, 0.14566141366958618, 0.5370572805404663, 0.2859424948692322, 0.1970696583651274, -0.5645112217913084, 0.7985209564935749,-0.06967737092149168,-0.728424072265625,0.1436614990234375,0.0009613037109375
20220227-1527,2022-02-27 15:27:17Z,u01, 29,40,movements,el-ex, rt, d,296852.0784234167, -1.2363503296269602, 0.393557434723388, 0.10476945276302285, -0.6522246599197388, 0.6589757204055786, 0.4175140857696533, -0.872378945350647, -0.3834763169288635, -0.3031517565250397, 0.3492923974990845, 0.44004061818122864, 0.2856651544570923, 0.18887085496518174, -0.559242271603972, 0.8040469213111465,-0.0713056319356859,-0.5725860595703125,0.0728759765625,-0.0013275146484375
20220227-1527,2022-02-27 15:27:17Z,u01, 30,40,movements,el-ex, rt, d,296852.10336841666, -1.2140245805940308, 0.37569027289498463, 0.09784308542734722, -0.3282325863838196, 0.8934271931648254, 0.7872517704963684, -0.8716756701469421, -0.3669147491455078, -0.32489240169525146, 0.48523157835006714, 0.3144092559814453, 0.3446219861507416, 0.1806022548400867, -0.5522106651840375, 0.8111510383940886,-0.06693399596015781,-0.386444091796875,-0.0525054931640625,0.0197296142578125
20220227-1527,2022-02-27 15:27:17Z,u01, 31,40,movements,el-ex, rt, d,296852.1283144167, -1.194704529988669, 0.35292382411713175, 0.11105410582732704, 0.611338198184967, 1.1581525802612305, 1.2875094413757324, -0.8727810978889465, -0.34564289450645447, -0.34465083479881287, 0.5747464299201965, 0.046250224113464355, 0.286285936832428, 0.17565455285995016, -0.5448119445304908, 0.8182131684797028,-0.05341032124941886,-0.310089111328125,-0.27490234375,-0.0033721923828125
20220227-1527,2022-02-27 15:27:17Z,u01, 32,40,movements,el-ex, rt, d,296852.1532594167, -1.1745535221857195, 0.3226399410614016, 0.14195140724677927, 0.42472872138023376, 1.1304688453674316, 1.7808657884597778, -0.8749171495437622, -0.3170713782310486, -0.36604031920433044, 0.8379299640655518, 0.10949084162712097, 0.2903720438480377, 0.17215705776519064, -0.536042704379535, 0.8258869946814693,-0.030507678531501325,-0.0369873046875,-0.20758056640625,-0.0756683349609375
20220227-1527,2022-02-27 15:27:17Z,u01, 33,40,movements,el-ex, rt, d,296852.1782054167, -1.157391572524355, 0.2835169859378682, 0.16025041322746303, -0.3330236077308655, 0.6583254933357239, 1.6311017274856567, -0.8791989684104919, -0.27973395586013794, -0.3856915235519409, 0.9559507966041565, 0.03440317511558533, 0.3669537901878357, 0.1612374451043877, -0.5302421316956668, 0.8323048803570935,-0.010689952119144308,0.1019439697265625,-0.2242889404296875,-0.0201568603515625
20220227-1527,2022-02-27 15:27:17Z,u01, 34,40,movements,el-ex, rt, d,296852.20315091667, -1.1487360768914088, 0.25200891694019295, 0.18848157478236055, 1.5887686014175415, 0.7908602356910706, 1.4618045091629028, -0.883432149887085, -0.2493499219417572, -0.3967016339302063, 0.8802431225776672, 0.00298154354095459, 0.04509332776069641, 0.15575773304999896, -0.5266770504701968, 0.8356091143316633,0.01040033871382079,-0.0031890869140625,-0.246368408203125,-0.3516082763671875
20220227-1527,2022-02-27 15:27:17Z,u01, 35,40,movements,el-ex, rt, d,296852.2280969167, -1.141660084727391, 0.24384891090298977, 0.24819977376345378, 1.6670126914978027, 1.0118850469589233, 0.9781268835067749, -0.8824239373207092, -0.24143944680690765, -0.40377601981163025, 0.8218007683753967, 0.25627100467681885, 0.39158421754837036, 0.16793909901433396, -0.5195271372350215, 0.8369175609135717,0.03817212766379702,0.0001068115234375,0.033905029296875,-0.101531982421875
20220227-1527,2022-02-27 15:27:17Z,u01, 36,40,movements,el-ex, rt, d,296852.2530419167, -1.116792830279511, 0.23172492432524724, 0.272621467875981, 0.0896836370229721, 1.2325927019119263, 0.8435589075088501, -0.8746778964996338, -0.22965668141841888, -0.42684486508369446, 0.6348249912261963, -0.02487519383430481, 0.45135045051574707, 0.1686493964467074, -0.5080698284930759, 0.8429286890658505,0.05379392935561422,-0.2398529052734375,-0.2545318603515625,0.024505615234375
20220227-1527,2022-02-27 15:27:17Z,u01, 37,40,movements,el-ex, rt, d,296852.27798791666, -1.0938950602810282, 0.22399524937119053, 0.2942166247403628, 1.2724900245666504, 0.9651593565940857, 0.23455357551574707, -0.8662269115447998, -0.2221268266439438, -0.4475608766078949, 0.6496131420135498, 0.2187698930501938, -0.14351886510849, 0.170183246427014, -0.4972496609488854, 0.8481175027035239,0.06691201669943397,-0.208465576171875,-0.10601806640625,-0.56170654296875
20220227-1527,2022-02-27 15:27:17Z,u01, 38,40,movements,el-ex, rt, d,296852.3029329167, -1.085801719562386, 0.24476981469867776, 0.32679983978908594, 1.349513292312622, 0.44911736249923706, -0.538034975528717, -0.8583080172538757, -0.24233300983905792, -0.4523075520992279, 0.5069743990898132, 0.26906639337539673, -0.10376852750778198, 0.18654616353267728, -0.48892408112636565, 0.8487496203171783,0.07601278684885082,-0.3513336181640625,0.0267333984375,-0.5560760498046875
20220227-1527,2022-02-27 15:27:17Z,u01, 39,40,movements,el-ex, rt, d,296852.3278789167, -1.079226957051028, 0.2644774415629978, 0.3350327492394205, 0.2876332998275757, 0.19508521258831024, -0.37720388174057007, -0.8509395718574524, -0.2614049017429352, -0.4555979073047638, 0.1391170620918274, -0.4505091607570648, -0.1294393539428711, 0.1964554690912061, -0.4833283545512855, 0.8498087247025414,0.07499480159978827,-0.673919677734375,-0.5742950439453125,-0.52008056640625
20220227-1527,2022-02-27 15:27:17Z,u01, 40,40,movements,el-ex, rt, d,296852.3528239167, -1.0780798287281446, 0.27044522846060465, 0.3326078469797047, -0.18988332152366638, -0.20055373013019562, -0.2811119854450226, -0.8490267992019653, -0.2671605050563812, -0.4558277130126953, 0.23452484607696533, -0.4186457693576813, -0.09800535440444946, 0.19829595177408083, -0.482457113077017, 0.8500908161612357,0.0725231576062128,-0.614501953125,-0.6858062744140625,-0.5538330078125
20220227-1527,2022-02-27 15:27:17Z,u01, 41,40,movements,el-ex, rt, d,296852.37776991667, -1.0830604254848926, 0.2770419189931216, 0.32836627964710796, 0.18062767386436462, -0.20976713299751282, -0.29495924711227417, -0.8497110605239868, -0.2735115587711334, -0.45075762271881104, 0.1449686884880066, -0.3430808484554291, -0.05819934606552124, 0.2001722678947997, -0.48430594603476473, 0.8489322382824795,0.06850403098755686,-0.6923980712890625,-0.6234893798828125,-0.528533935546875
20220227-1527,2022-02-27 15:27:17Z,u01, 42,40,movements,el-ex, rt, d,296852.4027149167, -1.087751921742216, 0.2861721967290617, 0.33160731549026407, 0.3191702961921692, -0.08259306848049164, -0.21902497112751007, -0.8495694994926453, -0.28228217363357544, -0.44558778405189514, 0.12776780128479004, -0.30273982882499695, 0.02806156873703003, 0.20488019398317028, -0.48500537607291133, 0.8475278769302275,0.06701078456397641,-0.7218017578125,-0.58502197265625,-0.4175262451171875
20220227-1527,2022-02-27 15:27:17Z,u01, 43,40,movements,el-ex, rt, d,296852.4276609167, -1.0914822311680117, 0.2954559906915118, 0.3369175851047637, 0.3773486614227295, -0.11645456403493881, -0.3438355326652527, -0.8488638401031494, -0.29117611050605774, -0.44118791818618774, 0.15967011451721191, -0.15544864535331726, -0.034825265407562256, 0.21010769468531687, -0.4850368994804772, 0.8462748703166366,0.06642959686271022,-0.6929931640625,-0.4773406982421875,-0.48358154296875
20220227-1527,2022-02-27 15:27:17Z,u01, 44,40,movements,el-ex, rt, d,296852.4526059167, -1.0963689493005206, 0.30570224348357206, 0.33670816107606405, -0.06297304481267929, -0.2776852548122406, -0.36680155992507935, -0.8483110070228577, -0.3009629249572754, -0.435648649930954, 0.14906173944473267, -0.1437849998474121, -0.03697705268859863, 0.21441342946282427, -0.48600674336802563, 0.8448910053184279,0.06311540206549993,-0.699249267578125,-0.4447479248046875,-0.472625732421875
20220227-1527,2022-02-27 15:27:17Z,u01, 45,40,movements,el-ex, rt, d,296852.4775519167, -1.1016487214983286, 0.3104156799644815, 0.3272272325045293, -0.31855034828186035, -0.33797577023506165, -0.2708643972873688, -0.8493245840072632, -0.30545446276664734, -0.4305175542831421, 0.15027368068695068, -0.19057825207710266, 0.0015624761581420898, 0.2141894812463408, -0.48873724312792477, 0.8437866346086649,0.05729660244365614,-0.693115234375,-0.49713134765625,-0.4345245361328125
20220227-1527,2022-02-27 15:27:17Z,u01, 46,40,movements,el-ex, rt, d,296852.5024969167, -1.1075571567902776, 0.31233780873710343, 0.31938512098726685, -0.05589576065540314, -0.3364664316177368, -0.1816512942314148, -0.8513266444206238, -0.3072841763496399, -0.4252287745475769, 0.144264817237854, -0.15405011177062988, 0.007244706153869629, 0.21321482358929067, -0.49185877045708903, 0.842509174947441,0.05284719802714011,-0.707061767578125,-0.461334228515625,-0.4179840087890625
20220227-1527,2022-02-27 15:27:17Z,u01, 47,40,movements,el-ex, rt, d,296852.5274429167, -1.1150053393619708, 0.3175045248797388, 0.32000571188120375, 0.2966598570346832, -0.21811027824878693, -0.17777353525161743, -0.853033185005188, -0.3121967911720276, -0.4181717336177826, 0.10048496723175049, -0.07244676351547241, 0.038563549518585205, 0.21566701235284447, -0.4943701710934732, 0.8405310374407492,0.05092625725898586,-0.74267578125,-0.3850555419921875,-0.3889007568359375
20220227-1527,2022-02-27 15:27:17Z,u01, 48,40,movements,el-ex, rt, d,296852.55238791666, -1.1207520916858253, 0.3255268973505843, 0.32774795238448856, 0.4929808974266052, -0.09539981186389923, -0.10311393439769745, -0.8531395196914673, -0.31980806589126587, -0.41215988993644714, 0.09224474430084229, -0.09350675344467163, 0.042149484157562256, 0.2209872261052838, -0.49506029609590213, 0.8387127425901453,0.05138924410018009,-0.760894775390625,-0.4133148193359375,-0.3700103759765625
20220227-1527,2022-02-27 15:27:17Z,u01, 49,40,movements,el-ex, rt, d,296852.5773339167, -1.127679262477167, 0.33360482557470006, 0.34295579065120474, 0.7833210229873657, -0.06700079143047333, 0.040201276540756226, -0.8536123633384705, -0.327451229095459, -0.4051193296909332, 0.14093536138534546, -0.12747427821159363, 0.015989691019058228, 0.22820163430521057, -0.49534265466622857, 0.8363955009427952,0.05479278511155833,-0.720367431640625,-0.4591522216796875,-0.4035797119140625
20220227-1527,2022-02-27 15:27:17Z,u01, 50,40,movements,el-ex, rt, d,296852.6022789167, -1.1345082625539444, 0.3397791375921095, 0.3597113893173303, 0.3998214602470398, -0.01840263232588768, 0.06133772060275078, -0.8545101881027222, -0.3332788646221161, -0.3984186053276062, 0.09347820281982422, -0.11728265881538391, 0.0839959979057312, 0.23502884709992503, -0.4955321743960059, 0.8340807160275372,0.05931723129872846,-0.7610321044921875,-0.4505615234375,-0.314422607421875
20220227-1527,2022-02-27 15:27:17Z,u01, 51,40,movements,el-ex, rt, d,296852.6272249167, -1.1376039780481328, 0.3423395555553769, 0.36836830244201874, 0.3351418972015381, 0.024192433804273605, -0.05998584255576134, -0.8549622297286987, -0.33569180965423584, -0.3954119086265564, 0.0769471526145935, -0.07667693495750427, 0.10348072648048401, 0.23829220856712663, -0.4954905303733797, 0.8329943021674071,0.06185819490671868,-0.805419921875,-0.4644317626953125,-0.262359619140625
20220227-1527,2022-02-27 15:27:17Z,u01, 52,40,movements,el-ex, rt, d,296852.65216991666, -1.1400792058379465, 0.3517072868035311, 0.3757222636695186, 0.5070341229438782, 0.006223419681191444, -0.33125635981559753, -0.8530433177947998, -0.3445010781288147, -0.39196422696113586, 0.15980607271194458, 0.10174903273582458, 0.06832540035247803, 0.2439268875732759, -0.4944871641364082, 0.8319445453634329,0.06205034837124451,-0.6932373046875,-0.2427520751953125,-0.323638916015625
20220227-1527,2022-02-27 15:27:17Z,u01, 53,40,movements,el-ex, rt, d,296852.6771159167, -1.1433613487615057, 0.364936630722817, 0.3889587439949784, 0.8085882663726807, 0.06769270449876785, -0.203566774725914, -0.8501031398773193, -0.35689011216163635, -0.38723909854888916, 0.12204527854919434, -0.002133965492248535, 0.04802095890045166, 0.2525520568064471, -0.492542290114536, 0.8304137630919447,0.06350247479383536,-0.7270355224609375,-0.32635498046875,-0.3471221923828125
20220227-1527,2022-02-27 15:27:17Z,u01, 54,40,movements,el-ex, rt, d,296852.7020609167, -1.1466339101999439, 0.37489478186737185, 0.4013366352286183, 0.2077338546514511, 0.00035387836396694183, -0.17513221502304077, -0.8480847477912903, -0.3661746084690094, -0.3829733431339264, 0.11477786302566528, -0.0810147225856781, 0.107643723487854, 0.25963757425247713, -0.4910210354896902, 0.8289757531753292,0.06546754813531408,-0.733306884765625,-0.4471893310546875,-0.27532958984375
20220227-1527,2022-02-27 15:27:17Z,u01, 55,40,movements,el-ex, rt, d,296852.7270069167, -1.1455649410778181, 0.37680301184632964, 0.393659175094044, -0.5913002490997314, -0.12590211629867554, -0.18076859414577484, -0.8470367789268494, -0.36794963479042053, -0.3835907280445099, 0.08798831701278687, -0.07702714204788208, 0.11007693409919739, 0.258471070672925, -0.4913220351540886, 0.8294361943297075,0.06189512067548664,-0.7559051513671875,-0.4681854248046875,-0.2645263671875
20220227-1527,2022-02-27 15:27:17Z,u01, 56,40,movements,el-ex, rt, d,296852.75195191667, -1.1424994667344972, 0.3746622995358191, 0.37589073636642517, -0.6563205718994141, -0.1634252667427063, -0.2265067845582962, -0.8465715646743774, -0.3659582734107971, -0.38651177287101746, 0.09123098850250244, 0.02406984567642212, 0.03359121084213257, 0.2531632304492492, -0.49259769647215673, 0.8307679835411874,0.05550324126034434,-0.755340576171875,-0.341888427734375,-0.3529205322265625
20220227-1527,2022-02-27 15:27:18Z,u01, 57,40,movements,el-ex, rt, d,296852.7768979167, -1.1420661169538198, 0.3747931856711974, 0.3608848956006014, -0.46490055322647095, -0.18846943974494934, -0.22931063175201416, -0.8463602066040039, -0.36608007550239563, -0.38685861229896545, 0.08380234241485596, 0.010916531085968018, 0.04739636182785034, 0.24950161653328579, -0.494287001608686, 0.8312641064953219,0.049286545640259805,-0.7644500732421875,-0.370269775390625,-0.3598480224609375
20220227-1527,2022-02-27 15:27:18Z,u01, 58,40,movements,el-ex, rt, d,296852.8018429167, -1.1420946665856193, 0.3746246043644551, 0.34679680502560206, -0.47235631942749023, -0.21825182437896729, -0.21532316505908966, -0.8464273810386658, -0.3659231960773468, -0.38686010241508484, 0.11434131860733032, -0.0021035373210906982, 0.06486916542053223, 0.24594712444795336, -0.49606447422457634, 0.8315888814952399,0.04347276987983284,-0.732086181640625,-0.3680267333984375,-0.321990966796875
20220227-1527,2022-02-27 15:27:18Z,u01, 59,40,movements,el-ex, rt, d,296852.82678891666, -1.1413070232164084, 0.3727408286208076, 0.3306925661821566, -0.7422977685928345, -0.22914788126945496, -0.13390794396400452, -0.8467476963996887, -0.3641694188117981, -0.3878130316734314, 0.1146920919418335, -0.010342270135879517, 0.04941883683204651, 0.24117763627168445, -0.4979225118240847, 0.8321710550297996,0.037388022414473365,-0.7491912841796875,-0.3946990966796875,-0.32366943359375
20220227-1527,2022-02-27 15:27:18Z,u01, 60,40,movements,el-ex, rt, d,296852.8517339167, -1.1410968590579065, 0.368502159331566, 0.3080112785713333, -0.9690737128257751, -0.4025907814502716, -0.2950291931629181, -0.8480618000030518, -0.3602185547351837, -0.38863053917884827, 0.17095309495925903, 0.07416203618049622, 0.04237809777259827, 0.23381255237173207, -0.501015388335326, 0.8327462726854079,0.029135346581378563,-0.6771087646484375,-0.2860565185546875,-0.34625244140625
20220227-1527,2022-02-27 15:27:18Z,u01, 61,40,movements,el-ex, rt, d,296852.8766799167, -1.139938889140415, 0.3645775117613777, 0.27790312015908536, -0.9864516854286194, -0.33788976073265076, -0.29036620259284973, -0.848889172077179, -0.3565545976161957, -0.39019975066185, 0.0644654631614685, 0.060946106910705566, 0.07626545429229736, 0.2246523154281717, -0.504412000678843, 0.8335364021246021,0.017800091104766935,-0.76348876953125,-0.2571258544921875,-0.2982330322265625
20220227-1527,2022-02-27 15:27:18Z,u01, 62,40,movements,el-ex, rt, d,296852.9016249167, -1.139554218413678, 0.363896182698595, 0.25808082351014683, -0.4974835515022278, -0.25411856174468994, -0.29119935631752014, -0.8489595651626587, -0.35591796040534973, -0.39062774181365967, 0.06006497144699097, 0.04286864399909973, 0.05989348888397217, 0.21936473432065637, -0.5065226974008262, 0.8337976437441843,0.00976621776645642,-0.7888946533203125,-0.31304931640625,-0.3307342529296875
20220227-1527,2022-02-27 15:27:18Z,u01, 63,40,movements,el-ex, rt, d,296852.92657091666, -1.141280014355913, 0.3669953490759683, 0.24841665738218283, -0.10475724190473557, -0.1220482662320137, -0.2344946563243866, -0.8486255407333374, -0.35881248116493225, -0.38870081305503845, 0.0839618444442749, 0.11049094796180725, 0.012556374073028564, 0.21817311781479082, -0.5079862970947404, 0.8332636662302765,0.004703845784798322,-0.77081298828125,-0.273162841796875,-0.3576202392578125
20220227-1527,2022-02-27 15:27:18Z,u01, 64,40,movements,el-ex, rt, d,296852.9515159167, -1.1432689391692619, 0.3720989252991908, 0.24323233435578173, -0.030324021354317665, -0.19627028703689575, -0.30996784567832947, -0.8477195501327515, -0.36357152462005615, -0.3862479031085968, 0.13185346126556396, 0.13383516669273376, 0.06834626197814941, 0.2189212350598644, -0.508870842063195, 0.832540208669095,0.0009333822298606687,-0.7158660888671875,-0.229736328125,-0.317901611328125
20220227-1527,2022-02-27 15:27:18Z,u01, 65,40,movements,el-ex, rt, d,296852.9764619167, -1.1466717598338079, 0.3776097426758919, 0.23785845377128387, -0.17588947713375092, -0.26458436250686646, -0.25644150376319885, -0.8471900224685669, -0.36869966983795166, -0.38253068923950195, 0.1118079423904419, 0.13118135929107666, 0.028084278106689453, 0.21977577279128602, -0.5103266192519476, 0.8314176363943416,-0.0031830177581515517,-0.7310028076171875,-0.2398529052734375,-0.3521575927734375
20220227-1527,2022-02-27 15:27:18Z,u01, 66,40,movements,el-ex, rt, d,296853.0014069167, -1.1482513020257543, 0.3802309044689693, 0.2289543174424915, -0.3841414451599121, -0.08127786964178085, -0.17408877611160278, -0.8469088077545166, -0.3711349070072174, -0.3807944059371948, 0.023422539234161377, 0.07218471169471741, 0.059718936681747437, 0.2185544697829503, -0.5116998495092769, 0.8308650749691929,-0.007774421375098595,-0.823486328125,-0.2989501953125,-0.321075439453125
20220227-1527,2022-02-27 15:27:18Z,u01, 67,40,movements,el-ex, rt, d,296853.02635291667, -1.1455303842284783, 0.37988486626352663, 0.21822751895675738, -0.3171640932559967, -0.07071110606193542, -0.17266784608364105, -0.8459864854812622, -0.3708135485649109, -0.3831503391265869, 0.11168783903121948, 0.12215632200241089, 0.012483805418014526, 0.2156833168851756, -0.5117670751446689, 0.8315256686929012,-0.011842416517564291,-0.7583770751953125,-0.2744903564453125,-0.36029052734375
20220227-1527,2022-02-27 15:27:18Z,u01, 68,40,movements,el-ex, rt, d,296853.0512979167, -1.1479486526256262, 0.3827179455144437, 0.21169528819052474, -0.0009239558130502701, -0.3107340931892395, -0.22632016241550446, -0.8459492325782776, -0.3734431564807892, -0.38067081570625305, 0.1303272843360901, 0.1407008171081543, -0.028157949447631836, 0.21513895460764965, -0.5132054438493052, 0.8307180378129612,-0.015591743895235988,-0.7156219482421875,-0.2327423095703125,-0.4088287353515625
20220227-1527,2022-02-27 15:27:18Z,u01, 69,40,movements,el-ex, rt, d,296853.0762439167, -1.152624355256676, 0.3877050766419523, 0.20915711994143824, -0.14020060002803802, -0.09282779693603516, -0.1742345094680786, -0.8460073471069336, -0.3780648112297058, -0.3759502172470093, -0.009324073791503906, 0.12423485517501831, 0.022755026817321777, 0.21646176526079952, -0.514945810999537, 0.8292359937876217,-0.018515585469103257,-0.85638427734375,-0.25958251953125,-0.367889404296875
20220227-1527,2022-02-27 15:27:18Z,u01, 70,40,movements,el-ex, rt, d,296853.1011889167, -1.1510065638402571, 0.3877774260820171, 0.19939277880387624, -0.3650286793708801, -0.10995758324861526, -0.14398746192455292, -0.8453730940818787, -0.37813180685043335, -0.377307265996933, 0.07983964681625366, 0.12054818868637085, 0.039202988147735596, 0.21399257087605866, -0.5153188755616964, 0.829548983266768,-0.02241055095269001,-0.765533447265625,-0.2575836181640625,-0.338104248046875
20220227-1527,2022-02-27 15:27:18Z,u01, 71,40,movements,el-ex, rt, d,296853.1261349167, -1.1513951638683289, 0.3875741125939735, 0.19106311349486613, -0.2125445008277893, -0.21416953206062317, -0.11812371760606766, -0.845589816570282, -0.37794357538223267, -0.3770099878311157, 0.11245077848434448, 0.07235580682754517, 0.031215310096740723, 0.21175720942024862, -0.5163854017207857, 0.8293592384636445,-0.025850825194158822,-0.723663330078125,-0.29364013671875,-0.354705810546875
20220227-1527,2022-02-27 15:27:18Z,u01, 72,40,movements,el-ex, rt, d,296853.1510799167, -1.1540491000700788, 0.3874417999182247, 0.18495696266408349, -0.24469411373138428, -0.15646056830883026, -0.0028326758183538914, -0.8466331958770752, -0.37782105803489685, -0.37478479743003845, 0.0047446489334106445, -0.0015887618064880371, 0.05972132086753845, 0.21008826698446315, -0.5181414039031105, 0.8285970890495955,-0.02862540810753228,-0.841888427734375,-0.3794097900390625,-0.3150634765625
20220227-1527,2022-02-27 15:27:18Z,u01, 73,40,movements,el-ex, rt, d,296853.1760259167, -1.1554069920187562, 0.3841518868678202, 0.17810563819932404, -0.2897801399230957, -0.14918972551822662, 0.038002774119377136, -0.8482739329338074, -0.37477296590805054, -0.374134361743927, 0.0034253597259521484, 0.039873093366622925, 0.05423387885093689, 0.20695888561233688, -0.5197122584410785, 0.8283263169844256,-0.03070351753278705,-0.8418731689453125,-0.347625732421875,-0.3054046630859375
20220227-1527,2022-02-27 15:27:18Z,u01, 74,40,movements,el-ex, rt, d,296853.2009705417, -1.1552011291366897, 0.3803886953269836, 0.17209547611827142, -0.28517159819602966, -0.03316359966993332, 0.052561938762664795, -0.8494812250137329, -0.3712814152240753, -0.3748757541179657, 0.01777040958404541, 0.08461451530456543, 0.05865257978439331, 0.2038744401299421, -0.5205740417682125, 0.8284955627819346,-0.03214074106510645,-0.8317108154296875,-0.2866668701171875,-0.31622314453125
20220227-1527,2022-02-27 15:27:18Z,u01, 75,40,movements,el-ex, rt, d,296853.2259165417, -1.1553808147954017, 0.3769133692653167, 0.16685923162483754, -0.22585949301719666, -0.13009807467460632, 0.02785586193203926, -0.8507240414619446, -0.36805227398872375, -0.37524160742759705, 0.06053239107131958, 0.10656237602233887, 0.07114917039871216, 0.2010979105222367, -0.5214775479873217, 0.8285571148160016,-0.03337636805741301,-0.7835845947265625,-0.271240234375,-0.312042236328125
20220227-1527,2022-02-27 15:27:18Z,u01, 76,40,movements,el-ex, rt, d,296853.25086154166, -1.1557925878514548, 0.3744614200569418, 0.1603175251037998, -0.23328958451747894, -0.030323272570967674, -0.0007390310056507587, -0.8517017364501953, -0.3657713234424591, -0.37525397539138794, -0.07261466979980469, 0.0967589020729065, 0.09221866726875305, 0.19838815850078112, -0.5225085202870826, 0.8284744085234425,-0.0354561669940619,-0.92431640625,-0.269012451171875,-0.2830352783203125
20220227-1527,2022-02-27 15:27:18Z,u01, 77,40,movements,el-ex, rt, d,296853.2758075417, -1.152294116890706, 0.3720529124024477, 0.15661638263778346, -0.02305535599589348, 0.16505907475948334, 0.043030355125665665, -0.8511861562728882, -0.36352866888046265, -0.3785882294178009, -0.059412598609924316, 0.15133994817733765, 0.08766412734985352, 0.19650553298678924, -0.5216238656176192, 0.8294570983431379,-0.03598650202015602,-0.9386749267578125,-0.219024658203125,-0.285430908203125
20220227-1527,2022-02-27 15:27:18Z,u01, 78,40,movements,el-ex, rt, d,296853.3007525417, -1.150388354589157, 0.37219938336216485, 0.16193296888925593, 0.35019412636756897, 0.061829887330532074, 0.10064411163330078, -0.8504144549369812, -0.3636651039123535, -0.3801879584789276, 0.09734749794006348, 0.1489892303943634, 0.03932186961174011, 0.19798316433011998, -0.5202967269738351, 0.8300378206113125,-0.03363280091367854,-0.7530670166015625,-0.2146759033203125,-0.3408660888671875
20220227-1527,2022-02-27 15:27:18Z,u01, 79,40,movements,el-ex, rt, d,296853.3256985417, -1.154538541007721, 0.37566972197767645, 0.17010577707553204, 0.16285458207130432, -0.053451426327228546, -0.08386820554733276, -0.8508256673812866, -0.3668956160545349, -0.37614279985427856, 0.01871812343597412, 0.09034532308578491, 0.06764054298400879, 0.2014529919703419, -0.5209081434226879, 0.8288984043085004,-0.03160586136306692,-0.7799072265625,-0.2656097412109375,-0.3137054443359375
20220227-1527,2022-02-27 15:27:18Z,u01, 80,40,movements,el-ex, rt, d,296853.35064354166, -1.1521374358774903, 0.3728669002308356, 0.16748827436453992, -0.309289813041687, 0.17295314371585846, 0.0956527516245842, -0.8508561849594116, -0.3642868399620056, -0.37860119342803955, -0.0850873589515686, 0.0611099898815155, 0.08151254057884216, 0.19967139658952973, -0.5204140107988776, 0.8296365092229306,-0.031683880628094074,-0.935943603515625,-0.3031768798828125,-0.297088623046875
20220227-1527,2022-02-27 15:27:18Z,u01, 81,40,movements,el-ex, rt, d,296853.3755895417, -1.147033136401916, 0.36632744570684916, 0.1611998662830833, -0.28569334745407104, -0.02068256214261055, 0.17889204621315002, -0.851065993309021, -0.3581889867782593, -0.3839106261730194, 0.0847848653793335, 0.09331166744232178, 0.01771491765975952, 0.19545621177657693, -0.5194627607258595, 0.8312224810202405,-0.03200786095130448,-0.7814788818359375,-0.2660369873046875,-0.3497314453125
20220227-1527,2022-02-27 15:27:18Z,u01, 82,40,movements,el-ex, rt, d,296853.4005345417, -1.1508851957273145, 0.36008006089940886, 0.1596570947796775, -0.03309910371899605, -0.2639341652393341, 0.24199877679347992, -0.8545652031898499, -0.3523491621017456, -0.38153427839279175, 0.012173295021057129, 0.0640953779220581, -0.05004531145095825, 0.19244735925185105, -0.5217249016873883, 0.8305337022900697,-0.03132026593996201,-0.8423919677734375,-0.2882537841796875,-0.43157958984375
20220227-1527,2022-02-27 15:27:18Z,u01, 83,40,movements,el-ex, rt, d,296853.42548054166, -1.1578901569005309, 0.3543336679623895, 0.16221398167821166, -0.06976263970136642, -0.195573091506958, 0.24097919464111328, -0.8590572476387024, -0.346965491771698, -0.37634503841400146, -0.10192596912384033, 0.0975911021232605, -0.022367119789123535, 0.19067071910883787, -0.5248544174958611, 0.8290420045127431,-0.029358078021965106,-0.960418701171875,-0.259185791015625,-0.4024200439453125
20220227-1527,2022-02-27 15:27:18Z,u01, 84,40,movements,el-ex, rt, d,296853.45042554167, -1.1601557137512877, 0.34610842345243353, 0.1579348578164903, -0.5422772169113159, -0.1608889400959015, 0.22640763223171234, -0.8624952435493469, -0.33923956751823425, -0.3755244314670563, -0.012199580669403076, 0.11649179458618164, -0.004053235054016113, 0.18616619439670037, -0.5268585532386014, 0.8288041266825655,-0.02908651559683262,-0.87469482421875,-0.222747802734375,-0.37957763671875
20220227-1527,2022-02-27 15:27:18Z,u01, 85,40,movements,el-ex, rt, d,296853.4753715417, -1.159138163404741, 0.33413825604072167, 0.1435696719000928, -0.7470359206199646, -0.11799972504377365, 0.237043559551239, -0.8657722473144531, -0.3279552161693573, -0.3779996335506439, 0.0187874436378479, 0.0721873939037323, 0.010567992925643921, 0.17751206564627536, -0.528667803344335, 0.8294559657096867,-0.03166291207778732,-0.837554931640625,-0.2444305419921875,-0.36773681640625
20220227-1527,2022-02-27 15:27:18Z,u01, 86,40,movements,el-ex, rt, d,296853.5003165417, -1.1584353250109602, 0.3224959431994034, 0.13114563723542189, -0.36838850378990173, -0.14884957671165466, 0.2613195478916168, -0.8689457178115845, -0.31693482398986816, -0.38011255860328674, -0.03164315223693848, 0.04525211453437805, -0.03597933053970337, 0.16947576953949034, -0.5303033830966345, 0.8300178442985072,-0.03356473988006825,-0.9005889892578125,-0.2716827392578125,-0.4160919189453125
20220227-1527,2022-02-27 15:27:18Z,u01, 87,40,movements,el-ex, rt, d,296853.52526254166, -1.162515582215434, 0.31692718320613994, 0.13383090585864998, 0.2730095684528351, -0.0948127806186676, 0.2075025886297226, -0.8720958232879639, -0.31164824962615967, -0.3772588074207306, -0.05005377531051636, 0.04463469982147217, -0.0478358268737793, 0.1678450327095282, -0.5321641103435256, 0.8292477383973224,-0.03126669515549696,-0.927703857421875,-0.2728118896484375,-0.4499053955078125
20220227-1527,2022-02-27 15:27:18Z,u01, 88,40,movements,el-ex, rt, d,296853.5502075417, -1.1664330713663165, 0.3133014700304208, 0.1432855396138637, 0.26044657826423645, 0.005314815789461136, 0.40430134534835815, -0.8746000528335571, -0.3082010746002197, -0.37428155541419983, 0.01817011833190918, 0.06381633877754211, -0.01645025610923767, 0.16882557999765063, -0.53325147798854, 0.8285100457106873,-0.026679429988783532,-0.8564300537109375,-0.244384765625,-0.3907318115234375
20220227-1527,2022-02-27 15:27:18Z,u01, 89,40,movements,el-ex, rt, d,296853.5751535417, -1.170225506295393, 0.3042433243738088, 0.15399191519201508, 0.13707605004310608, -0.02389713190495968, 0.5662329792976379, -0.8785481452941895, -0.29957133531570435, -0.3720354735851288, 0.03170061111450195, -0.027897536754608154, 0.033717572689056396, 0.16794512560989536, -0.534580863224706, 0.8280190016495906,-0.020060413276080935,-0.8361053466796875,-0.316619873046875,-0.3604736328125
20220227-1527,2022-02-27 15:27:18Z,u01, 90,40,movements,el-ex, rt, d,296853.6000985417, -1.1722224973974409, 0.29047041312446387, 0.16159231213529002, -0.05126924812793732, 0.04121895506978035, 0.6390887498855591, -0.8830082416534424, -0.28640297055244446, -0.37184634804725647, -0.006731688976287842, -0.04372093081474304, -0.00750240683555603, 0.16434872595612135, -0.5357857002728134, 0.8280985978250428,-0.013260026257038149,-0.889739990234375,-0.3301239013671875,-0.3793487548828125
20220227-1527,2022-02-27 15:27:18Z,u01, 91,40,movements,el-ex, rt, d,296853.62504454167, -1.1721660645565588, 0.2745316454549452, 0.16419065467884542, -0.22272798418998718, 0.04208121821284294, 0.6005644202232361, -0.8870819807052612, -0.2710961401462555, -0.37362080812454224, -0.04689323902130127, 0.021080881357192993, -0.017431437969207764, 0.15854476215467758, -0.5367058354643521, 0.8287040221812643,-0.007753583283083676,-0.9193878173828125,-0.2525787353515625,-0.3873748779296875
20220227-1527,2022-02-27 15:27:18Z,u01, 92,40,movements,el-ex, rt, d,296853.6499895417, -1.169891193735126, 0.25770840790305516, 0.16304195370175004, -0.38096535205841064, 0.12390197813510895, 0.6324440240859985, -0.8903031349182129, -0.2548653185367584, -0.3773643970489502, -0.06526315212249756, 0.009671837091445923, 0.010146349668502808, 0.15136789849474103, -0.5370340423596908, 0.8298618414581651,-0.003385652423077923,-0.95556640625,-0.2451934814453125,-0.367218017578125
20220227-1527,2022-02-27 15:27:18Z,u01, 93,40,movements,el-ex, rt, d,296853.6749355417, -1.1661616546611702, 0.2370605253198798, 0.15903883620203565, -0.4890970289707184, 0.1068374440073967, 0.7492755055427551, -0.8935372233390808, -0.23484638333320618, -0.38267263770103455, -0.052751779556274414, 0.09383992850780487, -0.012118011713027954, 0.14183233471243967, -0.5371659680548859, 0.8314658096617938,0.0009411372604907209,-0.9330902099609375,-0.1564483642578125,-0.3780059814453125
20220227-1527,2022-02-27 15:27:18Z,u01, 94,40,movements,el-ex, rt, d,296853.6998805417, -1.161239066038615, 0.2163086422121553, 0.1571740154867764, -0.24379868805408478, 0.25890934467315674, 0.7040066123008728, -0.8959208726882935, -0.2146257609128952, -0.38892367482185364, -0.13140761852264404, 0.0950426310300827, -0.04053494334220886, 0.1327878554873449, -0.5365683124417187, 0.8333204983881719,0.006228401745020207,-1.0273284912109375,-0.1195831298828125,-0.4294586181640625
20220227-1527,2022-02-27 15:27:18Z,u01, 95,40,movements,el-ex, rt, d,296853.7248265417, -1.15581288204315, 0.20166554529723724, 0.16108932637643492, -0.029311753809452057, 0.19267132878303528, 0.4701490104198456, -0.8965774774551392, -0.200301393866539, -0.39500418305397034, -0.04714810848236084, 0.084212526679039, -0.10345470905303955, 0.1277704060253816, -0.5349510491874615, 0.8350762853883789,0.012239131366028555,-0.961578369140625,-0.11981201171875,-0.5022735595703125
20220227-1527,2022-02-27 15:27:18Z,u01, 96,40,movements,el-ex, rt, d,296853.7497715417, -1.1534183589842149, 0.193375251012798, 0.1673525337916981, 0.22681570053100586, 0.14021676778793335, 0.40017589926719666, -0.8971161246299744, -0.1921723186969757, -0.39780935645103455, -0.07447189092636108, 0.02693493664264679, -0.08767950534820557, 0.1260001117274456, -0.5340592607634066, 0.8358265233294151,0.01727911891204037,-0.971588134765625,-0.1652374267578125,-0.4854888916015625
20220227-1527,2022-02-27 15:27:19Z,u01, 97,40,movements,el-ex, rt, d,296853.7747175417, -1.1520262308525884, 0.1854774484404957, 0.18222056502458475, 0.5661491751670837, 0.16374872624874115, 0.625385046005249, -0.8979201316833496, -0.1844158172607422, -0.3996626138687134, -0.09411478042602539, -0.056596770882606506, -0.14461839199066162, 0.12668572146717785, -0.5330285327942947, 0.8361630175766971,0.02574347776811553,-1.005767822265625,-0.2371978759765625,-0.5321502685546875
20220227-1527,2022-02-27 15:27:19Z,u01, 98,40,movements,el-ex, rt, d,296853.79966254166, -1.1514245368452927, 0.17699360324048724, 0.19867748199425855, 0.20734302699565887, 0.14134667813777924, 0.5000523328781128, -0.8990761041641235, -0.1760709434747696, -0.40082547068595886, -0.05903846025466919, -0.05949424207210541, -0.05405429005622864, 0.12755222642805056, -0.5322759631631823, 0.8361751292733854,0.03498284452296069,-0.9581146240234375,-0.235565185546875,-0.4548797607421875
20220227-1527,2022-02-27 15:27:19Z,u01, 99,40,movements,el-ex, rt, d,296853.8246085417, -1.1481586112140096, 0.1653779995425232, 0.1990611118201563, -0.49728134274482727, 0.13792657852172852, 0.378482460975647, -0.8995669484138489, -0.16462518274784088, -0.4045712649822235, -0.05397003889083862, -0.054307907819747925, -0.014404594898223877, 0.1227886862988522, -0.5316364419827732, 0.8371391017864105,0.03851996679214065,-0.955352783203125,-0.2194671630859375,-0.4254913330078125
20220227-1527,2022-02-27 15:27:19Z,u01, 100,40,movements,el-ex, rt, d,296853.8495535417, -1.1436910357799663, 0.15157115184619613, 0.1941808685278631, -0.09734313935041428, 0.14462576806545258, 0.49085986614227295, -0.8997336030006409, -0.15099145472049713, -0.40948864817619324, -0.06907737255096436, -0.07352638244628906, -0.06963735818862915, 0.11567831565846412, -0.530918261876876, 0.8385130135781242,0.04049972691759218,-0.96881103515625,-0.224517822265625,-0.4791259765625
20220227-1527,2022-02-27 15:27:19Z,u01, 101,40,movements,el-ex, rt, d,296853.8744995417, -1.1423653797009703, 0.1442977441299009, 0.21044378387347878, 1.0264252424240112, 0.20882739126682281, 0.5343673825263977, -0.9001651406288147, -0.14379750192165375, -0.41112640500068665, -0.10326802730560303, -0.034898146986961365, -0.09252044558525085, 0.11694127529209769, -0.5298693547098264, 0.8385259634232574,0.04936979538813707,-0.993560791015625,-0.1838226318359375,-0.498870849609375
20220227-1527,2022-02-27 15:27:19Z,u01, 102,40,movements,el-ex, rt, d,296853.89944454166, -1.1382904328412238, 0.14478784101940498, 0.24108419841748144, 0.8696443438529968, 0.4602658748626709, 0.4788246154785156, -0.8984182476997375, -0.1442824900150299, -0.4147615134716034, -0.18555080890655518, -0.06549534201622009, 0.010617256164550781, 0.12512118105658995, -0.52627363635366, 0.8387462921985432,0.06233198373006965,-1.0839691162109375,-0.20977783203125,-0.404144287109375
20220227-1527,2022-02-27 15:27:19Z,u01, 103,40,movements,el-ex, rt, d,296853.9243905417, -1.1287314407167501, 0.13474251629261327, 0.25209888859755597, -0.397590696811676, 0.3859950602054596, 0.6136588454246521, -0.8956775069236755, -0.13433516025543213, -0.4239290952682495, -0.21371275186538696, -0.27144181728363037, 0.025949299335479736, 0.12351992276120932, -0.5222817989674461, 0.8408498385431435,0.07025732924841344,-1.0987396240234375,-0.382110595703125,-0.3841094970703125
20220227-1527,2022-02-27 15:27:19Z,u01, 104,40,movements,el-ex, rt, d,296853.9493355417, -1.1191380803271023, 0.11147057899633579, 0.24314853770482883, -0.7954164743423462, 0.33940622210502625, 0.7505304217338562, -0.8941404819488525, -0.11123987287282944, -0.433749258518219, -0.2879272699356079, -0.23695041239261627, -0.096585214138031, 0.11113721224999112, -0.5203593898586082, 0.8435084589757659,0.07326713632721615,-1.18206787109375,-0.3481903076171875,-0.53033447265625
20220227-1527,2022-02-27 15:27:19Z,u01, 105,40,movements,el-ex, rt, d,296853.9742805417, -1.1094438138719187, 0.09002288233504542, 0.239967409587373, -0.22727760672569275, 0.38505080342292786, 0.6554574966430664, -0.8918251991271973, -0.08990133553743362, -0.44335702061653137, -0.34988921880722046, -0.09302102774381638, -0.18043753504753113, 0.10095481114841473, -0.517812340919896, 0.8459175652285011,0.07811474427899923,-1.232666015625,-0.2043914794921875,-0.620758056640625
20220227-1527,2022-02-27 15:27:19Z,u01, 106,40,movements,el-ex, rt, d,296853.99922654167, -1.1009536478812285, 0.07800951972702116, 0.24650332240387346, 0.19582338631153107, 0.34506678581237793, 0.43832188844680786, -0.8889278173446655, -0.07793042063713074, -0.45136910676956177, -0.4064822793006897, -0.10606005042791367, -0.17390558123588562, 0.09724240037585899, -0.5146448917987224, 0.84767428635536,0.08445565401892074,-1.29541015625,-0.183990478515625,-0.625274658203125
20220227-1527,2022-02-27 15:27:19Z,u01, 107,40,movements,el-ex, rt, d,296854.0241715417, -1.0943668948788643, 0.07171324877247659, 0.25495671585748875, 0.12656332552433014, 0.23082511126995087, 0.33610332012176514, -0.8863540291786194, -0.07165179401636124, -0.4574304223060608, -0.5048355460166931, -0.12904703617095947, -0.18131780624389648, 0.09646927327234817, -0.5118383294088048, 0.8488904802764454,0.09000097615520763,-1.3725128173828125,-0.200927734375,-0.6352386474609375
20220227-1527,2022-02-27 15:27:19Z,u01, 108,40,movements,el-ex, rt, d,296854.0491175417, -1.0895663481936053, 0.06540489864815154, 0.25814189799716036, -0.15495151281356812, 0.14877937734127045, 0.22303441166877747, -0.8845309615135193, -0.06535827368497849, -0.4618801176548004, -0.5695095062255859, -0.12781798839569092, -0.18974646925926208, 0.09439840133203761, -0.5100479227658814, 0.8498531675109727,0.09321798934512932,-1.45404052734375,-0.19317626953125,-0.6516265869140625
20220227-1527,2022-02-27 15:27:19Z,u01, 109,40,movements,el-ex, rt, d,296854.0740625417, -1.0881306122642784, 0.060768740733142666, 0.25503457576275346, -0.19651518762111664, -0.033897764980793, -0.02955976128578186, -0.8841257691383362, -0.060731347650289536, -0.4632852375507355, -0.5944507718086243, -0.11939864605665207, -0.26227015256881714, 0.09157837728712026, -0.5098732990366966, 0.8502724905650814,0.09316216789015913,-1.4702606201171875,-0.191009521484375,-0.7104949951171875
20220227-1527,2022-02-27 15:27:19Z,u01, 110,40,movements,el-ex, rt, d,296854.09900854167, -1.0911665838376825, 0.0643351261053118, 0.25120504708396957, 0.08556579053401947, -0.22035066783428192, -0.3403809368610382, -0.8853304386138916, -0.06429075449705124, -0.46049606800079346, -0.6240383982658386, -0.06337952613830566, -0.33105361461639404, 0.09224870221493187, -0.5111185177510316, 0.8497427221557533,0.09047272675030421,-1.509368896484375,-0.1276702880859375,-0.7915496826171875
20220227-1527,2022-02-27 15:27:19Z,u01, 111,40,movements,el-ex, rt, d,296854.1239535417, -1.0989852398631503, 0.07911491242641093, 0.252953633466254, 0.5535517334938049, -0.4055940806865692, -0.6357759237289429, -0.8879603743553162, -0.07903240621089935, -0.45307859778404236, -0.6918430328369141, -0.058586619794368744, -0.37112489342689514, 0.0992816152774538, -0.5134236736616391, 0.8479213481642406,0.08699793245981124,-1.5725860595703125,-0.135284423828125,-0.82916259765625
20220227-1527,2022-02-27 15:27:19Z,u01, 112,40,movements,el-ex, rt, d,296854.1488995417, -1.1118621035384884, 0.10374436511054465, 0.2606350953197711, 0.8274709582328796, -0.5625417828559875, -0.8518660068511963, -0.891704797744751, -0.10355836898088455, -0.4406110346317291, -0.681827187538147, -0.06668394058942795, -0.3786943852901459, 0.11215385204204034, -0.5168326589015139, 0.8446298814147397,0.08310100091785755,-1.5735321044921875,-0.1702423095703125,-0.819305419921875
20220227-1527,2022-02-27 15:27:19Z,u01, 113,40,movements,el-ex, rt, d,296854.17384454166, -1.1289863576815051, 0.1331444842103972, 0.26800706835880106, 0.720069408416748, -0.7292993664741516, -1.0013138055801392, -0.8959785103797913, -0.1327514499425888, -0.4237920343875885, -0.6677574515342712, -0.1121521145105362, -0.3133295774459839, 0.1270163607516352, -0.5215082209928132, 0.8401858227902256,0.07735567780206287,-1.560394287109375,-0.2188262939453125,-0.7528228759765625
20220227-1527,2022-02-27 15:27:19Z,u01, 114,40,movements,el-ex, rt, d,296854.198790125, -1.1489859618772535, 0.16318932262639682, 0.2722164714225214, 0.6150177717208862, -0.8262505531311035, -1.017303705215454, -0.900227963924408, -0.16246597468852997, -0.40397343039512634, -0.694986879825592, -0.17681321501731873, -0.28006285429000854, 0.14127634198974354, -0.5273085271572026, 0.8349467813080551,0.06964658538709029,-1.59521484375,-0.3392791748046875,-0.6840362548828125
20220227-1527,2022-02-27 15:27:19Z,u01, 115,40,movements,el-ex, rt, d,296854.22373512504, -1.169845155374272, 0.1931865941265965, 0.2772288949777981, 0.7338731288909912, -0.7582888603210449, -1.0201326608657837, -0.9035630226135254, -0.19198718667030334, -0.38303378224372864, -0.7230086326599121, -0.21584972739219666, -0.23000335693359375, 0.15557207496858583, -0.5331795493777918, 0.8292661098743443,0.06192484236221324,-1.627349853515625,-0.402008056640625,-0.630035400390625
20220227-1527,2022-02-27 15:27:19Z,u01, 116,40,movements,el-ex, rt, d,296854.248681125, -1.190735321038653, 0.2231736219867324, 0.2822317922016654, 0.4700039029121399, -0.8389952182769775, -1.090541958808899, -0.9056115746498108, -0.22132565081119537, -0.36177685856819153, -0.6910222768783569, -0.14778447151184082, -0.22733449935913086, 0.16966608037389044, -0.5388181437639272, 0.8233976246549131,0.05389540729747083,-1.5966339111328125,-0.369110107421875,-0.589111328125
20220227-1527,2022-02-27 15:27:19Z,u01, 117,40,movements,el-ex, rt, d,296854.273626125, -1.21174875644994, 0.2514429987514682, 0.27949116542266694, 0.21067771315574646, -0.8607768416404724, -1.0810227394104004, -0.9067915678024292, -0.2488018423318863, -0.3403332531452179, -0.7152940034866333, -0.03273807466030121, -0.221876859664917, 0.18076443253278357, -0.5451216267065534, 0.8175131214174808,0.04288286142529957,-1.6219024658203125,-0.287933349609375,-0.55859375
20220227-1527,2022-02-27 15:27:19Z,u01, 118,40,movements,el-ex, rt, d,296854.29857212503, -1.2313478705668084, 0.27938753535690486, 0.2758862784870372, 0.32313090562820435, -0.8036791086196899, -1.1118940114974976, -0.9063755869865417, -0.2757669985294342, -0.32005611062049866, -0.6494563221931458, -0.005086302757263184, -0.21235352754592896, 0.19123088083109963, -0.5508200164999711, 0.8118096091734881,0.03151587444733889,-1.5558319091796875,-0.280853271484375,-0.53240966796875
20220227-1527,2022-02-27 15:27:19Z,u01, 119,40,movements,el-ex, rt, d,296854.32351712504, -1.2513048600408674, 0.3089713489747338, 0.277942210160391, 0.6159998774528503, -0.7844752073287964, -1.0690052509307861, -0.9044385552406311, -0.3040788471698761, -0.2992109954357147, -0.49596744775772095, 0.0441758930683136, -0.19331225752830505, 0.20368049433242175, -0.5557956129507591, 0.8056888557840567,0.021705238371670876,-1.4295806884765625,-0.26385498046875,-0.4882354736328125
20220227-1527,2022-02-27 15:27:19Z,u01, 120,40,movements,el-ex, rt, d,296854.348463125, -1.2730519308973296, 0.3399092722471851, 0.28496246320433705, 0.5988035202026367, -0.7950807809829712, -1.1589854955673218, -0.9013031125068665, -0.33340156078338623, -0.27657973766326904, -0.3761170506477356, 0.17577823996543884, -0.16294971108436584, 0.21782564409655836, -0.5605908622035586, 0.7988243066879714,0.013028469136163956,-1.2774200439453125,-0.157623291015625,-0.4395294189453125
20220227-1527,2022-02-27 15:27:19Z,u01, 121,40,movements,el-ex, rt, d,296854.373408125, -1.2941573768817463, 0.3725472899175339, 0.28879761789705416, 0.3997116982936859, -0.8043361306190491, -1.2529575824737549, -0.8959901332855225, -0.3639891743659973, -0.2543885111808777, -0.29515665769577026, 0.2673095166683197, -0.1299651563167572, 0.2314714905921139, -0.5650015050068689, 0.7919524938741441,0.002335997521164035,-1.2006072998046875,-0.0997467041015625,-0.4031219482421875
20220227-1527,2022-02-27 15:27:19Z,u01, 122,40,movements,el-ex, rt, d,296854.39835412503, -1.315153458959847, 0.40530213061496356, 0.2879114344545483, 0.22587427496910095, -0.8903895616531372, -1.2898772954940796, -0.8891171813011169, -0.39429643750190735, -0.2323809415102005, -0.2667970657348633, 0.26629045605659485, -0.050379678606987, 0.24353804809879603, -0.5696479147935039, 0.7849074689300967,-0.010521205468625006,-1.155914306640625,-0.1280059814453125,-0.2827606201171875
20220227-1527,2022-02-27 15:27:19Z,u01, 123,40,movements,el-ex, rt, d,296854.42329912505, -1.3338853567244495, 0.4356999149805277, 0.28319254023928386, 0.04227767884731293, -0.775715172290802, -1.145126461982727, -0.8812521696090698, -0.4220450222492218, -0.21277405321598053, -0.2835274934768677, 0.2932913303375244, 0.0008752346038818359, 0.25335192758728065, -0.5739562468959448, 0.7783357578228107,-0.024095304357178493,-1.17889404296875,-0.1425933837890625,-0.209991455078125
20220227-1527,2022-02-27 15:27:19Z,u01, 124,40,movements,el-ex, rt, d,296854.448245125, -1.344648342868136, 0.46291558718706954, 0.2638517699477591, -1.1938068866729736, -0.714286744594574, -1.3587229251861572, -0.8719715476036072, -0.44655874371528625, -0.20062653720378876, -0.2517009377479553, 0.43845629692077637, 0.15337002277374268, 0.25765634148602334, -0.5773213517315148, 0.7736890267604082,-0.04145608612369489,-1.1236724853515625,-0.0081024169921875,-0.0472564697265625
20220227-1527,2022-02-27 15:27:19Z,u01, 125,40,movements,el-ex, rt, d,296854.473190125, -1.3229897589626622, 0.4833237960461557, 0.1967224350663811, -2.797003984451294, 0.08243636786937714, -1.1406892538070679, -0.8584069609642029, -0.4647248089313507, -0.21718278527259827, -0.3065863251686096, 0.3737976551055908, 0.4119611978530884, 0.24649856873338052, -0.5750191873459303, 0.776879262909797,-0.07106333021481165,-1.177764892578125,-0.0721435546875,0.2263946533203125
20220227-1527,2022-02-27 15:27:19Z,u01, 126,40,movements,el-ex, rt, d,296854.49813612504, -1.2824834249689934, 0.4827214331861285, 0.13159892289744327, -1.0365800857543945, 0.4605824649333954, 0.02443363517522812, -0.8491761684417725, -0.46419134736061096, -0.2518455982208252, 0.001733541488647461, 0.41788095235824585, 0.1780540943145752, 0.22932048577094125, -0.5670002795677792, 0.7858427631682756,-0.09150936545216076,-0.847442626953125,-0.0463104248046875,-0.07379150390625
20220227-1527,2022-02-27 15:27:19Z,u01, 127,40,movements,el-ex, rt, d,296854.523081125, -1.2789595169389112, 0.47801449702364857, 0.14682895491097178, 1.5107401609420776, 0.5167958736419678, 0.5105233192443848, -0.850366473197937, -0.4600171446800232, -0.2554622292518616, 0.41022682189941406, 0.45688915252685547, 0.10272178053855896, 0.23197706272675664, -0.5643186439519066, 0.7878593947820909,-0.08371734652744162,-0.4601593017578125,-0.001190185546875,-0.2086334228515625
20220227-1527,2022-02-27 15:27:19Z,u01, 128,40,movements,el-ex, rt, d,296854.548027125, -1.2819033954657155, 0.4711039010572878, 0.19637952688149554, 1.497568130493164, 1.180853247642517, 1.1374117136001587, -0.854141891002655, -0.4538702070713043, -0.25385740399360657, 0.45028746128082275, 0.2668432295322418, 0.4954955577850342, 0.2431595189239302, -0.5603077285787504, 0.7893198272384154,-0.06247366393899856,-0.4038543701171875,-0.1870269775390625,0.24163818359375
20220227-1527,2022-02-27 15:27:19Z,u01, 129,40,movements,el-ex, rt, d,296854.572972125, -1.257644587215218, 0.44043399408709705, 0.23037695627533142, -0.005439744330942631, 1.831215500831604, 1.9019516706466675, -0.8605753183364868, -0.4263320863246918, -0.2786595821380615, 0.9196726083755493, 0.4578414559364319, 0.445148229598999, 0.24145807684535497, -0.5498801708182248, 0.7987277707614433,-0.03692944487365707,-0.0600128173828125,-0.036834716796875,0.1698150634765625
20220227-1527,2022-02-27 15:27:19Z,u01, 130,40,movements,el-ex, rt, d,296854.59791812504, -1.2195144745277688, 0.38781349580235636, 0.23809735945550706, -0.6774430871009827, 1.3737889528274536, 2.022536277770996, -0.8692055940628052, -0.37816518545150757, -0.3185480535030365, 1.3231087923049927, 0.49764150381088257, 0.3680017590522766, 0.22358969165842704, -0.5391971976549064, 0.8118357880694305,-0.01402915611667277,0.4539031982421875,0.119476318359375,0.0494537353515625
20220227-1527,2022-02-27 15:27:19Z,u01, 131,40,movements,el-ex, rt, d,296854.622863125, -1.1959838343271696, 0.34280802559248713, 0.24135882885576893, -0.06583704054355621, 0.6958824992179871, 1.4419233798980713, -0.8764302134513855, -0.33613306283950806, -0.34479644894599915, 1.2268331050872803, 0.26682764291763306, 0.10535553097724915, 0.20672464758828285, -0.5337290475889963, 0.8199944296950106,0.0027102383713045186,0.399810791015625,-0.059661865234375,-0.1529083251953125
20220227-1527,2022-02-27 15:27:19Z,u01, 132,40,movements,el-ex, rt, d,296854.647809125, -1.1877122082140261, 0.32133841368757277, 0.26588589483917596, 1.163675308227539, 0.6400402784347534, 0.8431997895240784, -0.8800399899482727, -0.31583675742149353, -0.35465019941329956, 1.0217331647872925, 0.44837456941604614, -0.0016731023788452148, 0.2046342392274692, -0.5299053922304048, 0.8227614986822915,0.01971446114703218,0.141693115234375,0.132537841796875,-0.3563232421875
20220227-1527,2022-02-27 15:27:19Z,u01, 133,40,movements,el-ex, rt, d,296854.67275412503, -1.183046824244787, 0.32169558452093455, 0.302552201224835, 1.1209934949874878, 0.6999055743217468, 0.2204984724521637, -0.8782714009284973, -0.3161756098270416, -0.3587093949317932, 0.7147429585456848, 0.23948493599891663, 0.19002342224121094, 0.2143746484317006, -0.5241076362079862, 0.8234781218484056,0.03519319948826788,-0.1127471923828125,-0.0043182373046875,-0.19488525390625
20220227-1527,2022-02-27 15:27:19Z,u01, 134,40,movements,el-ex, rt, d,296854.697700125, -1.1732292517522154, 0.32397931219031834, 0.32139696278332475, 0.3853638768196106, 0.4938737750053406, 0.1725737601518631, -0.8740394115447998, -0.31834137439727783, -0.3670338988304138, 0.6208351254463196, -0.09474456310272217, 0.2443685233592987, 0.2200001951777767, -0.5177672841515867, 0.8256116181306222,0.04338635472210156,-0.253204345703125,-0.4130859375,-0.1226654052734375
20220227-1527,2022-02-27 15:27:19Z,u01, 135,40,movements,el-ex, rt, d,296854.722645125, -1.1663928257384293, 0.32221232352234047, 0.32686596159668585, 0.24250611662864685, 0.1798025369644165, 0.07544895261526108, -0.8720256090164185, -0.31666579842567444, -0.37322136759757996, 0.543793797492981, -0.24098190665245056, 0.16240590810775757, 0.22055245434584417, -0.5145346773000761, 0.8272918122503818,0.04689351028162608,-0.3128814697265625,-0.5550079345703125,-0.1871185302734375
20220227-1527,2022-02-27 15:27:19Z,u01, 136,40,movements,el-ex, rt, d,296854.747591125, -1.165366923759609, 0.3244164914175118, 0.3350910010125669, 0.23416562378406525, 0.173695906996727, -0.004615528509020805, -0.8709987998008728, -0.31875577569007874, -0.3738395869731903, 0.3866390585899353, -0.16220128536224365, 0.22683638334274292, 0.22352001569970786, -0.5129512724521346, 0.8273091320222955,0.04979472115863548,-0.4843597412109375,-0.48095703125,-0.147003173828125
20220227-1527,2022-02-27 15:27:20Z,u01, 137,40,movements,el-ex, rt, d,296854.77253612503, -1.1598763536638403, 0.32456857970952474, 0.3321566973636169, -0.286775678396225, 0.18935109674930573, -0.10893600434064865, -0.8688884973526001, -0.318899929523468, -0.37859678268432617, 0.23908203840255737, -0.2079555094242096, 0.22701600193977356, 0.2226938127577449, -0.5109883250967248, 0.828783820459712,0.04914998542100102,-0.6089019775390625,-0.4892578125,-0.100860595703125
20220227-1527,2022-02-27 15:27:20Z,u01, 138,40,movements,el-ex, rt, d,296854.797482125, -1.1528377374422991, 0.3254304042767647, 0.3257346168241547, 0.12232060730457306, 0.18910261988639832, -0.14160527288913727, -0.865950882434845, -0.3197166323661804, -0.3845915198326111, 0.17663496732711792, -0.23953327536582947, 0.12387979030609131, 0.22123249925422173, -0.5086849969515123, 0.830713145250759,0.0470279855576094,-0.6893157958984375,-0.5592498779296875,-0.260711669921875
20220227-1527,2022-02-27 15:27:20Z,u01, 139,40,movements,el-ex, rt, d,296854.822427125, -1.1511739788505442, 0.3320383671429459, 0.3363568482525378, 0.6564191579818726, 0.23319491744041443, -0.027355462312698364, -0.8633614182472229, -0.32597073912620544, -0.38516250252723694, 0.09007656574249268, -0.26315587759017944, 0.05014050006866455, 0.22653463250749944, -0.5060640330394077, 0.8307233071773907,0.049800479212215754,-0.756591796875,-0.5782012939453125,-0.348785400390625
20220227-1527,2022-02-27 15:27:20Z,u01, 140,40,movements,el-ex, rt, d,296854.847373125, -1.1476344857795309, 0.3349442847019535, 0.344438020321214, -0.10565659403800964, 0.194615438580513, 0.0709102526307106, -0.8611254096031189, -0.32871654629707336, -0.3878253102302551, 0.06800413131713867, -0.28567859530448914, 0.11508971452713013, 0.22964623151320546, -0.5033387984988329, 0.8313417162348551,0.05276012236960914,-0.793121337890625,-0.6143951416015625,-0.272735595703125
20220227-1527,2022-02-27 15:27:20Z,u01, 141,40,movements,el-ex, rt, d,296854.87231812504, -1.1423418643261845, 0.3296802069696059, 0.33341049908993, -0.7314907908439636, -0.05903887003660202, -0.07810366153717041, -0.8606228828430176, -0.32374048233032227, -0.39309099316596985, 0.1385921835899353, -0.10272744297981262, -0.07262253761291504, 0.22462474241152525, -0.5029892992722609, 0.8330807274973335,0.05022036615363917,-0.721343994140625,-0.45562744140625,-0.450164794921875
20220227-1527,2022-02-27 15:27:20Z,u01, 142,40,movements,el-ex, rt, d,296854.897264125, -1.1393335884391178, 0.32410848271377884, 0.31593257686914583, -0.5234973430633545, -0.1202000305056572, -0.06668169796466827, -0.8610615134239197, -0.3184638023376465, -0.39642634987831116, 0.11937755346298218, -0.12578055262565613, -0.11900028586387634, 0.2179084302498005, -0.5042843860911077, 0.8343899870424416,0.044793586476177816,-0.7416839599609375,-0.444244384765625,-0.5154266357421875
20220227-1527,2022-02-27 15:27:20Z,u01, 143,40,movements,el-ex, rt, d,296854.922209125, -1.1389246832166293, 0.32117445195131145, 0.3051160105294934, -0.4473688006401062, -0.09339778125286102, -0.058904003351926804, -0.861744225025177, -0.31568118929862976, -0.39716780185699463, 0.1298258900642395, -0.16326171159744263, -0.05588090419769287, 0.21398370590118393, -0.5055957551907709, 0.8348008838653324,0.04112613526622394,-0.723358154296875,-0.4780731201171875,-0.47381591796875
20220227-1527,2022-02-27 15:27:20Z,u01, 144,40,movements,el-ex, rt, d,296854.94715512503, -1.137218813882772, 0.31748378074085315, 0.2904080179781555, -0.6080459356307983, -0.1474819928407669, -0.15728136897087097, -0.8621169328689575, -0.3121770918369293, -0.39912402629852295, 0.16533958911895752, -0.10785162448883057, -0.016601741313934326, 0.20873369320684607, -0.5068216902541399, 0.8356157591603989,0.0361717393397048,-0.69677734375,-0.4200286865234375,-0.4157257080078125
20220227-1527,2022-02-27 15:27:20Z,u01, 145,40,movements,el-ex, rt, d,296854.97210012504, -1.1376808638977245, 0.316387810653768, 0.2812855356577298, -0.05166013911366463, -0.07897096872329712, -0.017684459686279297, -0.8626112341880798, -0.3111357092857361, -0.39886900782585144, 0.17013686895370483, -0.1883760392665863, -0.04908329248428345, 0.20598239565099896, -0.5080716038704021, 0.8356859656374762,0.03261104968593942,-0.6879119873046875,-0.4826812744140625,-0.45684814453125
20220227-1527,2022-02-27 15:27:20Z,u01, 146,40,movements,el-ex, rt, d,296854.997046125, -1.1386427929457938, 0.3171264228726397, 0.28221380183221406, 0.02908238023519516, 0.029497452080249786, -0.036260273307561874, -0.8627856969833374, -0.3118375539779663, -0.3979427218437195, 0.17606377601623535, -0.19382348656654358, 0.013802647590637207, 0.20653370709378047, -0.5083035170929425, 0.8354055095963056,0.032698208946214946,-0.6867218017578125,-0.5056610107421875,-0.3841400146484375
20220227-1527,2022-02-27 15:27:20Z,u01, 147,40,movements,el-ex, rt, d,296855.021991125, -1.137266604919081, 0.31866375140152714, 0.28015460350950605, 0.006010782904922962, 0.014739876613020897, -0.12710410356521606, -0.8618010878562927, -0.3132978677749634, -0.39892780780792236, 0.19592279195785522, -0.09655323624610901, 0.008669018745422363, 0.20661244050237804, -0.5077867622096601, 0.8357438860023739,0.03156078946061153,-0.666046142578125,-0.3972625732421875,-0.38079833984375
20220227-1527,2022-02-27 15:27:20Z,u01, 148,40,movements,el-ex, rt, d,296855.04693712504, -1.1379514894555807, 0.32302403638815075, 0.2829343932156611, 0.317298948764801, 0.012480849400162697, -0.07225589454174042, -0.860825777053833, -0.3174356520175934, -0.39776065945625305, 0.16258364915847778, -0.15535792708396912, -0.003804802894592285, 0.2090977342381994, -0.5073438725220325, 0.8353983473472368,0.03146205620928616,-0.6982421875,-0.4727935791015625,-0.4015655517578125
20220227-1527,2022-02-27 15:27:20Z,u01, 149,40,movements,el-ex, rt, d,296855.071882125, -1.1382051367408674, 0.3272940049203868, 0.28712367741629935, -0.014578515663743019, 0.06180459260940552, -0.10430850088596344, -0.8596882224082947, -0.321481853723526, -0.3969704806804657, 0.13530772924423218, -0.1295832395553589, 0.04372948408126831, 0.21189404233853762, -0.5065724836272825, 0.83514067803062,0.03201990852421088,-0.7334442138671875,-0.471588134765625,-0.3610687255859375
20220227-1527,2022-02-27 15:27:20Z,u01, 150,40,movements,el-ex, rt, d,296855.096828125, -1.1348110839871117, 0.32904673464514683, 0.27987102936343655, -0.36162078380584717, -0.004294334910809994, -0.18291789293289185, -0.85782390832901, -0.32314103841781616, -0.39964744448661804, 0.17117834091186523, -0.07412156462669373, 0.033039748668670654, 0.21071739757266164, -0.5057414859922091, 0.8360563915599237,0.028870680976371632,-0.6866455078125,-0.3972625732421875,-0.366607666015625
20220227-1527,2022-02-27 15:27:20Z,u01, 151,40,movements,el-ex, rt, d,296855.121773125, -1.1326905287291456, 0.3336857175279627, 0.27200248052052295, -0.18537423014640808, 0.0005827788263559341, -0.12039052695035934, -0.855607807636261, -0.3275276720523834, -0.4008253514766693, 0.07994258403778076, -0.13281476497650146, 0.007285892963409424, 0.21058369041835434, -0.505214633775119, 0.8365467208714175,0.024542566022425938,-0.74749755859375,-0.4672698974609375,-0.3949127197265625
20220227-1527,2022-02-27 15:27:20Z,u01, 152,40,movements,el-ex, rt, d,296855.14671912504, -1.129798230901046, 0.33516003432145375, 0.26720158994456467, -0.25556933879852295, 0.05987126752734184, -0.0006232499144971371, -0.8540073037147522, -0.32892030477523804, -0.40309181809425354, 0.05148661136627197, -0.13323789834976196, 0.009231925010681152, 0.2099372688629553, -0.5043614169459189, 0.8372828245662451,0.02243771472584788,-0.802520751953125,-0.462158203125,-0.39385986328125
20220227-1527,2022-02-27 15:27:20Z,u01, 153,40,movements,el-ex, rt, d,296855.171664125, -1.1259781275046783, 0.3353071831338115, 0.256908858984487, -0.5963781476020813, -0.07767587155103683, -0.133070170879364, -0.8524174690246582, -0.32905927300453186, -0.406330406665802, 0.13630729913711548, 0.03540387749671936, -0.00968518853187561, 0.2073638813390626, -0.5038204256662365, 0.8383456882627881,0.018484731284131084,-0.7250518798828125,-0.3257598876953125,-0.406494140625
20220227-1527,2022-02-27 15:27:20Z,u01, 154,40,movements,el-ex, rt, d,296855.19661050005, -1.1233401273149626, 0.3330426600472418, 0.23609175089951315, -0.7754814028739929, -0.2638692557811737, -0.3527376353740692, -0.8520123362541199, -0.3269200026988983, -0.40889906883239746, 0.1543651819229126, 0.11720320582389832, -0.008520424365997314, 0.20116906540584467, -0.5050559144580828, 0.8392476200572088,0.010633782515722445,-0.6976470947265625,-0.209716796875,-0.41741943359375
20220227-1527,2022-02-27 15:27:20Z,u01, 155,40,movements,el-ex, rt, d,296855.2215555, -1.1272024925989848, 0.33699014294535773, 0.22210571635658094, -0.04123156517744064, -0.38609036803245544, -0.4113480746746063, -0.8524129390716553, -0.3306480348110199, -0.4050481617450714, 0.09229642152786255, 0.0793815553188324, -0.07188054919242859, 0.19925666698051225, -0.5077132072023636, 0.8381604921391105,0.0033189042487104525,-0.74755859375,-0.2529144287109375,-0.49676513671875
20220227-1527,2022-02-27 15:27:20Z,u01, 156,40,movements,el-ex, rt, d,296855.2465015, -1.1350436836572753, 0.34738245521161243, 0.21792603618464837, -0.16837330162525177, -0.3267922103404999, -0.45715105533599854, -0.8524015545845032, -0.34043779969215393, -0.39688000082969666, 0.08398425579071045, 0.10441482067108154, 0.017714321613311768, 0.20244008723033705, -0.5104684277852655, 0.8357247931279527,-0.0020269474766044793,-0.7684173583984375,-0.23602294921875,-0.3791656494140625
20220227-1527,2022-02-27 15:27:20Z,u01, 157,40,movements,el-ex, rt, d,296855.27144650003, -1.1358849817643462, 0.3491175558704821, 0.19665445370152634, -1.0467658042907715, -0.3577335774898529, -0.3970908522605896, -0.8521982431411743, -0.34206873178482056, -0.3959132730960846, 0.12450659275054932, 0.0036440491676330566, 0.08857071399688721, 0.19770376545085197, -0.5127929243221615, 0.8353593542573323,-0.011467933622138382,-0.719482421875,-0.300018310546875,-0.2856597900390625
20220227-1527,2022-02-27 15:27:20Z,u01, 158,40,movements,el-ex, rt, d,296855.2963925, -1.1340130912859991, 0.34611839777766806, 0.16604438771751392, -0.9613988995552063, -0.33373135328292847, -0.3698355555534363, -0.8523814082145691, -0.3392489552497864, -0.3979400098323822, 0.08931982517242432, 0.007110893726348877, 0.038290321826934814, 0.18862520783039957, -0.5152189149384838, 0.8357205612532148,-0.02326490003431303,-0.7630615234375,-0.3321380615234375,-0.359649658203125
20220227-1527,2022-02-27 15:27:20Z,u01, 159,40,movements,el-ex, rt, d,296855.3213375, -1.1350298740840281, 0.34861939280534304, 0.1479861005804574, -0.18927688896656036, -0.26804137229919434, -0.386646032333374, -0.8520136475563049, -0.34160056710243225, -0.3967136740684509, 0.07436478137969971, 0.14637964963912964, 0.04086345434188843, 0.18497709956643085, -0.5171330903207482, 0.8350806337560608,-0.031576967211825124,-0.7843780517578125,-0.2026214599609375,-0.3596649169921875
20220227-1527,2022-02-27 15:27:20Z,u01, 160,40,movements,el-ex, rt, d,296855.3462835, -1.13959532355984, 0.357276902009299, 0.14265519311320973, 0.023654058575630188, -0.2380911111831665, -0.4336760938167572, -0.8510972857475281, -0.3497243821620941, -0.39156895875930786, 0.06987780332565308, 0.158272385597229, 0.08314305543899536, 0.1870703049492939, -0.5188643551270069, 0.833335365726699,-0.03656041237424551,-0.781219482421875,-0.1914520263671875,-0.3084259033203125
20220227-1527,2022-02-27 15:27:20Z,u01, 161,40,movements,el-ex, rt, d,296855.37122850004, -1.1427435731014628, 0.36805128534964754, 0.13721187969286044, 0.05002760887145996, -0.1192757785320282, -0.49362197518348694, -0.8488484025001526, -0.3597978949546814, -0.38730090856552124, 0.04863172769546509, 0.1672930121421814, 0.08194202184677124, 0.19000677059421592, -0.5198528312964382, 0.8317954079763671,-0.04203534671931558,-0.79107666015625,-0.17681884765625,-0.30413818359375
20220227-1527,2022-02-27 15:27:20Z,u01, 162,40,movements,el-ex, rt, d,296855.3961735, -1.1430153852911182, 0.3797981140392413, 0.13542150909071665, 0.1887039989233017, -0.005598219111561775, -0.421434611082077, -0.8450495004653931, -0.37073296308517456, -0.38529014587402344, 0.043322205543518066, 0.08652275800704956, 0.06889915466308594, 0.194338395408733, -0.5192181826803344, 0.8309818058994024,-0.04598224556767755,-0.801727294921875,-0.284210205078125,-0.3163909912109375
20220227-1527,2022-02-27 15:27:20Z,u01, 163,40,movements,el-ex, rt, d,296855.4211195, -1.1443512790011394, 0.390653328702403, 0.13490207374652402, 0.08399509638547897, -0.11216180771589279, -0.4013536870479584, -0.841849684715271, -0.38079261779785156, -0.3824736475944519, 0.052283644676208496, 0.06302833557128906, 0.04996931552886963, 0.1986032766492683, -0.5189604201371566, 0.8299456736901922,-0.04926458851289739,-0.789337158203125,-0.3332672119140625,-0.3318634033203125
20220227-1527,2022-02-27 15:27:20Z,u01, 164,40,movements,el-ex, rt, d,296855.4460645, -1.1477534371011666, 0.4002913524277038, 0.13429766961398948, 0.18978159129619598, -0.13582293689250946, -0.35136136412620544, -0.8397604823112488, -0.3896866738796234, -0.3780830502510071, 0.055687546730041504, 0.07758340239524841, 0.02511674165725708, 0.2022866387288694, -0.5196523809289922, 0.8284255909139708,-0.052465671945908954,-0.7840728759765625,-0.312103271484375,-0.35296630859375
20220227-1527,2022-02-27 15:27:20Z,u01, 165,40,movements,el-ex, rt, d,296855.47101050004, -1.14843346550699, 0.4091157794381227, 0.1321160459587115, -0.03870342671871185, -0.02531513199210167, -0.3514956533908844, -0.8368480801582336, -0.39779824018478394, -0.37608760595321655, 0.13717162609100342, 0.11644142866134644, 0.07246816158294678, 0.2052907965270459, -0.519434203816616, 0.82760310735953,-0.05582962434215588,-0.7280731201171875,-0.28448486328125,-0.296234130859375
20220227-1527,2022-02-27 15:27:20Z,u01, 166,40,movements,el-ex, rt, d,296855.4959555, -1.149443177058639, 0.4176370502149008, 0.1261309003219597, -0.04706814885139465, -0.2944486141204834, -0.4793982207775116, -0.8341037631034851, -0.40560173988342285, -0.37384241819381714, 0.19543194770812988, 0.15734121203422546, 0.03949183225631714, 0.2071690800532997, -0.5197689477908939, 0.8265800949961143,-0.06071741867974556,-0.638671875,-0.248260498046875,-0.3343505859375
20220227-1527,2022-02-27 15:27:20Z,u01, 167,40,movements,el-ex, rt, d,296855.5209015, -1.1560506153742223, 0.42907341271103816, 0.12261265549959033, 0.27168890833854675, -0.22675910592079163, -0.4339442551136017, -0.8322557806968689, -0.41602838039398193, -0.36642980575561523, -0.020283281803131104, 0.09792840480804443, 0.052770137786865234, 0.21068120621917863, -0.5219181157569461, 0.823931968271255,-0.06596286234397014,-0.8162689208984375,-0.2887725830078125,-0.324432373046875
20220227-1527,2022-02-27 15:27:20Z,u01, 168,40,movements,el-ex, rt, d,296855.5458465, -1.1603921844934517, 0.44076374509339783, 0.12621039423254787, 0.315421462059021, -0.03879718482494354, -0.3313632905483246, -0.8293222784996033, -0.4266303479671478, -0.3608478903770447, -0.03202110528945923, 0.13761362433433533, 0.0815204381942749, 0.21619965278387676, -0.5223349174140324, 0.8220598897790404,-0.0681289078782149,-0.8613433837890625,-0.2890167236328125,-0.279327392578125
20220227-1527,2022-02-27 15:27:20Z,u01, 169,40,movements,el-ex, rt, d,296855.57079250005, -1.1622555115599293, 0.4515215176634112, 0.12758963769396872, -0.009240807965397835, -0.08642362058162689, -0.4090466797351837, -0.825733482837677, -0.43633508682250977, -0.3574579358100891, 0.05665993690490723, 0.12862631678581238, 0.05299931764602661, 0.22083071089316864, -0.5220199550623105, 0.8208108871800602,-0.07070091105939114,-0.765289306640625,-0.2906036376953125,-0.3051605224609375
20220227-1527,2022-02-27 15:27:20Z,u01, 170,40,movements,el-ex, rt, d,296855.5957375, -1.1620787814593083, 0.4566374964257619, 0.11726375626177973, -0.4460950195789337, -0.2529440224170685, -0.25805437564849854, -0.8236110806465149, -0.44093263149261475, -0.3567119836807251, 0.014208495616912842, 0.02345210313796997, 0.052176982164382935, 0.22020047504710158, -0.5226430463626472, 0.8200808379434695,-0.07631235463339214,-0.8094024658203125,-0.41748046875,-0.304534912109375
20220227-1527,2022-02-27 15:27:20Z,u01, 171,40,movements,el-ex, rt, d,296855.6206835, -1.160776910391259, 0.45601756389649023, 0.10179823438177722, -0.5841546654701233, -0.1555144190788269, -0.13426107168197632, -0.8233963847160339, -0.4403761327266693, -0.3578927516937256, -0.11765885353088379, -0.0052873194217681885, 0.07758882641792297, 0.21595602100445843, -0.523847892659992, 0.8198573398531179,-0.08234247719543336,-0.927734375,-0.4518890380859375,-0.2776031494140625
20220227-1527,2022-02-27 15:27:20Z,u01, 172,40,movements,el-ex, rt, d,296855.64562850003, -1.1566869533258215, 0.45235054388354123, 0.08856268368544523, -0.3305078148841858, -0.04042424261569977, 0.0032848715782165527, -0.8233986496925354, -0.43708086013793945, -0.3619047999382019, -0.0527762770652771, 0.03531694412231445, 0.06560966372489929, 0.2111791875676522, -0.523880665186301, 0.8206690869279705,-0.08634066393368622,-0.8761749267578125,-0.401763916015625,-0.296295166015625
20220227-1527,2022-02-27 15:27:20Z,u01, 173,40,movements,el-ex, rt, d,296855.6705745, -1.1582917589157982, 0.4501879128823755, 0.08556901402316874, 0.04739297553896904, -0.2293281853199005, 0.024998091161251068, -0.8248423337936401, -0.43513473868370056, -0.36096101999282837, 0.11930650472640991, 0.05789169669151306, 0.03504851460456848, 0.20944888485610502, -0.5250244300063204, 0.8202956022219021,-0.08715283378764377,-0.7183990478515625,-0.3664093017578125,-0.343231201171875
20220227-1527,2022-02-27 15:27:20Z,u01, 174,40,movements,el-ex, rt, d,296855.6955195, -1.1641236102712538, 0.4501227192576615, 0.08445174209109382, -0.24354469776153564, -0.16355204582214355, 0.01016008947044611, -0.826959490776062, -0.4350760281085968, -0.3561558127403259, -0.0028287172317504883, 0.0666678249835968, 0.06549113988876343, 0.2088728404770248, -0.5275360005611544, 0.8187174461590199,-0.08820284860367061,-0.8297882080078125,-0.368408203125,-0.2906646728515625
20220227-1527,2022-02-27 15:27:20Z,u01, 175,40,movements,el-ex, rt, d,296855.7204655, -1.1611442704307255, 0.44459768196271576, 0.07707880334721956, -0.4233205020427704, 0.06619900465011597, 0.13541853427886963, -0.8280869722366333, -0.43009471893310547, -0.3595699369907379, -0.046928226947784424, 0.04558849334716797, 0.10624352097511292, 0.20482463690477198, -0.5275053608749347, 0.8196278076747898,-0.08941593745882054,-0.8930816650390625,-0.3949127197265625,-0.2429351806640625
20220227-1527,2022-02-27 15:27:20Z,u01, 176,40,movements,el-ex, rt, d,296855.74541050004, -1.1578967371152429, 0.4378987879244504, 0.06922829085262593, -0.19556523859500885, -0.0747477263212204, 0.1455414742231369, -0.8295353651046753, -0.42403745651245117, -0.3634052574634552, 0.013403773307800293, 0.06934690475463867, 0.03798103332519531, 0.20018247532884867, -0.5274697655688657, 0.820678577688532,-0.09049477243407344,-0.816131591796875,-0.3546905517578125,-0.3254241943359375
20220227-1527,2022-02-27 15:27:21Z,u01, 177,40,movements,el-ex, rt, d,296855.7703565, -1.1616851213235428, 0.43411210551637525, 0.07246505301523709, 0.18242380023002625, -0.10449803620576859, 0.17373117804527283, -0.8323733806610107, -0.42060503363609314, -0.3608962297439575, 0.024557828903198242, 0.14225423336029053, 0.034770071506500244, 0.1993303788852171, -0.5289794790703014, 0.8201293965685265,-0.08852103668792072,-0.7980499267578125,-0.291778564453125,-0.3391876220703125
20220227-1527,2022-02-27 15:27:21Z,u01, 178,40,movements,el-ex, rt, d,296855.7953015, -1.162690688100646, 0.4318313643782719, 0.0741282205560131, -0.2335790991783142, 0.10803160071372986, 0.08498699218034744, -0.8336141705513, -0.4185347557067871, -0.3604387938976288, -0.06772249937057495, 0.11045980453491211, 0.10317564010620117, 0.19880084611094687, -0.5293947684421042, 0.8201186370383529,-0.08732065136030787,-0.901336669921875,-0.308074951171875,-0.25726318359375
20220227-1527,2022-02-27 15:27:21Z,u01, 179,40,movements,el-ex, rt, d,296855.8202475, -1.1561345911162562, 0.42485399342618096, 0.06646707410927956, -0.30231785774230957, 0.14276474714279175, 0.19129152595996857, -0.8338857293128967, -0.41218775510787964, -0.36706387996673584, -0.02225440740585327, 0.07307639718055725, 0.023832619190216064, 0.1942269380389392, -0.5279620791879767, 0.8220703558443512,-0.08793372405772132,-0.8758697509765625,-0.3466033935546875,-0.3203887939453125
20220227-1527,2022-02-27 15:27:21Z,u01, 180,40,movements,el-ex, rt, d,296855.84519250004, -1.154359306660929, 0.4182196629018488, 0.0675800523346412, 0.1767447143793106, 0.005441715940833092, 0.30777066946029663, -0.8357152938842773, -0.4061341881752014, -0.3696417212486267, 0.07530879974365234, 0.11318069696426392, -0.006136476993560791, 0.19189434748276676, -0.527594261598331, 0.8231087947816732,-0.08551490983627041,-0.760406494140625,-0.2929534912109375,-0.3757781982421875
20220227-1527,2022-02-27 15:27:21Z,u01, 181,40,movements,el-ex, rt, d,296855.8701385, -1.1590066877763392, 0.41488176022388346, 0.07567507248282244, 0.04146654158830643, -0.07043620944023132, 0.18224583566188812, -0.838661789894104, -0.4030817151069641, -0.36629441380500793, -0.042334914207458496, 0.03407841920852661, 0.05396223068237305, 0.19247855557611349, -0.5289657834537798, 0.822476552422905,-0.0817288466589311,-0.8409271240234375,-0.363037109375,-0.3149261474609375
20220227-1527,2022-02-27 15:27:21Z,u01, 182,40,movements,el-ex, rt, d,296855.8950835, -1.1577681041250314, 0.4066790835434966, 0.07281256688519566, -0.4259503483772278, 0.07837851345539093, 0.32769539952278137, -0.8412075638771057, -0.39556145668029785, -0.36864763498306274, -0.11138343811035156, 0.008903682231903076, 0.07017043232917786, 0.1884305018406633, -0.5293109927587912, 0.8233061213373609,-0.08056651369937251,-0.9525909423828125,-0.38665771484375,-0.2984771728515625
20220227-1527,2022-02-27 15:27:21Z,u01, 183,40,movements,el-ex, rt, d,296855.92002950003, -1.1528064346320794, 0.39282780051467636, 0.0645272815590652, -0.577207088470459, 0.07495953887701035, 0.424150288105011, -0.8442946076393127, -0.3828023374080658, -0.3750050365924835, 0.020518481731414795, 0.04518646001815796, 0.04665118455886841, 0.1807800157965816, -0.5289764273491478, 0.8253106245909521,-0.07977956106258538,-0.841033935546875,-0.343170166015625,-0.317901611328125
20220227-1527,2022-02-27 15:27:21Z,u01, 184,40,movements,el-ex, rt, d,296855.94497450005, -1.145773314402353, 0.3769544218566641, 0.05310761929058622, -0.703303873538971, 0.14728714525699615, 0.38960230350494385, -0.8470658659934998, -0.36809042096138, -0.38339123129844666, 0.02113819122314453, 0.023211270570755005, 0.07575878500938416, 0.17153050735948672, -0.5280924802623357, 0.8278634551633266,-0.07960987799546387,-0.825927734375,-0.344879150390625,-0.3076324462890625
20220227-1527,2022-02-27 15:27:21Z,u01, 185,40,movements,el-ex, rt, d,296855.9699205, -1.1389310308258933, 0.3608929608923282, 0.04311000774046988, -0.3755472004413605, 0.11053277552127838, 0.45586591958999634, -0.8496829271316528, -0.35310980677604675, -0.39160236716270447, -0.021181941032409668, 0.053610265254974365, -0.01161116361618042, 0.16254409135792347, -0.5270467123544247, 0.8304083877356547,-0.07888661132741243,-0.8656005859375,-0.30926513671875,-0.3823089599609375
20220227-1527,2022-02-27 15:27:21Z,u01, 186,40,movements,el-ex, rt, d,296855.9948655, -1.1369863750594082, 0.34963330985681845, 0.04563922057408255, 0.10619374364614487, 0.14434640109539032, 0.4377620220184326, -0.8524734377861023, -0.3425533175468445, -0.3949001729488373, -0.06586146354675293, 0.09357568621635437, -0.02552524209022522, 0.15862984443532271, -0.526674939241627, 0.8317893113722115,-0.07467614433741648,-0.9183349609375,-0.2489776611328125,-0.4204254150390625
20220227-1527,2022-02-27 15:27:21Z,u01, 187,40,movements,el-ex, rt, d,296856.01981150004, -1.1349723359379826, 0.34174875877498834, 0.05431515584403505, 0.08537866920232773, 0.23141911625862122, 0.38784199953079224, -0.854098379611969, -0.33513522148132324, -0.39774417877197266, -0.050015389919281006, 0.07431674003601074, 0.01216977834701538, 0.1577208184716432, -0.5255968589114531, 0.8331496263558877,-0.06880287494493381,-0.9168548583984375,-0.2600860595703125,-0.3976287841796875
20220227-1527,2022-02-27 15:27:21Z,u01, 188,40,movements,el-ex, rt, d,296856.0447565, -1.1296547919619169, 0.3300757850598753, 0.05135509019745849, -0.6775825619697571, 0.0950833186507225, 0.37981116771698, -0.8554506897926331, -0.32411471009254456, -0.4039231240749359, -0.028841912746429443, 0.06898778676986694, 0.037864744663238525, 0.15228281654011644, -0.5242598378293984, 0.835186828418933,-0.06651808241785462,-0.8842926025390625,-0.255126953125,-0.366058349609375
20220227-1527,2022-02-27 15:27:21Z,u01, 189,40,movements,el-ex, rt, d,296856.0697025, -1.1238546588833236, 0.31387649487840724, 0.03829824537095319, -0.6759933829307556, 0.07310964167118073, 0.32494211196899414, -0.8577160239219666, -0.3087480366230011, -0.4110935628414154, -0.08790165185928345, 0.045274555683135986, -0.06826132535934448, 0.14231407143154468, -0.523641028737917, 0.837271355021105,-0.06725701062199857,-0.938385009765625,-0.284210205078125,-0.4707794189453125
20220227-1527,2022-02-27 15:27:21Z,u01, 190,40,movements,el-ex, rt, d,296856.0946475, -1.1180379380344128, 0.30118783446818553, 0.026722295507264394, -0.5317702293395996, 0.1225287914276123, 0.21781401336193085, -0.8587642312049866, -0.2966547906398773, -0.4177558720111847, -0.09269750118255615, 0.11571604013442993, -0.024489641189575195, 0.13418225206683676, -0.5226061488453849, 0.839169103175407,-0.06836082910876373,-0.9514617919921875,-0.180938720703125,-0.4422454833984375
20220227-1527,2022-02-27 15:27:21Z,u01, 191,40,movements,el-ex, rt, d,296856.11959350004, -1.1121698601961387, 0.2912080740184278, 0.017301508245841993, -0.4922201931476593, 0.08764863014221191, 0.2149924635887146, -0.8589099049568176, -0.2871096432209015, -0.4240775406360626, -0.023597359657287598, 0.048416465520858765, 0.004994899034500122, 0.12774256582770713, -0.5211938896453018, 0.8409721030661261,-0.06931564111959615,-0.88946533203125,-0.215087890625,-0.4260101318359375
20220227-1527,2022-02-27 15:27:21Z,u01, 192,40,movements,el-ex, rt, d,296856.1445385, -1.1103459171278673, 0.2814442275717286, 0.012704547281615146, -0.12592647969722748, -0.037929460406303406, 0.2885940670967102, -0.8606053590774536, -0.2777433395385742, -0.4268687665462494, -0.04485112428665161, -0.046978920698165894, -0.06794324517250061, 0.12250535856788297, -0.5211123275232834, 0.8418614878650572,-0.06858238808335715,-0.90545654296875,-0.3247222900390625,-0.49481201171875
20220227-1527,2022-02-27 15:27:21Z,u01, 193,40,movements,el-ex, rt, d,296856.1694845, -1.1136367381870582, 0.2765858035466643, 0.018618390084460184, 0.38844138383865356, -0.05991705134510994, 0.27075645327568054, -0.8632060885429382, -0.2730728089809418, -0.4246249794960022, -0.1384570598602295, -0.002775520086288452, -0.07812157273292542, 0.12189632040393475, -0.522330164340518, 0.8414775410776403,-0.06502283889232746,-0.9925537109375,-0.2806549072265625,-0.505218505859375
20220227-1527,2022-02-27 15:27:21Z,u01, 194,40,movements,el-ex, rt, d,296856.1944295, -1.1184533394972747, 0.2761768583764571, 0.033334705925967406, 0.48638710379600525, -0.02981434389948845, 0.242553249001503, -0.8653417229652405, -0.2726793885231018, -0.4205110967159271, -0.10018861293792725, 0.014638036489486694, -0.07266822457313538, 0.12542293242114227, -0.5234630197014477, 0.8406970937580471,-0.05902422418079928,-0.9655303955078125,-0.2580413818359375,-0.4931793212890625
20220227-1527,2022-02-27 15:27:21Z,u01, 195,40,movements,el-ex, rt, d,296856.2193746667, -1.1228817728062972, 0.2747301560423085, 0.04372655885506441, 0.11018921434879303, -0.08680492639541626, 0.20916253328323364, -0.8675501346588135, -0.2712872326374054, -0.41684532165527344, -0.05278372764587402, -0.05230593681335449, -0.03591346740722656, 0.12741455516605296, -0.5247312294656951, 0.8399085609347073,-0.05455561618039578,-0.919677734375,-0.3159637451171875,-0.4592437744140625
20220227-1527,2022-02-27 15:27:21Z,u01, 196,40,movements,el-ex, rt, d,296856.2443206667, -1.1245716281999032, 0.26881864036379555, 0.04223182573933376, -0.391319215297699, -0.07453528046607971, 0.15983380377292633, -0.8696848154067993, -0.26559269428253174, -0.4160635471343994, -0.057225584983825684, -0.05510127544403076, 0.012239694595336914, 0.12450311020274524, -0.5258014864231518, 0.8397295236541289,-0.05372257154297638,-0.926910400390625,-0.3206939697265625,-0.4038238525390625
20220227-1527,2022-02-27 15:27:21Z,u01, 197,40,movements,el-ex, rt, d,296856.26926566666, -1.1241740297551677, 0.25939290264003056, 0.031559674744832594, -0.5511027574539185, -0.13805165886878967, 0.18803641200065613, -0.8717385530471802, -0.25649380683898926, -0.41747206449508667, 0.0024911165237426758, 0.024773836135864258, -0.02111130952835083, 0.1177598645666528, -0.5266845122750637, 0.8400213066496668,-0.0556806017385536,-0.875030517578125,-0.2393646240234375,-0.422119140625
20220227-1527,2022-02-27 15:27:21Z,u01, 198,40,movements,el-ex, rt, d,296856.2942116667, -1.1279867625271796, 0.2513096056013895, 0.03034942996575274, 0.2964009642601013, -0.17095348238945007, 0.386182963848114, -0.8751687407493591, -0.24867263436317444, -0.4150201976299286, -0.01507478952407837, 0.03001418709754944, -0.1085394024848938, 0.11395046488310656, -0.528682509295098, 0.8393841279383336,-0.05426339596307583,-0.8902435302734375,-0.218658447265625,-0.5235595703125
20220227-1527,2022-02-27 15:27:21Z,u01, 199,40,movements,el-ex, rt, d,296856.3191566667, -1.137929609551715, 0.2492001089095508, 0.054004097932577884, 1.1821357011795044, -0.14466236531734467, 0.49817752838134766, -0.879725992679596, -0.24662885069847107, -0.40651723742485046, 0.026454627513885498, 0.06152451038360596, -0.14606457948684692, 0.11909398580094163, -0.5315618572707227, 0.8374308677414068,-0.04436256607456196,-0.8600921630859375,-0.1880035400390625,-0.5606689453125
20220227-1527,2022-02-27 15:27:21Z,u01, 200,40,movements,el-ex, rt, d,296856.3441026667, -1.1496183535472577, 0.24971349402047238, 0.08655405777165157, 0.9851454496383667, -0.16343939304351807, 0.5005058646202087, -0.8843019008636475, -0.24712635576725006, -0.3961550295352936, 0.02448439598083496, 0.019266843795776367, -0.07492959499359131, 0.12776002971739395, -0.53441543399444, 0.8349120878274214,-0.031613573867673384,-0.8598175048828125,-0.2278594970703125,-0.4710845947265625
20220227-1527,2022-02-27 15:27:21Z,u01, 201,40,movements,el-ex, rt, d,296856.36904766667, -1.1566115193012294, 0.24282787119026916, 0.10210150874020663, -0.19598336517810822, -0.10068958252668381, 0.5131714344024658, -0.8885873556137085, -0.2404484897851944, -0.3906368911266327, -0.10929179191589355, -0.11170913279056549, 0.00011867284774780273, 0.1289762508977667, -0.536699799673391, 0.8335207927685861,-0.023700136675415873,-0.9837799072265625,-0.33856201171875,-0.400299072265625
20220227-1527,2022-02-27 15:27:21Z,u01, 202,40,movements,el-ex, rt, d,296856.3939936667, -1.156050064236307, 0.22293724503954288, 0.08995056877402666, -1.1630094051361084, -0.06678108125925064, 0.5453944206237793, -0.8925690054893494, -0.22109512984752655, -0.39298543334007263, -0.11664730310440063, -0.11865705251693726, 0.007227957248687744, 0.11748482230036675, -0.5382421437817054, 0.8342362618885931,-0.023293353971500563,-1.00921630859375,-0.339752197265625,-0.3857574462890625
20220227-1527,2022-02-27 15:27:21Z,u01, 203,40,movements,el-ex, rt, d,296856.4189386667, -1.1515212972687117, 0.19885202808856528, 0.06752175537802745, -1.0783535242080688, 0.018031278625130653, 0.5028405785560608, -0.8953852653503418, -0.19754411280155182, -0.3990761339664459, -0.16603142023086548, -0.09945297241210938, -0.04976111650466919, 0.10149923495909885, -0.5386648647133783, 0.835984685831677,-0.02584213391037099,-1.0505523681640625,-0.302490234375,-0.4394683837890625
20220227-1527,2022-02-27 15:27:21Z,u01, 204,40,movements,el-ex, rt, d,296856.44388466666, -1.149146974823813, 0.18018427430900621, 0.055629222627394226, -0.32549819350242615, 0.000179242342710495, 0.48082759976387024, -0.8976438045501709, -0.1792108714580536, -0.4026401937007904, -0.23933428525924683, -0.12201288342475891, -0.07093161344528198, 0.09054739029162123, -0.538962964620855, 0.8370563927284317,-0.02562729309636186,-1.1369781494140625,-0.3012237548828125,-0.47357177734375
20220227-1527,2022-02-27 15:27:21Z,u01, 205,40,movements,el-ex, rt, d,296856.4688296667, -1.1484859894010937, 0.169605847938022, 0.061418173791051654, 0.3035352826118469, 0.1519688367843628, 0.47536417841911316, -0.8990564942359924, -0.16879387199878693, -0.4039878845214844, -0.39223384857177734, -0.10536080598831177, -0.0690346360206604, 0.08770060826169138, -0.5388085626329403, 0.8376048488735814,-0.02030123287385721,-1.2741851806640625,-0.27825927734375,-0.4851531982421875
20220227-1527,2022-02-27 15:27:21Z,u01, 206,40,movements,el-ex, rt, d,296856.4937756667, -1.14562071518567, 0.1624739558122144, 0.07431069236373561, 0.2711126506328583, 0.2162187248468399, 0.4296036958694458, -0.8989690542221069, -0.16176007688045502, -0.40704846382141113, -0.37773382663726807, -0.14662006497383118, -0.06997179985046387, 0.08821490025098186, -0.5373024289872629, 0.8386653291618158,-0.01283682688975718,-1.276702880859375,-0.308380126953125,-0.477020263671875
20220227-1527,2022-02-27 15:27:21Z,u01, 207,40,movements,el-ex, rt, d,296856.5187206667, -1.14260197061722, 0.15460277059398053, 0.0812476620128566, 0.05843857303261757, 0.12250123172998428, 0.35423243045806885, -0.8988666534423828, -0.15398761630058289, -0.4102763533592224, -0.4044628143310547, -0.16705730557441711, -0.19041645526885986, 0.08680222491362938, -0.5360291038826648, 0.839690150876707,-0.007661592589125299,-1.2878875732421875,-0.3248291015625,-0.5782928466796875
20220227-1527,2022-02-27 15:27:21Z,u01, 208,40,movements,el-ex, rt, d,296856.54366666666, -1.141557432381189, 0.1499361526260043, 0.0887260534392829, 0.31208816170692444, 0.06217103824019432, 0.21332645416259766, -0.8990811705589294, -0.14937500655651093, -0.41150960326194763, -0.4784975051879883, -0.12358947098255157, -0.26096048951148987, 0.08685671660675182, -0.5354447819417707, 0.8400859905982199,-0.003213011151570022,-1.3775787353515625,-0.2729644775390625,-0.6724700927734375
20220227-1527,2022-02-27 15:27:21Z,u01, 209,40,movements,el-ex, rt, d,296856.5686116667, -1.1412958495493486, 0.1491071505506666, 0.09601903835081031, 0.09139981120824814, 0.02837173268198967, 0.06311424821615219, -0.8990857601165771, -0.14855524897575378, -0.4117961823940277, -0.6245806217193604, -0.11470463871955872, -0.2830585837364197, 0.08846200287827216, -0.5350480169572664, 0.8401774133238331,8.625786341459607e-05,-1.4996490478515625,-0.253143310546875,-0.69073486328125
20220227-1527,2022-02-27 15:27:21Z,u01, 210,40,movements,el-ex, rt, d,296856.5935576667, -1.1426598033118032, 0.14668355236594252, 0.09245245567952982, -0.3220236897468567, -0.1695532649755478, -0.0749487429857254, -0.899971604347229, -0.1461581140756607, -0.41071778535842896, -0.7032235860824585, -0.1386166512966156, -0.32225340604782104, 0.08649349201718687, -0.5358730977435365, 0.839856154874374,-0.0008154224487766371,-1.6031951904296875,-0.2847747802734375,-0.73297119140625
20220227-1527,2022-02-27 15:27:21Z,u01, 211,40,movements,el-ex, rt, d,296856.6185026667, -1.1471772567116318, 0.14839721447659565, 0.08422452464902089, -0.14181272685527802, -0.25747454166412354, -0.36702367663383484, -0.9015880227088928, -0.14785315096378326, -0.40654444694519043, -0.7858203649520874, -0.044880613684654236, -0.38491371273994446, 0.08499401711455862, -0.5380555727251821, 0.8385987502062183,-0.004926442963581634,-1.6730499267578125,-0.2031097412109375,-0.786590576171875
20220227-1527,2022-02-27 15:27:21Z,u01, 212,40,movements,el-ex, rt, d,296856.64344866667, -1.1536463879864014, 0.16021193953966, 0.07759233808451747, 0.05364617705345154, -0.3462812304496765, -0.6999767422676086, -0.9025391340255737, -0.15952743589878082, -0.39996781945228577, -0.8260376453399658, -0.04715286195278168, -0.3657487630844116, 0.08810740284156371, -0.5406044491444175, 0.8365754991599935,-0.011200838733314122,-1.72857666015625,-0.2066802978515625,-0.765716552734375
20220227-1527,2022-02-27 15:27:21Z,u01, 213,40,movements,el-ex, rt, d,296856.6683936667, -1.1623404102077552, 0.18125534027813903, 0.07510105202159567, 0.43069028854370117, -0.37851613759994507, -0.9051485061645508, -0.9027010798454285, -0.18026448786258698, -0.3906860053539276, -0.810509979724884, -0.09219644963741302, -0.3522186577320099, 0.09611741554062403, -0.5435240916254532, 0.8336692342752821,-0.018402336282418108,-1.7270660400390625,-0.2643890380859375,-0.7575531005859375
20220227-1527,2022-02-27 15:27:21Z,u01, 214,40,movements,el-ex, rt, d,296856.6933396667, -1.1728849660208673, 0.20857971687717386, 0.07870817712438265, 0.6901631355285645, -0.40049752593040466, -0.9939201474189758, -0.9018917679786682, -0.20707060396671295, -0.3790952265262604, -0.7615909576416016, -0.13980746269226074, -0.3201236128807068, 0.10829472541108012, -0.5465570767171564, 0.8300145309987177,-0.024972888448185016,-1.663482666015625,-0.3468780517578125,-0.69921875
20220227-1527,2022-02-27 15:27:21Z,u01, 215,40,movements,el-ex, rt, d,296856.7182846667, -1.185519013621907, 0.23857805561272016, 0.08917597093032063, 0.9761600494384766, -0.42374905943870544, -0.9058845639228821, -0.9004456400871277, -0.23632119596004486, -0.3651711344718933, -0.72676682472229, -0.25936055183410645, -0.2639335095882416, 0.1233299567659609, -0.5497309801678042, 0.825652987636299,-0.029710626327509315,-1.6325836181640625,-0.4861297607421875,-0.6290435791015625
20220227-1527,2022-02-27 15:27:21Z,u01, 216,40,movements,el-ex, rt, d,296856.7432306667, -1.2004929533770194, 0.2681587772598035, 0.10379091093809183, 0.9247890114784241, -0.48506876826286316, -0.9066284894943237, -0.8989005088806152, -0.2649564743041992, -0.3489641547203064, -0.6981453895568848, -0.17991352081298828, -0.2424207329750061, 0.13919891914952284, -0.5533006211689451, 0.8206059488429507,-0.03298527511793914,-1.5970458984375,-0.4448699951171875,-0.5913848876953125
20220227-1527,2022-02-27 15:27:22Z,u01, 217,40,movements,el-ex, rt, d,296856.7681756667, -1.2164538418777702, 0.29799228944880524, 0.11330554359911334, 0.6537789702415466, -0.5795590877532959, -1.081740140914917, -0.8965407609939575, -0.2936015725135803, -0.33168190717697144, -0.656453013420105, -0.027901113033294678, -0.19453275203704834, 0.15362453841446497, -0.557277796314207, 0.8150709484912042,-0.038734520741754264,-1.559967041015625,-0.3274383544921875,-0.5220947265625
20220227-1527,2022-02-27 15:27:22Z,u01, 218,40,movements,el-ex, rt, d,296856.7931206667, -1.2342782312823934, 0.3311682514899624, 0.12196913310395478, 0.939768373966217, -0.6488710045814514, -1.1897958517074585, -0.8926209807395935, -0.3251480162143707, -0.31226032972335815, -0.5834684371948242, 0.022337406873703003, -0.24825605750083923, 0.1689616597949556, -0.5615352154112444, 0.8087008469158591,-0.046185124479759365,-1.4760894775390625,-0.3028106689453125,-0.560516357421875
20220227-1527,2022-02-27 15:27:22Z,u01, 219,40,movements,el-ex, rt, d,296856.81806666666, -1.257975632397501, 0.3704630450832019, 0.14121565860293533, 1.380562663078308, -0.701578676700592, -1.3447667360305786, -0.8869214653968811, -0.36204710602760315, -0.28686627745628357, -0.4189104437828064, 0.06405821442604065, -0.17201131582260132, 0.189352343954225, -0.5663148851457537, 0.8004547884616318,-0.05201269070597225,-1.3279266357421875,-0.28778076171875,-0.49053955078125
20220227-1527,2022-02-27 15:27:22Z,u01, 220,40,movements,el-ex, rt, d,296856.8430116667, -1.2847245655990995, 0.4136871708413085, 0.1630829040118058, 1.0847070217132568, -0.7969301342964172, -1.493014931678772, -0.8784328103065491, -0.4019881784915924, -0.25838199257850647, -0.36050450801849365, 0.07912752032279968, -0.08283504843711853, 0.21164758230580194, -0.5709766283580132, 0.7910331362059831,-0.05880073452232237,-1.2389373779296875,-0.3228607177734375,-0.341217041015625
20220227-1527,2022-02-27 15:27:22Z,u01, 221,40,movements,el-ex, rt, d,296856.8679576667, -1.3087917459481921, 0.45626741942566923, 0.17164620447016757, 0.3494851589202881, -0.772428035736084, -1.5878820419311523, -0.8670670390129089, -0.4406004250049591, -0.23252062499523163, -0.2805463671684265, 0.16461476683616638, 0.022376567125320435, 0.22960134396728415, -0.5753459078437152, 0.7818137525212143,-0.07090469948398731,-1.1612091064453125,-0.311004638671875,-0.22998046875
20220227-1527,2022-02-27 15:27:22Z,u01, 222,40,movements,el-ex, rt, d,296856.8929026667, -1.3195082786209436, 0.4932172149445712, 0.15910987663573503, -0.37863031029701233, -0.5181217789649963, -1.4884517192840576, -0.8531505465507507, -0.4734621047973633, -0.21901603043079376, -0.20034688711166382, 0.332211434841156, 0.07155504822731018, 0.2395128527653631, -0.577170322403863, 0.77570531154719,-0.08825758535451389,-1.053497314453125,-0.1412506103515625,-0.1474609375
20220227-1527,2022-02-27 15:27:22Z,u01, 223,40,movements,el-ex, rt, d,296856.91784866666, -1.3170217893331768, 0.524094037483808, 0.13335719021142384, -0.6739567518234253, -0.3367684781551361, -1.371994137763977, -0.8380483388900757, -0.5004288554191589, -0.21736162900924683, -0.08671057224273682, 0.36880654096603394, 0.22128313779830933, 0.24381610187647212, -0.5760841026711722, 0.7727693506031151,-0.10727741490810005,-0.94366455078125,-0.106719970703125,-0.0397796630859375
20220227-1527,2022-02-27 15:27:22Z,u01, 224,40,movements,el-ex, rt, d,296856.9427936667, -1.3116301294179962, 0.5522028575205794, 0.11134348241731364, -0.18757538497447968, -0.11809048056602478, -1.1494486331939697, -0.8229385018348694, -0.5245639681816101, -0.21818479895591736, -0.07108908891677856, 0.2819035053253174, 0.35139405727386475, 0.24836639492908008, -0.573778468314751, 0.7706021290627948,-0.12354995147562742,-0.8940277099609375,-0.2426605224609375,0.133209228515625
20220227-1527,2022-02-27 15:27:22Z,u01, 225,40,movements,el-ex, rt, d,296856.9677396667, -1.3065753444334975, 0.5764522174015131, 0.10510133363373307, 0.39545971155166626, 0.29688867926597595, -0.8134324550628662, -0.8093058466911316, -0.5450528860092163, -0.21895474195480347, -0.07823675870895386, 0.4468016028404236, 0.30916473269462585, 0.25601867219392815, -0.5700676024975313, 0.7693571626676782,-0.1325398140008166,-0.897216796875,-0.1163482666015625,0.1085357666015625
20220227-1527,2022-02-27 15:27:22Z,u01, 226,40,movements,el-ex, rt, d,296856.9926846667, -1.2929816536350438, 0.5907696166849267, 0.11286736367857966, 0.19429869949817657, 1.2085247039794922, -0.045317020267248154, -0.7986680269241333, -0.5570003390312195, -0.22777195274829865, -0.0358198881149292, 0.5156490206718445, 0.40089815855026245, 0.2644987129219507, -0.5622761359965194, 0.7723079291968611,-0.13200938816685914,-0.8344879150390625,-0.041351318359375,0.173126220703125
20220227-1527,2022-02-27 15:27:22Z,u01, 227,40,movements,el-ex, rt, d,296857.01763066667, -1.2556820531983595, 0.5786427194958478, 0.10891068215133412, -0.2631646692752838, 1.5811314582824707, 0.8326783180236816, -0.7959825396537781, -0.5468881130218506, -0.2594710886478424, 0.19228380918502808, 0.15411162376403809, 0.7812758684158325, 0.26119424158667603, -0.5495835035164528, 0.7836329856287412,-0.12511954079635296,-0.6188201904296875,-0.2833099365234375,0.456634521484375
20220227-1527,2022-02-27 15:27:22Z,u01, 228,40,movements,el-ex, rt, d,296857.0425756667, -1.2183089994150773, 0.5500481083543564, 0.1282575971506111, 0.6844813227653503, 1.9113953113555908, 1.8059124946594238, -0.8000850081443787, -0.5227282643318176, -0.2943111062049866, 0.41130638122558594, 0.2228320837020874, 0.34745749831199646, 0.2575552135811035, -0.5352660572313084, 0.7976457380720836,-0.10448318504794546,-0.3887786865234375,-0.299896240234375,0.0531463623046875
20220227-1527,2022-02-27 15:27:22Z,u01, 229,40,movements,el-ex, rt, d,296857.0675216667, -1.2021366178225679, 0.5153838213272088, 0.18066706361859294, 1.2255187034606934, 1.6517674922943115, 1.659050703048706, -0.8116423487663269, -0.4928688406944275, -0.3135553300380707, 1.1921813488006592, 0.8922677040100098, 0.21847781538963318, 0.25865723031208904, -0.5256603255582093, 0.8072496953265128,-0.07159272373183323,0.3413543701171875,0.3300323486328125,-0.1389007568359375
20220227-1527,2022-02-27 15:27:22Z,u01, 230,40,movements,el-ex, rt, d,296857.0924666667, -1.180726147547526, 0.48339331317416256, 0.2084822535916149, -0.3240247964859009, 1.1005425453186035, 1.6275460720062256, -0.8189119696617126, -0.4647863507270813, -0.3366849720478058, 1.158923625946045, 0.5637854337692261, 0.1593931019306183, 0.253996730717494, -0.5168589492715279, 0.8160770943036472,-0.048586306638478405,0.3400115966796875,0.0989990234375,-0.1772918701171875
20220227-1527,2022-02-27 15:27:22Z,u01, 231,40,movements,el-ex, rt, d,296857.1174126667, -1.1621150606796766, 0.4404015293094924, 0.21220791259763963, -0.3970218896865845, 0.6888160705566406, 1.5712696313858032, -0.8300844430923462, -0.4263027012348175, -0.3594799041748047, 0.7930208444595337, -0.1998874545097351, 0.10748100280761719, 0.23827978423307614, -0.5133057558876208, 0.8238093127754273,-0.032834722822926266,0.020751953125,-0.547149658203125,-0.1898193359375
20220227-1527,2022-02-27 15:27:22Z,u01, 232,40,movements,el-ex, rt, d,296857.1423576667, -1.1483450875731445, 0.4043336130833224, 0.2240174222840204, 0.19438175857067108, 0.6023868322372437, 1.491557002067566, -0.8385404348373413, -0.3934061825275421, -0.37693724036216736, 0.8569883108139038, 0.061786949634552, -0.004471480846405029, 0.22701018997791247, -0.5098997524728798, 0.8295773933305166,-0.01643573242909946,0.0184478759765625,-0.3316192626953125,-0.38140869140625
20220227-1527,2022-02-27 15:27:22Z,u01, 233,40,movements,el-ex, rt, d,296857.1673036667, -1.145337272165341, 0.37853933746116913, 0.2425407239452032, -0.06152002513408661, 0.10946618020534515, 0.7659497857093811, -0.8463661670684814, -0.36956360936164856, -0.3835192918777466, 1.0697243213653564, 0.6072192192077637, 0.1063280701637268, 0.22134583411598335, -0.5091624287338304, 0.8317198203492325,-0.0013435533691785184,0.2642059326171875,0.2246856689453125,-0.3131561279296875
20220227-1527,2022-02-27 15:27:22Z,u01, 234,40,movements,el-ex, rt, d,296857.19224866666, -1.1434352054131782, 0.36124308927334803, 0.23470405754814927, -0.9950121641159058, -0.12498447299003601, 0.30888333916664124, -0.8513255715370178, -0.3534373641014099, -0.3877200186252594, 0.7707591652870178, 0.2365245223045349, 0.1567476987838745, 0.21235448227392326, -0.5109261840393481, 0.8329825358019719,0.00033056259303626545,-0.08056640625,-0.116912841796875,-0.2309722900390625
20220227-1527,2022-02-27 15:27:22Z,u01, 235,40,movements,el-ex, rt, d,296857.217194, -1.142271045267468, 0.34831242446371075, 0.22308581105429504, -0.17074155807495117, 0.11244979500770569, 0.20834514498710632, -0.8549593687057495, -0.341312050819397, -0.3905773460865021, 0.24529439210891724, -0.3639034032821655, 0.03483390808105469, 0.20413354594382488, -0.5128750564976221, 0.833839305084606,-0.0008607450561378682,-0.5579833984375,-0.71075439453125,-0.3243408203125
20220227-1527,2022-02-27 15:27:22Z,u01, 236,40,movements,el-ex, rt, d,296857.24213900004, -1.142741850772519, 0.3458138272926042, 0.22552339657329512, 0.4727524518966675, -0.17399369180202484, -0.1380053460597992, -0.8559163212776184, -0.3389624357223511, -0.39052754640579224, 0.3566487431526184, -0.008602261543273926, -0.004736185073852539, 0.20374313619168874, -0.5130545338142778, 0.8338244449501501,0.0007889773765495933,-0.499267578125,-0.347564697265625,-0.395263671875
20220227-1527,2022-02-27 15:27:22Z,u01, 237,40,movements,el-ex, rt, d,296857.267084, -1.1489126410568906, 0.3567652666386095, 0.2370406953352703, 0.464147686958313, 0.01897316984832287, -0.14199069142341614, -0.8548718094825745, -0.34924501180648804, -0.3836953341960907, 0.11601072549819946, -0.20902830362319946, 0.07415550947189331, 0.2111433543558235, -0.5133914782047616, 0.831771516558375,0.001948841522864675,-0.712646484375,-0.481597900390625,-0.3425140380859375
20220227-1527,2022-02-27 15:27:22Z,u01, 238,40,movements,el-ex, rt, d,296857.29203, -1.1485312281069178, 0.3570850373328049, 0.2414822188778428, -0.005155052524060011, 0.10580560564994812, 0.25570908188819885, -0.8546234965324402, -0.3495446443557739, -0.383975625038147, 0.11635750532150269, -0.4008826017379761, 0.0669894814491272, 0.21241150263881364, -0.512731456041585, 0.8318496402729135,0.003748773236648517,-0.7382659912109375,-0.75042724609375,-0.316986083984375
20220227-1527,2022-02-27 15:27:22Z,u01, 239,40,movements,el-ex, rt, d,296857.316975, -1.1477726457250568, 0.3496305121291574, 0.2441234226127032, 0.04500491917133331, 0.010112633928656578, 0.2774295508861542, -0.8566842079162598, -0.34255069494247437, -0.3856827914714813, 0.13834625482559204, -0.32312923669815063, -0.044752418994903564, 0.21007139403872882, -0.5128631526888221, 0.8323417786200534,0.006972326079538016,-0.70306396484375,-0.691436767578125,-0.415252685546875
20220227-1527,2022-02-27 15:27:22Z,u01, 240,40,movements,el-ex, rt, d,296857.34192100004, -1.149548755956152, 0.3461508829810379, 0.2520371635138184, 0.3727721571922302, 0.016460077837109566, 0.1979672759771347, -0.8584503531455994, -0.33927953243255615, -0.38464564085006714, 0.11659866571426392, -0.13763391971588135, -0.13389372825622559, 0.2107018875526137, -0.5131100197282057, 0.8319861845536858,0.011033304570249758,-0.741851806640625,-0.4769134521484375,-0.5185394287109375
20220227-1527,2022-02-27 15:27:22Z,u01, 241,40,movements,el-ex, rt, d,296857.366866, -1.1554198172087022, 0.348314747568803, 0.2653079963261406, 0.6052576303482056, -0.11461818218231201, 0.11282055079936981, -0.8600201606750488, -0.3413142263889313, -0.37930190563201904, 0.1196485161781311, -0.11390119791030884, -0.20382797718048096, 0.21502096157845094, -0.5139212263750893, 0.8303108329929312,0.01532747189729916,-0.733978271484375,-0.4170989990234375,-0.5746917724609375
20220227-1527,2022-02-27 15:27:22Z,u01, 242,40,movements,el-ex, rt, d,296857.391812, -1.1647194609575064, 0.3510878769269231, 0.2775150743636069, 0.19530178606510162, -0.270366370677948, 0.028765466064214706, -0.8626373410224915, -0.3439195156097412, -0.3709124028682709, 0.1294679045677185, -0.1241132915019989, -0.10508552193641663, 0.21935721904962255, -0.5161649083306964, 0.8277135839439318,0.01860875596997774,-0.7331695556640625,-0.4680328369140625,-0.4759979248046875
20220227-1527,2022-02-27 15:27:22Z,u01, 243,40,movements,el-ex, rt, d,296857.416757, -1.1718113955609313, 0.3499782511422101, 0.2768128706973465, -0.1256132870912552, -0.27692872285842896, 0.06475935876369476, -0.8655972480773926, -0.3428773880004883, -0.3649333715438843, 0.09673744440078735, -0.12301918864250183, 0.045627981424331665, 0.21879609317611076, -0.5192894924454192, 0.825922461018995,0.017851158798332656,-0.781097412109375,-0.4909820556640625,-0.3229827880859375
20220227-1527,2022-02-27 15:27:22Z,u01, 244,40,movements,el-ex, rt, d,296857.441703, -1.1788812545779046, 0.3488984196735452, 0.27824324090982727, 0.21949689090251923, -0.23024632036685944, 0.022966496646404266, -0.8684973120689392, -0.3418627977371216, -0.35894590616226196, 0.16804265975952148, -0.06609615683555603, 0.08709529042243958, 0.2188007696038545, -0.5221621157551993, 0.8241055558108242,0.017970524872246818,-0.7004547119140625,-0.407958984375,-0.2718505859375
20220227-1527,2022-02-27 15:27:22Z,u01, 245,40,movements,el-ex, rt, d,296857.466648, -1.1845869586820912, 0.34990536014600404, 0.2869296900301804, 0.5048507452011108, -0.003918697126209736, 0.10008998215198517, -0.8702118992805481, -0.34280890226364136, -0.35385486483573914, 0.10325944423675537, -0.07996636629104614, 0.12921494245529175, 0.22152728108526643, -0.5234484081473101, 0.8224971981188567,0.020634538035871786,-0.7744140625,-0.4287261962890625,-0.22601318359375
20220227-1527,2022-02-27 15:27:22Z,u01, 246,40,movements,el-ex, rt, d,296857.491594, -1.1880143797383291, 0.35570278652556164, 0.30251312236779654, 0.6587368249893188, 0.1368083357810974, -0.056457288563251495, -0.8695613741874695, -0.34824925661087036, -0.35012200474739075, 0.10773587226867676, -0.04182642698287964, 0.14156484603881836, 0.22794008929518733, -0.5224770970856569, 0.8212400960093601,0.02501338060508368,-0.7618255615234375,-0.39007568359375,-0.20855712890625
20220227-1527,2022-02-27 15:27:22Z,u01, 247,40,movements,el-ex, rt, d,296857.51653900003, -1.188166491351499, 0.36280720504585917, 0.3130158724254021, 0.27408668398857117, 0.12374645471572876, -0.200654536485672, -0.8672975301742554, -0.3549000918865204, -0.3490571677684784, 0.13795799016952515, -0.017734825611114502, 0.093441903591156, 0.23348832504862757, -0.5205330077531138, 0.8208432732847573,0.027293702330038472,-0.7340087890625,-0.367095947265625,-0.2489776611328125
20220227-1527,2022-02-27 15:27:22Z,u01, 248,40,movements,el-ex, rt, d,296857.541485, -1.1852265148505645, 0.36892133495669055, 0.3120388912839551, -0.1052267923951149, 0.08921517431735992, -0.287643164396286, -0.8642407655715942, -0.3606095612049103, -0.3507828414440155, 0.13665592670440674, -0.008424252271652222, 0.07113498449325562, 0.23560917375248347, -0.5187455053828852, 0.821426098641744,0.02550527730316493,-0.7275848388671875,-0.3690338134765625,-0.2796478271484375
20220227-1527,2022-02-27 15:27:22Z,u01, 249,40,movements,el-ex, rt, d,296857.56643, -1.1820485372251581, 0.3763667703537554, 0.30513943816207195, -0.03356309235095978, -0.05041588842868805, -0.40641558170318604, -0.8606131076812744, -0.3675439655780792, -0.35250014066696167, 0.18339765071868896, -0.02514094114303589, 0.020697802305221558, 0.23672597128459594, -0.5174077120677925, 0.8220775279238182,0.020941150683130183,-0.6719512939453125,-0.35284423828125,-0.319305419921875
