SessionID,LoggingTime,UID,RecNo,Hertz,Activity,MoveType,Wrist,Side,TimeStamp,DMRoll,DMPitch,DMYaw,DMRotX,DMRotY,DMRotZ,DMGrvX,DMGrvY,DMGrvZ,DMUAccelX,DMUAccelY,DMUAccelZ,DMQuatX,DMQuatY,DMQuatW,DMQuatZ,AccelroX,AceelroY,AceelroZ
20220227-1541,2022-02-27 15:41:56Z,u01, 1,40,movements,el-ex, rt, d,297595.8144926667, -1.3691592879589616, -0.4649737831626211, -0.3818231189511672, 0.450290709733963, -0.1425374299287796, 0.264685720205307, -0.8757243752479553, 0.4483993649482727, -0.17901112139225006, -0.013161182403564453, -0.3440139889717102, 0.2800549268722534, -0.2920054832103186, -0.5702869783810383, 0.7677927194845484,-5.551115123125783e-17,-0.874847412109375,0.117919921875,0.0967559814453125
20220227-1541,2022-02-27 15:41:56Z,u01, 2,40,movements,el-ex, rt, d,297595.8394376667, -1.3592046246963678, -0.4610333999645423, -0.36030931231485014, 0.8955747485160828, 0.14297088980674744, -0.30576619505882263, -0.8756197690963745, 0.4448738396167755, -0.1880892813205719, 0.11094075441360474, -0.3129158020019531, 0.25676918029785156, -0.2844752074984328, -0.5701133380399698, 0.7707227808318005,0.005587313910671132,-0.6729888916015625,0.1623687744140625,0.053436279296875
20220227-1541,2022-02-27 15:41:56Z,u01, 3,40,movements,el-ex, rt, d,297595.8643816667, -1.346264741569863, -0.44222508623296364, -0.34624191995951337, 0.34259840846061707, 0.3905668258666992, -0.8835623860359192, -0.8811149597167969, 0.4279515743255615, -0.2012312114238739, 0.3190879225730896, -0.22526907920837402, 0.24456627666950226, -0.2736906625086466, -0.5696295445716428, 0.7749870189194702,0.0032812010969256455,-0.5276336669921875,0.211517333984375,0.058074951171875
20220227-1541,2022-02-27 15:41:56Z,u01, 4,40,movements,el-ex, rt, d,297595.8893256667, -1.340141127664984, -0.4171723251378046, -0.3571922655772381, -0.7357598543167114, 0.02864137850701809, -0.8385350108146667, -0.8900264501571655, 0.40517690777778625, -0.20900899171829224, 0.40833693742752075, -0.23806262016296387, 0.3293094038963318, -0.26765621901082165, -0.5690831693472853, 0.7774388991925284,-0.009660982303027699,-0.4833221435546875,0.1505889892578125,0.0950164794921875
20220227-1541,2022-02-27 15:41:56Z,u01, 5,40,movements,el-ex, rt, d,297595.91427066666, -1.3400390360915717, -0.3930949174492593, -0.3920436056978944, -1.062909722328186, 0.6826871037483215, -1.2973718643188477, -0.8992432355880737, 0.3830491006374359, -0.2112702876329422, 0.5794952511787415, -0.2991715371608734, 0.14587122201919556, -0.2687574428757312, -0.5675687567717762, 0.7776170434566609,-0.03077303756776789,-0.2812652587890625,0.0733795166015625,-0.1103668212890625
20220227-1541,2022-02-27 15:41:56Z,u01, 6,40,movements,el-ex, rt, d,297595.93921466667, -1.3347878145273377, -0.36551085468479105, -0.42497338631299897, -0.7581263184547424, 0.6809943318367004, -1.3386067152023315, -0.9080514907836914, 0.3574264347553253, -0.21837756037712097, 0.8008584976196289, -0.3092391788959503, 0.02718508243560791, -0.2678903914066362, -0.5648415325107388, 0.7787088483042213,-0.052927045470204714,-0.045013427734375,0.001312255859375,-0.224029541015625
20220227-1541,2022-02-27 15:41:56Z,u01, 7,40,movements,el-ex, rt, d,297595.96415866667, -1.3280875009836588, -0.3392222495326647, -0.4496673901852639, -0.5799030661582947, 0.5608481764793396, -1.0759307146072388, -0.9153744578361511, 0.3327537775039673, -0.22663725912570953, 0.8711392879486084, -0.23859179019927979, -0.005616635084152222, -0.26501497217239633, -0.5625374968650567, 0.7798632737365854,-0.07163711268469414,-0.0478363037109375,0.123138427734375,-0.23895263671875
20220227-1541,2022-02-27 15:41:56Z,u01, 8,40,movements,el-ex, rt, d,297595.9891036667, -1.3228193446006438, -0.320596799716639, -0.46983383181074145, -0.594476580619812, 0.3925709128379822, -0.7204613089561462, -0.9200170040130615, 0.3151330053806305, -0.23293736577033997, 0.9354742169380188, -0.179345041513443, -0.15706190466880798, -0.26363185838498243, -0.5603834050315969, 0.7804334684120189,-0.08597795936668318,-0.0003662109375,0.11541748046875,-0.3919677734375
20220227-1541,2022-02-27 15:41:56Z,u01, 9,40,movements,el-ex, rt, d,297596.0140476667, -1.324017438809053, -0.31236112719959025, -0.49160986144089064, -0.8698515892028809, 0.040411487221717834, -0.2501753568649292, -0.9227809309959412, 0.3073063790798187, -0.232461079955101, 0.6321467757225037, -0.06685835123062134, -0.05206941068172455, -0.26676017039147765, -0.5591140080819343, 0.7790052570685649,-0.09685751380473284,-0.413665771484375,0.348785400390625,-0.2640228271484375
20220227-1541,2022-02-27 15:41:56Z,u01, 10,40,movements,el-ex, rt, d,297596.0389916667, -1.3292050332140415, -0.31150404680956106, -0.5159287225479023, -0.6326568126678467, 0.2824077606201172, -0.14474333822727203, -0.9242298007011414, 0.3064906597137451, -0.22773386538028717, 0.29398077726364136, 0.2868015766143799, 0.07825888693332672, -0.2735019253391493, -0.5579693187059964, 0.7763096513300258,-0.10587833372684585,-0.6029052734375,0.640716552734375,-0.1735382080078125
20220227-1541,2022-02-27 15:41:56Z,u01, 11,40,movements,el-ex, rt, d,297596.0639366667, -1.325011876253543, -0.3089665016427949, -0.5304617660157352, -0.7117446660995483, 0.3972979485988617, -0.06751180440187454, -0.9240182638168335, 0.304074227809906, -0.23179581761360168, 0.48015522956848145, 0.14279472827911377, -0.01048317551612854, -0.2763925292260896, -0.5547154742404992, 0.7766308759820293,-0.11288283045260261,-0.4433746337890625,0.4073028564453125,-0.23779296875
20220227-1541,2022-02-27 15:41:56Z,u01, 12,40,movements,el-ex, rt, d,297596.0888806667, -1.3228328220960295, -0.3166002509984552, -0.556412143921497, -1.1971418857574463, 0.41152942180633545, 0.1371503323316574, -0.9212338328361511, 0.31133759021759033, -0.23323224484920502, 0.35877954959869385, 0.07684603333473206, -0.010404706001281738, -0.2861930145295603, -0.5490696066611614, 0.7758857306880718,-0.12090321886150002,-0.6442108154296875,0.437408447265625,-0.2404937744140625
20220227-1541,2022-02-27 15:41:56Z,u01, 13,40,movements,el-ex, rt, d,297596.1138232917, -1.3218003347960328, -0.32876891935121844, -0.5854216768423064, -1.1304066181182861, 0.4182753562927246, 0.24871772527694702, -0.9172527194023132, 0.3228781223297119, -0.23323234915733337, 0.18841660022735596, 0.14101958274841309, -0.0040721893310546875, -0.29842456077752383, -0.5425187609975276, 0.7746565422442109,-0.12854389383243975,-0.72369384765625,0.455535888671875,-0.242919921875
20220227-1541,2022-02-27 15:41:56Z,u01, 14,40,movements,el-ex, rt, d,297596.1387682917, -1.3205630882900345, -0.3409583037398806, -0.6103214180010177, -0.9062396287918091, 0.32540029287338257, 0.23539181053638458, -0.9130821824073792, 0.3343903720378876, -0.23337501287460327, 0.21493154764175415, 0.11720871925354004, 0.006629541516304016, -0.3094099816210514, -0.5362629532585944, 0.7736714411145604,-0.13461022030205738,-0.7197113037109375,0.4615936279296875,-0.2418670654296875
20220227-1541,2022-02-27 15:41:56Z,u01, 15,40,movements,el-ex, rt, d,297596.1637122917, -1.3184139105613848, -0.35036012389686155, -0.6259979286107181, -0.39331504702568054, 0.25860047340393066, 0.2180146872997284, -0.9094940423965454, 0.3432360887527466, -0.23454144597053528, 0.1482940912246704, 0.1229810118675232, -0.09987008571624756, -0.31678270443958423, -0.5313925090381362, 0.7734312695925466,-0.13811186673482195,-0.755157470703125,0.4576873779296875,-0.343719482421875
20220227-1541,2022-02-27 15:41:56Z,u01, 16,40,movements,el-ex, rt, d,297596.1886562917, -1.3161445073146096, -0.35851466228788503, -0.6304551860334547, -0.12927785515785217, 0.08646106719970703, 0.3417665660381317, -0.9062206149101257, 0.35088372230529785, -0.2358919084072113, 0.13826096057891846, 0.12242868542671204, -0.05967074632644653, -0.32068985692329594, -0.5284052029429676, 0.7739435709206216,-0.13768598690859585,-0.802886962890625,0.48138427734375,-0.25225830078125
20220227-1541,2022-02-27 15:41:56Z,u01, 17,40,movements,el-ex, rt, d,297596.2136012917, -1.3147622280281135, -0.3665331303733778, -0.6301340402800273, -0.025729767978191376, 0.05656362324953079, 0.2764536440372467, -0.9031426906585693, 0.3583810031414032, -0.23642417788505554, 0.08531731367111206, 0.1664603054523468, -0.00017845630645751953, -0.3233410530550819, -0.5265343984914272, 0.7745334040287287,-0.13531488679010617,-0.8054962158203125,0.5160369873046875,-0.2447052001953125
20220227-1541,2022-02-27 15:41:56Z,u01, 18,40,movements,el-ex, rt, d,297596.2385452917, -1.3137168663684142, -0.3725714440040432, -0.631252370626307, -0.24659353494644165, 0.08664808422327042, 0.2111085057258606, -0.9007856845855713, 0.3640116751194, -0.23681361973285675, 0.11590409278869629, 0.18071183562278748, -0.009478375315666199, -0.32569340303078664, -0.5248971298971228, 0.7748775802929446,-0.1340580494471187,-0.80450439453125,0.5447540283203125,-0.2421112060546875
20220227-1541,2022-02-27 15:41:56Z,u01, 19,40,movements,el-ex, rt, d,297596.2634892917, -1.3123095432739398, -0.3783801708298949, -0.6359670002106304, -0.19783219695091248, 0.12364379316568375, 0.1788119524717331, -0.8983921408653259, 0.3694157004356384, -0.23753657937049866, 0.11749309301376343, 0.10949665307998657, -0.020916685461997986, -0.3288782263117187, -0.5225617856070257, 0.7750643273809015,-0.13432656291942446,-0.7646636962890625,0.4775390625,-0.2555389404296875
20220227-1541,2022-02-27 15:41:56Z,u01, 20,40,movements,el-ex, rt, d,297596.28843429167, -1.3113101352468601, -0.38561372641128794, -0.639413539416006, -0.15780271589756012, 0.08785097301006317, 0.30992209911346436, -0.8955480456352234, 0.37612786889076233, -0.23774243891239166, 0.1288854479789734, 0.13585028052330017, -0.0008743852376937866, -0.33225094628406293, -0.520324985494501, 0.7752561500538916,-0.13360045755343025,-0.7709808349609375,0.5001068115234375,-0.2410125732421875
20220227-1541,2022-02-27 15:41:56Z,u01, 21,40,movements,el-ex, rt, d,297596.31337829167, -1.311386845578708, -0.3942754984511697, -0.6434878863193335, -0.39377912878990173, 0.05660922825336456, 0.31635743379592896, -0.892383873462677, 0.38413938879966736, -0.23682914674282074, 0.12172341346740723, 0.13983219861984253, 0.009839475154876709, -0.3363485590841719, -0.5181265000851409, 0.7751507372485393,-0.1324988121990301,-0.784210205078125,0.5395355224609375,-0.220611572265625
20220227-1541,2022-02-27 15:41:57Z,u01, 22,40,movements,el-ex, rt, d,297596.3383222917, -1.3127254905969004, -0.40433403919089383, -0.6542475722275859, -0.506567120552063, 0.16627274453639984, 0.22762955725193024, -0.8889189958572388, 0.39340659976005554, -0.2346363067626953, 0.07765501737594604, 0.17733314633369446, 0.003023296594619751, -0.34272498793617323, -0.5149965300861312, 0.7742991666419548,-0.13333755686100052,-0.791015625,0.572357177734375,-0.2492523193359375
20220227-1541,2022-02-27 15:41:57Z,u01, 23,40,movements,el-ex, rt, d,297596.3632672917, -1.3124127310071438, -0.4118096924894607, -0.6643318863398026, -0.36272433400154114, 0.1575685441493988, 0.18908782303333282, -0.885977566242218, 0.4002683758735657, -0.23415632545948029, 0.15573763847351074, 0.11839312314987183, -0.031132876873016357, -0.34788669515844567, -0.5117584215092185, 0.7738583553432716,-0.13498719775953627,-0.7241058349609375,0.5182952880859375,-0.2666778564453125
20220227-1541,2022-02-27 15:41:57Z,u01, 24,40,movements,el-ex, rt, d,297596.3882112917, -1.3127133739693695, -0.4187143160559558, -0.6714894498424353, -0.2630940079689026, 0.07440167665481567, 0.19061428308486938, -0.8833546042442322, 0.4065861701965332, -0.2331790030002594, 0.1465533971786499, 0.16493180394172668, -0.020437240600585938, -0.352120394713354, -0.5093345946488642, 0.7734403821107626,-0.13557109034090353,-0.77032470703125,0.5764312744140625,-0.252899169921875
20220227-1541,2022-02-27 15:41:57Z,u01, 25,40,movements,el-ex, rt, d,297596.4131562917, -1.3135082878831281, -0.4234705148311019, -0.6775921647839253, -0.2677253186702728, 0.0652591809630394, 0.06913858652114868, -0.8816595673561096, 0.410926878452301, -0.2319820523262024, 0.11772823333740234, 0.14636987447738647, -0.022946417331695557, -0.3553639544983569, -0.5076666588467823, 0.7729217413579692,-0.1363199363806386,-0.754547119140625,0.541107177734375,-0.2648468017578125
20220227-1541,2022-02-27 15:41:57Z,u01, 26,40,movements,el-ex, rt, d,297596.4381002917, -1.3146719200080437, -0.42559370181728695, -0.6833394787115583, -0.15958276391029358, 0.014866242185235023, 0.028092816472053528, -0.8810829520225525, 0.41286158561706543, -0.2307344228029251, 0.15836560726165771, 0.08832859992980957, -0.05947238206863403, -0.3576301248933559, -0.5066887417791734, 0.7722775864074722,-0.13767610513049738,-0.710113525390625,0.4898529052734375,-0.284454345703125
20220227-1541,2022-02-27 15:41:57Z,u01, 27,40,movements,el-ex, rt, d,297596.4630442917, -1.316361496308039, -0.42784917916480925, -0.6864139387539283, -0.16299256682395935, -0.04610177129507065, 0.08839850127696991, -0.8805678486824036, 0.4149148166179657, -0.2290104180574417, 0.12679904699325562, 0.06747651100158691, -0.035347893834114075, -0.35929777469629937, -0.5063594594200523, 0.7716859495697854,-0.13786181837502354,-0.764007568359375,0.499237060546875,-0.25238037109375
20220227-1541,2022-02-27 15:41:57Z,u01, 28,40,movements,el-ex, rt, d,297596.48798929167, -1.3201883082816412, -0.43210599847927333, -0.6923663218948178, -0.3422902226448059, -0.06104303523898125, 0.1068282425403595, -0.8797188997268677, 0.41878417134284973, -0.22519896924495697, 0.0990639328956604, 0.10132694244384766, -0.0008293986320495605, -0.3625213590852868, -0.5059434585395697, 0.7703993601776689,-0.13814615722221169,-0.7741851806640625,0.4901580810546875,-0.2197265625
20220227-1541,2022-02-27 15:41:57Z,u01, 29,40,movements,el-ex, rt, d,297596.51293329167, -1.3263346594206038, -0.4364341994090641, -0.7025111469070631, -0.4424388110637665, -0.09673851728439331, 0.07714404910802841, -0.879319429397583, 0.4227105975151062, -0.21934691071510315, 0.1444103717803955, 0.0287969708442688, -0.015333116054534912, -0.3669828023934367, -0.5056186003614686, 0.768238536900742,-0.13958155639630465,-0.7390289306640625,0.4492034912109375,-0.2335357666015625
20220227-1541,2022-02-27 15:41:57Z,u01, 30,40,movements,el-ex, rt, d,297596.5378772917, -1.3325598634104783, -0.4413121154209386, -0.711986061149812, -0.1621018499135971, -0.10085103660821915, 0.13534417748451233, -0.8786536455154419, 0.4271262288093567, -0.21337959170341492, 0.1240912675857544, -0.013246893882751465, -0.035781070590019226, -0.37145769093806724, -0.5053012831990042, 0.7661181073281237,-0.140544556598511,-0.7336273193359375,0.3828125,-0.2486419677734375
20220227-1541,2022-02-27 15:41:57Z,u01, 31,40,movements,el-ex, rt, d,297596.5628222917, -1.3349020516116368, -0.44633502498874605, -0.7104800622156244, 0.16285626590251923, -0.10966689884662628, 0.2715132236480713, -0.87705397605896, 0.43166249990463257, -0.21081697940826416, 0.11084914207458496, 0.004494726657867432, 0.004182577133178711, -0.3729257262335414, -0.5054877964373348, 0.7657515773088965,-0.13796022674744862,-0.769744873046875,0.4361114501953125,-0.2020111083984375
20220227-1541,2022-02-27 15:41:57Z,u01, 32,40,movements,el-ex, rt, d,297596.5877662917, -1.3341786726428382, -0.45133187155306415, -0.7027384422507389, 0.18181119859218597, -0.09647352993488312, 0.2529835104942322, -0.8747934103012085, 0.4361644387245178, -0.2109430879354477, 0.1041024923324585, -0.01453360915184021, 0.023443251848220825, -0.37259574957146524, -0.5056687278254621, 0.7665716774961869,-0.13356399384842105,-0.771087646484375,0.4021453857421875,-0.18878173828125
20220227-1541,2022-02-27 15:41:57Z,u01, 33,40,movements,el-ex, rt, d,297596.6127102917, -1.333165705979882, -0.4564737505638737, -0.6958621268693403, 0.26013892889022827, -0.0866948664188385, 0.2406560778617859, -0.8723881244659424, 0.44078564643859863, -0.211298406124115, 0.1346408724784851, -0.08464550971984863, -0.011388242244720459, -0.37251747125498036, -0.5055507224685502, 0.7673837505006034,-0.12950437397997439,-0.7333984375,0.3650054931640625,-0.2175140380859375
20220227-1541,2022-02-27 15:41:57Z,u01, 34,40,movements,el-ex, rt, d,297596.6376552917, -1.331596574200344, -0.46148751700857277, -0.6876965922095711, 0.29411739110946655, -0.08666530251502991, 0.30568888783454895, -0.8698974251747131, 0.445280522108078, -0.212140753865242, 0.13172298669815063, -0.057691991329193115, 0.003736332058906555, -0.37203973828751363, -0.5054859628170015, 0.7683897533246702,-0.12509005800426448,-0.71258544921875,0.3814544677734375,-0.2088165283203125
20220227-1541,2022-02-27 15:41:57Z,u01, 35,40,movements,el-ex, rt, d,297596.6625992917, -1.3289174600553186, -0.4668848053432383, -0.6748832692527654, 0.42560768127441406, -0.14626172184944153, 0.3338944613933563, -0.8669800758361816, 0.450106680393219, -0.21389180421829224, 0.1349090337753296, -0.08388039469718933, 0.0449923574924469, -0.37045653045638516, -0.5057826207222376, 0.7699301797005395,-0.11896874032273314,-0.7610626220703125,0.3798065185546875,-0.1541595458984375
20220227-1541,2022-02-27 15:41:57Z,u01, 36,40,movements,el-ex, rt, d,297596.68754329166, -1.3257494979765936, -0.4732929760810494, -0.6626700124250762, 0.3123951256275177, -0.028585894033312798, 0.328482449054718, -0.8634821176528931, 0.4558197259902954, -0.21593306958675385, 0.04179626703262329, -0.01290285587310791, 0.07585752010345459, -0.36935271603044817, -0.5055808910611933, 0.7715136149016354,-0.11284204230300338,-0.825927734375,0.447967529296875,-0.14801025390625
20220227-1541,2022-02-27 15:41:57Z,u01, 37,40,movements,el-ex, rt, d,297596.71248829167, -1.3209833840469072, -0.47828451476556144, -0.6540422358779303, 0.2287493199110031, 0.06684435904026031, 0.2096739262342453, -0.8602278828620911, 0.4602568745613098, -0.21948084235191345, 0.09168839454650879, -0.06336045265197754, 0.05155801773071289, -0.3686041890320497, -0.5043714200663214, 0.7732378694069456,-0.10882909011421937,-0.75439453125,0.388397216796875,-0.1783905029296875
20220227-1541,2022-02-27 15:41:57Z,u01, 38,40,movements,el-ex, rt, d,297596.7374322917, -1.3155351073247434, -0.4809380231507777, -0.6463326964099895, 0.22419944405555725, 0.0928242951631546, 0.17005568742752075, -0.8578344583511353, 0.46261098980903625, -0.223855122923851, 0.10731565952301025, -0.04250603914260864, 0.05324675142765045, -0.3672734655146282, -0.5031725716342986, 0.7750402527715444,-0.10601973465695352,-0.774993896484375,0.4430389404296875,-0.1551666259765625
20220227-1541,2022-02-27 15:41:57Z,u01, 39,40,movements,el-ex, rt, d,297596.7623762917, -1.3088745178205192, -0.4840012293989734, -0.6383420255726922, 0.24514691531658173, 0.138150155544281, 0.1762474626302719, -0.854951798915863, 0.4653245508670807, -0.22919581830501556, 0.05197310447692871, -0.020317137241363525, 0.08301672339439392, -0.36596587470156905, -0.5014689097984864, 0.7771424412153672,-0.10318754042218897,-0.8051910400390625,0.4307861328125,-0.15667724609375
20220227-1541,2022-02-27 15:41:57Z,u01, 40,40,movements,el-ex, rt, d,297596.7873212917, -1.3007596606553433, -0.4866317274592218, -0.6309077886282171, 0.19522520899772644, 0.24088919162750244, 0.15765714645385742, -0.8518811464309692, 0.46765127778053284, -0.2357986718416214, 0.04768180847167969, -0.06541424989700317, 0.05745401978492737, -0.3645959519413001, -0.4991697685092664, 0.7795551504268033,-0.10096166085435088,-0.791259765625,0.4009552001953125,-0.18609619140625
20220227-1541,2022-02-27 15:41:57Z,u01, 41,40,movements,el-ex, rt, d,297596.8122652917, -1.2932842495048649, -0.48853616591720034, -0.6280149879866823, -0.07121699303388596, 0.2569054365158081, 0.057520944625139236, -0.8492364287376404, 0.46933379769325256, -0.24191570281982422, 0.05384153127670288, -0.05278414487838745, 0.03799737989902496, -0.3641565897143854, -0.49641930504860476, 0.7815599946526355,-0.10060713605737381,-0.8004150390625,0.4167327880859375,-0.2069854736328125
20220227-1541,2022-02-27 15:41:57Z,u01, 42,40,movements,el-ex, rt, d,297596.8372092917, -1.2881212134899929, -0.4897044486094277, -0.6314569239270822, -0.11874499171972275, 0.2884651720523834, -0.030729087069630623, -0.8474490642547607, 0.47036510705947876, -0.24614401161670685, 0.03644436597824097, -0.025266170501708984, 0.042942821979522705, -0.36515038730856236, -0.4935516054746071, 0.7826612124654838,-0.10253537389679912,-0.79998779296875,0.44970703125,-0.2043609619140625
20220227-1541,2022-02-27 15:41:57Z,u01, 43,40,movements,el-ex, rt, d,297596.8621542917, -1.2816847208784579, -0.4889990245122952, -0.6338697457542564, -0.03364768251776695, 0.3426935076713562, -0.05016590282320976, -0.8461650013923645, 0.46974244713783264, -0.25168800354003906, 0.05693459510803223, -0.06297361850738525, 0.04940235614776611, -0.36516590546880945, -0.49072380802979243, 0.7841211481041488,-0.10487178064549713,-0.7870330810546875,0.389984130859375,-0.2167816162109375
20220227-1541,2022-02-27 15:41:57Z,u01, 44,40,movements,el-ex, rt, d,297596.88709829166, -1.271936233446008, -0.48741953672027905, -0.6331649371556163, 0.10371164232492447, 0.39500412344932556, -0.06055915355682373, -0.8443792462348938, 0.4683474898338318, -0.26014286279678345, 0.07333731651306152, -0.09972566366195679, 0.011592566967010498, -0.3639282200735362, -0.48732413715747036, 0.7865454652916591,-0.10685360952098505,-0.77508544921875,0.359344482421875,-0.249053955078125
20220227-1541,2022-02-27 15:41:57Z,u01, 45,40,movements,el-ex, rt, d,297596.91204229166, -1.2621711946336738, -0.4850016668873709, -0.6328542970752336, -0.18749943375587463, 0.34453773498535156, -0.14683173596858978, -0.8428752422332764, 0.4662098288536072, -0.2687189280986786, 0.09334820508956909, -0.09661144018173218, -0.015948891639709473, -0.36248014364256653, -0.48399243772487455, 0.7889402183107919,-0.10923775349974618,-0.7347412109375,0.378387451171875,-0.27874755859375
20220227-1541,2022-02-27 15:41:57Z,u01, 46,40,movements,el-ex, rt, d,297596.9369872917, -1.263355518600765, -0.4844012493724946, -0.650097275930262, -0.8881628513336182, 0.21279844641685486, -0.27924081683158875, -0.8434593677520752, 0.4656785726547241, -0.2678051292896271, 0.10665827989578247, -0.11483326554298401, 0.048429638147354126, -0.3664987469612853, -0.48143131109989257, 0.78768425427309,-0.11599994181750328,-0.761016845703125,0.3459625244140625,-0.1777191162109375
20220227-1541,2022-02-27 15:41:57Z,u01, 47,40,movements,el-ex, rt, d,297596.9619312917, -1.2678776773079592, -0.48319766279680343, -0.671762438224304, -0.25786375999450684, 0.27068793773651123, -0.2475309669971466, -0.8451963067054749, 0.4646131098270416, -0.26415517926216125, 0.018276691436767578, -0.02853214740753174, 0.05707824230194092, -0.3715565685454649, -0.4794456460478217, 0.7852956434619734,-0.12404992058945502,-0.8296966552734375,0.4499969482421875,-0.2180938720703125
20220227-1541,2022-02-27 15:41:57Z,u01, 48,40,movements,el-ex, rt, d,297596.9868752917, -1.2559464322584994, -0.4743028761852753, -0.6652477618781933, 0.7278240323066711, 0.4297593832015991, -0.29074424505233765, -0.8458806276321411, 0.456718385219574, -0.27548930048942566, 0.014276564121246338, -0.057334840297698975, 0.025413095951080322, -0.3661591458587387, -0.4776848688065574, 0.788526648859037,-0.12637421382235436,-0.794525146484375,0.36737060546875,-0.276824951171875
20220227-1541,2022-02-27 15:41:57Z,u01, 49,40,movements,el-ex, rt, d,297597.0118202917, -1.2393031405350157, -0.4618680491635254, -0.6511930700509998, 0.3852662742137909, 0.3815147280693054, -0.34174999594688416, -0.8464834690093994, 0.44562119245529175, -0.29135459661483765, 0.056246042251586914, -0.12625473737716675, 0.02373078465461731, -0.35737829698367474, -0.4760288333307131, 0.7933528967117143,-0.12754795955300396,-0.8204498291015625,0.3072052001953125,-0.2454986572265625
20220227-1541,2022-02-27 15:41:57Z,u01, 50,40,movements,el-ex, rt, d,297597.0367642917, -1.2296600088473535, -0.4533648673729282, -0.6513699694544777, -0.09528075158596039, 0.40211939811706543, -0.30980587005615234, -0.8471748232841492, 0.43799296021461487, -0.30076053738594055, -0.045418500900268555, -0.15411844849586487, 0.0982002317905426, -0.35377423798144886, -0.4737758111635668, 0.7956095201459346,-0.13185492952291322,-0.866180419921875,0.308624267578125,-0.22052001953125
20220227-1541,2022-02-27 15:41:57Z,u01, 51,40,movements,el-ex, rt, d,297597.0617082917, -1.2213683895427556, -0.4464847544137293, -0.6550885081886088, 0.08265003561973572, 0.4122627377510071, -0.3378530740737915, -0.8474633097648621, 0.4317975640296936, -0.30879896879196167, 0.07063835859298706, -0.10132274031639099, -0.01635041832923889, -0.35163902649755696, -0.47111623917959494, 0.7972942352964086,-0.13682608052455458,-0.764556884765625,0.3282470703125,-0.3489837646484375
20220227-1541,2022-02-27 15:41:57Z,u01, 52,40,movements,el-ex, rt, d,297597.0866532917, -1.2116278587361018, -0.43675573893088737, -0.6538067521312836, 0.2664825916290283, 0.3089204430580139, -0.34856584668159485, -0.8483082056045532, 0.4230019748210907, -0.3185005486011505, 0.10674631595611572, -0.1185128390789032, -0.044353365898132324, -0.3471686711544918, -0.4692799131604248, 0.7996294794891479,-0.14086542578247196,-0.7960052490234375,0.2841949462890625,-0.33489990234375
20220227-1541,2022-02-27 15:41:57Z,u01, 53,40,movements,el-ex, rt, d,297597.11159804167, -1.2011807841779694, -0.4265213725317576, -0.6471025718136096, 0.48862481117248535, 0.3222047686576843, -0.2507120668888092, -0.8489270806312561, 0.41370633244514465, -0.3288921117782593, -0.016780376434326172, -0.11290982365608215, 0.024754047393798828, -0.34115425216025225, -0.468153517696842, 0.8025026796048533,-0.14295318163356824,-0.8517303466796875,0.2986907958984375,-0.3099365234375
20220227-1541,2022-02-27 15:41:57Z,u01, 54,40,movements,el-ex, rt, d,297597.13654204167, -1.1887708129981245, -0.4163289964852398, -0.6381699274416768, 0.2700054347515106, 0.39085686206817627, -0.2750178575515747, -0.8486489057540894, 0.40440577268600464, -0.3409559726715088, 0.044892191886901855, -0.14444172382354736, -0.00599825382232666, -0.3344555484152947, -0.46654206656677033, 0.8059949810587164,-0.14439558202504776,-0.77008056640625,0.21722412109375,-0.3882598876953125
20220227-1541,2022-02-27 15:41:57Z,u01, 55,40,movements,el-ex, rt, d,297597.1614870417, -1.18085389680206, -0.40987935919051116, -0.6432256576172792, -0.5169956088066101, 0.38451364636421204, -0.3433317244052887, -0.8483179211616516, 0.39849868416786194, -0.34864816069602966, 0.12427306175231934, -0.27679458260536194, -0.039932072162628174, -0.33268045477231756, -0.4636805328571315, 0.8074303122670363,-0.14960072102179867,-0.74176025390625,0.1280517578125,-0.374481201171875
20220227-1541,2022-02-27 15:41:57Z,u01, 56,40,movements,el-ex, rt, d,297597.1864310417, -1.180548525546169, -0.41121118457780054, -0.6673811123125484, -0.9605007171630859, 0.4200199842453003, -0.24908991158008575, -0.8477199077606201, 0.39971983432769775, -0.3487050235271454, 0.04474133253097534, -0.21928465366363525, -0.005008876323699951, -0.3387188967644209, -0.4592570083350116, 0.8056471870731121,-0.1590133761563814,-0.8262481689453125,0.252105712890625,-0.3426666259765625
20220227-1541,2022-02-27 15:41:57Z,u01, 57,40,movements,el-ex, rt, d,297597.2113750417, -1.179604516322703, -0.4141317278649241, -0.6921378610400202, -0.7732877731323242, 0.43013057112693787, -0.23105992376804352, -0.8463075160980225, 0.40239521861076355, -0.34905850887298584, 0.031335532665252686, -0.07590290904045105, 0.0032486915588378906, -0.34535881598218054, -0.4540903363312109, 0.8038676409288668,-0.16830389530837764,-0.812103271484375,0.324310302734375,-0.3620147705078125
20220227-1541,2022-02-27 15:41:57Z,u01, 58,40,movements,el-ex, rt, d,297597.2363200417, -1.176558821158008, -0.4135720262073819, -0.71031216360142, -0.4329080283641815, 0.41830724477767944, -0.32245394587516785, -0.8454482555389404, 0.40188276767730713, -0.351720929145813, 0.019856154918670654, -0.10668620467185974, -0.04700636863708496, -0.34900055640146294, -0.44982013458689746, 0.8029827909364484,-0.17629282440646493,-0.8592529296875,0.2693939208984375,-0.431304931640625
20220227-1541,2022-02-27 15:41:57Z,u01, 59,40,movements,el-ex, rt, d,297597.2612640417, -1.1695289009074303, -0.4088898181620608, -0.7209584448656119, -0.17736992239952087, 0.49320295453071594, -0.30903786420822144, -0.844677746295929, 0.39759090542793274, -0.3583866357803345, -0.02009892463684082, -0.07604244351387024, -0.06017708778381348, -0.34905811687940974, -0.4460550541486894, 0.803529273384369,-0.18312304373803467,-0.8541107177734375,0.3276519775390625,-0.403289794921875
20220227-1541,2022-02-27 15:41:57Z,u01, 60,40,movements,el-ex, rt, d,297597.28620904166, -1.1602856095208267, -0.40341140068917786, -0.7293745879439286, -0.29672080278396606, 0.5166392922401428, -0.3287689685821533, -0.8433136343955994, 0.39255818724632263, -0.367042601108551, -0.00200808048248291, -0.06179341673851013, -0.012382328510284424, -0.34807796396852686, -0.4419507103291459, 0.8047049047214512,-0.1896613212466553,-0.84649658203125,0.3291473388671875,-0.3737640380859375
20220227-1541,2022-02-27 15:41:57Z,u01, 61,40,movements,el-ex, rt, d,297597.31115304166, -1.1534719246616163, -0.3999813395063423, -0.7446761526570366, -0.6323421001434326, 0.4967467188835144, -0.39566710591316223, -0.8420191407203674, 0.3894011676311493, -0.3733236491680145, -0.0025091171264648438, -0.0920836329460144, -0.04574364423751831, -0.3495355708538707, -0.4372219788129825, 0.8046559087615195,-0.1979664545933405,-0.854095458984375,0.3143768310546875,-0.4142303466796875
20220227-1541,2022-02-27 15:41:58Z,u01, 62,40,movements,el-ex, rt, d,297597.33609704167, -1.1490784263754523, -0.3980622796885063, -0.7640657755681944, -0.3832903504371643, 0.49456164240837097, -0.27946799993515015, -0.8410509824752808, 0.3876328468322754, -0.3773246109485626, -0.10410887002944946, -0.038862764835357666, -0.05636054277420044, -0.35261099394508066, -0.4324386509492723, 0.8036074090464471,-0.20706840190453868,-0.98095703125,0.3886871337890625,-0.429046630859375
20220227-1541,2022-02-27 15:41:58Z,u01, 63,40,movements,el-ex, rt, d,297597.3610420417, -1.1380225869582026, -0.39146291732085575, -0.7665079181650426, 0.46023204922676086, 0.45232194662094116, -0.2752701938152313, -0.8391321301460266, 0.38154107332229614, -0.3876643478870392, -0.11400812864303589, 0.01909366250038147, -0.030823081731796265, -0.34958560188977905, -0.42890294779448584, 0.8055835245199422,-0.2118191658733014,-0.9487152099609375,0.3880767822265625,-0.413665771484375
20220227-1541,2022-02-27 15:41:58Z,u01, 64,40,movements,el-ex, rt, d,297597.3859860417, -1.121455828048424, -0.37650171678313693, -0.7518809708580461, 0.8849243521690369, 0.42945340275764465, -0.33948779106140137, -0.8376432657241821, 0.3676694631576538, -0.4039466977119446, -0.12337058782577515, 0.012976229190826416, -0.016402333974838257, -0.33921624209693585, -0.4277370571669822, 0.8103478648697758,-0.2128607254158093,-0.967437744140625,0.38775634765625,-0.4316558837890625
20220227-1541,2022-02-27 15:41:58Z,u01, 65,40,movements,el-ex, rt, d,297597.4109300417, -1.105899164784564, -0.3610019939213069, -0.7370363009354964, 0.601953387260437, 0.38975510001182556, -0.2741467356681824, -0.8362520337104797, 0.35321182012557983, -0.41943302750587463, -0.16306138038635254, 0.019316256046295166, -0.030609607696533203, -0.32863396880124773, -0.4269463716497827, 0.8149140387580571,-0.21361588068629078,-0.9876861572265625,0.356903076171875,-0.4502410888671875
20220227-1541,2022-02-27 15:41:58Z,u01, 66,40,movements,el-ex, rt, d,297597.4358750417, -1.0943034072151163, -0.3500095457391389, -0.7283661084418975, 0.4933708906173706, 0.30718398094177246, -0.2066923975944519, -0.8347321152687073, 0.34290677309036255, -0.4308564364910126, -0.120697021484375, -0.03950101137161255, -0.019689738750457764, -0.32141975353911195, -0.42574771756768914, 0.8180753510138612,-0.2148976652150853,-0.9456787109375,0.2996673583984375,-0.4640045166015625
20220227-1541,2022-02-27 15:41:58Z,u01, 67,40,movements,el-ex, rt, d,297597.4608190417, -1.0827781872064361, -0.3390014083352651, -0.7149903740681496, 0.7678645253181458, 0.25678426027297974, -0.09900182485580444, -0.832994818687439, 0.3325454890727997, -0.4421912431716919, -0.09400713443756104, -0.01897740364074707, -0.03714826703071594, -0.31316995513834744, -0.42523988364327014, 0.8217258563364012,-0.21415465371820946,-0.9257659912109375,0.3050994873046875,-0.4840850830078125
20220227-1541,2022-02-27 15:41:58Z,u01, 68,40,movements,el-ex, rt, d,297597.4857630417, -1.0708875911616116, -0.3289995569975549, -0.6968689016470461, 0.7651505470275879, 0.22972933948040009, 0.0351870134472847, -0.83055579662323, 0.3230963945388794, -0.4536362886428833, -0.0907241702079773, -0.026053577661514282, -0.03357672691345215, -0.30422827895122023, -0.42500236001908676, 0.8259758934308691,-0.2111447617305135,-0.9108428955078125,0.2993316650390625,-0.47222900390625
20220227-1541,2022-02-27 15:41:58Z,u01, 69,40,movements,el-ex, rt, d,297597.51070804166, -1.0599749504625264, -0.32220679380600964, -0.6798683641616577, 0.6674067378044128, 0.2140839397907257, 0.08606763184070587, -0.8274515271186829, 0.3166605532169342, -0.4637349545955658, -0.07814240455627441, -0.029780030250549316, 0.008214414119720459, -0.29685309050032643, -0.4242767630863638, 0.8299442997662811,-0.20750900848222442,-0.9038848876953125,0.2847747802734375,-0.450592041015625
20220227-1541,2022-02-27 15:41:58Z,u01, 70,40,movements,el-ex, rt, d,297597.53565204167, -1.0497763556463133, -0.3148518354981893, -0.6641177119937889, 0.660672664642334, 0.2092578262090683, -0.026029007509350777, -0.8246769309043884, 0.3096756041049957, -0.47329607605934143, -0.07101404666900635, -0.022917181253433228, 0.013548851013183594, -0.2895987676993413, -0.4236561344289826, 0.8336013298685592,-0.20434525566665884,-0.8858489990234375,0.3133544921875,-0.4845733642578125
20220227-1541,2022-02-27 15:41:58Z,u01, 71,40,movements,el-ex, rt, d,297597.5605960417, -1.041647897561187, -0.3044178234401037, -0.6517803204944179, 0.6845592856407166, 0.1495964378118515, -0.19003571569919586, -0.8235470056533813, 0.299737811088562, -0.48158860206604004, -0.07011455297470093, 0.0303097665309906, -0.03406676650047302, -0.28206027544105794, -0.4238486775292042, 0.8364079884305213,-0.20301717016654747,-0.901031494140625,0.3313751220703125,-0.5204620361328125
20220227-1541,2022-02-27 15:41:58Z,u01, 72,40,movements,el-ex, rt, d,297597.5855410417, -1.03120109857234, -0.28496240511103915, -0.6284030904267837, 1.8559393882751465, 0.1388336569070816, -0.24197149276733398, -0.8233188390731812, 0.2811213731765747, -0.49306878447532654, -0.06655848026275635, 0.07388961315155029, -0.0021550655364990234, -0.2683299672956193, -0.42598665497743693, 0.8406586819251947,-0.1995678251249411,-0.86895751953125,0.3825225830078125,-0.4881134033203125
20220227-1541,2022-02-27 15:41:58Z,u01, 73,40,movements,el-ex, rt, d,297597.6104850417, -1.0144452442991834, -0.24572493357764497, -0.5791145555899881, 2.7354586124420166, 0.14761629700660706, -0.481078565120697, -0.8236792087554932, 0.24325954914093018, -0.5122278928756714, 0.0031682252883911133, 0.1938895285129547, -0.023065567016601562, -0.24031430458235148, -0.4314337424539797, 0.8483916349404493,-0.19064543315399468,-0.8123016357421875,0.4343109130859375,-0.5569610595703125
20220227-1541,2022-02-27 15:41:58Z,u01, 74,40,movements,el-ex, rt, d,297597.6354290417, -1.0018663826695606, -0.20074323911739764, -0.5346842410710774, 1.8823009729385376, 0.0667731836438179, -0.7005112767219543, -0.8255598545074463, 0.19939769804477692, -0.527912437915802, 0.0012800097465515137, 0.1919291913509369, -0.07055240869522095, -0.21099654093614928, -0.43763482611237037, 0.8544304202867092,-0.18413299972092384,-0.8740081787109375,0.3576507568359375,-0.5927581787109375
20220227-1541,2022-02-27 15:41:58Z,u01, 75,40,movements,el-ex, rt, d,297597.6603740417, -0.9974186285260997, -0.16802293739326907, -0.5154438481335503, 0.9511302709579468, 0.00634765625, -0.6951694488525391, -0.8282430171966553, 0.1672334522008896, -0.5348331928253174, -0.11063039302825928, 0.1097899079322815, -0.030108094215393066, -0.19273479472838329, -0.44208223497446, 0.8564308804246475,-0.1842356354634983,-0.947540283203125,0.2651214599609375,-0.5506744384765625
20220227-1541,2022-02-27 15:41:58Z,u01, 76,40,movements,el-ex, rt, d,297597.6853180417, -0.9967622990438579, -0.140089753367647, -0.508081712959162, 0.8465099334716797, -0.033633649349212646, -0.8757787346839905, -0.8314909338951111, 0.139631986618042, -0.5377041697502136, -0.1720796823501587, 0.0712597668170929, 0.0335233211517334, -0.17933720672525744, -0.44607856426749504, 0.8564894242062806,-0.18782437217814169,-1.0302276611328125,0.2332916259765625,-0.526947021484375
20220227-1541,2022-02-27 15:41:58Z,u01, 77,40,movements,el-ex, rt, d,297597.7102620417, -0.996498189402678, -0.10920451382977872, -0.5033493510270529, 0.8170802593231201, 0.027783773839473724, -0.9607936143875122, -0.8345725536346436, 0.10898758471012115, -0.540009617805481, -0.20879298448562622, 0.17153000831604004, -0.15913277864456177, -0.16525899712465836, -0.4502051287077116, 0.855974460680822,-0.1931645853469482,-1.054229736328125,0.267425537109375,-0.7259521484375
20220227-1541,2022-02-27 15:41:58Z,u01, 78,40,movements,el-ex, rt, d,297597.73520704167, -0.9940123271898806, -0.07876085232315456, -0.49986078008722284, 0.7317681312561035, 0.1415036916732788, -0.9067767262458801, -0.8356223106384277, 0.07867944985628128, -0.5436405539512634, -0.2806040048599243, 0.09636938571929932, -0.1978297233581543, -0.15136936594576744, -0.45306406549134864, 0.8556853301149718,-0.199055340141497,-1.15252685546875,0.141815185546875,-0.7285614013671875
20220227-1541,2022-02-27 15:41:58Z,u01, 79,40,movements,el-ex, rt, d,297597.7601510417, -0.9898863434613152, -0.05236287702898575, -0.49789616920735436, 0.47617629170417786, 0.16267260909080505, -0.7888439893722534, -0.8348178267478943, 0.05233895033597946, -0.5480327010154724, -0.368780255317688, 0.07255426049232483, -0.2149219512939453, -0.13931479821266524, -0.45450526323831997, 0.8556386536888867,-0.20469213033566908,-1.214691162109375,0.1133575439453125,-0.7750244140625
20220227-1541,2022-02-27 15:41:58Z,u01, 80,40,movements,el-ex, rt, d,297597.7850950417, -0.9869420108971508, -0.03513561807473398, -0.5037983407039015, -0.09629348665475845, 0.08887588977813721, -0.6090866923332214, -0.8338292837142944, 0.0351283885538578, -0.5509036779403687, -0.4122035503387451, 0.029141638427972794, -0.25807154178619385, -0.13302770176240042, -0.45480962657085144, 0.8548425212178407,-0.21141492109946386,-1.2807159423828125,0.061431884765625,-0.83551025390625
20220227-1541,2022-02-27 15:41:58Z,u01, 81,40,movements,el-ex, rt, d,297597.8100400417, -0.9861822450329917, -0.02835889586370819, -0.5155027411505544, -0.35070639848709106, -0.0021622758358716965, -0.354483038187027, -0.8335897922515869, 0.02835509553551674, -0.551655650138855, -0.4911172389984131, 0.05446961522102356, -0.3407697081565857, -0.13272559216394536, -0.4544844087903047, 0.8533999283519126,-0.21802830086309227,-1.337066650390625,0.096771240234375,-0.9052276611328125
20220227-1541,2022-02-27 15:41:58Z,u01, 82,40,movements,el-ex, rt, d,297597.8349840417, -0.9878965491427741, -0.029859144389205613, -0.5266060443386226, -0.42791748046875, -0.1060756966471672, -0.042307913303375244, -0.83449786901474, 0.029854707419872284, -0.5502018332481384, -0.5484672784805298, 0.085028737783432, -0.371886670589447, -0.13607382682366892, -0.4542939496283045, 0.8518704938312662,-0.22230083473261802,-1.41802978515625,0.1036834716796875,-0.93621826171875
20220227-1541,2022-02-27 15:41:58Z,u01, 83,40,movements,el-ex, rt, d,297597.8599280417, -0.9924148132064341, -0.03772855381569968, -0.5344334970743315, -0.4994465410709381, -0.22775505483150482, 0.2102917730808258, -0.836752712726593, 0.03771960362792015, -0.5462804436683655, -0.6272977590560913, 0.08001723885536194, -0.3698267340660095, -0.14168864560601535, -0.4547352089772887, 0.8504049364305151,-0.22349912608403338,-1.4789886474609375,0.1262359619140625,-0.9112396240234375
20220227-1541,2022-02-27 15:41:58Z,u01, 84,40,movements,el-ex, rt, d,297597.8848730417, -1.0001378998961958, -0.053126059734484615, -0.5421940872608957, -0.7095609903335571, -0.36518895626068115, 0.4787862300872803, -0.8403581976890564, 0.0531010739505291, -0.5394241213798523, -0.6871381998062134, 0.1090235710144043, -0.3778425455093384, -0.15081197543345373, -0.45556962402375684, 0.8486114077733073,-0.2226448405585087,-1.543853759765625,0.1966705322265625,-0.9174041748046875
20220227-1541,2022-02-27 15:41:58Z,u01, 85,40,movements,el-ex, rt, d,297597.9098170417, -1.0118501954292478, -0.07699683551759699, -0.5517196762846885, -0.9352591037750244, -0.5337943434715271, 0.7260909080505371, -0.8453025817871094, 0.0769207775592804, -0.5287218689918518, -0.7076760530471802, 0.09092593193054199, -0.39896661043167114, -0.16429374753413198, -0.4567785312658614, 0.8461111356107053,-0.22012939118293945,-1.5556640625,0.1736907958984375,-0.919830322265625
20220227-1541,2022-02-27 15:41:58Z,u01, 86,40,movements,el-ex, rt, d,297597.93476104166, -1.028301077081097, -0.10737239175105347, -0.5612231674149397, -0.9363886713981628, -0.7100337743759155, 0.9543079733848572, -0.8514911532402039, 0.10716620087623596, -0.5133014917373657, -0.7334851026535034, 0.10595333576202393, -0.3610270619392395, -0.1808984107325, -0.45893903022010923, 0.8427572376647627,-0.21543242043584504,-1.60321044921875,0.2536163330078125,-0.8356781005859375
20220227-1541,2022-02-27 15:41:58Z,u01, 87,40,movements,el-ex, rt, d,297597.95970604167, -1.048434362819275, -0.14115176635737992, -0.5671991636806984, -0.8417896032333374, -0.8223647475242615, 1.1344285011291504, -0.8580241203308105, 0.14068351686000824, -0.4939664900302887, -0.736153244972229, 0.18008679151535034, -0.25441598892211914, -0.19831714202822057, -0.4622629784560898, 0.8389419432545743,-0.20774929712377288,-1.5873870849609375,0.34368896484375,-0.7310791015625
20220227-1541,2022-02-27 15:41:58Z,u01, 88,40,movements,el-ex, rt, d,297597.9846500417, -1.0696205069622957, -0.1769229565946178, -0.5698431166778903, -0.7439495921134949, -0.8259544968605042, 1.2389676570892334, -0.8633279800415039, 0.1760013997554779, -0.47295716404914856, -0.6942129731178284, 0.19442099332809448, -0.21803700923919678, -0.21564665923859963, -0.4658518428667354, 0.835106781426189,-0.19767505157585158,-1.5325164794921875,0.356292724609375,-0.6555938720703125
20220227-1541,2022-02-27 15:41:58Z,u01, 89,40,movements,el-ex, rt, d,297598.0095940417, -1.0891841309874024, -0.2120650131680894, -0.5691616734421923, -0.47321006655693054, -0.7486244440078735, 1.2685223817825317, -0.8663959503173828, 0.21047909557819366, -0.4528319835662842, -0.6381207704544067, 0.15171876549720764, -0.11148369312286377, -0.23151663980349646, -0.4690245716477391, 0.831719672735157,-0.18616805778826945,-1.494354248046875,0.365386962890625,-0.5402374267578125
20220227-1541,2022-02-27 15:41:58Z,u01, 90,40,movements,el-ex, rt, d,297598.0345390417, -1.1044784265332583, -0.24242511964491614, -0.5567478454479603, 0.23343615233898163, -0.7323038578033447, 1.332090139389038, -0.8671106696128845, 0.2400575429201126, -0.43645352125167847, -0.5873419046401978, 0.14212939143180847, -0.04525113105773926, -0.24207616467425197, -0.4724112350073239, 0.8300025664304908,-0.17123866663104415,-1.427001953125,0.3787841796875,-0.453643798828125
20220227-1541,2022-02-27 15:41:58Z,u01, 91,40,movements,el-ex, rt, d,297598.0594830417, -1.1169630809805535, -0.26816492383879864, -0.532061182299298, 0.4255159795284271, -0.7655563354492188, 1.3685266971588135, -0.866649866104126, 0.26496240496635437, -0.422744482755661, -0.591388463973999, 0.08492159843444824, -0.0021058320999145508, -0.24744359569628535, -0.4768641568903109, 0.829507014995998,-0.1526115972584438,-1.44482421875,0.341522216796875,-0.4385528564453125
20220227-1541,2022-02-27 15:41:58Z,u01, 92,40,movements,el-ex, rt, d,297598.0844270417, -1.1318776659020284, -0.2967029543957451, -0.5124047987316193, -0.12753598392009735, -0.8693780303001404, 1.3466527462005615, -0.8656590580940247, 0.2923688292503357, -0.40639248490333557, -0.49093884229660034, 0.011097997426986694, -0.07059714198112488, -0.2550776210194926, -0.48139294294065005, 0.8276494172779632,-0.13488032233279384,-1.3064422607421875,0.26251220703125,-0.48797607421875
20220227-1541,2022-02-27 15:41:58Z,u01, 93,40,movements,el-ex, rt, d,297598.10937275004, -1.1528433582924982, -0.33039792028631015, -0.5052574698489309, -0.38804134726524353, -1.0124690532684326, 1.3325378894805908, -0.864490807056427, 0.32441943883895874, -0.3839372396469116, -0.3486440181732178, -0.09033432602882385, -0.07506227493286133, -0.2678752571478783, -0.48608047112438224, 0.823156472819812,-0.11992566911694125,-1.197540283203125,0.244873046875,-0.439300537109375
20220227-1541,2022-02-27 15:41:58Z,u01, 94,40,movements,el-ex, rt, d,297598.13431675005, -1.1765515340166834, -0.3621830230398888, -0.49405570452221576, 0.2592020034790039, -1.1866971254348755, 1.316615104675293, -0.863389253616333, 0.35431647300720215, -0.35919204354286194, -0.27059823274612427, -0.11553168296813965, -0.05928012728691101, -0.2787531930764249, -0.49264655815019165, 0.8178933808548983,-0.10318178900505526,-1.1032257080078125,0.2154693603515625,-0.4017791748046875
20220227-1541,2022-02-27 15:41:58Z,u01, 95,40,movements,el-ex, rt, d,297598.15926075, -1.194702167119052, -0.38518456796802375, -0.4636240586566593, 1.1183950901031494, -1.1084903478622437, 1.222102165222168, -0.8619566559791565, 0.3757301867008209, -0.3403787612915039, -0.20823383331298828, -0.26301345229148865, -0.07267653942108154, -0.2808549887627223, -0.5009302254190171, 0.8145672416814143,-0.08166841928548768,-1.0610198974609375,0.0896759033203125,-0.412017822265625
20220227-1541,2022-02-27 15:41:58Z,u01, 96,40,movements,el-ex, rt, d,297598.18420575, -1.2032411668538745, -0.39988652186764084, -0.4247041548598386, 0.91799396276474, -0.7814605236053467, 0.8914879560470581, -0.8595833778381348, 0.38931381702423096, -0.33098530769348145, -0.13406896591186523, -0.3735361695289612, -0.058174729347229004, -0.2769722485143814, -0.5077339036869113, 0.8135378102825319,-0.06040661571469802,-0.9185943603515625,-0.0287933349609375,-0.3931121826171875
20220227-1541,2022-02-27 15:41:58Z,u01, 97,40,movements,el-ex, rt, d,297598.20914975, -1.2111456862806085, -0.4120192948339898, -0.4031217863342903, 0.16056376695632935, -0.5413680076599121, 0.6403710842132568, -0.8576881289482117, 0.40046045184135437, -0.3224942088127136, -0.01308518648147583, -0.42405053973197937, 0.061904698610305786, -0.2763260830531987, -0.5122468113871189, 0.8118095318796023,-0.0470357684978609,-0.8893585205078125,-0.0032806396484375,-0.2176361083984375
20220227-1541,2022-02-27 15:41:58Z,u01, 98,40,movements,el-ex, rt, d,297598.23409375, -1.2211571938427557, -0.4286692095435692, -0.40122994862767025, -0.4088740348815918, -0.32073503732681274, 0.6706846952438354, -0.8544905185699463, 0.4156607985496521, -0.31156399846076965, -0.06538558006286621, -0.4181784987449646, 0.1509806215763092, -0.2824079963485967, -0.514260368437577, 0.8088138074483961,-0.04002853941923801,-0.8957061767578125,0.0088348388671875,-0.1545562744140625
20220227-1541,2022-02-27 15:41:58Z,u01, 99,40,movements,el-ex, rt, d,297598.25903875, -1.2336002595684554, -0.44812338366057797, -0.41505844664386266, -1.069096565246582, -0.2100413739681244, 0.41467174887657166, -0.8505080938339233, 0.4332749843597412, -0.29817554354667664, 0.11814731359481812, -0.440141499042511, 0.05347055196762085, -0.2935618151030074, -0.5145227734064858, 0.8047578963815408,-0.03811046287540226,-0.690155029296875,-0.01104736328125,-0.2733612060546875
20220227-1541,2022-02-27 15:41:58Z,u01, 100,40,movements,el-ex, rt, d,297598.28398275, -1.2525221439633893, -0.46375704400555556, -0.45178808368398427, -1.7756859064102173, 0.005801241844892502, -0.04665932059288025, -0.8494598269462585, 0.4473114609718323, -0.27987590432167053, 0.23157036304473877, -0.4427033066749573, -0.058670759201049805, -0.3092284770202058, -0.5142371004937165, 0.798675131152402,-0.04534359186630915,-0.6173248291015625,0.022125244140625,-0.3351287841796875
20220227-1541,2022-02-27 15:41:58Z,u01, 101,40,movements,el-ex, rt, d,297598.30892675003, -1.2707346324306614, -0.4694636433485911, -0.49816959089384166, -1.1891266107559204, 0.1991346925497055, -0.5678442716598511, -0.8519634008407593, 0.4524080157279968, -0.26360073685646057, 0.3082927465438843, -0.2971346080303192, -0.010904759168624878, -0.3237067536448409, -0.5132383106516982, 0.7926512359810511,-0.05919773895016772,-0.4900970458984375,0.2192840576171875,-0.2433929443359375
20220227-1541,2022-02-27 15:41:59Z,u01, 102,40,movements,el-ex, rt, d,297598.33387175004, -1.2749577547687971, -0.4508548779049041, -0.5188351426487201, 0.13318434357643127, 0.20010633766651154, -1.2755320072174072, -0.8609738945960999, 0.43573513627052307, -0.2624097466468811, 0.5198178291320801, -0.11409512162208557, 0.12653034925460815, -0.32242171043355794, -0.514625466457656, 0.7911839400394765,-0.07233863836237686,-0.25872802734375,0.225860595703125,-0.16278076171875
20220227-1541,2022-02-27 15:41:59Z,u01, 103,40,movements,el-ex, rt, d,297598.35881575, -1.272263918085284, -0.41239831027522034, -0.5243885952102725, 0.17042982578277588, 0.22294580936431885, -1.7037761211395264, -0.8756394982337952, 0.4008077085018158, -0.26945963501930237, 0.7434831857681274, -0.30782070755958557, 0.01804068684577942, -0.3097909783765358, -0.5189409749456774, 0.7919779041749576,-0.0866066702411557,-0.1183929443359375,0.0652008056640625,-0.2880096435546875
20220227-1541,2022-02-27 15:41:59Z,u01, 104,40,movements,el-ex, rt, d,297598.38375975, -1.2729336868028096, -0.37407314880557485, -0.5460319275225854, -0.9290506839752197, 0.38247960805892944, -1.6715033054351807, -0.8898577690124512, 0.3654099404811859, -0.2731826901435852, 0.8250688910484314, -0.37636569142341614, -0.026362478733062744, -0.3014666434933906, -0.5220407210275602, 0.7907088804648884,-0.10663418587751272,-0.05078125,-0.0262298583984375,-0.2277984619140625
20220227-1541,2022-02-27 15:41:59Z,u01, 105,40,movements,el-ex, rt, d,297598.40870475, -1.2777845742427911, -0.3461845412153278, -0.5861485367886929, -0.9657028317451477, 0.3530281186103821, -1.3757190704345703, -0.9005810022354126, 0.3393111824989319, -0.2717014253139496, 0.8113324046134949, -0.3522201478481293, 0.036029547452926636, -0.3020596804275324, -0.5224071584072086, 0.7867133332161907,-0.13012606304444713,-0.0852203369140625,0.0310821533203125,-0.2314453125
20220227-1541,2022-02-27 15:41:59Z,u01, 106,40,movements,el-ex, rt, d,297598.43364875, -1.2810763944385932, -0.31972640405157565, -0.6119346086969675, -0.29069292545318604, 0.05451019108295441, -1.1480780839920044, -0.9097574949264526, 0.3143068552017212, -0.2712058126926422, 0.8203104734420776, -0.2140718400478363, 0.036266326904296875, -0.29942063039287226, -0.5241606423086884, 0.7834434544597143,-0.14771370801465972,-0.125762939453125,0.1140289306640625,-0.238006591796875
20220227-1541,2022-02-27 15:41:59Z,u01, 107,40,movements,el-ex, rt, d,297598.45859275, -1.284367732314932, -0.29645966288664644, -0.6193619739196753, 0.2066033035516739, -0.08407105505466461, -0.7916767001152039, -0.9174131155014038, 0.29213616251945496, -0.2702033519744873, 0.6880276203155518, -0.06250661611557007, 0.022812724113464355, -0.29317078504629573, -0.5281564262774736, 0.7812908112237746,-0.1571192966866905,-0.2624053955078125,0.2639312744140625,-0.241912841796875
20220227-1541,2022-02-27 15:41:59Z,u01, 108,40,movements,el-ex, rt, d,297598.48353775, -1.2860309233200957, -0.27923666625821725, -0.6165583941052326, 0.38197046518325806, -0.09818874299526215, -0.5479758977890015, -0.9225535988807678, 0.2756219506263733, -0.27005070447921753, 0.5898357033729553, -0.013476014137268066, 0.010895520448684692, -0.28628562413492564, -0.5319917188611678, 0.780461709266352,-0.1609498484202973,-0.34844970703125,0.226837158203125,-0.241973876953125
20220227-1541,2022-02-27 15:41:59Z,u01, 109,40,movements,el-ex, rt, d,297598.50848175003, -1.2886076438601701, -0.2678550058999613, -0.6154435495281413, -0.06555657833814621, -0.12525445222854614, -0.1930372267961502, -0.9261995553970337, 0.26466354727745056, -0.26852884888648987, 0.5356965661048889, -0.061965763568878174, 0.12924671173095703, -0.2820410401341207, -0.5349658157328812, 0.7794307288313984,-0.16356125945380262,-0.42169189453125,0.195770263671875,-0.120635986328125
20220227-1541,2022-02-27 15:41:59Z,u01, 110,40,movements,el-ex, rt, d,297598.53342575004, -1.2930332191127727, -0.2665482862978731, -0.6196630959347171, -0.37245437502861023, -0.11979636549949646, 0.10411900281906128, -0.9277106523513794, 0.2634032070636749, -0.26452186703681946, 0.40511226654052734, 0.06250935792922974, 0.15912947058677673, -0.2830576805793733, -0.5362997402258325, 0.7778467784098322,-0.1649710073385937,-0.5735321044921875,0.42315673828125,-0.1154937744140625
20220227-1541,2022-02-27 15:41:59Z,u01, 111,40,movements,el-ex, rt, d,297598.55837075, -1.2976933938059716, -0.27379728549124804, -0.6299907933142718, -0.42718157172203064, -0.048501476645469666, 0.20245562493801117, -0.9270702600479126, 0.27038922905921936, -0.2596738934516907, 0.2894816994667053, 0.17542681097984314, 0.08140552043914795, -0.2888456877870458, -0.5354729023457236, 0.7760387492513136,-0.16613508702988095,-0.6455841064453125,0.446685791015625,-0.1917572021484375
20220227-1541,2022-02-27 15:41:59Z,u01, 112,40,movements,el-ex, rt, d,297598.58331475, -1.300548405666339, -0.28225143969736466, -0.6365831098202404, -0.22470594942569733, -0.026661694049835205, 0.26959097385406494, -0.9255717992782593, 0.2785187065601349, -0.25640660524368286, 0.2268412709236145, 0.21136474609375, 0.04118144512176514, -0.2939032366353461, -0.5342448790301826, 0.7750735128499209,-0.16572411864239667,-0.73919677734375,0.53656005859375,-0.2042236328125
20220227-1541,2022-02-27 15:41:59Z,u01, 113,40,movements,el-ex, rt, d,297598.60825875, -1.3014477941421856, -0.28948008951093523, -0.6401978010025304, -0.2588694095611572, 0.027633171528577805, 0.22294992208480835, -0.9238370656967163, 0.2854539752006531, -0.2550315856933594, 0.1330960988998413, 0.2693555951118469, 0.043407559394836426, -0.2975471417572546, -0.5328694955722452, 0.7748256415188595,-0.16480613547021383,-0.797088623046875,0.543212890625,-0.2172088623046875
20220227-1541,2022-02-27 15:41:59Z,u01, 114,40,movements,el-ex, rt, d,297598.63320375, -1.3033027473971324, -0.29739165453477595, -0.6468139606090169, -0.39381861686706543, -0.04237474128603935, 0.26947686076164246, -0.922101616859436, 0.2930273711681366, -0.2527126371860504, 0.11926037073135376, 0.1937890648841858, 0.009396076202392578, -0.302301992609884, -0.5312788154201407, 0.7741009143957595,-0.16469425856942355,-0.8077392578125,0.4908447265625,-0.27020263671875
20220227-1541,2022-02-27 15:41:59Z,u01, 115,40,movements,el-ex, rt, d,297598.65814775, -1.3057157395911747, -0.30677969858062126, -0.6507046926875207, -0.043276503682136536, -0.11382642388343811, 0.356253981590271, -0.9200133085250854, 0.301990270614624, -0.2497551590204239, 0.1501309871673584, 0.11385750770568848, -0.042236924171447754, -0.30689095850251796, -0.5300380745282491, 0.7735076827872305,-0.1629833570876117,-0.7533416748046875,0.4220428466796875,-0.2886962890625
20220227-1541,2022-02-27 15:41:59Z,u01, 116,40,movements,el-ex, rt, d,297598.68309175, -1.3090183018110875, -0.31715023003091874, -0.6473918880259713, 0.014842723496258259, -0.15837524831295013, 0.45810818672180176, -0.9177585244178772, 0.31186017394065857, -0.24589164555072784, 0.11354398727416992, 0.18330278992652893, -0.00047665834426879883, -0.3099759197307612, -0.5300651905540814, 0.7732854291732048,-0.1580367310164572,-0.8636322021484375,0.514190673828125,-0.2148590087890625
20220227-1541,2022-02-27 15:41:59Z,u01, 117,40,movements,el-ex, rt, d,297598.70803675003, -1.3116603052576643, -0.3263184722347354, -0.6467851515052376, -0.18086153268814087, -0.06594917923212051, 0.2756241261959076, -0.9156026840209961, 0.32055795192718506, -0.24272319674491882, 0.03697097301483154, 0.13554254174232483, 0.025758594274520874, -0.3132812861877775, -0.5296161236594764, 0.7729574703261254,-0.15459146210013325,-0.8679351806640625,0.4337615966796875,-0.227081298828125
20220227-1541,2022-02-27 15:41:59Z,u01, 118,40,movements,el-ex, rt, d,297598.73298075004, -1.3146033847399574, -0.33362692991829324, -0.6512075584187207, -0.26421821117401123, -0.053196899592876434, 0.23193630576133728, -0.9140222668647766, 0.32747212052345276, -0.2394273728132248, 0.08632445335388184, 0.12296733260154724, 0.02025020122528076, -0.3172676172979162, -0.528798232926265, 0.7720888683819229,-0.1535987284847708,-0.8255767822265625,0.4916839599609375,-0.1785888671875
20220227-1541,2022-02-27 15:41:59Z,u01, 119,40,movements,el-ex, rt, d,297598.75792475004, -1.3162681457411303, -0.3400780563987716, -0.6545285584815909, -0.14728353917598724, -0.0009620543569326401, 0.185616597533226, -0.9123559594154358, 0.33356067538261414, -0.23736852407455444, 0.07991272211074829, 0.12470650672912598, 0.07599164545536041, -0.32054999759290576, -0.5277910923900392, 0.7716128281709869,-0.15263643474655414,-0.8299560546875,0.46514892578125,-0.1607208251953125
20220227-1541,2022-02-27 15:41:59Z,u01, 120,40,movements,el-ex, rt, d,297598.78286975, -1.3163813965663584, -0.3459087332966515, -0.658127155378975, -0.24997901916503906, 0.07098031044006348, 0.15080882608890533, -0.9104851484298706, 0.3390517234802246, -0.23677170276641846, 0.08763962984085083, 0.10812234878540039, 0.05833554267883301, -0.323560050939471, -0.5262347812439252, 0.7715024944989216,-0.15221632478713265,-0.79534912109375,0.4440460205078125,-0.1862640380859375
20220227-1541,2022-02-27 15:41:59Z,u01, 121,40,movements,el-ex, rt, d,297598.80781375, -1.3177287888602094, -0.35244909737621555, -0.66723133863796, -0.5233652591705322, 0.08694522827863693, 0.16982997953891754, -0.9086370468139648, 0.3451973795890808, -0.23498447239398956, 0.09670150279998779, 0.11267310380935669, 0.059142231941223145, -0.32834909455534117, -0.524113192750649, 0.7706691885514336,-0.15349706009323288,-0.820343017578125,0.4665985107421875,-0.1848907470703125
20220227-1541,2022-02-27 15:41:59Z,u01, 122,40,movements,el-ex, rt, d,297598.83275775, -1.3199027079969337, -0.35971669366799347, -0.6809933795636948, -0.5541735887527466, 0.11162088066339493, 0.13404415547847748, -0.9066916108131409, 0.3520090878009796, -0.23237963020801544, 0.08042800426483154, 0.15189722180366516, 0.02670648694038391, -0.3346515435266687, -0.5213621854928315, 0.7692801158244967,-0.15619897953563916,-0.8119354248046875,0.510894775390625,-0.215606689453125
20220227-1541,2022-02-27 15:41:59Z,u01, 123,40,movements,el-ex, rt, d,297598.85770275, -1.3218692212698127, -0.3655101801249006, -0.693087815419243, -0.4203060567378998, 0.08739863336086273, 0.11249518394470215, -0.9051548838615417, 0.3574258089065552, -0.23008982837200165, 0.09993338584899902, 0.16242587566375732, 0.02144131064414978, -0.339962883322702, -0.5190186184644595, 0.768016556666219,-0.15873074765197015,-0.805084228515625,0.507781982421875,-0.211334228515625
20220227-1541,2022-02-27 15:41:59Z,u01, 124,40,movements,el-ex, rt, d,297598.88264675, -1.3225722287925614, -0.3698341760782077, -0.6994208414026631, -0.17182010412216187, 0.002959582954645157, 0.13560763001441956, -0.9038099050521851, 0.3614608347415924, -0.22907160222530365, 0.13466006517410278, 0.09653171896934509, 0.000907018780708313, -0.34315407944335774, -0.5174064931494644, 0.767482241966074,-0.1597085674736487,-0.7403411865234375,0.4659423828125,-0.2208709716796875
20220227-1541,2022-02-27 15:41:59Z,u01, 125,40,movements,el-ex, rt, d,297598.90759075, -1.3246398968987343, -0.3753605261468769, -0.7016703854973109, -0.16095493733882904, -0.09381463378667831, 0.19374869763851166, -0.9023305177688599, 0.3666079640388489, -0.22671210765838623, 0.11635023355484009, 0.12602201104164124, 0.03315448760986328, -0.3458042827297523, -0.5167817160365993, 0.7669621086131595,-0.1585094644541183,-0.8055572509765625,0.5113067626953125,-0.1866912841796875
20220227-1541,2022-02-27 15:41:59Z,u01, 126,40,movements,el-ex, rt, d,297598.93253575003, -1.3276748799165816, -0.3808119196412993, -0.705587658590854, -0.18673352897167206, -0.04991508275270462, 0.11630796641111374, -0.9010610580444336, 0.3716743588447571, -0.22348803281784058, 0.07520973682403564, 0.12219154834747314, 0.03371457755565643, -0.34892796089231903, -0.5162414749736424, 0.7660573156081669,-0.15779755588395866,-0.80615234375,0.4640960693359375,-0.19537353515625
20220227-1541,2022-02-27 15:41:59Z,u01, 127,40,movements,el-ex, rt, d,297598.95747975004, -1.32959648259316, -0.38393530369979684, -0.7083167725479101, -0.0021837642416357994, -0.04943138733506203, 0.11523104459047318, -0.9003574252128601, 0.37457215785980225, -0.22147780656814575, 0.15879547595977783, 0.019455552101135254, -0.009128153324127197, -0.3508528168283004, -0.5159102580757553, 0.7654545056479822,-0.15753861371014632,-0.727752685546875,0.3917999267578125,-0.226043701171875
20220227-1541,2022-02-27 15:41:59Z,u01, 128,40,movements,el-ex, rt, d,297598.98242475, -1.3306329753055495, -0.38799623943799555, -0.7052427968608266, 0.13199913501739502, -0.11027516424655914, 0.2305564433336258, -0.8991014957427979, 0.3783343434333801, -0.22018082439899445, 0.13942742347717285, 0.05255863070487976, 0.025585651397705078, -0.35152873822912417, -0.5160786097290098, 0.7655652513639346,-0.15492021355522134,-0.7830352783203125,0.469146728515625,-0.1679229736328125
20220227-1541,2022-02-27 15:41:59Z,u01, 129,40,movements,el-ex, rt, d,297599.00736875, -1.3326511252411088, -0.3929463004240916, -0.7027144611148554, -0.04252832382917404, -0.0753462091088295, 0.14716967940330505, -0.8977130651473999, 0.3829118311405182, -0.2179213911294937, 0.06623119115829468, 0.1166151762008667, 0.08869482576847076, -0.3527211287343392, -0.5163594772360194, 0.7654009955834536,-0.15205916820275017,-0.8308563232421875,0.48382568359375,-0.1439056396484375
20220227-1541,2022-02-27 15:41:59Z,u01, 130,40,movements,el-ex, rt, d,297599.03231275, -1.3339577830769114, -0.3967061423896245, -0.7032014598434281, -0.00181132135912776, -0.06228566914796829, 0.06386266648769379, -0.896591305732727, 0.38638240098953247, -0.2164088934659958, 0.15487676858901978, 0.03813233971595764, 0.007836654782295227, -0.3542274186095564, -0.5160605495618797, 0.7651473042316833,-0.15084462226888207,-0.7076873779296875,0.3799591064453125,-0.2270660400390625
20220227-1541,2022-02-27 15:41:59Z,u01, 131,40,movements,el-ex, rt, d,297599.05725775, -1.3332231431345738, -0.4003569975612635, -0.6987907654196375, 0.2898491621017456, -0.05343038961291313, 0.15703575313091278, -0.8950551748275757, 0.38974714279174805, -0.21673409640789032, 0.14090460538864136, -0.07620945572853088, 0.0034163296222686768, -0.35427843055173946, -0.5158679536345395, 0.7657798947325928,-0.14814979629555958,-0.746246337890625,0.3268585205078125,-0.2075653076171875
20220227-1541,2022-02-27 15:41:59Z,u01, 132,40,movements,el-ex, rt, d,297599.08220175, -1.3330582246092533, -0.40663190052054915, -0.6919632842535441, 0.06716408580541611, -0.10915077477693558, 0.3137836754322052, -0.8926248550415039, 0.39551812410354614, -0.21630145609378815, 0.1501321792602539, -0.0034435391426086426, 0.0529257208108902, -0.35464432072374386, -0.5158262105191295, 0.7665033340430751,-0.14360843508638077,-0.77020263671875,0.3826446533203125,-0.158538818359375
20220227-1541,2022-02-27 15:41:59Z,u01, 133,40,movements,el-ex, rt, d,297599.1071457917, -1.3360402415772739, -0.41507139049099934, -0.6922952321081823, -0.17151756584644318, -0.10763483494520187, 0.3054398000240326, -0.889987587928772, 0.40325525403022766, -0.21285462379455566, 0.12865036725997925, -0.05459195375442505, 0.02453078329563141, -0.3578136749938988, -0.5153077380824154, 0.7659420514188238,-0.14057019702306178,-0.76416015625,0.3423004150390625,-0.194732666015625
20220227-1541,2022-02-27 15:41:59Z,u01, 134,40,movements,el-ex, rt, d,297599.1320907917, -1.3385736319752275, -0.42296736598821094, -0.6929573953269574, -0.05108099803328514, -0.08423224091529846, 0.3156698942184448, -0.8873977661132812, 0.41046813130378723, -0.2098599374294281, 0.12230682373046875, -0.07948967814445496, -0.0037782788276672363, -0.36083790742604893, -0.5146513741198566, 0.7654502955908489,-0.13789805099647684,-0.7762451171875,0.3594512939453125,-0.2137298583984375
20220227-1541,2022-02-27 15:41:59Z,u01, 135,40,movements,el-ex, rt, d,297599.15703479166, -1.3400419100208583, -0.43168692258252706, -0.6924914932997226, -0.09676919877529144, -0.04947306588292122, 0.36543864011764526, -0.8841869235038757, 0.4184035658836365, -0.207730233669281, 0.07515072822570801, -0.05661773681640625, 0.023388952016830444, -0.36376555121780796, -0.5136238942399146, 0.7653205531436502,-0.134720117085192,-0.8105010986328125,0.3590240478515625,-0.1809539794921875
20220227-1541,2022-02-27 15:41:59Z,u01, 136,40,movements,el-ex, rt, d,297599.18197879166, -1.341243477403974, -0.44065959697354334, -0.6927402631342632, -0.06785348802804947, -0.034956108778715134, 0.3319949805736542, -0.8807448148727417, 0.4265361428260803, -0.20580518245697021, 0.09021741151809692, -0.07251697778701782, 0.036722660064697266, -0.36693322492740477, -0.5123059820469531, 0.765204080003246,-0.13177813895678442,-0.79693603515625,0.3650360107421875,-0.1548919677734375
20220227-1541,2022-02-27 15:41:59Z,u01, 137,40,movements,el-ex, rt, d,297599.2069237917, -1.3400288917940457, -0.4483572579813143, -0.6906522274745013, 0.09235895425081253, 0.05197612941265106, 0.28898945450782776, -0.8772717714309692, 0.433485746383667, -0.206117644906044, 0.06696897745132446, -0.0697924792766571, 0.04260456562042236, -0.36890908283313695, -0.5107320874333875, 0.7658158236110187,-0.12878286274240847,-0.8055572509765625,0.3618316650390625,-0.17138671875
20220227-1541,2022-02-27 15:41:59Z,u01, 138,40,movements,el-ex, rt, d,297599.2318677917, -1.3359421148283417, -0.4549216786290201, -0.6865197535636045, 0.03930439054965973, 0.13709022104740143, 0.2970638871192932, -0.8736357092857361, 0.43939197063446045, -0.20903444290161133, 0.07232034206390381, -0.08460986614227295, 0.03676283359527588, -0.3698039890009567, -0.5086529169542768, 0.7672473883744293,-0.12589166979214955,-0.79425048828125,0.350555419921875,-0.184722900390625
20220227-1541,2022-02-27 15:41:59Z,u01, 139,40,movements,el-ex, rt, d,297599.2568117917, -1.3333543429028505, -0.46217324959459266, -0.6876950888249872, -0.2975975573062897, 0.12205088138580322, 0.28418251872062683, -0.8699719905853271, 0.44589439034461975, -0.21053947508335114, 0.06322455406188965, -0.006715953350067139, 0.07649113237857819, -0.37237973701309596, -0.5060272653424995, 0.7679568192998643,-0.12454735414086199,-0.829803466796875,0.445068359375,-0.1159515380859375
20220227-1541,2022-02-27 15:41:59Z,u01, 140,40,movements,el-ex, rt, d,297599.2817567917, -1.3321817185402995, -0.4695915352570732, -0.6940382760511724, -0.19211839139461517, 0.19929885864257812, 0.1916784793138504, -0.8664867281913757, 0.45252206921577454, -0.21077188849449158, 0.013382911682128906, -0.021979987621307373, 0.09324881434440613, -0.3763966656380747, -0.5029310154669026, 0.7679792810304613,-0.12487558338828225,-0.8119049072265625,0.4128875732421875,-0.161529541015625
20220227-1541,2022-02-27 15:41:59Z,u01, 141,40,movements,el-ex, rt, d,297599.3067007917, -1.3260738657563738, -0.47382338849441646, -0.6927308125762102, 0.20077700912952423, 0.2275787740945816, 0.170505091547966, -0.8633173108100891, 0.4562917649745941, -0.2155943363904953, 0.1446284055709839, -0.1337362825870514, -0.0009888112545013428, -0.3771081109594182, -0.49999230330068656, 0.7696570514146204,-0.12419796652062437,-0.721405029296875,0.3004913330078125,-0.213714599609375
20220227-1541,2022-02-27 15:42:00Z,u01, 142,40,movements,el-ex, rt, d,297599.3316447917, -1.3155396149532745, -0.47675540997483856, -0.683465216616169, 0.3149268627166748, 0.2800978422164917, 0.21573056280612946, -0.8597001433372498, 0.4588988125324249, -0.2243378460407257, 0.08902448415756226, -0.17902213335037231, 0.02562279999256134, -0.3751387527392114, -0.4970935426572224, 0.772890790218734,-0.12169113924752084,-0.7913055419921875,0.33026123046875,-0.1763763427734375
20220227-1541,2022-02-27 15:42:00Z,u01, 143,40,movements,el-ex, rt, d,297599.35658979166, -1.3036127408117326, -0.4803316147554111, -0.6752023262494128, 0.10375075787305832, 0.3588181138038635, 0.1681852638721466, -0.8553752303123474, 0.46207329630851746, -0.23414044082164764, 0.08460795879364014, -0.11917778849601746, 0.03981983661651611, -0.373586445052523, -0.49331829940618666, 0.7763780716646604,-0.11961380412201311,-0.7560577392578125,0.3336944580078125,-0.2042999267578125
20220227-1541,2022-02-27 15:42:00Z,u01, 144,40,movements,el-ex, rt, d,297599.38153379166, -1.295561956432674, -0.4838022825302179, -0.6766958588990538, -0.1877121478319168, 0.3166159987449646, 0.08137521147727966, -0.8519139885902405, 0.4651484489440918, -0.2405819296836853, 0.1475987434387207, -0.1553645133972168, 0.017712175846099854, -0.37465252162786594, -0.48922849754539316, 0.778292837931859,-0.12062902561706967,-0.7329864501953125,0.3089599609375,-0.20758056640625
20220227-1541,2022-02-27 15:42:00Z,u01, 145,40,movements,el-ex, rt, d,297599.40647779166, -1.2877508136688358, -0.48638350448908846, -0.676780070822146, 0.2504121661186218, 0.3319895565509796, 0.13811485469341278, -0.8488530516624451, 0.4674318730831146, -0.2468927800655365, 0.04016768932342529, -0.10030537843704224, 0.04941368103027344, -0.3750824204314903, -0.48566118393750374, 0.7802082363124696,-0.12133245016331345,-0.8045501708984375,0.3706207275390625,-0.2063140869140625
20220227-1541,2022-02-27 15:42:00Z,u01, 146,40,movements,el-ex, rt, d,297599.4314227917, -1.2723494559297377, -0.4860571477959734, -0.6636937365084713, 0.4565116763114929, 0.40285730361938477, 0.11189204454421997, -0.8450958728790283, 0.46714332699775696, -0.25998133420944214, 0.09239500761032104, -0.09241798520088196, 0.037721872329711914, -0.3708777634159332, -0.4821400387156939, 0.7847202421285324,-0.11918450703965872,-0.710174560546875,0.3841094970703125,-0.2283935546875
20220227-1541,2022-02-27 15:42:00Z,u01, 147,40,movements,el-ex, rt, d,297599.4563667917, -1.2593394211969091, -0.48617311035115346, -0.6578158383017546, -0.08222027868032455, 0.42073506116867065, 0.01742113009095192, -0.8415905237197876, 0.46724584698677063, -0.27093714475631714, 0.08930158615112305, -0.08222079277038574, 0.056062936782836914, -0.3687314689902421, -0.4780884135577885, 0.7881939300643881,-0.11924358379599326,-0.7835845947265625,0.387603759765625,-0.2045745849609375
20220227-1541,2022-02-27 15:42:00Z,u01, 148,40,movements,el-ex, rt, d,297599.4813107917, -1.2498555062556282, -0.4869758951311297, -0.6619654440766604, -0.08172206580638885, 0.5074027180671692, -0.029824279248714447, -0.8386269211769104, 0.46795547008514404, -0.2787879705429077, 0.000644683837890625, -0.06355178356170654, 0.08722925186157227, -0.369425679402572, -0.47342441284664694, 0.7901992788409803,-0.12238948245398618,-0.8375244140625,0.3925628662109375,-0.201385498046875
20220227-1541,2022-02-27 15:42:00Z,u01, 149,40,movements,el-ex, rt, d,297599.5062557917, -1.2336635439545018, -0.48466356729383764, -0.6580820955696823, 0.41595229506492615, 0.6358882188796997, -0.04516275227069855, -0.83502197265625, 0.4659107029438019, -0.2926870286464691, 0.08561700582504272, -0.11035037040710449, 0.02777928113937378, -0.36670090959324675, -0.4681740418222995, 0.7942530547022034,-0.12452199963550148,-0.706695556640625,0.3408203125,-0.2889404296875
20220227-1541,2022-02-27 15:42:00Z,u01, 150,40,movements,el-ex, rt, d,297599.5311997917, -1.2107312965520864, -0.4816292183256083, -0.6425823416993565, 0.6661046743392944, 0.6292439699172974, 0.23622772097587585, -0.8294103145599365, 0.4632236659526825, -0.3122539818286896, 0.22529953718185425, -0.11517065763473511, -0.02383601665496826, -0.36059651360760586, -0.46243178961429543, 0.8005608595815158,-0.12340764836247103,-0.656829833984375,0.40020751953125,-0.3133544921875
20220227-1541,2022-02-27 15:42:00Z,u01, 151,40,movements,el-ex, rt, d,297599.5561437917, -1.182842810744983, -0.48045349046544156, -0.6197609169489172, 0.831985592842102, 0.7740512490272522, 0.19028206169605255, -0.8208841681480408, 0.46218135952949524, -0.3354663550853729, 0.041098952293395996, -0.11840081214904785, 0.09105116128921509, -0.3532410810594106, -0.455508031408592, 0.8083575226662518,-0.11954651848474163,-0.7691650390625,0.3080902099609375,-0.238861083984375
20220227-1541,2022-02-27 15:42:00Z,u01, 152,40,movements,el-ex, rt, d,297599.58108879166, -1.1548319433367062, -0.4749412683416003, -0.6018667533362078, 0.43150120973587036, 0.8000963926315308, -0.05296308547258377, -0.813484787940979, 0.45728620886802673, -0.35934942960739136, 0.08681529760360718, -0.21345070004463196, 0.08784988522529602, -0.34550699631942605, -0.4482746985808844, 0.8158273024828878,-0.11874623436884313,-0.7313232421875,0.2819671630859375,-0.313629150390625
20220227-1541,2022-02-27 15:42:00Z,u01, 153,40,movements,el-ex, rt, d,297599.60603279166, -1.1325634661129396, -0.4716825765154412, -0.5963085485521696, 0.07201196998357773, 0.7563558220863342, -0.019810261204838753, -0.8066266775131226, 0.45438578724861145, -0.3780042231082916, 0.015961885452270508, -0.09322547912597656, 0.01824784278869629, -0.34172413702649596, -0.44070681492528924, 0.821163889272867,-0.12121127216542121,-0.809783935546875,0.34735107421875,-0.3557891845703125
20220227-1541,2022-02-27 15:42:00Z,u01, 154,40,movements,el-ex, rt, d,297599.63097679167, -1.1145807948509663, -0.47181141815438904, -0.5960050654223079, 0.07027158886194229, 0.6955997943878174, 0.058655522763729095, -0.7996464967727661, 0.45450055599212646, -0.39242181181907654, -0.015157699584960938, -0.10724097490310669, 0.0295678973197937, -0.3406032349911149, -0.4333342025323146, 0.8251094759335502,-0.12411825371170077,-0.791168212890625,0.3759307861328125,-0.371429443359375
20220227-1541,2022-02-27 15:42:00Z,u01, 155,40,movements,el-ex, rt, d,297599.6559217917, -1.0964212721626045, -0.4698341460737514, -0.5916462521118403, 0.21614867448806763, 0.6184054613113403, -0.0557442270219326, -0.7931867241859436, 0.4527384042739868, -0.40728721022605896, -0.022563457489013672, -0.08639013767242432, -0.0416719913482666, -0.33778357613851673, -0.42691761068940026, 0.8293274554520971,-0.12593528076945798,-0.81890869140625,0.36700439453125,-0.470245361328125
20220227-1541,2022-02-27 15:42:00Z,u01, 156,40,movements,el-ex, rt, d,297599.6808657917, -1.0805433484715181, -0.4657391836550347, -0.5874985269357255, 0.20338110625743866, 0.5083338618278503, -0.10914453864097595, -0.788249135017395, 0.4490833878517151, -0.42069894075393677, -0.034977853298187256, -0.06723213195800781, -0.09819138050079346, -0.3343365180945935, -0.421745928725321, 0.8330484177767835,-0.12798420836427854,-0.847320556640625,0.40118408203125,-0.5458831787109375
20220227-1541,2022-02-27 15:42:00Z,u01, 157,40,movements,el-ex, rt, d,297599.7058097917, -1.066423454717174, -0.4590395215217994, -0.582141307027951, 0.44110727310180664, 0.4408654272556305, -0.17388512194156647, -0.7848469018936157, 0.44308724999427795, -0.43323081731796265, -0.04434621334075928, -0.05134841799736023, -0.059490591287612915, -0.329731607069474, -0.41792541364986674, 0.8365087049015156,-0.12987898373790102,-0.8250732421875,0.391998291015625,-0.4889068603515625
20220227-1541,2022-02-27 15:42:00Z,u01, 158,40,movements,el-ex, rt, d,297599.7307547917, -1.0498984950664247, -0.44702384281780594, -0.5696532400962849, 0.7514660954475403, 0.42228513956069946, -0.23487836122512817, -0.782142698764801, 0.4322837293148041, -0.44875797629356384, 0.00220489501953125, -0.04048380255699158, -0.058306753635406494, -0.32140257511037473, -0.41511612963386957, 0.8410409974065102,-0.13049570631406182,-0.73931884765625,0.3826141357421875,-0.5234375
20220227-1541,2022-02-27 15:42:00Z,u01, 159,40,movements,el-ex, rt, d,297599.7556987917, -1.03720545547173, -0.43382483588742293, -0.5603993417945063, 0.24326513707637787, 0.2641478478908539, -0.3134007453918457, -0.7812284231185913, 0.42034438252449036, -0.4615113437175751, 0.03782021999359131, -0.06397539377212524, -0.10700052976608276, -0.31349093850987486, -0.41348247699460283, 0.8445831279481201,-0.1320417810162588,-0.7693939208984375,0.347442626953125,-0.5564422607421875
20220227-1541,2022-02-27 15:42:00Z,u01, 160,40,movements,el-ex, rt, d,297599.7806427917, -1.033223445258383, -0.4278358602096982, -0.5644508322048807, -0.1026160940527916, 0.21279144287109375, -0.23660555481910706, -0.781532883644104, 0.4149026870727539, -0.465899258852005, -0.0952829122543335, -0.048874855041503906, -0.04098236560821533, -0.3117061228918505, -0.4121767310314016, 0.8452663851933192,-0.13592072069142536,-0.886383056640625,0.3839874267578125,-0.47662353515625
20220227-1541,2022-02-27 15:42:00Z,u01, 161,40,movements,el-ex, rt, d,297599.80558779166, -1.02785037989074, -0.42119121527115144, -0.5644655967803408, 0.44336220622062683, 0.2209853231906891, -0.25511571764945984, -0.7813615202903748, 0.408847838640213, -0.47150570154190063, -0.06887352466583252, -0.029209136962890625, -0.035024940967559814, -0.30872238229424115, -0.4110202340195622, 0.8465103274137187,-0.13846705274254162,-0.8261566162109375,0.3808135986328125,-0.518096923828125
20220227-1541,2022-02-27 15:42:00Z,u01, 162,40,movements,el-ex, rt, d,297599.83053179167, -1.019916089274993, -0.4076089816706122, -0.5554234543260442, 0.5194071531295776, 0.0940173864364624, -0.34614455699920654, -0.7822555899620056, 0.3964153528213501, -0.48055291175842285, 0.01145780086517334, -0.04074820876121521, -0.09271973371505737, -0.30093336204055826, -0.41129388021414903, 0.8490403697886428,-0.13930891453989247,-0.7798309326171875,0.34271240234375,-0.5946807861328125
20220227-1541,2022-02-27 15:42:00Z,u01, 163,40,movements,el-ex, rt, d,297599.8554757917, -1.0188399526018692, -0.39571540014252865, -0.5553731599875102, 0.05984048917889595, 0.02257522940635681, -0.40652769804000854, -0.785697340965271, 0.38546839356422424, -0.48383259773254395, -0.11643290519714355, -0.08772361278533936, -0.05898350477218628, -0.2961141333617761, -0.4127955031128774, 0.8494820698569465,-0.14246629481600376,-0.916595458984375,0.311370849609375,-0.5452728271484375
20220227-1541,2022-02-27 15:42:00Z,u01, 164,40,movements,el-ex, rt, d,297599.8804207917, -1.0183878073028048, -0.38493971228104085, -0.5555729443847268, 0.5103093981742859, 0.03575335070490837, -0.33688175678253174, -0.7889686226844788, 0.375503271818161, -0.48633918166160583, -0.11833429336547852, -0.04484528303146362, -0.0419963002204895, -0.2918247438407329, -0.4143292512836856, 0.8497317641306948,-0.1453460586318755,-0.9015350341796875,0.30584716796875,-0.5257720947265625
20220227-1541,2022-02-27 15:42:00Z,u01, 165,40,movements,el-ex, rt, d,297599.9053647917, -1.0124891423966194, -0.3682098748264553, -0.5438887269187364, 0.8410958647727966, 0.06811881065368652, -0.3342507481575012, -0.7913041114807129, 0.3599458634853363, -0.49424365162849426, -0.045854151248931885, -0.08696615695953369, -0.07248291373252869, -0.282265550406829, -0.4161782440401012, 0.8520384856923378,-0.1454381087898845,-0.8240966796875,0.2724151611328125,-0.5782470703125
20220227-1541,2022-02-27 15:42:00Z,u01, 166,40,movements,el-ex, rt, d,297599.9303087917, -1.0077650122707464, -0.3520327604138242, -0.5340553343763156, 0.41915053129196167, 0.03945288062095642, -0.3633289635181427, -0.793781042098999, 0.34480661153793335, -0.5010190010070801, -0.05280715227127075, -0.07170480489730835, -0.0652039647102356, -0.2733443072530726, -0.4180590580261319, 0.8539369111108567,-0.14594943837415209,-0.8763427734375,0.256072998046875,-0.5500946044921875
20220227-1541,2022-02-27 15:42:00Z,u01, 167,40,movements,el-ex, rt, d,297599.9552537917, -1.005867040061134, -0.34059122555548443, -0.5311557297431885, 0.4137911796569824, 0.03720996528863907, -0.28857481479644775, -0.7961088418960571, 0.3340444266796112, -0.5046038031578064, -0.09706443548202515, -0.022948265075683594, 0.0009570717811584473, -0.26796085335414377, -0.4193984836844213, 0.8546647081918748,-0.14781759999934257,-0.894012451171875,0.3185272216796875,-0.4924468994140625
20220227-1541,2022-02-27 15:42:00Z,u01, 168,40,movements,el-ex, rt, d,297599.9801977917, -1.0016516875603643, -0.3258175231813827, -0.5220269355113233, 0.8040018081665039, 0.05921752750873566, -0.35646170377731323, -0.7980449795722961, 0.3200834095478058, -0.5105592012405396, -0.08870428800582886, -0.031829655170440674, 0.005844414234161377, -0.25971815513768537, -0.42103072890590754, 0.8563506500742704,-0.14813196271600682,-0.8759307861328125,0.2932586669921875,-0.5438232421875
20220227-1541,2022-02-27 15:42:00Z,u01, 169,40,movements,el-ex, rt, d,297600.0051417917, -0.9965896984796042, -0.3052278291735008, -0.5095698171160145, 0.7351045608520508, 0.03584636002779007, -0.48342612385749817, -0.8008148670196533, 0.3005104959011078, -0.5180627703666687, -0.09563899040222168, 0.0302695631980896, -0.06636399030685425, -0.2482809370781109, -0.42346804659849946, 0.8584739323730212,-0.1485058249459335,-0.92572021484375,0.3323516845703125,-0.56475830078125
20220227-1541,2022-02-27 15:42:00Z,u01, 170,40,movements,el-ex, rt, d,297600.03008679167, -0.9938348995097629, -0.2881347281429184, -0.5030666177257587, 0.45113906264305115, 0.019108658656477928, -0.425538569688797, -0.8035728931427002, 0.28416433930397034, -0.522992730140686, -0.13006675243377686, 0.07006850838661194, 0.01377648115158081, -0.23965506031428013, -0.42552215019582307, 0.8596083987083011,-0.15023267514889738,-0.936676025390625,0.3341217041015625,-0.455322265625
20220227-1541,2022-02-27 15:42:00Z,u01, 171,40,movements,el-ex, rt, d,297600.0550307917, -0.9918289929459506, -0.2737422677847366, -0.4987462748571097, 0.5438089370727539, 0.06242357939481735, -0.38508203625679016, -0.8058621883392334, 0.27033624053001404, -0.5267868638038635, -0.13774138689041138, 0.040119051933288574, 0.06237053871154785, -0.23263159495308047, -0.4271874335578332, 0.8603796590045826,-0.15211909942634833,-0.940673828125,0.3093109130859375,-0.49554443359375
20220227-1541,2022-02-27 15:42:00Z,u01, 172,40,movements,el-ex, rt, d,297600.0799747917, -0.9881320758814406, -0.2572972263642282, -0.49337770217340715, 0.41919562220573425, 0.10092230141162872, -0.47236868739128113, -0.8075125217437744, 0.2544676959514618, -0.5321370363235474, -0.10516154766082764, 0.031985580921173096, -0.06417638063430786, -0.22437451618826093, -0.42847120421311047, 0.8615597490012823,-0.154218556190314,-0.909393310546875,0.2980499267578125,-0.6250762939453125
20220227-1541,2022-02-27 15:42:00Z,u01, 173,40,movements,el-ex, rt, d,297600.1049189167, -0.9876931250574259, -0.2442448275848883, -0.4970255854532446, -0.08920491486787796, -0.007755512371659279, -0.5499010682106018, -0.8099825978279114, 0.24182362854480743, -0.5342748165130615, -0.1460721492767334, 0.05503615736961365, -0.036586880683898926, -0.21969045893290584, -0.4296494980486745, 0.8613125738628444,-0.15899084619596904,-0.9760589599609375,0.2806243896484375,-0.5602569580078125
20220227-1541,2022-02-27 15:42:00Z,u01, 174,40,movements,el-ex, rt, d,297600.12986291666, -0.991074827095301, -0.23349165972900593, -0.5068229421384964, 0.1170845776796341, -0.07178781926631927, -0.5784355401992798, -0.8139132857322693, 0.23137584328651428, -0.5329263806343079, -0.1847440004348755, 0.027871012687683105, -0.06189167499542236, -0.21759836195384485, -0.4314948057086915, 0.8597067389363565,-0.16543155996730097,-0.9630584716796875,0.2855072021484375,-0.646026611328125
20220227-1541,2022-02-27 15:42:00Z,u01, 175,40,movements,el-ex, rt, d,297600.15480691666, -0.9917676147682302, -0.213647425971795, -0.5025876333631502, 0.9882357120513916, -0.047233015298843384, -0.5739122629165649, -0.8179647326469421, 0.21202580630779266, -0.5347698926925659, -0.14875590801239014, 0.08695492148399353, -0.1723223328590393, -0.20847165216222627, -0.4349191057746592, 0.8596817643805168,-0.16832182457892736,-0.9711151123046875,0.2860260009765625,-0.7126007080078125
20220227-1541,2022-02-27 15:42:00Z,u01, 176,40,movements,el-ex, rt, d,297600.1797519167, -0.9907374902412286, -0.18691182665710468, -0.4892451582321716, 0.8243691325187683, -0.09789319336414337, -0.6354791522026062, -0.8218621015548706, 0.1858253926038742, -0.538527250289917, -0.16258925199508667, 0.08469770848751068, -0.20607101917266846, -0.19428217212249055, -0.4393072108281767, 0.8606195748992996,-0.16910794674327556,-1.016265869140625,0.25360107421875,-0.7192535400390625
20220227-1541,2022-02-27 15:42:00Z,u01, 177,40,movements,el-ex, rt, d,297600.2046959167, -0.9940596324279949, -0.16889254298093037, -0.48983592643387064, -0.057621754705905914, -0.14737746119499207, -0.6047258377075195, -0.8263196349143982, 0.16809074580669403, -0.5375327467918396, -0.2552233934402466, 0.028549283742904663, -0.15980911254882812, -0.18713273636201683, -0.4429615847493646, 0.8594838455496168,-0.17336082886946313,-1.0996856689453125,0.203948974609375,-0.706207275390625
20220227-1541,2022-02-27 15:42:00Z,u01, 178,40,movements,el-ex, rt, d,297600.2296399167, -0.9998896352827596, -0.1592836236226928, -0.5021637828159641, -0.2297682911157608, -0.14091037213802338, -0.5623060464859009, -0.8307600617408752, 0.15861093997955322, -0.5335543751716614, -0.30894947052001953, 0.10873830318450928, -0.22439533472061157, -0.18635594413918266, -0.4455269515191647, 0.8568718046319755,-0.1804103750395969,-1.1575164794921875,0.3009185791015625,-0.7792510986328125
20220227-1541,2022-02-27 15:42:00Z,u01, 179,40,movements,el-ex, rt, d,297600.2545849167, -1.004944028927231, -0.15096998493038521, -0.5133024859917985, -0.17623965442180634, -0.12342425435781479, -0.4713015556335449, -0.8345304727554321, 0.1503971517086029, -0.5300372242927551, -0.40066850185394287, 0.1909419745206833, -0.25929975509643555, -0.18582801997297382, -0.44771567265055157, 0.8544940510576072,-0.1867041186164889,-1.257659912109375,0.3412933349609375,-0.7848968505859375
20220227-1541,2022-02-27 15:42:00Z,u01, 180,40,movements,el-ex, rt, d,297600.2795289167, -1.0095631297878327, -0.1442731686659384, -0.5235212360059767, -0.22410282492637634, -0.12637430429458618, -0.40035900473594666, -0.8378037810325623, 0.1437731832265854, -0.5267010927200317, -0.4559279680252075, 0.2309369146823883, -0.2591416835784912, -0.1857615509184389, -0.44960215690060246, 0.8522857646804978,-0.19224848077631773,-1.3173065185546875,0.394439697265625,-0.7872161865234375
20220227-1541,2022-02-27 15:42:00Z,u01, 181,40,movements,el-ex, rt, d,297600.3044729167, -1.0142120914611286, -0.1396937497463364, -0.5334112616099133, -0.23575468361377716, -0.13455820083618164, -0.3227616846561432, -0.8407936096191406, 0.1392398476600647, -0.5231428742408752, -0.5296288132667542, 0.2732052206993103, -0.29015052318573, -0.18653355593985899, -0.4512580127392551, 0.8501241538852096,-0.19713058117686044,-1.3911895751953125,0.4164276123046875,-0.8206634521484375
20220227-1541,2022-02-27 15:42:01Z,u01, 182,40,movements,el-ex, rt, d,297600.3294179167, -1.0187618182891887, -0.13644640640768424, -0.5416407849356548, -0.18617336452007294, -0.13285291194915771, -0.20367063581943512, -0.8435456156730652, 0.1360234171152115, -0.5195465087890625, -0.6044982671737671, 0.2837916612625122, -0.3389281630516052, -0.18749668694099314, -0.4528484840656899, 0.8481617516786855,-0.20098512803942592,-1.481964111328125,0.4085235595703125,-0.86480712890625
20220227-1541,2022-02-27 15:42:01Z,u01, 183,40,movements,el-ex, rt, d,297600.35436191666, -1.0233688551079274, -0.1361986023551786, -0.5471130415127256, -0.2194109857082367, -0.18202531337738037, -0.03103022649884224, -0.845958948135376, 0.13577790558338165, -0.5156722664833069, -0.7040594220161438, 0.26915985345840454, -0.32404929399490356, -0.18910020964787017, -0.454318158256173, 0.8465551156000704,-0.20293002339128002,-1.564788818359375,0.4007415771484375,-0.8355255126953125
20220227-1541,2022-02-27 15:42:01Z,u01, 184,40,movements,el-ex, rt, d,297600.37930591666, -1.0297024897023483, -0.14200459356848577, -0.5542571140248802, -0.5286096930503845, -0.2563152611255646, 0.1473698765039444, -0.8485180139541626, 0.14152781665325165, -0.5098893046379089, -0.7425312399864197, 0.23359425365924835, -0.317854106426239, -0.19377031187646268, -0.45553092322291766, 0.844605241348196,-0.20392800907997943,-1.5939483642578125,0.357635498046875,-0.8339691162109375
20220227-1541,2022-02-27 15:42:01Z,u01, 185,40,movements,el-ex, rt, d,297600.4042509167, -1.0389062398619298, -0.1563198006014915, -0.5657162156945345, -0.8045123815536499, -0.3498494029045105, 0.38589492440223694, -0.8513414859771729, 0.1556839495897293, -0.5009793639183044, -0.7559279799461365, 0.2122817486524582, -0.3389711380004883, -0.2032117453224447, -0.45630614409870596, 0.8418673349069243,-0.20432632855646932,-1.608917236328125,0.3741607666015625,-0.837249755859375
20220227-1541,2022-02-27 15:42:01Z,u01, 186,40,movements,el-ex, rt, d,297600.4291949167, -1.051209247810529, -0.17805696407387467, -0.5769372460905686, -0.7900087237358093, -0.4913957715034485, 0.6726333498954773, -0.8543005585670471, 0.17711758613586426, -0.48867160081863403, -0.7640771865844727, 0.21047091484069824, -0.3237978219985962, -0.21590274989847072, -0.45722007746426485, 0.8386851859756435,-0.20234378583479184,-1.6162567138671875,0.390350341796875,-0.7935791015625
20220227-1541,2022-02-27 15:42:01Z,u01, 187,40,movements,el-ex, rt, d,297600.4541389167, -1.0663500638663397, -0.20314736648221648, -0.5819593223476002, -0.5581005811691284, -0.6430267095565796, 0.8588306903839111, -0.8574401140213013, 0.20175297558307648, -0.47338396310806274, -0.7419252395629883, 0.1754443347454071, -0.2598618268966675, -0.22872031065954754, -0.45934196929235827, 0.8355294624877321,-0.19642462273694206,-1.58880615234375,0.378082275390625,-0.7190704345703125
20220227-1541,2022-02-27 15:42:01Z,u01, 188,40,movements,el-ex, rt, d,297600.4790839167, -1.0846602711436193, -0.22965456403991952, -0.583162491319531, -0.5971879363059998, -0.7972745895385742, 0.9457057118415833, -0.8609315752983093, 0.22764116525650024, -0.45494645833969116, -0.6897581219673157, 0.16510479152202606, -0.21602818369865417, -0.24138655215867433, -0.4628815283826859, 0.8319528165498118,-0.18795659652393837,-1.533843994140625,0.3999176025390625,-0.64410400390625
20220227-1541,2022-02-27 15:42:01Z,u01, 189,40,movements,el-ex, rt, d,297600.5040279167, -1.107556104623179, -0.25966378756790276, -0.5894569615818258, -0.9432190656661987, -0.9111997485160828, 0.9693989157676697, -0.864618718624115, 0.25675562024116516, -0.43186914920806885, -0.6126152276992798, 0.13458657264709473, -0.1664888858795166, -0.25684859146079386, -0.4670055966798297, 0.8267973673047622,-0.17983494692812224,-1.458282470703125,0.3846435546875,-0.587646484375
20220227-1541,2022-02-27 15:42:01Z,u01, 190,40,movements,el-ex, rt, d,297600.5289719167, -1.1351503106577223, -0.291932045317097, -0.6017760650916445, -0.9357538223266602, -1.043512225151062, 0.9526561498641968, -0.8682391047477722, 0.287803053855896, -0.4041413366794586, -0.5151379704475403, 0.06382042169570923, -0.15237709879875183, -0.2747632275986056, -0.471629617479686, 0.8199343554992669,-0.17256397074608498,-1.355438232421875,0.338653564453125,-0.5171661376953125
20220227-1541,2022-02-27 15:42:01Z,u01, 191,40,movements,el-ex, rt, d,297600.55391691666, -1.1639150112579426, -0.32028431290305975, -0.607742516844508, -0.34037265181541443, -1.1114213466644287, 0.9529165029525757, -0.8716571927070618, 0.31483644247055054, -0.37562182545661926, -0.44938772916793823, 0.026411086320877075, -0.10499939322471619, -0.28946974408245174, -0.47790830673497375, 0.8131415585520174,-0.16313101042634753,-1.303192138671875,0.33990478515625,-0.4699859619140625
20220227-1541,2022-02-27 15:42:01Z,u01, 192,40,movements,el-ex, rt, d,297600.57886091666, -1.1905746502375756, -0.3428132412507397, -0.6008388876055872, -0.028088100254535675, -1.1858887672424316, 0.9144876599311829, -0.8745508193969727, 0.33613795042037964, -0.34953153133392334, -0.4114600419998169, -0.022966593503952026, -0.06158590316772461, -0.29840828151138743, -0.48599046576345095, 0.8076174727343937,-0.15006623513744788,-1.272613525390625,0.2807769775390625,-0.37469482421875
20220227-1541,2022-02-27 15:42:01Z,u01, 193,40,movements,el-ex, rt, d,297600.60380491667, -1.2191173454671689, -0.3652949747839616, -0.5971983116680563, -0.3618294596672058, -1.1853197813034058, 0.867533802986145, -0.8768524527549744, 0.35722482204437256, -0.32174554467201233, -0.3259369134902954, -0.15260446071624756, 0.005400419235229492, -0.3079509250865454, -0.4942605198033323, 0.8011760739467718,-0.13780283767553891,-1.1884002685546875,0.185211181640625,-0.30621337890625
20220227-1541,2022-02-27 15:42:01Z,u01, 194,40,movements,el-ex, rt, d,297600.6287499167, -1.2467458833151401, -0.3873676959566311, -0.5947367571011656, 0.22025549411773682, -1.088097095489502, 0.860093355178833, -0.8777164816856384, 0.3777524530887604, -0.2948168218135834, -0.27940332889556885, -0.2267514169216156, -0.016141951084136963, -0.3172659047489745, -0.5019302065916827, 0.7946876875491673,-0.1260156848451373,-1.143310546875,0.145050048828125,-0.3283233642578125
20220227-1541,2022-02-27 15:42:01Z,u01, 195,40,movements,el-ex, rt, d,297600.6536939167, -1.2611884716068054, -0.3983698532766286, -0.564397652748524, 1.633471965789795, -0.9938511848449707, 0.6527724862098694, -0.8778709173202515, 0.38791635632514954, -0.2808266580104828, -0.2369210124015808, -0.2796857953071594, -0.005153387784957886, -0.31443939878199034, -0.5106021257625746, 0.7928810902113343,-0.10841097210626954,-1.1123504638671875,0.1009674072265625,-0.273193359375
20220227-1541,2022-02-27 15:42:01Z,u01, 196,40,movements,el-ex, rt, d,297600.6786379167, -1.263256433603994, -0.396864764495027, -0.5114828300981147, 1.813899278640747, -0.8348652124404907, 0.399687260389328, -0.8790052533149719, 0.38652870059013367, -0.27918708324432373, -0.16262078285217285, -0.3246237337589264, 0.05379962921142578, -0.3003580924482757, -0.5197994500082946, 0.7949406313851173,-0.08753858177997476,-0.9810791015625,0.030487060546875,-0.181365966796875
20220227-1541,2022-02-27 15:42:01Z,u01, 197,40,movements,el-ex, rt, d,297600.7035829167, -1.268339063443518, -0.39431742467398595, -0.47647063163345527, 0.5603182911872864, -0.6359388828277588, 0.18645694851875305, -0.8813499212265015, 0.3841780722141266, -0.2750082314014435, -0.11079180240631104, -0.4312972128391266, 0.15306010842323303, -0.29045640446594245, -0.5273812313971122, 0.7950357593446747,-0.07363588899715628,-0.9672393798828125,-0.0741729736328125,-0.0971527099609375
20220227-1541,2022-02-27 15:42:01Z,u01, 198,40,movements,el-ex, rt, d,297600.7285269167, -1.2837213474242504, -0.39570597390530643, -0.4810669313424704, -0.7612414956092834, -0.39337536692619324, -0.13834735751152039, -0.8849632740020752, 0.38545969128608704, -0.261267751455307, -0.04322892427444458, -0.5506513118743896, 0.19318318367004395, -0.29274956056319523, -0.5326009905505164, 0.7907810692793874,-0.07279550554074893,-0.8489227294921875,-0.1742706298828125,-0.106414794921875
20220227-1541,2022-02-27 15:42:01Z,u01, 199,40,movements,el-ex, rt, d,297600.7534709167, -1.2986660618616943, -0.3959672408442353, -0.5064458493094027, -0.8610382676124573, -0.027056772261857986, -0.395769327878952, -0.8886719346046448, 0.3857007622718811, -0.24798651039600372, 0.3497772216796875, -0.4419599175453186, 0.06439286470413208, -0.30018959955075175, -0.5346895847319738, 0.7858196617398265,-0.08050372867849476,-0.4543609619140625,-0.03558349609375,-0.18865966796875
20220227-1541,2022-02-27 15:42:01Z,u01, 200,40,movements,el-ex, rt, d,297600.77841591666, -1.3049417816858682, -0.3862733078916694, -0.5292089649372785, -0.5927258729934692, 0.24738964438438416, -0.7868247032165527, -0.8937762379646301, 0.37673893570899963, -0.2433754950761795, 0.6077197790145874, -0.35717716813087463, 0.03280434012413025, -0.30303793892038766, -0.535238506581738, 0.7831489160274008,-0.09146271598537598,-0.171356201171875,0.070556640625,-0.217437744140625
20220227-1541,2022-02-27 15:42:01Z,u01, 201,40,movements,el-ex, rt, d,297600.80335991667, -1.3037354524746108, -0.3641064559283511, -0.5518303782921348, -0.5655711889266968, 0.512597382068634, -1.4325450658798218, -0.9013170599937439, 0.3561144769191742, -0.24659714102745056, 0.9816850423812866, -0.3039141595363617, 0.0451202392578125, -0.3010246208750046, -0.5348697072075209, 0.7821664243476625,-0.10730485369886628,0.1253509521484375,0.0241546630859375,-0.1890869140625
20220227-1541,2022-02-27 15:42:01Z,u01, 202,40,movements,el-ex, rt, d,297600.82830391667, -1.2987499171939487, -0.3268291890297815, -0.5776384445012268, -0.34630680084228516, 0.5794010758399963, -1.770228385925293, -0.912234902381897, 0.32104167342185974, -0.25447937846183777, 1.13783597946167, -0.29758888483047485, 0.04560196399688721, -0.29414137407348384, -0.5350151092903126, 0.7813212392942726,-0.12952542874067885,0.249237060546875,0.0511016845703125,-0.24322509765625
20220227-1541,2022-02-27 15:42:01Z,u01, 203,40,movements,el-ex, rt, d,297600.8532489167, -1.2879429918447263, -0.28588795823582247, -0.5850775381765224, 0.7122811079025269, 0.4211881458759308, -1.5008599758148193, -0.9212876558303833, 0.282009482383728, -0.2677687108516693, 1.1893234252929688, -0.22462114691734314, -0.011360198259353638, -0.28045879288362413, -0.5361515793380206, 0.7825967882975732,-0.14637914664502188,0.2580108642578125,0.053863525390625,-0.2920074462890625
20220227-1541,2022-02-27 15:42:01Z,u01, 204,40,movements,el-ex, rt, d,297600.8781929167, -1.2756959046288916, -0.25060519782318613, -0.5708282279203125, 0.9799431562423706, 0.2847132384777069, -0.8866198658943176, -0.9268857836723328, 0.24799029529094696, -0.28175094723701477, 1.1144925355911255, -0.25323933362960815, -0.036394715309143066, -0.26268292877591026, -0.5386299276910583, 0.7857876783542622,-0.15301388896015022,0.1234893798828125,-0.0607147216796875,-0.3173370361328125
20220227-1541,2022-02-27 15:42:01Z,u01, 205,40,movements,el-ex, rt, d,297600.9031369167, -1.2678707440450492, -0.2330479229218513, -0.5619077902603377, -0.10804222524166107, 0.09422285109758377, -0.24795421957969666, -0.9286656975746155, 0.23094412684440613, -0.2902495265007019, 0.8865514397621155, -0.27560657262802124, 0.03854069113731384, -0.25311886641688475, -0.5392643802262378, 0.7879567212766113,-0.15572074679927328,-0.10699462890625,0.0211181640625,-0.2419281005859375
20220227-1541,2022-02-27 15:42:01Z,u01, 206,40,movements,el-ex, rt, d,297600.9280819167, -1.2708151058326054, -0.2385827074497086, -0.5806763591061369, -1.1998975276947021, 0.03494494408369064, 0.20867863297462463, -0.9282809495925903, 0.2363257110118866, -0.2871318459510803, 0.6665011048316956, -0.011121273040771484, 0.09996765851974487, -0.2604720234457184, -0.5372042461977953, 0.7858854398514359,-0.16109014828211066,-0.3309326171875,0.354339599609375,-0.168853759765625
20220227-1541,2022-02-27 15:42:01Z,u01, 207,40,movements,el-ex, rt, d,297600.9530259167, -1.276671745463094, -0.2531105071333618, -0.6056801252060583, -0.7655478715896606, -0.018689453601837158, 0.37879160046577454, -0.9265628457069397, 0.2504165768623352, -0.2806653678417206, 0.4692568778991699, 0.2022659182548523, 0.08100426197052002, -0.2730346341155212, -0.5339657368787019, 0.7828417832719217,-0.16580583823623501,-0.481109619140625,0.4648590087890625,-0.212493896484375
20220227-1541,2022-02-27 15:42:01Z,u01, 208,40,movements,el-ex, rt, d,297600.9779699167, -1.2795823032049605, -0.26584181558651027, -0.6113302850672864, 0.01819574274122715, -0.06484642624855042, 0.45830196142196655, -0.9242466688156128, 0.26272159814834595, -0.277029424905777, 0.36434072256088257, 0.25661125779151917, 0.07448437809944153, -0.2794673653984546, -0.532337554759456, 0.7820972912018598,-0.1638243743971191,-0.6231842041015625,0.522247314453125,-0.19976806640625
20220227-1541,2022-02-27 15:42:01Z,u01, 209,40,movements,el-ex, rt, d,297601.00291491667, -1.2788270127758972, -0.2741166751489194, -0.6051279122222023, 0.03143538162112236, 0.005355561152100563, 0.33709990978240967, -0.9219237565994263, 0.2706966996192932, -0.27709221839904785, 0.2463560700416565, 0.2653140723705292, 0.0956500768661499, -0.2807955374211117, -0.5316086440586961, 0.7831055082378453,-0.15903462908531085,-0.681243896484375,0.5137481689453125,-0.1986083984375
20220227-1541,2022-02-27 15:42:01Z,u01, 210,40,movements,el-ex, rt, d,297601.02785891667, -1.2782503133411858, -0.2825904332546996, -0.6047109337254828, -0.10308218002319336, 0.013789061456918716, 0.3374781608581543, -0.9195342659950256, 0.27884426712989807, -0.2769523561000824, 0.22695308923721313, 0.18119293451309204, 0.025899618864059448, -0.2837494480193848, -0.5301038344019445, 0.78358673171675,-0.1564225024522073,-0.717132568359375,0.424072265625,-0.2777862548828125
20220227-1541,2022-02-27 15:42:01Z,u01, 211,40,movements,el-ex, rt, d,297601.0528029167, -1.2777108445079568, -0.29113875795229205, -0.6017375041095372, 0.13929682970046997, -0.05981791764497757, 0.40773195028305054, -0.917069137096405, 0.2870432436466217, -0.2767495810985565, 0.17828434705734253, 0.1711018681526184, -0.0016621053218841553, -0.2860546032312907, -0.5289593322297803, 0.784240551779069,-0.1527792238558009,-0.7434539794921875,0.4637298583984375,-0.2664642333984375
20220227-1541,2022-02-27 15:42:01Z,u01, 212,40,movements,el-ex, rt, d,297601.0777479167, -1.2775344911323268, -0.2994764489524652, -0.592855589655485, 0.2736043930053711, -0.08658728003501892, 0.42434388399124146, -0.9146973490715027, 0.2950199842453003, -0.27620983123779297, 0.12964797019958496, 0.16341504454612732, 0.03899684548377991, -0.28674880702677963, -0.5288385390496345, 0.7852052613894774,-0.1468249132008868,-0.79693603515625,0.43267822265625,-0.2446136474609375
20220227-1541,2022-02-27 15:42:01Z,u01, 213,40,movements,el-ex, rt, d,297601.1026919167, -1.277115517292236, -0.3086678505293255, -0.5832528415173982, 0.17988663911819458, -0.10422845184803009, 0.49696654081344604, -0.91194748878479, 0.3037897050380707, -0.27579644322395325, 0.13789963722229004, 0.1310400366783142, 0.01931154727935791, -0.2875506501970667, -0.5285985231195914, 0.7862555069781483,-0.1403587434880541,-0.7899627685546875,0.455322265625,-0.2416534423828125
20220227-1541,2022-02-27 15:42:01Z,u01, 214,40,movements,el-ex, rt, d,297601.1276366667, -1.2773884468727248, -0.3199697440931332, -0.5793602523719972, -0.18464554846286774, -0.00987112708389759, 0.44553208351135254, -0.9086778163909912, 0.3145378530025482, -0.27453696727752686, 0.07971358299255371, 0.14289018511772156, 0.0641641616821289, -0.29068402343567856, -0.5274792134070377, 0.7867248395000412,-0.13539760358419972,-0.81048583984375,0.431060791015625,-0.21014404296875
20220227-1541,2022-02-27 15:42:01Z,u01, 215,40,movements,el-ex, rt, d,297601.1525816667, -1.2786012714968824, -0.333435094471624, -0.584782660302055, -0.46235600113868713, 0.050156258046627045, 0.461152583360672, -0.9048720598220825, 0.3272908627986908, -0.2721899151802063, 0.10830217599868774, 0.11722820997238159, 0.06178659200668335, -0.2971129544536184, -0.5250037407765126, 0.7863364130988918,-0.13330439758119222,-0.801361083984375,0.46148681640625,-0.2145538330078125
20220227-1541,2022-02-27 15:42:01Z,u01, 216,40,movements,el-ex, rt, d,297601.17752566666, -1.2799028778811143, -0.3478493746267136, -0.594775190769769, -0.5923371315002441, 0.11110648512840271, 0.41852235794067383, -0.9006122350692749, 0.3408767879009247, -0.2696307301521301, 0.09160643815994263, 0.1715286374092102, 0.05880016088485718, -0.3050550624348424, -0.5216570121600308, 0.7856257074529155,-0.13269391382614604,-0.8040008544921875,0.5098419189453125,-0.2110595703125
20220227-1541,2022-02-27 15:42:01Z,u01, 217,40,movements,el-ex, rt, d,297601.20246966666, -1.280787510492013, -0.361043143979485, -0.6085280758267256, -0.6453723907470703, 0.19715768098831177, 0.30505645275115967, -0.8964625597000122, 0.35325032472610474, -0.26752448081970215, 0.09116452932357788, 0.15869736671447754, 0.02301773428916931, -0.3134555582769061, -0.5176710981758668, 0.7847375401979374,-0.1339753865382473,-0.7926177978515625,0.5192413330078125,-0.2569122314453125
20220227-1541,2022-02-27 15:42:01Z,u01, 218,40,movements,el-ex, rt, d,297601.2274146667, -1.280425241974119, -0.37189715770137843, -0.6203615058315488, -0.4268176853656769, 0.1538102775812149, 0.28108805418014526, -0.8926390409469604, 0.36338356137275696, -0.26673567295074463, 0.12927234172821045, 0.16159510612487793, -0.030352801084518433, -0.32038278685167365, -0.5137966778945674, 0.7842421916433663,-0.13539582065543398,-0.742340087890625,0.4831085205078125,-0.320709228515625
20220227-1541,2022-02-27 15:42:01Z,u01, 219,40,movements,el-ex, rt, d,297601.2523586667, -1.2816346456892518, -0.3822708278382771, -0.6292173235753198, -0.5036548972129822, 0.0032221022993326187, 0.3388141989707947, -0.8892999291419983, 0.37302833795547485, -0.2645667493343353, 0.16578912734985352, 0.07609888911247253, -0.07126379013061523, -0.3264423995278998, -0.5110303105526232, 0.7835265684257908,-0.13553426731097107,-0.7232513427734375,0.456756591796875,-0.3275299072265625
20220227-1541,2022-02-27 15:42:01Z,u01, 220,40,movements,el-ex, rt, d,297601.2773026667, -1.2888560851217032, -0.3954150759439251, -0.6434087896350447, -0.7804796099662781, -0.12129692733287811, 0.34010666608810425, -0.8864009380340576, 0.38519126176834106, -0.25675150752067566, 0.1307092308998108, 0.1178911030292511, -0.03652229905128479, -0.3352169468398356, -0.5091697632255887, 0.7809651677157176,-0.13590187290836547,-0.7774810791015625,0.50885009765625,-0.282318115234375
20220227-1541,2022-02-27 15:42:01Z,u01, 221,40,movements,el-ex, rt, d,297601.3022476667, -1.2994070017097479, -0.40820866891148005, -0.6622875053526115, -0.7711789011955261, -0.10608068853616714, 0.25402820110321045, -0.8842400908470154, 0.3969658315181732, -0.24604374170303345, 0.08524411916732788, 0.1432563066482544, -0.029377266764640808, -0.345228129993019, -0.5077358227960682, 0.7772389170082756,-0.1375554443890719,-0.7960968017578125,0.5264129638671875,-0.2803497314453125
20220227-1541,2022-02-27 15:42:02Z,u01, 222,40,movements,el-ex, rt, d,297601.3271916667, -1.3083374724116248, -0.41675505458362283, -0.6770562237093242, -0.4934774339199066, -0.1301559954881668, 0.15236489474773407, -0.8830933570861816, 0.404795378446579, -0.23724843561649323, 0.11128854751586914, 0.09518933296203613, -0.042155131697654724, -0.3525582564596597, -0.5070290478474173, 0.7741287775512923,-0.139100113768986,-0.779327392578125,0.5150146484375,-0.2523193359375
20220227-1541,2022-02-27 15:42:02Z,u01, 223,40,movements,el-ex, rt, d,297601.3521356667, -1.314524664776543, -0.42166270345940826, -0.6852415721763243, -0.21920005977153778, -0.11694111675024033, 0.059555865824222565, -0.8826120495796204, 0.40927809476852417, -0.23127374053001404, 0.08891081809997559, 0.08438953757286072, 0.003612697124481201, -0.35675365971373685, -0.5070403865088587, 0.7720972297484725,-0.13965252438183046,-0.8032684326171875,0.5016326904296875,-0.217071533203125
20220227-1541,2022-02-27 15:42:02Z,u01, 224,40,movements,el-ex, rt, d,297601.37708066666, -1.3184731497078752, -0.4246647498043893, -0.6909824338456635, -0.2662400007247925, -0.03207017481327057, 0.01993575319647789, -0.8823246359825134, 0.41201531887054443, -0.22747920453548431, 0.0461580753326416, 0.08088937401771545, 0.012864440679550171, -0.3595130951081962, -0.5069622578968622, 0.7707626737204596,-0.14023057334808114,-0.809112548828125,0.4685821533203125,-0.23150634765625
20220227-1541,2022-02-27 15:42:02Z,u01, 225,40,movements,el-ex, rt, d,297601.40202466666, -1.3234204828472904, -0.42782050527053533, -0.7019606802841175, -0.552910327911377, 0.005840923637151718, 0.03595087304711342, -0.8821740746498108, 0.41488873958587646, -0.22279176115989685, 0.08598577976226807, -0.015062689781188965, 0.0025160610675811768, -0.3637187295898905, -0.5062734469409346, 0.7688082434157466,-0.1425822233331474,-0.79901123046875,0.3796539306640625,-0.2292022705078125
20220227-1541,2022-02-27 15:42:02Z,u01, 226,40,movements,el-ex, rt, d,297601.42696866667, -1.3294320863239586, -0.4328239502234003, -0.7167109626923649, -0.5678569674491882, -0.004568907432258129, 0.10937602818012238, -0.881470799446106, 0.4194360077381134, -0.21698559820652008, 0.10069376230239868, -0.06250238418579102, -0.020456314086914062, -0.36957248459540093, -0.5048993734516767, 0.7663537920681087,-0.14558399843184655,-0.7841033935546875,0.3976898193359375,-0.2162322998046875
20220227-1541,2022-02-27 15:42:02Z,u01, 227,40,movements,el-ex, rt, d,297601.4519136667, -1.3342034753278786, -0.4388114355386969, -0.7280131459806349, -0.3170119822025299, -0.0024702027440071106, 0.1319403201341629, -0.8800387382507324, 0.4248638153076172, -0.2121848315000534, 0.0776401162147522, 0.018403977155685425, 0.030147626996040344, -0.37477970446786896, -0.5034359506969143, 0.764485771804809,-0.1471524771541648,-0.8043060302734375,0.449676513671875,-0.180999755859375
20220227-1541,2022-02-27 15:42:02Z,u01, 228,40,movements,el-ex, rt, d,297601.4768576667, -1.3351071958356124, -0.443674983447614, -0.732654974353454, -0.10289602726697922, 0.09267614781856537, 0.1538819819688797, -0.8782106041908264, 0.42926153540611267, -0.21090443432331085, 0.06920486688613892, 0.012938141822814941, 0.027387157082557678, -0.37763618894755224, -0.5019349449088919, 0.7640510449731922,-0.14723533633308794,-0.7966766357421875,0.408966064453125,-0.2012786865234375
20220227-1541,2022-02-27 15:42:02Z,u01, 229,40,movements,el-ex, rt, d,297601.5018016667, -1.3326898085795926, -0.4475038519126297, -0.7334169968088441, -0.07684960961341858, 0.1090908870100975, 0.14040644466876984, -0.8760945796966553, 0.4327165186405182, -0.21263757348060608, 0.1153828501701355, -0.07723253965377808, 0.001501813530921936, -0.37892520149690734, -0.5000968970900206, 0.7647042135397057,-0.14678641799680564,-0.7637939453125,0.351837158203125,-0.2045745849609375
20220227-1541,2022-02-27 15:42:02Z,u01, 230,40,movements,el-ex, rt, d,297601.5267466667, -1.3318704911559092, -0.45223200436177097, -0.7371751346270405, -0.2592959702014923, 0.0842137560248375, 0.14725396037101746, -0.8739224672317505, 0.43697425723075867, -0.21286872029304504, 0.06615263223648071, -0.07946079969406128, 0.013375461101531982, -0.38137654911981433, -0.4981140070582637, 0.7647577549961023,-0.14690120546150626,-0.8139495849609375,0.3948974609375,-0.2004241943359375
20220227-1541,2022-02-27 15:42:02Z,u01, 231,40,movements,el-ex, rt, d,297601.5516906667, -1.3325655912409102, -0.45831668167643547, -0.7433206265504255, -0.23068128526210785, 0.07949163764715195, 0.20420345664024353, -0.8714703321456909, 0.44243913888931274, -0.21162985265254974, 0.07126885652542114, -0.00046831369400024414, 0.031194761395454407, -0.3849739368601927, -0.4959638532126164, 0.7642923923913207,-0.14721452416679803,-0.7875518798828125,0.439300537109375,-0.1789093017578125
20220227-1541,2022-02-27 15:42:02Z,u01, 232,40,movements,el-ex, rt, d,297601.5766346667, -1.3318607357020282, -0.463811482878027, -0.7453898826781515, -0.007981166243553162, 0.06627877056598663, 0.19811029732227325, -0.8689457774162292, 0.44736015796661377, -0.21166549623012543, 0.11001932621002197, -0.03230583667755127, 0.020045697689056396, -0.38725230940474814, -0.49416889951155796, 0.7644562393034074,-0.14642233213701145,-0.759674072265625,0.388458251953125,-0.1979217529296875
20220227-1541,2022-02-27 15:42:02Z,u01, 233,40,movements,el-ex, rt, d,297601.60157966666, -1.3287278741455268, -0.4680407010147025, -0.7424330030186829, 0.06969937682151794, 0.09373542666435242, 0.18759559094905853, -0.86643385887146, 0.45113855600357056, -0.21393130719661713, 0.07700508832931519, -0.06472495198249817, 0.004351973533630371, -0.38769356625440704, -0.4926743809435812, 0.7655479608582381,-0.14457568254535375,-0.785919189453125,0.390716552734375,-0.218017578125
20220227-1541,2022-02-27 15:42:02Z,u01, 234,40,movements,el-ex, rt, d,297601.62652366667, -1.3262653552829413, -0.47248306475597074, -0.7418121391311949, -0.1677381694316864, 0.07078996300697327, 0.16452628374099731, -0.8639512658119202, 0.4550987184047699, -0.2155769020318985, 0.10616928339004517, -0.047612786293029785, 0.0028542429208755493, -0.3888336903442411, -0.49093778694077006, 0.7663007717817796,-0.1434279546397068,-0.7588348388671875,0.4338531494140625,-0.189422607421875
20220227-1541,2022-02-27 15:42:02Z,u01, 235,40,movements,el-ex, rt, d,297601.65146766667, -1.3275987652539585, -0.4776506732821039, -0.7476056146349803, -0.2545340061187744, 0.03733333572745323, 0.10426148027181625, -0.8619439005851746, 0.4596940577030182, -0.2138555347919464, 0.10381090641021729, -0.013649135828018188, 0.047016024589538574, -0.392055814144061, -0.4892488853683126, 0.765674550902432,-0.14377166798238972,-0.7559051513671875,0.4365692138671875,-0.1684417724609375
20220227-1541,2022-02-27 15:42:02Z,u01, 236,40,movements,el-ex, rt, d,297601.6764126667, -1.3279932539386075, -0.4804831981999798, -0.7513884338555303, -0.04968047887086868, 0.06493480503559113, 0.07695097476243973, -0.8607607483863831, 0.46220770478248596, -0.21320156753063202, 0.08968836069107056, -0.06502145528793335, 0.011816158890724182, -0.3939410986202033, -0.4880672387899659, 0.765369770026669,-0.14425625093423516,-0.738433837890625,0.4014129638671875,-0.2132415771484375
20220227-1541,2022-02-27 15:42:02Z,u01, 237,40,movements,el-ex, rt, d,297601.7013566667, -1.32676586478487, -0.4822010741854564, -0.7516105895312568, -0.0472298339009285, 0.005768951028585434, 0.06911115348339081, -0.8597265481948853, 0.4637303948402405, -0.21406570076942444, 0.2017371654510498, -0.033493608236312866, -0.00830051302909851, -0.394471803053802, -0.48719518076782226, 0.7656914992982453,-0.14404598112565037,-0.655303955078125,0.445709228515625,-0.2104339599609375
20220227-1541,2022-02-27 15:42:02Z,u01, 238,40,movements,el-ex, rt, d,297601.7263006667, -1.328379243196434, -0.4842605707312661, -0.7539003860060184, -0.10893817245960236, -0.007683407515287399, 0.050735943019390106, -0.859142005443573, 0.4655540883541107, -0.21244867146015167, 0.130504310131073, 0.008109241724014282, 0.04425115883350372, -0.39582219079419645, -0.4869296190497264, 0.7651797367827549,-0.14395936962756356,-0.780975341796875,0.4674224853515625,-0.16754150390625
20220227-1541,2022-02-27 15:42:02Z,u01, 239,40,movements,el-ex, rt, d,297601.7512456667, -1.3270672162124013, -0.48511170030605405, -0.753602732539084, 0.14481410384178162, 0.08866183459758759, 0.014900515787303448, -0.8584777116775513, 0.4663071632385254, -0.21348002552986145, 0.0769835114479065, -0.024458467960357666, -0.024892672896385193, -0.39593475452486665, -0.4863081946967917, 0.7655392956615431,-0.1438388790655699,-0.77532958984375,0.4291534423828125,-0.2470855712890625
20220227-1541,2022-02-27 15:42:02Z,u01, 240,40,movements,el-ex, rt, d,297601.7761896667, -1.3207703549537715, -0.4838723781276657, -0.7458192425816649, 0.38057541847229004, 0.11814282089471817, 0.035043664276599884, -0.8576757907867432, 0.465210497379303, -0.21902431547641754, 0.06810957193374634, -0.1044316291809082, -0.02545192837715149, -0.39318449151655815, -0.4856889937839771, 0.7676003922053245,-0.1424848587545937,-0.8081817626953125,0.327056884765625,-0.22833251953125
20220227-1541,2022-02-27 15:42:02Z,u01, 241,40,movements,el-ex, rt, d,297601.8011336667, -1.3125691776916817, -0.4833382632111933, -0.7347760512063872, 0.3046174645423889, 0.12985500693321228, 0.09218085557222366, -0.8560907244682312, 0.4647376239299774, -0.2261142134666443, 0.0372430682182312, -0.0891120433807373, 0.05233199894428253, -0.38974889192466766, -0.4848078922763314, 0.7703598327712677,-0.14001026493678626,-0.826080322265625,0.406768798828125,-0.1558685302734375
20220227-1541,2022-02-27 15:42:02Z,u01, 242,40,movements,el-ex, rt, d,297601.82607866667, -1.3066971345508678, -0.48455984038997973, -0.730771646130001, -0.061538830399513245, 0.17860203981399536, 0.024614328518509865, -0.8541997075080872, 0.4658189117908478, -0.23098894953727722, 0.030011296272277832, -0.023619115352630615, 0.0906539261341095, -0.38877717467437245, -0.48307124871904317, 0.7720813295141271,-0.1392302688810711,-0.8160247802734375,0.4337615966796875,-0.1555938720703125
20220227-1541,2022-02-27 15:42:02Z,u01, 243,40,movements,el-ex, rt, d,297601.85102266667, -1.30208598609138, -0.484494272297436, -0.7340477606797526, -0.07656921446323395, 0.29646098613739014, -0.055163655430078506, -0.8531548976898193, 0.46576088666915894, -0.23493342101573944, 0.007039666175842285, -0.043962180614471436, 0.04175722599029541, -0.3892210908357858, -0.4806664468664902, 0.7729613324048525,-0.14141283587804204,-0.83251953125,0.4174652099609375,-0.200592041015625
20220227-1541,2022-02-27 15:42:02Z,u01, 244,40,movements,el-ex, rt, d,297601.8759666667, -1.292821678842169, -0.4802662536429803, -0.7316129714060541, 0.30276262760162354, 0.3728209137916565, -0.09250710159540176, -0.8528277277946472, 0.4620153307914734, -0.24336528778076172, 0.029738128185272217, -0.08098810911178589, 0.03415216505527496, -0.3865593685754847, -0.47842367193761737, 0.7752873612130166,-0.14356925554452277,-0.802886962890625,0.357147216796875,-0.2242431640625
20220227-1541,2022-02-27 15:42:02Z,u01, 245,40,movements,el-ex, rt, d,297601.9009116667, -1.2790973587001009, -0.4755984484307348, -0.7216099572414274, 0.410715788602829, 0.38434162735939026, -0.05046630650758743, -0.8514636754989624, 0.45787057280540466, -0.2556638717651367, 0.016960561275482178, -0.12623608112335205, 0.029513508081436157, -0.3816082232916422, -0.47596556881265073, 0.7792105681746506,-0.14374543965286835,-0.860137939453125,0.3282318115234375,-0.2281036376953125
20220227-1541,2022-02-27 15:42:02Z,u01, 246,40,movements,el-ex, rt, d,297601.9258556667, -1.26497107946559, -0.47326678994381854, -0.7140565132164489, 0.09021396934986115, 0.44460874795913696, -0.0066737523302435875, -0.8487831354141235, 0.45579642057418823, -0.2679867148399353, -0.00451892614364624, -0.14621084928512573, 0.02268657088279724, -0.3780041803503538, -0.47235524634670256, 0.7830733856379662,-0.1441855443561349,-0.824371337890625,0.2997894287109375,-0.252899169921875
20220227-1541,2022-02-27 15:42:02Z,u01, 247,40,movements,el-ex, rt, d,297601.9507996667, -1.2558518201836417, -0.4739301951236541, -0.7187927620808476, -0.3786349594593048, 0.4378068447113037, -0.07528470456600189, -0.8460162878036499, 0.4563868045806885, -0.27562201023101807, 0.0742419958114624, -0.1267358958721161, -0.004513978958129883, -0.3786800851542641, -0.4677503466455176, 0.7848789329895033,-0.14756720907647408,-0.754241943359375,0.3483734130859375,-0.2824859619140625
20220227-1541,2022-02-27 15:42:02Z,u01, 248,40,movements,el-ex, rt, d,297601.9757446667, -1.2508416412616172, -0.47394968114507363, -0.7287682861474294, -0.169749453663826, 0.37380003929138184, -0.12301161140203476, -0.8446163535118103, 0.4564041495323181, -0.279854416847229, 0.0483822226524353, -0.08611911535263062, 0.030434399843215942, -0.38063442729305674, -0.4638859982195096, 0.7852979223389547,-0.15242828649058143,-0.85296630859375,0.3783416748046875,-0.2448272705078125
20220227-1541,2022-02-27 15:42:02Z,u01, 249,40,movements,el-ex, rt, d,297602.0006886667, -1.2389580855929336, -0.4692680621571051, -0.7239731020209391, 0.6357662081718445, 0.4072279930114746, -0.1510624885559082, -0.8432421088218689, 0.45223358273506165, -0.2905644178390503, 0.03388535976409912, -0.05588656663894653, 0.023734092712402344, -0.37699932751011966, -0.4610740631801509, 0.7883574676207226,-0.15419093163239916,-0.7987213134765625,0.386688232421875,-0.2711944580078125
