SessionID,LoggingTime,UID,RecNo,Hertz,Activity,MoveType,Wrist,Side,TimeStamp,DMRoll,DMPitch,DMYaw,DMRotX,DMRotY,DMRotZ,DMGrvX,DMGrvY,DMGrvZ,DMUAccelX,DMUAccelY,DMUAccelZ,DMQuatX,DMQuatY,DMQuatW,DMQuatZ,AccelroX,AceelroY,AceelroZ
20220225-1323,2022-02-25 13:23:40Z,u01, 1,40,movements,el-ex, rt, d,243591.82622629168, -1.200876446132242, -0.42632367149986145, -0.29429893467511475, 0.35614481568336487, 0.019014861434698105, -0.026211444288492203, -0.8489030599594116, 0.413526326417923, -0.3291800022125244, -0.11534547805786133, 0.010210186243057251, 0.008516460657119751, -0.2536274732476201, -0.5206564225192499, 0.8152238613731941,-2.7755575615628914e-17,-0.9642486572265625,0.423736572265625,-0.3206634521484375
20220225-1323,2022-02-25 13:23:40Z,u01, 2,40,movements,el-ex, rt, d,243591.8511712917, -1.1980365250905358, -0.4230753872073926, -0.29365028161432144, -0.18948642909526825, 0.16849775612354279, -0.1994117796421051, -0.8492113351821899, 0.41056662797927856, -0.33207693696022034, -0.13029605150222778, -0.06445151567459106, -0.013305842876434326, -0.2521898244007965, -0.5199632953432847, 0.8161111417763459,-0.0010224074481919865,-1.00091552734375,0.330657958984375,-0.3257904052734375
20220225-1323,2022-02-25 13:23:40Z,u01, 3,40,movements,el-ex, rt, d,243591.87611629168, -1.1969688014581414, -0.42072681414853136, -0.3008340092550955, -0.10230808705091476, 0.11180498450994492, -0.15401707589626312, -0.8497517108917236, 0.4084239900112152, -0.33333471417427063, -0.04635125398635864, 0.03255504369735718, -0.10820898413658142, -0.25313645688056574, -0.5188974665362174, 0.8164832062849409,-0.004759457254216892,-0.8961029052734375,0.44097900390625,-0.4415435791015625
20220225-1323,2022-02-25 13:23:40Z,u01, 4,40,movements,el-ex, rt, d,243591.9010612917, -1.1970011238663223, -0.41672427687455027, -0.30083285899450396, 0.21015091240406036, 0.6206544041633606, -0.34082046151161194, -0.8512774705886841, 0.404767245054245, -0.33390146493911743, -0.15304070711135864, 0.09956622123718262, -0.15148073434829712, -0.251572320260182, -0.5193848613934956, 0.8166492427618951,-0.005896827180886549,-0.9302215576171875,0.451873779296875,-0.467193603515625
20220225-1323,2022-02-25 13:23:40Z,u01, 5,40,movements,el-ex, rt, d,243591.92600729168, -1.1964236391129455, -0.4105670810342309, -0.29750299488027715, 0.27528825402259827, 0.046067915856838226, -0.20353443920612335, -0.8533880114555359, 0.39912933111190796, -0.3352980613708496, -0.1983698606491089, 0.06197601556777954, -0.10523852705955505, -0.2482963960967782, -0.5202882515202849, 0.8170732104475313,-0.006365049849429871,-1.0517578125,0.4611053466796875,-0.4405364990234375
20220225-1323,2022-02-25 13:23:40Z,u01, 6,40,movements,el-ex, rt, d,243591.9509522917, -1.1929988676754248, -0.4024463850359549, -0.2919211436453137, 0.3111206293106079, 0.03403561934828758, -0.1980535089969635, -0.8552190661430359, 0.39167043566703796, -0.3394031524658203, -0.13141417503356934, 0.07404303550720215, -0.12771427631378174, -0.24364795708385534, -0.5205133077074909, 0.818324526180168,-0.006816111487016635,-1.0013275146484375,0.464141845703125,-0.4593353271484375
20220225-1323,2022-02-25 13:23:40Z,u01, 7,40,movements,el-ex, rt, d,243591.97589729168, -1.1928527372716873, -0.39665531109891145, -0.28832835952692937, 0.06259617954492569, -0.13479681313037872, -0.1558312177658081, -0.8572632074356079, 0.3863355219364166, -0.3403593897819519, -0.14507126808166504, 0.07794356346130371, -0.13185444474220276, -0.24043489199128623, -0.5215470965577087, 0.818614928939061,-0.00700960346820062,-1.0023345947265625,0.4642791748046875,-0.4722137451171875
20220225-1323,2022-02-25 13:23:40Z,u01, 8,40,movements,el-ex, rt, d,243592.0008432917, -1.1977480272453933, -0.3936464169339256, -0.2919022054495056, -0.20968450605869293, -0.1008964329957962, -0.20677730441093445, -0.8599978089332581, 0.3835584819316864, -0.33658096194267273, -0.29503142833709717, 0.0916459858417511, -0.11170709133148193, -0.24020517389775958, -0.5234606006987895, 0.8174436478233491,-0.008739820143007365,-1.135650634765625,0.45751953125,-0.449951171875
20220225-1323,2022-02-25 13:23:40Z,u01, 9,40,movements,el-ex, rt, d,243592.02578829168, -1.2025194658022318, -0.3906529953435508, -0.3002615935509046, -0.24675221741199493, -0.08080308139324188, -0.2119501531124115, -0.8626612424850464, 0.3807922899723053, -0.3328855633735657, -0.29555708169937134, 0.16342765092849731, -0.1477510929107666, -0.24124700049412795, -0.5247447998641541, 0.8162647695360914,-0.01243514865682474,-1.1582183837890625,0.544219970703125,-0.4806365966796875
20220225-1323,2022-02-25 13:23:40Z,u01, 10,40,movements,el-ex, rt, d,243592.0507332917, -1.2094506038466943, -0.3883112819595909, -0.3084474775026216, -0.23572087287902832, -0.19857020676136017, -0.14883111417293549, -0.8657795190811157, 0.3786259591579437, -0.32721272110939026, -0.3622477650642395, 0.2139643132686615, -0.16387620568275452, -0.2425319379351149, -0.5268509245984191, 0.8144708575379771,-0.015606338555267829,-1.2056121826171875,0.59716796875,-0.49822998046875
20220225-1323,2022-02-25 13:23:40Z,u01, 11,40,movements,el-ex, rt, d,243592.07567929168, -1.2184521386652967, -0.38759882989777905, -0.31521480318694006, -0.2580356001853943, -0.32351765036582947, -0.07120655477046967, -0.8689427971839905, 0.3779664635658264, -0.31949925422668457, -0.44943177700042725, 0.21495956182479858, -0.16014564037322998, -0.24411646071277476, -0.5297712075591706, 0.8120618515847424,-0.017468741834140794,-1.3183746337890625,0.592926025390625,-0.479644775390625
20220225-1323,2022-02-25 13:23:40Z,u01, 12,40,movements,el-ex, rt, d,243592.1006242917, -1.2303022884929236, -0.3888522096817685, -0.32346966723455095, -0.37514790892601013, -0.37291598320007324, -0.0508289709687233, -0.8722206354141235, 0.37912654876708984, -0.3090215027332306, -0.649187445640564, 0.28383728861808777, -0.19378620386123657, -0.24690441204544405, -0.5334111517056914, 0.8087953918310238,-0.01899448300591486,-1.48663330078125,0.64154052734375,-0.4987945556640625
20220225-1323,2022-02-25 13:23:40Z,u01, 13,40,movements,el-ex, rt, d,243592.12556929167, -1.2449974517128077, -0.3924463029637839, -0.33489906968394934, -0.41765886545181274, -0.4347764253616333, 0.11134316027164459, -0.8753707408905029, 0.3824498951435089, -0.29573312401771545, -0.7504073977470398, 0.3896906077861786, -0.2529272437095642, -0.2514937106336767, -0.537479630597384, 0.8046348523956759,-0.02071829810708556,-1.6257781982421875,0.7721405029296875,-0.5486602783203125
20220225-1323,2022-02-25 13:23:40Z,u01, 14,40,movements,el-ex, rt, d,243592.1505152917, -1.256357175898686, -0.4006485404634618, -0.33741198517633847, 0.020543565973639488, -0.5874733924865723, 0.3905773162841797, -0.8756608963012695, 0.3900156021118164, -0.2847904562950134, -0.8514354825019836, 0.4894551634788513, -0.27351346611976624, -0.2554154946268921, -0.5407103610523025, 0.801296578488604,-0.01785754404845849,-1.699462890625,0.86553955078125,-0.5507049560546875
20220225-1323,2022-02-25 13:23:40Z,u01, 15,40,movements,el-ex, rt, d,243592.17546029168, -1.2744252733120913, -0.4065287463462313, -0.3338219943211567, 0.08713550865650177, -0.6782903671264648, 0.23501862585544586, -0.8784548044204712, 0.39542338252067566, -0.26824891567230225, -1.0120480060577393, 0.49225667119026184, -0.23817509412765503, -0.256807199200519, -0.547654644714853, 0.7962235021140611,-0.01235128865461474,-1.8905029296875,0.8876800537109375,-0.5064239501953125
20220225-1323,2022-02-25 13:23:40Z,u01, 16,40,movements,el-ex, rt, d,243592.2004052917, -1.291204480014362, -0.41771893686577183, -0.3303264319108258, -0.11150367558002472, -0.8239655494689941, 0.6646552085876465, -0.8785237073898315, 0.40567657351493835, -0.2522351145744324, -0.8231211304664612, 0.29731106758117676, -0.1796039342880249, -0.2601342517189545, -0.5533648085297433, 0.7912573842555904,-0.005412084886739971,-1.719635009765625,0.713836669921875,-0.4469451904296875
20220225-1323,2022-02-25 13:23:40Z,u01, 17,40,movements,el-ex, rt, d,243592.22535029167, -1.3121608010226677, -0.43767905255503414, -0.3298977192319089, -0.2530767321586609, -0.8521318435668945, 0.8440112471580505, -0.8756126761436462, 0.42383843660354614, -0.23165300488471985, -0.8016484975814819, 0.2813464105129242, -0.14124134182929993, -0.2674671873917025, -0.5591375533677166, 0.7847376397225619,0.0036263885045487443,-1.6772613525390625,0.7051849365234375,-0.372894287109375
20220225-1323,2022-02-25 13:23:40Z,u01, 18,40,movements,el-ex, rt, d,243592.2502956667, -1.335609793627601, -0.46064084394338617, -0.3345944258845426, -0.5791097283363342, -0.8661560416221619, 0.869990348815918, -0.8711081147193909, 0.4445222318172455, -0.20873574912548065, -0.6437081098556519, 0.17039167881011963, -0.0725143551826477, -0.277141925067726, -0.5646454468774421, 0.7773167830734863,0.01210326441168258,-1.541778564453125,0.63983154296875,-0.3050689697265625
20220225-1323,2022-02-25 13:23:40Z,u01, 19,40,movements,el-ex, rt, d,243592.27524066667, -1.362874727875169, -0.4852945963349237, -0.3481075091823795, -0.7206436395645142, -0.7801500558853149, 0.816469132900238, -0.8654863834381104, 0.4664689600467682, -0.18259216845035553, -0.5778270959854126, 0.04022955894470215, -0.002085074782371521, -0.28968283609421475, -0.569901545202584, 0.7687350871662808,0.01850340719262006,-1.4433135986328125,0.5066986083984375,-0.1846771240234375
20220225-1323,2022-02-25 13:23:40Z,u01, 20,40,movements,el-ex, rt, d,243592.30018566668, -1.386767456357076, -0.5079558618196056, -0.3615266818790562, -0.48509442806243896, -0.6618916988372803, 0.7941545844078064, -0.8589869737625122, 0.48639222979545593, -0.159887433052063, -0.4008548855781555, -0.03769230842590332, 0.05295379459857941, -0.30130903935409636, -0.5738197843548851, 0.761157618095073,0.02414074695239557,-1.293121337890625,0.4551544189453125,-0.113800048828125
20220225-1323,2022-02-25 13:23:40Z,u01, 21,40,movements,el-ex, rt, d,243592.32513166667, -1.4046252232316299, -0.5273075762697911, -0.36467413883546757, -0.0275479294359684, -0.6199463605880737, 0.7014036178588867, -0.852261483669281, 0.5032084584236145, -0.14293931424617767, -0.323214590549469, -0.090168297290802, 0.07400006055831909, -0.3087264001000941, -0.5772506857013417, 0.7552817077254343,0.03192517997546532,-1.17547607421875,0.4130401611328125,-0.068939208984375
20220225-1323,2022-02-25 13:23:40Z,u01, 22,40,movements,el-ex, rt, d,243592.35007666668, -1.4152674840837853, -0.5424544805600385, -0.35803778433082967, 0.25641322135925293, -0.49008238315582275, 0.5381185412406921, -0.8461067080497742, 0.5162396430969238, -0.13266542553901672, -0.28774333000183105, -0.21875429153442383, 0.16109246015548706, -0.3118518404616216, -0.580013550819458, 0.7514328117164198,0.041006162204099667,-1.1401824951171875,0.3180999755859375,0.014404296875
20220225-1323,2022-02-25 13:23:40Z,u01, 23,40,movements,el-ex, rt, d,243592.3750216667, -1.4199893226874147, -0.5513430961225011, -0.3479100799130799, 0.27201637625694275, -0.3108578324317932, 0.2783902585506439, -0.8421536684036255, 0.5238317847251892, -0.12797431647777557, -0.22593098878860474, -0.2957739233970642, 0.16013973951339722, -0.31186490427728897, -0.5820250213562088, 0.7494266244795827,0.04844469949334018,-1.068084716796875,0.228057861328125,0.03216552734375
20220225-1323,2022-02-25 13:23:40Z,u01, 24,40,movements,el-ex, rt, d,243592.3999676667, -1.423811648890602, -0.5544416213827242, -0.34032380634267334, 0.19757983088493347, -0.24962246417999268, 0.011872291564941406, -0.8410271406173706, 0.5264686346054077, -0.12451609969139099, -0.1410285234451294, -0.3060706853866577, 0.14658021926879883, -0.3106217317475307, -0.5841712846202712, 0.7479709325813714,0.05289253402624913,-0.981231689453125,0.210235595703125,0.0221710205078125
20220225-1323,2022-02-25 13:23:40Z,u01, 25,40,movements,el-ex, rt, d,243592.42491266667, -1.424294234214949, -0.5486928164002288, -0.33854056332369875, 0.02268611267209053, 0.10721409320831299, -0.4973039925098419, -0.8440672755241394, 0.5215723514556885, -0.1245499700307846, -0.03665471076965332, -0.3115047216415405, 0.12810516357421875, -0.3081103228348927, -0.5854853078313389, 0.7480619098902722,0.051752949804976994,-0.8807220458984375,0.2100677490234375,0.0035552978515625
20220225-1323,2022-02-25 13:23:40Z,u01, 26,40,movements,el-ex, rt, d,243592.44985766668, -1.4274091630308916, -0.5311805257756255, -0.3448940097925168, -0.22543920576572418, -0.17462119460105896, -0.8946906328201294, -0.8533612489700317, 0.5065515637397766, -0.12320657819509506, 0.21664267778396606, -0.23769181966781616, 0.17189732193946838, -0.30386901248099163, -0.588268931029858, 0.748102344711165,0.04411359372095372,-0.6350555419921875,0.2336273193359375,0.0431671142578125
20220225-1323,2022-02-25 13:23:41Z,u01, 27,40,movements,el-ex, rt, d,243592.47480366667, -1.4361813353047534, -0.5034492217186933, -0.3634224678225844, -0.7179391384124756, 0.43169915676116943, -1.608737826347351, -0.867999255657196, 0.48244965076446533, -0.11755666136741638, 0.12553715705871582, -0.04832187294960022, 0.10666179656982422, -0.29963327876674567, -0.5928250741972508, 0.7469371220014527,0.029380690243823337,-0.742462158203125,0.4341278076171875,-0.010894775390625
20220225-1323,2022-02-25 13:23:41Z,u01, 28,40,movements,el-ex, rt, d,243592.49974866668, -1.4286015355557586, -0.4524141849259366, -0.39437773392563186, -0.9557474255561829, 1.0485669374465942, -2.678481101989746, -0.8903171420097351, 0.4371381103992462, -0.12745866179466248, 0.7522251605987549, -0.2299543023109436, -0.09707450866699219, -0.2912445689345809, -0.5928298816223253, 0.7508191101837758,-0.0001736298422973237,-0.3060760498046875,0.272552490234375,-0.19451904296875
20220225-1323,2022-02-25 13:23:41Z,u01, 29,40,movements,el-ex, rt, d,243592.5246936667, -1.419509697296233, -0.38793876770654395, -0.41497003839868507, 0.3395569920539856, 0.4184603691101074, -2.4965336322784424, -0.9151174426078796, 0.3782811462879181, -0.13951101899147034, 1.3417227268218994, -0.426392138004303, -0.026306331157684326, -0.27479496276326926, -0.5955940029171114, 0.7542086529703445,-0.030410246609657576,0.426605224609375,-0.0481109619140625,-0.1658172607421875
20220225-1323,2022-02-25 13:23:41Z,u01, 30,40,movements,el-ex, rt, d,243592.54963866668, -1.409154153273729, -0.3270117286475934, -0.40906056473822794, 0.8647222518920898, 0.28179383277893066, -2.2635891437530518, -0.9346616268157959, 0.32121455669403076, -0.15241046249866486, 1.2898404598236084, -0.3746050298213959, -0.030847743153572083, -0.2512337986679966, -0.600563359702526, 0.7574698022298314,-0.04944480550270211,0.3729400634765625,-0.017425537109375,-0.1434173583984375
20220225-1323,2022-02-25 13:23:41Z,u01, 31,40,movements,el-ex, rt, d,243592.57458466667, -1.3999721960888418, -0.2748147345138037, -0.387213105956762, 1.391850471496582, -0.20636840164661407, -1.4395818710327148, -0.9484667181968689, 0.2713686227798462, -0.16361558437347412, 1.2958177328109741, -0.4888826310634613, -0.14775539934635162, -0.22558514137071142, -0.6060557302602154, 0.7604642313018122,-0.05917791924482435,0.34735107421875,-0.2175140380859375,-0.311370849609375
20220225-1323,2022-02-25 13:23:41Z,u01, 32,40,movements,el-ex, rt, d,243592.59952966668, -1.4119703955761738, -0.2545136126388312, -0.3646349121240338, 0.5088666081428528, -1.152941346168518, 0.05661526322364807, -0.9556049704551697, 0.25177472829818726, -0.1530640721321106, 0.797691822052002, -0.34692853689193726, -0.06667786836624146, -0.2116563679719588, -0.6153613146622232, 0.7572379862943079,-0.055880799199893444,-0.027374267578125,-0.15106201171875,-0.2439727783203125
20220225-1323,2022-02-25 13:23:41Z,u01, 33,40,movements,el-ex, rt, d,243592.6244746667, -1.4332992454044917, -0.25700396070755765, -0.3637125374556213, -0.25342246890068054, -0.3691740930080414, 0.12435895204544067, -0.9580278992652893, 0.2541840672492981, -0.13256247341632843, 0.29346197843551636, -0.03953871130943298, 0.034936681389808655, -0.2128497340076051, -0.623228491159222, 0.7506860899929269,-0.05245476580056124,-0.6645660400390625,0.2146453857421875,-0.097625732421875
20220225-1323,2022-02-25 13:23:41Z,u01, 34,40,movements,el-ex, rt, d,243592.64942066668, -1.437275626185614, -0.26167208418947174, -0.368337962701873, 0.02369828149676323, -0.11377254873514175, 0.20865079760551453, -0.957361102104187, 0.2586960792541504, -0.1285926103591919, 0.409082293510437, 0.2177290916442871, 0.09007936716079712, -0.21607407189268255, -0.6237112247964189, 0.7493789696718232,-0.052225012942074434,-0.6065673828125,0.4562530517578125,-0.0253448486328125
20220225-1323,2022-02-25 13:23:41Z,u01, 35,40,movements,el-ex, rt, d,243592.6743656667, -1.4407279806000306, -0.26830122652220534, -0.363230810195887, 0.15336333215236664, -0.12909264862537384, 0.29832395911216736, -0.9560778141021729, 0.2650938332080841, -0.1250615119934082, 0.3631671071052551, 0.2897767424583435, 0.07904095947742462, -0.21694370832079155, -0.6248237129157582, 0.7484989309904597,-0.047749822970053285,-0.5929107666015625,0.55487060546875,-0.0460205078125
20220225-1323,2022-02-25 13:23:41Z,u01, 36,40,movements,el-ex, rt, d,243592.69931066668, -1.4394819541811004, -0.27341233337047327, -0.3637637756299185, -0.29702091217041016, 0.21132612228393555, 0.15550629794597626, -0.9545656442642212, 0.2700185775756836, -0.1260736733675003, 0.22643136978149414, 0.2022256851196289, 0.07065366208553314, -0.21891184239098196, -0.6237313286363529, 0.748922112346491,-0.046395981088944466,-0.73419189453125,0.478057861328125,-0.05572509765625
20220225-1323,2022-02-25 13:23:41Z,u01, 37,40,movements,el-ex, rt, d,243592.72425666667, -1.4360754569501746, -0.2794020018552135, -0.3756544501401932, -0.5597305297851562, 0.2881271541118622, 0.16465717554092407, -0.9525108337402344, 0.27578088641166687, -0.1291051059961319, 0.21097946166992188, 0.25022006034851074, 0.06262248754501343, -0.22467324469292543, -0.6204590077383136, 0.7497512113273399,-0.049251589664986495,-0.7415313720703125,0.5260009765625,-0.0664825439453125
20220225-1323,2022-02-25 13:23:41Z,u01, 38,40,movements,el-ex, rt, d,243592.74920166668, -1.4332470991758537, -0.2846233389478764, -0.38966680675238313, -0.5272275805473328, 0.23175396025180817, 0.12239155173301697, -0.9507024884223938, 0.28079596161842346, -0.13159938156604767, 0.14764773845672607, 0.22298821806907654, 0.0097273588180542, -0.23080288675634328, -0.6171955395037932, 0.7503194368418116,-0.05310782048587598,-0.8063812255859375,0.527557373046875,-0.1127777099609375
20220225-1323,2022-02-25 13:23:41Z,u01, 39,40,movements,el-ex, rt, d,243592.7741466667, -1.433249597582321, -0.2904637760103289, -0.40012135301504914, -0.349506676197052, 0.01323713082820177, 0.21512393653392792, -0.9490621089935303, 0.2863965928554535, -0.13136990368366241, 0.13825589418411255, 0.19552171230316162, 0.004737138748168945, -0.23610716487198155, -0.615279167433892, 0.7500988652378004,-0.05510574030553525,-0.8108062744140625,0.4819183349609375,-0.1266326904296875
20220225-1323,2022-02-25 13:23:41Z,u01, 40,40,movements,el-ex, rt, d,243592.79909166667, -1.4341686813894374, -0.295741158951914, -0.40517004106940746, -0.09971832484006882, 0.05469316244125366, 0.13635024428367615, -0.9476719498634338, 0.2914489209651947, -0.13028991222381592, 0.031152784824371338, 0.1816650927066803, 0.03461718559265137, -0.23956209693551975, -0.6143818427932418, 0.7497355011935593,-0.05515096657166946,-0.9170379638671875,0.489471435546875,-0.1039886474609375
20220225-1323,2022-02-25 13:23:41Z,u01, 41,40,movements,el-ex, rt, d,243592.8240376667, -1.432955842532304, -0.29923552387680025, -0.40480393268616227, 0.022741608321666718, 0.015747491270303726, 0.14771515130996704, -0.9464985132217407, 0.29478979110717773, -0.13129842281341553, 0.06794339418411255, 0.13678976893424988, 0.05518747866153717, -0.2406584996093474, -0.6135423962782625, 0.7501547972383853,-0.054008058706199735,-0.8785552978515625,0.43157958984375,-0.07611083984375
20220225-1323,2022-02-25 13:23:41Z,u01, 42,40,movements,el-ex, rt, d,243592.84898266668, -1.4317735354545678, -0.30290653978691706, -0.4043623863108388, -0.04118504375219345, 0.09824050217866898, 0.16700762510299683, -0.9452646374702454, 0.29829567670822144, -0.1322665512561798, 0.05553996562957764, 0.07909995317459106, 0.049151837825775146, -0.24179623110992032, -0.6127000136327378, 0.7505650993386197,-0.05277619145729867,-0.8881683349609375,0.38372802734375,-0.0868377685546875
20220225-1323,2022-02-25 13:23:41Z,u01, 43,40,movements,el-ex, rt, d,243592.8739276667, -1.4286794438542227, -0.3074956663565428, -0.4054026521420112, -0.014733164571225643, 0.1267547756433487, 0.1687970608472824, -0.9434857964515686, 0.30267271399497986, -0.13499532639980316, 0.05720961093902588, 0.057129472494125366, 0.019440487027168274, -0.243664721370598, -0.6108435463926006, 0.7515252838245072,-0.05203269873736452,-0.8862762451171875,0.35980224609375,-0.1155548095703125
20220225-1323,2022-02-25 13:23:41Z,u01, 44,40,movements,el-ex, rt, d,243592.89887366668, -1.4261273443972655, -0.31201173399776616, -0.4042755597940538, 0.027234788984060287, 0.050448015332221985, 0.19927853345870972, -0.9417759776115417, 0.3069738745689392, -0.13720430433750153, 0.07919669151306152, 0.04126220941543579, 0.010159552097320557, -0.24486173759171392, -0.6094592527874169, 0.7523684094367661,-0.05043701620138333,-0.8613433837890625,0.3359832763671875,-0.1316375732421875
20220225-1323,2022-02-25 13:23:41Z,u01, 45,40,movements,el-ex, rt, d,243592.9238186667, -1.4244679218290561, -0.31938390591628457, -0.40474087984311224, -0.08044899255037308, 0.12773387134075165, 0.2478962540626526, -0.9392825961112976, 0.31398168206214905, -0.13843318819999695, 0.06275677680969238, 0.05276331305503845, 0.014150261878967285, -0.24758442511998757, -0.6078530746518122, 0.7529106140933814,-0.0483967285352053,-0.87652587890625,0.3667449951171875,-0.1242828369140625
20220225-1323,2022-02-25 13:23:41Z,u01, 46,40,movements,el-ex, rt, d,243592.94876366667, -1.4225107994518047, -0.32848275739904614, -0.40669526190229816, -0.12588611245155334, 0.101206935942173, 0.31624922156333923, -0.936145544052124, 0.32260727882385254, -0.13984332978725433, 0.0949285626411438, 0.01929640769958496, -0.03233695030212402, -0.2513645760777519, -0.6057179091189697, 0.7535047870922468,-0.046392505233661424,-0.8405914306640625,0.3378143310546875,-0.1654815673828125
20220225-1323,2022-02-25 13:23:41Z,u01, 47,40,movements,el-ex, rt, d,243592.9737086667, -1.4214564498757827, -0.3383693125859228, -0.4092111498395879, -0.20055559277534485, 0.048984676599502563, 0.39076974987983704, -0.9327977299690247, 0.3319493234157562, -0.14034882187843323, 0.07598638534545898, 0.03949534893035889, -0.03289954364299774, -0.25561007858233564, -0.603729305653086, 0.7538021730482802,-0.04423303094348227,-0.8568115234375,0.3714447021484375,-0.173248291015625
20220225-1323,2022-02-25 13:23:41Z,u01, 48,40,movements,el-ex, rt, d,243592.99865466668, -1.421851469060652, -0.3497362018534023, -0.41522401488326915, -0.348894864320755, 0.08391549438238144, 0.38938942551612854, -0.9290615916252136, 0.34264999628067017, -0.13941140472888947, 0.0440366268157959, 0.06869643926620483, 0.005164504051208496, -0.26145428282254535, -0.6016111346488822, 0.7535785444664121,-0.042720855782674205,-0.8900604248046875,0.4162445068359375,-0.1368255615234375
20220225-1323,2022-02-25 13:23:41Z,u01, 49,40,movements,el-ex, rt, d,243593.0235996667, -1.4228888410910423, -0.36142018595117464, -0.4244205540458193, -0.3887656629085541, 0.10672873258590698, 0.45267921686172485, -0.9251825213432312, 0.3536030352115631, -0.1378481090068817, 0.07342171669006348, 0.08014330267906189, -0.007720828056335449, -0.2683571124790749, -0.5992164932840948, 0.7530883216377052,-0.04221361590229866,-0.8517608642578125,0.433746337890625,-0.14556884765625
20220225-1323,2022-02-25 13:23:41Z,u01, 50,40,movements,el-ex, rt, d,243593.04854466667, -1.4235822850069697, -0.3732292929597535, -0.43123909437580504, -0.29743197560310364, 0.0489870086312294, 0.38767561316490173, -0.9210830330848694, 0.3646242916584015, -0.13658446073532104, 0.07699728012084961, 0.1275632083415985, 0.029605016112327576, -0.2745571323237752, -0.5969306058565115, 0.7527462890393949,-0.040808282529021384,-0.8418121337890625,0.5072021484375,-0.1198272705078125
20220225-1323,2022-02-25 13:23:41Z,u01, 51,40,movements,el-ex, rt, d,243593.0734906667, -1.4237477170055601, -0.38257929674949764, -0.43797634722353096, -0.2773941457271576, 0.13664108514785767, 0.3335523307323456, -0.9176928997039795, 0.3733145296573639, -0.13592660427093506, 0.08987307548522949, 0.05507594347000122, 0.021638154983520508, -0.27983897911704053, -0.5947493957295877, 0.7525578797573161,-0.040248483924674644,-0.82781982421875,0.4283905029296875,-0.114288330078125
20220225-1323,2022-02-25 13:23:41Z,u01, 52,40,movements,el-ex, rt, d,243593.09843566667, -1.4222727403023991, -0.39256485860095236, -0.4401734674405254, 0.00035197846591472626, 0.017670493572950363, 0.409249484539032, -0.9137589931488037, 0.3825594186782837, -0.13672156631946564, 0.1520097255706787, 0.10555398464202881, -0.001675724983215332, -0.28394710048743843, -0.5924637207927334, 0.7529386321628336,-0.038002377503823265,-0.7597808837890625,0.4665679931640625,-0.13983154296875
20220225-1323,2022-02-25 13:23:41Z,u01, 53,40,movements,el-ex, rt, d,243593.1233806667, -1.4218123780879937, -0.4025166681665135, -0.4408206467698405, -0.2681451439857483, 0.09907134622335434, 0.35561713576316833, -0.9098858833312988, 0.39173510670661926, -0.13657033443450928, 0.08206593990325928, 0.18573379516601562, 0.06816510856151581, -0.28759672468871134, -0.5907647204731554, 0.7530320550492261,-0.035042710125427534,-0.82781982421875,0.5774688720703125,-0.0684051513671875
20220225-1323,2022-02-25 13:23:41Z,u01, 54,40,movements,el-ex, rt, d,243593.14832566667, -1.4207754418457166, -0.41087740937806905, -0.4511694419718754, -0.5875204205513, 0.24938634037971497, 0.20424872636795044, -0.9064734578132629, 0.3994138538837433, -0.13701942563056946, 0.11956250667572021, 0.08724993467330933, 0.049800097942352295, -0.2935315991551546, -0.5876474153193948, 0.7531193762517143,-0.0363439060229466,-0.8123779296875,0.5079193115234375,-0.078826904296875
20220225-1323,2022-02-25 13:23:41Z,u01, 55,40,movements,el-ex, rt, d,243593.1732716667, -1.421136811228367, -0.4183559786672256, -0.4651104927992361, -0.44737938046455383, 0.19118861854076385, 0.2830354571342468, -0.9035441279411316, 0.406258761882782, -0.13624268770217896, 0.17664587497711182, 0.012747645378112793, 0.01813952624797821, -0.3002114237304381, -0.5845953811941311, 0.7527244327063587,-0.039081887847797314,-0.726898193359375,0.41900634765625,-0.11810302734375
20220225-1323,2022-02-25 13:23:41Z,u01, 56,40,movements,el-ex, rt, d,243593.19821666667, -1.4193861945238002, -0.42821642945957944, -0.4694960209116565, -0.04705841466784477, 0.09955817461013794, 0.4405818283557892, -0.8993002772331238, 0.41524893045425415, -0.1372133195400238, 0.157997727394104, 0.015674591064453125, 0.030035480856895447, -0.3048559890497774, -0.5817698550119311, 0.7531142390254573,-0.03775877723462068,-0.7296295166015625,0.4154052734375,-0.1147918701171875
20220225-1323,2022-02-25 13:23:41Z,u01, 57,40,movements,el-ex, rt, d,243593.22316166668, -1.4181433001021349, -0.4393917118018747, -0.47182770384226064, -0.40878525376319885, 0.1506103128194809, 0.3900740444660187, -0.8944864273071289, 0.42538905143737793, -0.13761667907238007, 0.0862894058227539, 0.09933018684387207, 0.05306762456893921, -0.3093537095185032, -0.5792166615736759, 0.7533739406507345,-0.035158700148596594,-0.808197021484375,0.52471923828125,-0.0845489501953125
20220225-1323,2022-02-25 13:23:41Z,u01, 58,40,movements,el-ex, rt, d,243593.24810816668, -1.4178431220539618, -0.44881875058601833, -0.4871811648964952, -0.7209166288375854, 0.35996925830841064, 0.20908549427986145, -0.89044189453125, 0.4339015781879425, -0.13726806640625, 0.10961925983428955, 0.01075473427772522, 0.014541521668434143, -0.3170089053358769, -0.575214152157362, 0.7531255457528723,-0.037893218754852964,-0.8068084716796875,0.4691925048828125,-0.112213134765625
20220225-1323,2022-02-25 13:23:41Z,u01, 59,40,movements,el-ex, rt, d,243593.2730531667, -1.415570118883322, -0.4572754899423139, -0.5024096597026786, -0.2242569625377655, 0.296282023191452, 0.34424611926078796, -0.8864706158638, 0.44150516390800476, -0.13871942460536957, 0.19561368227005005, -0.08344241976737976, -0.011427164077758789, -0.32420861964448056, -0.5705515414774204, 0.7534326867098132,-0.041217647351347086,-0.69085693359375,0.358062744140625,-0.150146484375
20220225-1323,2022-02-25 13:23:41Z,u01, 60,40,movements,el-ex, rt, d,243593.29799816667, -1.4074947893324843, -0.4683835815371782, -0.4912458240068769, 0.66563481092453, -0.017913464456796646, 0.6393944025039673, -0.8804279565811157, 0.451444536447525, -0.14506705105304718, 0.130992591381073, 0.03671461343765259, 0.06440901756286621, -0.3246642601852914, -0.5675029418713302, 0.7558643922257091,-0.034678023309163225,-0.7089080810546875,0.4387664794921875,-0.108306884765625
20220225-1323,2022-02-25 13:23:41Z,u01, 61,40,movements,el-ex, rt, d,243593.3229441667, -1.3987721436947709, -0.47943291237549457, -0.4765522211985508, 0.07880474627017975, 0.2120666801929474, 0.35591360926628113, -0.8741610646247864, 0.4612760841846466, -0.15187793970108032, 0.007873773574829102, 0.06948566436767578, 0.04566143453121185, -0.32415251676251944, -0.5647886102024451, 0.7584285811398166,-0.026927746682040177,-0.8662872314453125,0.53076171875,-0.1062164306640625
20220225-1323,2022-02-25 13:23:41Z,u01, 62,40,movements,el-ex, rt, d,243593.34788916667, -1.395556519919404, -0.4887037103085615, -0.48626696632774175, -0.8084295392036438, 0.3462797999382019, 0.35238221287727356, -0.8694198131561279, 0.4694817364215851, -0.15393592417240143, 0.15665125846862793, -0.19331291317939758, -0.008219301700592041, -0.33001758626888394, -0.5604644746752168, 0.7590632420789566,-0.028125514895949777,-0.73406982421875,0.297149658203125,-0.1595611572265625
20220225-1323,2022-02-25 13:23:41Z,u01, 63,40,movements,el-ex, rt, d,243593.3728341667, -1.3990525821175483, -0.5025952717053348, -0.5086299126773965, -0.9110241532325745, 0.22052814066410065, 0.4721564054489136, -0.8634429574012756, 0.48170149326324463, -0.14976632595062256, 0.1329590082168579, -0.11808454990386963, 0.010483980178833008, -0.3410376066650191, -0.555706922995135, 0.7575559407389796,-0.03149919658169037,-0.7304840087890625,0.363616943359375,-0.1392822265625
20220225-1323,2022-02-25 13:23:41Z,u01, 64,40,movements,el-ex, rt, d,243593.39777916667, -1.402560320863791, -0.5164017181726547, -0.5298616092555152, -0.6425571441650391, 0.3004850149154663, 0.2987617254257202, -0.8573240637779236, 0.4937542676925659, -0.14560911059379578, -0.010290563106536865, 0.0779772698879242, 0.05488027632236481, -0.35161840705178193, -0.5509627377835661, 0.7560552267002013,-0.034423016674550305,-0.8707427978515625,0.5704803466796875,-0.08770751953125
20220225-1323,2022-02-25 13:23:41Z,u01, 65,40,movements,el-ex, rt, d,243593.4227251667, -1.4001290111580744, -0.5237335000269392, -0.539474467035843, -0.16860252618789673, 0.2584613263607025, 0.20269529521465302, -0.8533771634101868, 0.5001166462898254, -0.14707432687282562, 0.05657839775085449, -0.02788764238357544, 0.04538963735103607, -0.3566655707176791, -0.5470397671745246, 0.7564617312303914,-0.036095218593542616,-0.7967987060546875,0.47222900390625,-0.1016845703125
20220225-1323,2022-02-25 13:23:41Z,u01, 66,40,movements,el-ex, rt, d,243593.44767016667, -1.3944824601408603, -0.5295902538734905, -0.5384922124590135, 0.18615379929542542, 0.1957760453224182, 0.22070220112800598, -0.8496348261833191, 0.505179762840271, -0.1513742357492447, 0.03524279594421387, -0.034171462059020996, -0.0022971034049987793, -0.35825384890869805, -0.5440285508504309, 0.7579409248897343,-0.03482422034000077,-0.8007659912109375,0.465545654296875,-0.1398773193359375
20220225-1323,2022-02-25 13:23:42Z,u01, 67,40,movements,el-ex, rt, d,243593.47261516668, -1.3846688095650341, -0.5320701749196383, -0.5288317802153536, 0.32963186502456665, 0.20463025569915771, 0.13999083638191223, -0.8468744158744812, 0.5073184370994568, -0.15947246551513672, 0.019710898399353027, 0.0063228607177734375, 0.023409798741340637, -0.356299532976371, -0.5415850932965006, 0.7607268592791107,-0.03210467900016736,-0.8271636962890625,0.513641357421875,-0.1360626220703125
20220225-1323,2022-02-25 13:23:42Z,u01, 68,40,movements,el-ex, rt, d,243593.4975601667, -1.3748813168809513, -0.5338136086431239, -0.5199921008529766, 0.19454050064086914, 0.21610848605632782, 0.06354107707738876, -0.8444043397903442, 0.5088200569152832, -0.16758106648921967, -0.006028950214385986, -0.013641834259033203, 0.04238259792327881, -0.3543480736779958, -0.5391167871652319, 0.7634761136081422,-0.029912363596644342,-0.843597412109375,0.5016326904296875,-0.1230010986328125
20220225-1323,2022-02-25 13:23:42Z,u01, 69,40,movements,el-ex, rt, d,243593.5225061667, -1.3685014485247897, -0.5339748188842068, -0.5192047223730123, -0.13364915549755096, 0.27621349692344666, -0.03590308874845505, -0.8432377576828003, 0.5089588165283203, -0.17294834554195404, -0.02129465341567993, -0.05853462219238281, 0.052281737327575684, -0.35409430230623695, -0.5367895813949359, 0.7652008893426876,-0.030689594865802167,-0.864532470703125,0.4504241943359375,-0.12066650390625
20220225-1323,2022-02-25 13:23:42Z,u01, 70,40,movements,el-ex, rt, d,243593.54745116667, -1.3616848790951268, -0.5318621392657297, -0.5226688637914998, -0.03853083774447441, 0.37915441393852234, -0.1277468502521515, -0.8430891036987305, 0.5071391463279724, -0.17891506850719452, 0.029124319553375244, -0.11350822448730469, 0.013082519173622131, -0.3541926407075219, -0.5339382384009558, 0.7670125660122765,-0.033900252035556966,-0.8347015380859375,0.390106201171875,-0.1566162109375
20220225-1323,2022-02-25 13:23:42Z,u01, 71,40,movements,el-ex, rt, d,243593.57239616668, -1.3532667836689873, -0.5297935815509068, -0.5218578975050087, 0.19307644665241241, 0.20369848608970642, -0.03134994953870773, -0.8425756692886353, 0.5053552389144897, -0.1862318515777588, 0.09606999158859253, -0.06814515590667725, -0.008516192436218262, -0.353123578218969, -0.5312135259644208, 0.769310596058522,-0.035737220429631705,-0.7465057373046875,0.4372100830078125,-0.1947479248046875
20220225-1323,2022-02-25 13:23:42Z,u01, 72,40,movements,el-ex, rt, d,243593.59734216667, -1.3449025440591773, -0.5272799886042433, -0.5124899817628057, 0.45893505215644836, 0.1494385153055191, -0.07535302639007568, -0.8422238230705261, 0.5031846165657043, -0.19355665147304535, 0.0480954647064209, -0.12424790859222412, 0.07557559013366699, -0.34962785190118684, -0.5300773905480852, 0.7717481577601021,-0.0343956117652251,-0.7863311767578125,0.403350830078125,-0.1298370361328125
20220225-1323,2022-02-25 13:23:42Z,u01, 73,40,movements,el-ex, rt, d,243593.62228716668, -1.3322250619830827, -0.520915245554721, -0.4988579146623947, 0.4704172909259796, 0.3250763714313507, -0.1845247894525528, -0.8427972197532654, 0.49767419695854187, -0.20497076213359833, 0.06374466419219971, -0.18166473507881165, 0.08583012223243713, -0.34359900819316946, -0.5286344122062125, 0.7754834015544173,-0.033327813331522044,-0.779052734375,0.316009521484375,-0.119140625
20220225-1323,2022-02-25 13:23:42Z,u01, 74,40,movements,el-ex, rt, d,243593.6472321667, -1.3215035271792988, -0.5157234653546139, -0.490857868493969, 0.2549745738506317, 0.16146261990070343, -0.053496263921260834, -0.8430439233779907, 0.4931643605232239, -0.21462950110435486, 0.1567646861076355, -0.054779380559921265, 0.04302908480167389, -0.3394922283236145, -0.5267165060369492, 0.7785759906065935,-0.033677176257747965,-0.6814422607421875,0.4215240478515625,-0.1724090576171875
20220225-1323,2022-02-25 13:23:42Z,u01, 75,40,movements,el-ex, rt, d,243593.67217716668, -1.3124046344982803, -0.5123543454563455, -0.48021877394734075, 0.5691602230072021, 0.23629805445671082, -0.08357713371515274, -0.8426578044891357, 0.49023061990737915, -0.22271457314491272, 0.06568032503128052, -0.024578183889389038, 0.05856044590473175, -0.33535599242328823, -0.5255274196340332, 0.7812336766493053,-0.03211264964606425,-0.7769775390625,0.4656524658203125,-0.164154052734375
20220225-1323,2022-02-25 13:23:42Z,u01, 76,40,movements,el-ex, rt, d,243593.69712316667, -1.2955620003427823, -0.5054056869674711, -0.4624322308147961, 0.7161347270011902, 0.3155498504638672, -0.10259303450584412, -0.8420451879501343, 0.48416244983673096, -0.2377949208021164, 0.12987184524536133, -0.04622000455856323, -0.008237868547439575, -0.32795648820322065, -0.523017288026905, 0.786124908808793,-0.030082257417289093,-0.7415618896484375,0.46026611328125,-0.2289886474609375
20220225-1323,2022-02-25 13:23:42Z,u01, 77,40,movements,el-ex, rt, d,243593.72206816668, -1.285065770418951, -0.49823112576128503, -0.4460824049014232, 0.5577703714370728, -0.07847288250923157, -0.11466068774461746, -0.8428141474723816, 0.47787246108055115, -0.24759268760681152, 0.14594531059265137, -0.12585225701332092, 0.017398491501808167, -0.320946332949379, -0.5226826038806688, 0.7893273897753925,-0.027541576943030888,-0.696868896484375,0.352020263671875,-0.230194091796875
20220225-1323,2022-02-25 13:23:42Z,u01, 78,40,movements,el-ex, rt, d,243593.7470131667, -1.2756629542184252, -0.4909239295384047, -0.4297201363488508, 0.720241904258728, 0.32702794671058655, -0.15528647601604462, -0.8437674045562744, 0.4714409112930298, -0.25651535391807556, -0.04754418134689331, -0.058812737464904785, -0.0315706729888916, -0.31388986859089385, -0.5227001780874547, 0.7922394942673179,-0.02478572039033733,-0.8898468017578125,0.3839263916015625,-0.2638092041015625
20220225-1323,2022-02-25 13:23:42Z,u01, 79,40,movements,el-ex, rt, d,243593.77195916668, -1.2544753946244172, -0.478894773532215, -0.40603628262794383, 1.014026403427124, 0.35015541315078735, -0.25162920355796814, -0.8434723019599915, 0.46079856157302856, -0.2760779857635498, 0.1215333342552185, -0.07725366950035095, -0.09820488095283508, -0.30303850572028834, -0.5197390395179021, 0.7984633656954628,-0.022253212890096075,-0.7219390869140625,0.383544921875,-0.3742828369140625
20220225-1323,2022-02-25 13:23:42Z,u01, 80,40,movements,el-ex, rt, d,243593.7969041667, -1.2442455390908018, -0.46837814842532915, -0.3895944320731405, 0.37841901183128357, -0.22915394604206085, -0.07626210153102875, -0.8451473116874695, 0.4514397084712982, -0.2862307131290436, 0.19464999437332153, -0.2415245771408081, -0.023080259561538696, -0.2947352967284762, -0.5196303970043611, 0.8016868621857346,-0.02033284772861288,-0.6179656982421875,0.252197265625,-0.358551025390625
20220225-1323,2022-02-25 13:23:42Z,u01, 81,40,movements,el-ex, rt, d,243593.82184916668, -1.2486329503356102, -0.46856320944827506, -0.3847255634990746, -0.07490386068820953, -0.026243899017572403, 0.0799693837761879, -0.8463156819343567, 0.45160481333732605, -0.2824934720993042, -0.12707281112670898, -0.2887173295021057, 0.07268503308296204, -0.29357832390778626, -0.522077604011374, 0.8005834810222053,-0.0176823248174576,-0.973388671875,0.1628875732421875,-0.209808349609375
20220225-1323,2022-02-25 13:23:42Z,u01, 82,40,movements,el-ex, rt, d,243593.8467941667, -1.2444422416613024, -0.46951602880273546, -0.39061858550585665, -0.364452987909317, 0.4590698182582855, -0.09110036492347717, -0.844716489315033, 0.45245474576950073, -0.2858995795249939, -0.05236285924911499, -0.08656427264213562, -0.004185289144515991, -0.2954295515977565, -0.5193954029570306, 0.8015824655887208,-0.020377113129811025,-0.9720611572265625,0.336456298828125,-0.2834930419921875
20220225-1323,2022-02-25 13:23:42Z,u01, 83,40,movements,el-ex, rt, d,243593.87174016668, -1.24340986867839, -0.4732357413512129, -0.4029783996671895, -0.41838937997817993, 0.039843641221523285, 0.11706442385911942, -0.8428213596343994, 0.45576879382133484, -0.2862282991409302, 0.13252490758895874, -0.04150795936584473, 0.021915525197982788, -0.30001029942383795, -0.5166039812701244, 0.8015731165824276,-0.024381913889055945,-0.710296630859375,0.4142608642578125,-0.264312744140625
20220225-1323,2022-02-25 13:23:42Z,u01, 84,40,movements,el-ex, rt, d,243593.8966851667, -1.2418492910794698, -0.47527582593248363, -0.4005099330129648, 0.6353135704994202, 0.2213318794965744, 0.0002152351662516594, -0.8414920568466187, 0.4575837254524231, -0.2872422933578491, -0.1909022331237793, 0.08047166466712952, 0.05765846371650696, -0.30011667600860015, -0.5160511925842989, 0.8019295754520497,-0.023022093276663325,-0.9872894287109375,0.49908447265625,-0.2157440185546875
20220225-1323,2022-02-25 13:23:42Z,u01, 85,40,movements,el-ex, rt, d,243593.92163016667, -1.2203879883061157, -0.46245656395509893, -0.37341410443963086, 1.392823338508606, 0.4036441445350647, -0.25721949338912964, -0.8405749201774597, 0.44614797830581665, -0.30722281336784363, -0.09884762763977051, 0.17256540060043335, -0.048032402992248535, -0.28808853250990096, -0.513218848917905, 0.8082382226461077,-0.019037055566998723,-0.939422607421875,0.61871337890625,-0.355255126953125
20220225-1323,2022-02-25 13:23:42Z,u01, 86,40,movements,el-ex, rt, d,243593.9465761667, -1.2024951685612624, -0.44586512094719777, -0.34390808666633965, 0.8151012063026428, -0.04647127166390419, -0.192448690533638, -0.8417341113090515, 0.43123859167099, -0.32483363151550293, 0.04165482521057129, -0.04953998327255249, -0.052272140979766846, -0.2740249042382841, -0.5123412271000481, 0.8137626920109369,-0.01438875129454481,-0.779388427734375,0.4218292236328125,-0.4078826904296875
20220225-1323,2022-02-25 13:23:42Z,u01, 87,40,movements,el-ex, rt, d,243593.97152116668, -1.2005465259044783, -0.4384910277879751, -0.33444122819152866, 0.10793107002973557, 0.07695306092500687, -0.19990754127502441, -0.8440411686897278, 0.42457374930381775, -0.32761505246162415, -0.15997183322906494, -0.13615214824676514, -0.00768163800239563, -0.2687353133192368, -0.5137838108928963, 0.814641432222602,-0.012916040995075456,-1.0040130615234375,0.288421630859375,-0.335296630859375
20220225-1323,2022-02-25 13:23:42Z,u01, 88,40,movements,el-ex, rt, d,243593.9964661667, -1.196991822664428, -0.43198537180373403, -0.33777432882732517, 0.019725710153579712, 0.1735174059867859, -0.3337358832359314, -0.8454248309135437, 0.41867461800575256, -0.3316149413585663, -0.07377982139587402, -0.02130526304244995, -0.08934462070465088, -0.26704517053299265, -0.5127176700508531, 0.8158011332836447,-0.016614300509645158,-0.9599761962890625,0.3950958251953125,-0.394866943359375
20220225-1323,2022-02-25 13:23:42Z,u01, 89,40,movements,el-ex, rt, d,243594.02141116667, -1.1981657866336066, -0.42508075269484175, -0.3400490126770957, -0.005840436555445194, -0.1446729451417923, -0.24831008911132812, -0.8484856486320496, 0.41239434480667114, -0.3316667079925537, -0.03650873899459839, 0.006169438362121582, -0.11926105618476868, -0.26496271894089163, -0.5137717411453253, 0.8157562935988815,-0.019362355171667123,-0.8849945068359375,0.4185638427734375,-0.450927734375
20220225-1323,2022-02-25 13:23:42Z,u01, 90,40,movements,el-ex, rt, d,243594.0463571667, -1.2056159728705647, -0.4192368203864501, -0.34183976040384456, 0.12664926052093506, -0.2877604067325592, -0.27283230423927307, -0.8531696200370789, 0.40706348419189453, -0.3261913061141968, -0.2008463740348816, -0.05440235137939453, -0.022105872631072998, -0.2632354238569314, -0.5173117683334155, 0.8140414593650339,-0.020785931220393877,-1.0207061767578125,0.354217529296875,-0.352783203125
20220225-1323,2022-02-25 13:23:42Z,u01, 91,40,movements,el-ex, rt, d,243594.07130216667, -1.206305540717563, -0.40855620879791577, -0.3343495161952155, 0.7202796936035156, -0.07308437675237656, -0.3126063644886017, -0.857407808303833, 0.39728477597236633, -0.3271341621875763, -0.181196928024292, -0.00995570421218872, -0.02178865671157837, -0.25716166948286673, -0.5199045950874353, 0.81433274443473,-0.020720680619331466,-1.038604736328125,0.3873291015625,-0.3489227294921875
20220225-1323,2022-02-25 13:23:42Z,u01, 92,40,movements,el-ex, rt, d,243594.0962471667, -1.201699543389135, -0.3941916362874253, -0.31416103839490667, 0.9024667739868164, -0.2350349873304367, -0.2475944310426712, -0.8611258864402771, 0.38406193256378174, -0.33310452103614807, -0.0099831223487854, -0.037397533655166626, -0.026240050792694092, -0.24626384067617813, -0.5223043745149867, 0.8162454149092333,-0.017194490667617912,-0.8780975341796875,0.3546142578125,-0.36468505859375
20220225-1323,2022-02-25 13:23:42Z,u01, 93,40,movements,el-ex, rt, d,243594.12119216667, -1.2051774392533614, -0.383596668729401, -0.30190315220502967, 0.23985464870929718, -0.338516503572464, -0.17751426994800568, -0.8660308718681335, 0.3742581605911255, -0.33154386281967163, -0.07766413688659668, -0.08141148090362549, -0.008864521980285645, -0.2389326451522461, -0.5264401727925335, 0.8158140760052104,-0.014808015155114124,-0.943695068359375,0.2928466796875,-0.3404083251953125
20220225-1323,2022-02-25 13:23:42Z,u01, 94,40,movements,el-ex, rt, d,243594.1461381667, -1.2092795950176423, -0.37966050092814774, -0.30345355611805636, -0.12175735831260681, 0.028309691697359085, -0.1871330887079239, -0.8687548041343689, 0.3706051707267761, -0.3285070061683655, -0.18791627883911133, 0.006241142749786377, 0.016937732696533203, -0.23783240209509132, -0.5283769949600277, 0.8148587824248089,-0.016081771240731235,-1.0733489990234375,0.357879638671875,-0.308685302734375
20220225-1323,2022-02-25 13:23:42Z,u01, 95,40,movements,el-ex, rt, d,243594.17108316667, -1.2084684781404742, -0.37651828288327116, -0.30753327914605677, -0.011091059073805809, 0.09841200709342957, -0.13509392738342285, -0.8695725798606873, 0.36768487095832825, -0.32962265610694885, -0.05144774913787842, 0.03261414170265198, -0.008817285299301147, -0.2376733067399135, -0.5279205125061693, 0.8151440478675273,-0.018744377238018223,-0.9210205078125,0.400299072265625,-0.33843994140625
20220225-1323,2022-02-25 13:23:42Z,u01, 96,40,movements,el-ex, rt, d,243594.19602816668, -1.2078575299615677, -0.37290098361332025, -0.3071611941242607, 0.11782008409500122, -0.07368059456348419, -0.13216517865657806, -0.8706088066101074, 0.3643185794353485, -0.33062392473220825, -0.014095664024353027, 9.179115295410156e-05, -0.0164526104927063, -0.23615319622904732, -0.528128493802118, 0.815428493691985,-0.01970497474360222,-0.8601837158203125,0.354949951171875,-0.3521728515625
20220225-1323,2022-02-25 13:23:42Z,u01, 97,40,movements,el-ex, rt, d,243594.22097416667, -1.2057099834957639, -0.3673277129367088, -0.3036924161012741, 0.23568280041217804, 0.15770494937896729, -0.24897195398807526, -0.8717799782752991, 0.35912269353866577, -0.33321261405944824, -0.14624059200286865, 0.07500508427619934, -0.03220492601394653, -0.23303079378783575, -0.5282900123386405, 0.8162111633625272,-0.020142320164427158,-1.0180206298828125,0.4341278076171875,-0.36541748046875
20220225-1323,2022-02-25 13:23:42Z,u01, 98,40,movements,el-ex, rt, d,243594.24591854168, -1.2024785855215105, -0.3585341837102384, -0.3065281182038821, -0.31439098715782166, 0.11361420899629593, -0.42060574889183044, -0.8736110329627991, 0.3509019911289215, -0.3371519148349762, -0.09211760759353638, 0.061665087938308716, -0.11452355980873108, -0.23028903178121346, -0.527627714292853, 0.8173068505887215,-0.02419471474239321,-0.975494384765625,0.429473876953125,-0.444732666015625
20220225-1323,2022-02-25 13:23:42Z,u01, 99,40,movements,el-ex, rt, d,243594.2708635417, -1.2076495707921029, -0.35573204253605906, -0.3268614017555053, -0.8595614433288574, 0.06919154524803162, -0.32962560653686523, -0.8762584328651428, 0.34827667474746704, -0.33297795057296753, -0.11769896745681763, 0.005772978067398071, -0.10620054602622986, -0.23462762882599636, -0.5276939446787838, 0.8157325609781297,-0.03269899557430636,-0.99395751953125,0.3540496826171875,-0.439178466796875
20220225-1323,2022-02-25 13:23:42Z,u01, 100,40,movements,el-ex, rt, d,243594.29580854168, -1.2112526840436086, -0.3550855456432721, -0.34417268933397677, -0.06550726294517517, 0.16286404430866241, -0.17151178419589996, -0.8776631355285645, 0.3476705849170685, -0.3298977315425873, -0.15779823064804077, 0.06053251028060913, -0.04342389106750488, -0.23900539952302602, -0.5271883526592902, 0.8144860200537656,-0.03951390192109716,-1.0356292724609375,0.3936920166015625,-0.37628173828125
20220225-1323,2022-02-25 13:23:42Z,u01, 101,40,movements,el-ex, rt, d,243594.3207545417, -1.2032446592417005, -0.3454697504524009, -0.3313155156771765, 1.0538792610168457, 0.11836528778076172, -0.21816504001617432, -0.8780725598335266, 0.3386387228965759, -0.3381011188030243, -0.1301823854446411, 0.13539081811904907, -0.11273515224456787, -0.2317008115679138, -0.5265588051219279, 0.8170730014823571,-0.03797699723315254,-1.0082550048828125,0.474029541015625,-0.450836181640625
20220225-1323,2022-02-25 13:23:42Z,u01, 102,40,movements,el-ex, rt, d,243594.34569954168, -1.1943595649668781, -0.33175242231156993, -0.30981951949023867, 0.6174284219741821, 0.005502312444150448, -0.2303253710269928, -0.879271388053894, 0.32570040225982666, -0.3475644588470459, -0.13377481698989868, 0.02641141414642334, -0.09593230485916138, -0.2204728766565044, -0.5268865941216431, 0.820133751358618,-0.034100411283652904,-0.9974212646484375,0.380859375,-0.465087890625
20220225-1323,2022-02-25 13:23:42Z,u01, 103,40,movements,el-ex, rt, d,243594.3706445417, -1.1935017522450584, -0.32457829856989595, -0.30789275981535047, -0.19589494168758392, 0.04577929526567459, -0.24210545420646667, -0.8811225891113281, 0.3189091384410858, -0.349170446395874, -0.2036857008934021, -0.051544636487960815, -0.04171407222747803, -0.21710872988787241, -0.5275211569370982, 0.8205662821019308,-0.035444146921470826,-1.084808349609375,0.267364501953125,-0.3908843994140625
20220225-1323,2022-02-25 13:23:42Z,u01, 104,40,movements,el-ex, rt, d,243594.39558954167, -1.1959110899823668, -0.3230455668822121, -0.3166449932974172, -0.19069573283195496, -0.06778421998023987, -0.09947554022073746, -0.8824150562286377, 0.31745606660842896, -0.3472250699996948, -0.23764097690582275, 0.10713496804237366, -0.07907506823539734, -0.2188556949676275, -0.5277211893722854, 0.819801982255461,-0.03920688493736202,-1.1028900146484375,0.395263671875,-0.412445068359375
20220225-1323,2022-02-25 13:23:42Z,u01, 105,40,movements,el-ex, rt, d,243594.4205355417, -1.198317513876331, -0.32128102667386804, -0.3169080203140836, 0.19584184885025024, -0.08454269170761108, -0.03382968157529831, -0.8837684988975525, 0.3157823085784912, -0.3453039526939392, -0.34004735946655273, 0.1782820224761963, -0.09987127780914307, -0.21827466998611522, -0.5288706789669705, 0.8191992848263769,-0.03955466874336999,-1.22381591796875,0.4940643310546875,-0.4451751708984375
20220225-1323,2022-02-25 13:23:42Z,u01, 106,40,movements,el-ex, rt, d,243594.44548054168, -1.1999687714161573, -0.31958798755864415, -0.3105222085612634, 0.21973901987075806, -0.22509294748306274, 0.07863500714302063, -0.8848344087600708, 0.31417542695999146, -0.34403735399246216, -0.44562506675720215, 0.17808830738067627, -0.1059596836566925, -0.21594573544408596, -0.5304231892735621, 0.8189209489016791,-0.037243409447031944,-1.30072021484375,0.4845123291015625,-0.449981689453125
20220225-1323,2022-02-25 13:23:43Z,u01, 107,40,movements,el-ex, rt, d,243594.4704255417, -1.206015453263481, -0.32164130581747713, -0.3085186161864503, -0.15628813207149506, -0.29267439246177673, 0.15924383699893951, -0.8862940073013306, 0.3161241114139557, -0.33844995498657227, -0.5878422260284424, 0.22829416394233704, -0.1491447389125824, -0.21633394199254757, -0.5328927238153238, 0.8173047498464109,-0.03518287376023882,-1.4741363525390625,0.5444183349609375,-0.4875946044921875
20220225-1323,2022-02-25 13:23:43Z,u01, 108,40,movements,el-ex, rt, d,243594.49537054167, -1.2162305973528704, -0.3304284700777085, -0.315742946036532, -0.5582919120788574, -0.36407965421676636, 0.32311367988586426, -0.8870657682418823, 0.3244483470916748, -0.32840174436569214, -0.7607461214065552, 0.3509667217731476, -0.19384565949440002, -0.22189914894319263, -0.5353128945475905, 0.814255492212907,-0.03448156432509958,-1.6203155517578125,0.658905029296875,-0.5183868408203125
20220225-1323,2022-02-25 13:23:43Z,u01, 109,40,movements,el-ex, rt, d,243594.5203165417, -1.2294401863322983, -0.3443652328432304, -0.3272724205985561, -0.6147640347480774, -0.40799158811569214, 0.4672035872936249, -0.8869789838790894, 0.3375992476940155, -0.3151112198829651, -0.8352499604225159, 0.3752608299255371, -0.24000364542007446, -0.23066222487258123, -0.537809754964773, 0.8102006541397828,-0.03362353067833876,-1.72222900390625,0.712860107421875,-0.55511474609375
20220225-1323,2022-02-25 13:23:43Z,u01, 110,40,movements,el-ex, rt, d,243594.54526154167, -1.244559176071664, -0.3638634269792638, -0.335775893129688, -0.5037172436714172, -0.5742140412330627, 0.7759386301040649, -0.8852370977401733, 0.35588735342025757, -0.29949867725372314, -0.8695998787879944, 0.44347482919692993, -0.31259244680404663, -0.24074120355082518, -0.54064252168941, 0.8055281941791134,-0.029557691406159825,-1.749267578125,0.7790069580078125,-0.6078338623046875
20220225-1323,2022-02-25 13:23:43Z,u01, 111,40,movements,el-ex, rt, d,243594.57020654168, -1.265059183848208, -0.38623367795092234, -0.3433016317714036, -0.6041600108146667, -0.8428324460983276, 0.7311977744102478, -0.8833760023117065, 0.376702219247818, -0.2788231670856476, -0.8932200074195862, 0.4742498993873596, -0.3369911313056946, -0.2516173058945843, -0.5452312805395405, 0.799289436898727,-0.023410146244762398,-1.7765960693359375,0.8509521484375,-0.615814208984375
20220225-1323,2022-02-25 13:23:43Z,u01, 112,40,movements,el-ex, rt, d,243594.59515254167, -1.2922673134750906, -0.4096204555237736, -0.3545318651536111, -0.7267501950263977, -1.011379599571228, 0.8509926795959473, -0.881921112537384, 0.3982612192630768, -0.2521962523460388, -0.8343415856361389, 0.44944077730178833, -0.31001386046409607, -0.2637939969551892, -0.5516471675051356, 0.7910741393384495,-0.01731179655514284,-1.7305908203125,0.8458709716796875,-0.5732879638671875
20220225-1323,2022-02-25 13:23:43Z,u01, 113,40,movements,el-ex, rt, d,243594.6200975417, -1.3244575525885436, -0.43568936255343726, -0.36459778515102637, -0.4741169810295105, -1.2481608390808105, 0.9651853442192078, -0.8792113661766052, 0.42203545570373535, -0.22107383608818054, -0.7691956758499146, 0.3759077191352844, -0.2765001356601715, -0.27645441222065514, -0.5594962359606208, 0.7813179856935166,-0.008902781565543,-1.648406982421875,0.797943115234375,-0.4975738525390625
20220225-1323,2022-02-25 13:23:43Z,u01, 114,40,movements,el-ex, rt, d,243594.64504254167, -1.3586228358091448, -0.46282087282708734, -0.3661169192734156, -0.13236156105995178, -1.4109076261520386, 1.1308034658432007, -0.8747313618659973, 0.44647398591041565, -0.18843089044094086, -0.6928650736808777, 0.19729429483413696, -0.1702423095703125, -0.28677264019080156, -0.5688110465418689, 0.7708442395518177,0.003832478253759375,-1.5721435546875,0.6675262451171875,-0.3757171630859375
20220225-1323,2022-02-25 13:23:43Z,u01, 115,40,movements,el-ex, rt, d,243594.66998754168, -1.3915795181926411, -0.4920442138589035, -0.36102408011413945, 0.004386568441987038, -1.365763545036316, 1.2107576131820679, -0.8672526478767395, 0.4724285900592804, -0.15711194276809692, -0.6810109615325928, 0.09712100028991699, -0.13610102236270905, -0.295511425957972, -0.578028570612733, 0.7603676840783475,0.019924537183132196,-1.5482635498046875,0.569549560546875,-0.293212890625
20220225-1323,2022-02-25 13:23:43Z,u01, 116,40,movements,el-ex, rt, d,243594.69493354167, -1.4165669765911444, -0.5205676337775935, -0.3540929196909197, 0.14914152026176453, -0.882047176361084, 1.1552397012710571, -0.8572396039962769, 0.49737265706062317, -0.13326986134052277, -0.5228111147880554, -0.08649921417236328, -0.0890965610742569, -0.30311468974757394, -0.5843685059605931, 0.7519119931304268,0.035543941701995846,-1.4329071044921875,0.43853759765625,-0.219940185546875
20220225-1323,2022-02-25 13:23:43Z,u01, 117,40,movements,el-ex, rt, d,243594.71987854168, -1.426787703837567, -0.5503857580548324, -0.3350890809266208, 0.8600621223449707, -0.7611432075500488, 1.391242504119873, -0.8435000777244568, 0.5230160355567932, -0.12231802195310593, -0.42270463705062866, -0.16168802976608276, -0.09447894990444183, -0.3076154645182242, -0.5866972956184034, 0.7471579145322712,0.053981329735026784,-1.266204833984375,0.361328125,-0.216796875
20220225-1323,2022-02-25 13:23:43Z,u01, 118,40,movements,el-ex, rt, d,243594.7448235417, -1.4174248973410115, -0.5784043965492789, -0.29641461171383393, 1.2559309005737305, -0.15521518886089325, 1.0998716354370117, -0.827506959438324, 0.5466885566711426, -0.1279205083847046, -0.5039749145507812, -0.18043196201324463, -0.020227178931236267, -0.30625879928696687, -0.585017342445666, 0.7471040252340592,0.0761295496413961,-1.371246337890625,0.3997344970703125,-0.182342529296875
20220225-1323,2022-02-25 13:23:43Z,u01, 119,40,movements,el-ex, rt, d,243594.76976854168, -1.3982723525305158, -0.5941086851912434, -0.26115389196063754, 0.7468861937522888, 0.07087772339582443, 0.5738431811332703, -0.816346287727356, 0.559770405292511, -0.14225348830223083, -0.28851211071014404, -0.358690083026886, 0.06351804733276367, -0.30225365829520284, -0.5809612595435346, 0.7501729209466554,0.0914737168473298,-1.1048583984375,0.201080322265625,-0.0787353515625
20220225-1323,2022-02-25 13:23:43Z,u01, 120,40,movements,el-ex, rt, d,243594.79471454167, -1.386151107581422, -0.6007151215861352, -0.25151313800942343, -0.23536279797554016, 0.49294090270996094, 0.009431503713130951, -0.8109089732170105, 0.565232515335083, -0.15145562589168549, -0.06372475624084473, -0.4412549138069153, 0.09272444248199463, -0.302352023047334, -0.5769362525951887, 0.7527502634059592,0.09536704774972712,-0.91937255859375,0.1216583251953125,-0.0555877685546875
20220225-1323,2022-02-25 13:23:43Z,u01, 121,40,movements,el-ex, rt, d,243594.81965954168, -1.378625634988454, -0.5937169935224594, -0.26499462831098763, -0.3173985183238983, 0.6445395350456238, -0.753907322883606, -0.8136090040206909, 0.5594457983970642, -0.1583053320646286, 0.13520336151123047, -0.4459662437438965, 0.11498554050922394, -0.3041001337213609, -0.573036161669495, 0.7560400799718587,0.08692470161663651,-0.67840576171875,0.1134796142578125,-0.0433197021484375
20220225-1323,2022-02-25 13:23:43Z,u01, 122,40,movements,el-ex, rt, d,243594.8446045417, -1.370337235189917, -0.5639430829697566, -0.2752609002110993, 0.026625361293554306, 0.4787245988845825, -1.7298734188079834, -0.8282299041748047, 0.5345228314399719, -0.16828639805316925, 0.49795353412628174, -0.3865737318992615, -0.006533607840538025, -0.2968047685754539, -0.5725065306967656, 0.7608580065139501,0.0723749717470164,-0.395294189453125,0.1306304931640625,-0.177764892578125
20220225-1323,2022-02-25 13:23:43Z,u01, 123,40,movements,el-ex, rt, d,243594.86954954168, -1.3725059982382881, -0.5144104515308728, -0.29500230062702903, -0.7500985860824585, 0.16622261703014374, -2.392369508743286, -0.8535236120223999, 0.49202167987823486, -0.1714991182088852, 0.800102710723877, -0.29277247190475464, 0.01715637743473053, -0.2847181729261049, -0.5772226651263574, 0.7637416973159662,0.049477788976035414,-0.0534210205078125,0.199249267578125,-0.1543426513671875
20220225-1323,2022-02-25 13:23:43Z,u01, 124,40,movements,el-ex, rt, d,243594.8944955417, -1.3946887486847848, -0.4560112744378759, -0.34672525055195935, -1.844978928565979, 0.053200189024209976, -2.817666530609131, -0.8839296698570251, 0.44037047028541565, -0.15729621052742004, 1.1586337089538574, -0.5650501251220703, 0.018395379185676575, -0.278577148894147, -0.5862991292728282, 0.7605570889514752,0.014176062781765447,0.2132415771484375,-0.047332763671875,-0.137237548828125
20220225-1323,2022-02-25 13:23:43Z,u01, 125,40,movements,el-ex, rt, d,243594.91944054168, -1.4228454413413048, -0.3968825491091199, -0.4094947184312371, -1.496435284614563, -0.3194493353366852, -2.4568703174591064, -0.9121947884559631, 0.3865450918674469, -0.13595345616340637, 1.4428651332855225, -0.7592716217041016, 0.0469946414232254, -0.27634735747866, -0.5963685164347579, 0.753229071438735,-0.02495154745143585,0.530670166015625,-0.3727264404296875,-0.088958740234375
20220225-1323,2022-02-25 13:23:43Z,u01, 126,40,movements,el-ex, rt, d,243594.9443855417, -1.439476735137065, -0.34553834777470804, -0.4400364858256945, -0.2864561378955841, -0.5365344882011414, -1.716948390007019, -0.9327921271324158, 0.3387032449245453, -0.12320290505886078, 1.398292064666748, -0.4329568147659302, 0.16954374313354492, -0.26788122667310355, -0.6055065624541235, 0.7476575874131655,-0.051084177315423,0.5258026123046875,-0.1475677490234375,0.0479583740234375
20220225-1323,2022-02-25 13:23:43Z,u01, 127,40,movements,el-ex, rt, d,243594.96933054167, -1.4639650159277655, -0.3201660433548393, -0.44266901009004783, 0.11978109925985336, -1.334028720855713, -0.44804245233535767, -0.9437718987464905, 0.3147241771221161, -0.10120971500873566, 0.9778447151184082, -0.2869989275932312, 0.043714508414268494, -0.26052457299488674, -0.6176747427735371, 0.7398138062348242,-0.05727543682618935,0.0340728759765625,0.0277252197265625,-0.0574951171875
20220225-1323,2022-02-25 13:23:43Z,u01, 128,40,movements,el-ex, rt, d,243594.9942765417, -1.5035153608677945, -0.3199715591465575, -0.4646593177089711, -2.1038706302642822, -0.7717220783233643, 0.21328455209732056, -0.9470967650413513, 0.3145395517349243, -0.06381791085004807, 0.33505141735076904, -0.06919345259666443, 0.2770288586616516, -0.26847538407272, -0.6292948542274959, 0.7268342906960696,-0.060174230546649415,-0.532623291015625,0.212158203125,0.0948028564453125
20220225-1323,2022-02-25 13:23:43Z,u01, 129,40,movements,el-ex, rt, d,243595.01922154168, -1.5207601289054515, -0.3277604625511696, -0.5127535200648794, -0.9443607330322266, 0.21238678693771362, 0.13771390914916992, -0.9455807209014893, 0.32192352414131165, -0.04735279083251953, 0.33400851488113403, 0.13135406374931335, 0.3869065046310425, -0.28677201524980067, -0.627762229234539, 0.720013164255557,-0.07250813103600215,-0.611572265625,0.453277587890625,0.3395538330078125
20220225-1323,2022-02-25 13:23:43Z,u01, 130,40,movements,el-ex, rt, d,243595.0441665417, -1.524454814240727, -0.32901049797877435, -0.5101888912122219, 0.9404046535491943, -0.538378119468689, 0.13718247413635254, -0.9453465938568115, 0.3231067657470703, -0.04384017735719681, 0.581653356552124, 0.6387462615966797, 0.27792513370513916, -0.28651229579276927, -0.6292778524273701, 0.7189799318955289,-0.07062573582621942,-0.360198974609375,0.9638824462890625,0.2347869873046875
20220225-1323,2022-02-25 13:23:43Z,u01, 131,40,movements,el-ex, rt, d,243595.06911154167, -1.529202567919293, -0.33301392529330487, -0.47808530938201244, 1.074197769165039, -0.5624651908874512, 0.18209794163703918, -0.9442442059516907, 0.3268928527832031, -0.039297331124544144, 0.3868862986564636, 0.30578234791755676, 0.25423258543014526, -0.2778444697501291, -0.6349439231592192, 0.7186068169960456,-0.057035750833795806,-0.5573577880859375,0.6326751708984375,0.214935302734375
20220225-1323,2022-02-25 13:23:43Z,u01, 132,40,movements,el-ex, rt, d,243595.0940575417, -1.5319767693729958, -0.33607035024812665, -0.4639467088629327, -0.16629502177238464, 0.041014235466718674, 0.1188075989484787, -0.9433465600013733, 0.32977983355522156, -0.03663870319724083, 0.12349194288253784, 0.20363688468933105, 0.3494132161140442, -0.2744371611290811, -0.637467562551647, 0.7181694780119888,-0.0505162600662499,-0.787384033203125,0.50653076171875,0.30999755859375
20220225-1323,2022-02-25 13:23:43Z,u01, 133,40,movements,el-ex, rt, d,243595.11900254167, -1.5274540912756789, -0.3379754398293728, -0.4824829156511354, -1.019703984260559, 0.6726668477058411, -0.01268777996301651, -0.9425418972969055, 0.33157774806022644, -0.04087747260928154, 0.12538796663284302, 0.20873597264289856, 0.2292623519897461, -0.280835607896433, -0.6330028636667289, 0.7191474736060807,-0.05714562567138551,-0.8171539306640625,0.540313720703125,0.188385009765625
20220225-1323,2022-02-25 13:23:43Z,u01, 134,40,movements,el-ex, rt, d,243595.14394754168, -1.5213685196091586, -0.33940087952357706, -0.5085230232430951, -0.8742762804031372, 0.43948280811309814, 0.07461616396903992, -0.9418026804924011, 0.33292222023010254, -0.046589188277721405, 0.2520291209220886, 0.24201369285583496, 0.04715365171432495, -0.2893212968573998, -0.6268959989363092, 0.7202916068318175,-0.06689243116246074,-0.68359375,0.57025146484375,0.02203369140625
20220225-1323,2022-02-25 13:23:43Z,u01, 135,40,movements,el-ex, rt, d,243595.16889254167, -1.5184962426323394, -0.34337802815895585, -0.5231356049046029, -0.23791511356830597, 0.22797353565692902, 0.1839696317911148, -0.9403351545333862, 0.33666983246803284, -0.04922449588775635, 0.16332721710205078, 0.13598638772964478, 0.012008197605609894, -0.29510288871824064, -0.6231388585305637, 0.7207922382465308,-0.07120877390288244,-0.777008056640625,0.47265625,-0.0372161865234375
20220225-1323,2022-02-25 13:23:43Z,u01, 136,40,movements,el-ex, rt, d,243595.1938385417, -1.5129531550048207, -0.34926588017261934, -0.5247810943696987, 0.08001038432121277, 0.24850383400917053, 0.2546027600765228, -0.9380525946617126, 0.3422081172466278, -0.05432053282856941, 0.1059604287147522, 0.1427161991596222, 0.0036764778196811676, -0.2973618290494957, -0.6200126422478215, 0.7226170234702228,-0.07060286408120747,-0.8374176025390625,0.4735565185546875,-0.052154541015625
20220225-1323,2022-02-25 13:23:43Z,u01, 137,40,movements,el-ex, rt, d,243595.21878354167, -1.507767914288202, -0.35559670151230416, -0.524210944901235, -0.17621345818042755, 0.17404386401176453, 0.22225722670555115, -0.9355775117874146, 0.3481498062610626, -0.059046175330877304, 0.07630938291549683, 0.13796469569206238, 0.01406317949295044, -0.29909747350339344, -0.6172662417952517, 0.7244044686599285,-0.06900206796788916,-0.8592681884765625,0.486114501953125,-0.04498291015625
20220225-1323,2022-02-25 13:23:43Z,u01, 138,40,movements,el-ex, rt, d,243595.24372925, -1.5044324088764691, -0.3603214025419087, -0.5340370676608388, -0.5002540946006775, 0.3774048388004303, 0.128463476896286, -0.9337236881256104, 0.35257500410079956, -0.06205669045448303, -0.04581427574157715, 0.08521491289138794, -0.02235502004623413, -0.3035664900560003, -0.6138558793065033, 0.7252055892068844,-0.07145098616229259,-0.983245849609375,0.4441070556640625,-0.078704833984375
20220225-1323,2022-02-25 13:23:43Z,u01, 139,40,movements,el-ex, rt, d,243595.26867525, -1.499146963206559, -0.3655291271301351, -0.544392530300469, -0.16834674775600433, 0.25952866673469543, 0.23870542645454407, -0.9315385222434998, 0.35744351148605347, -0.06685858964920044, 0.04442310333251953, 0.044732362031936646, -0.052358441054821014, -0.3082605671268146, -0.6095458372922973, 0.7265792267548719,-0.07424210679203141,-0.887115478515625,0.4021759033203125,-0.1192169189453125
20220225-1323,2022-02-25 13:23:43Z,u01, 140,40,movements,el-ex, rt, d,243595.29362025, -1.4954175021181055, -0.37286594518396865, -0.5437419803370236, 0.11375267058610916, 0.06338544934988022, 0.3190135359764099, -0.9286425709724426, 0.364285945892334, -0.07013286650180817, 0.0513080358505249, 0.11566400527954102, -0.0405697226524353, -0.3103478322288953, -0.6071390193133573, 0.7279217464974239,-0.07208557434679999,-0.8608551025390625,0.4638671875,-0.1113433837890625
20220225-1323,2022-02-25 13:23:43Z,u01, 141,40,movements,el-ex, rt, d,243595.31856525003, -1.4924451569519575, -0.3786645009450253, -0.5391494178740305, 0.11290492117404938, 0.054562799632549286, 0.176448255777359, -0.9263085126876831, 0.36967989802360535, -0.07272623479366302, 0.026558876037597656, 0.08040854334831238, -0.014935605227947235, -0.3107657945674989, -0.6058560079577124, 0.7291195767662149,-0.06890328713493837,-0.899749755859375,0.4500885009765625,-0.0876617431640625
20220225-1323,2022-02-25 13:23:43Z,u01, 142,40,movements,el-ex, rt, d,243595.34351025, -1.489955772469941, -0.38262343795888926, -0.5366661064167021, 0.12355484068393707, 0.054460134357213974, 0.16710922122001648, -0.9246587157249451, 0.3733554780483246, -0.07491318881511688, 0.07421004772186279, 0.007854849100112915, 0.0062790438532829285, -0.31123878793641946, -0.6047097020385888, 0.7300426339687439,-0.0670401719574403,-0.8605804443359375,0.38470458984375,-0.0652008056640625
20220225-1323,2022-02-25 13:23:43Z,u01, 143,40,movements,el-ex, rt, d,243595.36845625003, -1.4883457385408303, -0.3879173977585122, -0.5329482388163869, 0.060899779200553894, -0.009869188070297241, 0.28090381622314453, -0.9225540161132812, 0.37826138734817505, -0.07623796164989471, 0.0902787446975708, 0.051822811365127563, 0.036122508347034454, -0.3118145623731421, -0.6038648019151798, 0.7307567186910596,-0.06413670599956067,-0.832275390625,0.430084228515625,-0.0401153564453125
20220225-1323,2022-02-25 13:23:43Z,u01, 144,40,movements,el-ex, rt, d,243595.39340125, -1.4874819306900402, -0.3947535582058404, -0.5333515308630662, -0.12071731686592102, 0.10800199210643768, 0.2617702782154083, -0.9198895692825317, 0.38458070158958435, -0.07681786268949509, 0.06867802143096924, 0.03582942485809326, 0.029256105422973633, -0.31417021883291946, -0.6024019769463753, 0.7311310168350504,-0.06210012066413592,-0.86163330078125,0.431884765625,-0.0435638427734375
20220225-1323,2022-02-25 13:23:43Z,u01, 145,40,movements,el-ex, rt, d,243595.41834625002, -1.4855037475435429, -0.40261717048985823, -0.5356060208611664, -0.007402313873171806, 0.05502725765109062, 0.3763217031955719, -0.916694164276123, 0.3918275833129883, -0.078377366065979, 0.14141041040420532, 0.009310722351074219, 0.025154590606689453, -0.31738500685078835, -0.6000650597442212, 0.7317922917463224,-0.060570285124953965,-0.7752838134765625,0.4011383056640625,-0.05322265625
20220225-1323,2022-02-25 13:23:43Z,u01, 146,40,movements,el-ex, rt, d,243595.44329125, -1.483894614746844, -0.4136697688090515, -0.5310206789058752, 0.2348535656929016, -0.04420112818479538, 0.4987151622772217, -0.9121966361999512, 0.4019722640514374, -0.07947160303592682, 0.11989927291870117, 0.09494546055793762, 0.11417001485824585, -0.3196117639665016, -0.5984250319185517, 0.7325752872747963,-0.05540134379844197,-0.7766265869140625,0.4684600830078125,0.010406494140625
20220225-1323,2022-02-25 13:23:44Z,u01, 147,40,movements,el-ex, rt, d,243595.46823725002, -1.4816195522053228, -0.423488832270168, -0.5256076637187348, -0.018069805577397346, 0.07919584214687347, 0.2561575770378113, -0.9080381393432617, 0.41094356775283813, -0.08119124919176102, 0.051882803440093994, 0.19301453232765198, 0.12484658509492874, -0.3211732821153778, -0.5968685762464521, 0.7335188421815446,-0.050454766200450724,-0.8561553955078125,0.6039581298828125,0.0436553955078125
20220225-1323,2022-02-25 13:23:44Z,u01, 148,40,movements,el-ex, rt, d,243595.49318225, -1.4776331601016288, -0.42841022305761106, -0.5300572284817622, -0.2832566797733307, 0.36252138018608093, 0.13374599814414978, -0.9056827425956726, 0.41542521119117737, -0.08462123572826385, 0.1343814730644226, 0.08994585275650024, 0.018138587474822998, -0.3240200965994474, -0.5938858141630496, 0.7346448002980247,-0.05106548550339152,-0.7969512939453125,0.522064208984375,-0.05609130859375
20220225-1323,2022-02-25 13:23:44Z,u01, 149,40,movements,el-ex, rt, d,243595.51812725002, -1.4718757008605892, -0.43307115225826315, -0.534131414470507, -0.0716930478811264, 0.18855541944503784, 0.21238115429878235, -0.9032438397407532, 0.41966038942337036, -0.08964202553033829, 0.18345630168914795, 0.05681052803993225, 0.03631246089935303, -0.326615961344498, -0.590339732143374, 0.7362911507034196,-0.05192643862104551,-0.71978759765625,0.476470947265625,-0.0533294677734375
20220225-1323,2022-02-25 13:23:44Z,u01, 150,40,movements,el-ex, rt, d,243595.54307225, -1.4682502283948837, -0.4380884582689232, -0.5357103215564355, -0.14668484032154083, 0.19398567080497742, 0.1318642795085907, -0.9008071422576904, 0.42420920729637146, -0.09269941598176956, 0.05919337272644043, 0.11402928829193115, 0.10571509599685669, -0.32864369017702166, -0.5879146339668836, 0.7373646389446912,-0.05141159195209355,-0.83013916015625,0.537750244140625,0.004150390625
20220225-1323,2022-02-25 13:23:44Z,u01, 151,40,movements,el-ex, rt, d,243595.56801825002, -1.4640804556932652, -0.44127297096506374, -0.5416494138239386, -0.21438390016555786, 0.322961688041687, 0.07336787134408951, -0.8990650177001953, 0.4270908534526825, -0.09631039202213287, 0.07666200399398804, 0.09060943126678467, 0.05599658191204071, -0.3313272126042077, -0.584865012878675, 0.738459860790518,-0.05321984643964295,-0.8224029541015625,0.5177001953125,-0.040313720703125
20220225-1323,2022-02-25 13:23:44Z,u01, 152,40,movements,el-ex, rt, d,243595.59296325, -1.4566879609738717, -0.44328504696299087, -0.5417671273203116, 0.3065224587917328, 0.23941972851753235, 0.1054755449295044, -0.8974727392196655, 0.4289093017578125, -0.10285595804452896, 0.16891145706176758, -0.02496337890625, -0.0234716534614563, -0.3318290165005755, -0.581774462049579, 0.7406294422971766,-0.05381412367362501,-0.741119384765625,0.4243011474609375,-0.123992919921875
20220225-1323,2022-02-25 13:23:44Z,u01, 153,40,movements,el-ex, rt, d,243595.61790825002, -1.4486191353933697, -0.44598818753228703, -0.5327737800798253, 0.17568577826023102, 0.20312970876693726, 0.16234368085861206, -0.8954596519470215, 0.43134960532188416, -0.10995238274335861, 0.09991222620010376, 0.03845322132110596, 0.03555041551589966, -0.32990380912472295, -0.5798165947587655, 0.7432256842919495,-0.05090950355727342,-0.7955474853515625,0.4698028564453125,-0.07440185546875
20220225-1323,2022-02-25 13:23:44Z,u01, 154,40,movements,el-ex, rt, d,243595.64285325003, -1.440693232553969, -0.4474637134753472, -0.5314584260671654, -0.10313040018081665, 0.364797443151474, -0.016819408163428307, -0.8939279913902283, 0.4326803386211395, -0.11696348339319229, 0.07389014959335327, -0.016908884048461914, 0.06387805938720703, -0.32981343104997923, -0.5768373773676072, 0.745557907991052,-0.05123599820731903,-0.8426513671875,0.4381256103515625,-0.04949951171875
20220225-1323,2022-02-25 13:23:44Z,u01, 155,40,movements,el-ex, rt, d,243595.66779925002, -1.4324301458809576, -0.4469974015554606, -0.5334320224588393, 0.01709197834134102, 0.3543521761894226, -0.022583354264497757, -0.8931307792663574, 0.4322598874568939, -0.12437383085489273, 0.1627994179725647, -0.07471597194671631, 0.01484614610671997, -0.3300084572988531, -0.5735045784795924, 0.7478808289049428,-0.05349050653963927,-0.7303314208984375,0.3575439453125,-0.109527587890625
20220225-1323,2022-02-25 13:23:44Z,u01, 156,40,movements,el-ex, rt, d,243595.69274425, -1.422914472097925, -0.44781289740548424, -0.528370025476906, 0.39292120933532715, 0.20283129811286926, 0.17226888239383698, -0.8915578722953796, 0.43299511075019836, -0.13281482458114624, 0.2832968235015869, -0.13518935441970825, 0.036119818687438965, -0.32858192547882564, -0.5706369287915433, 0.750739579532232,-0.05289158914283376,-0.622528076171875,0.3098602294921875,-0.106170654296875
20220225-1323,2022-02-25 13:23:44Z,u01, 157,40,movements,el-ex, rt, d,243595.71768925, -1.4143077102743165, -0.45381385441791344, -0.5120443107037249, 0.5466376543045044, -0.0438949316740036, 0.4308668375015259, -0.887799084186554, 0.43839654326438904, -0.14007574319839478, 0.27483832836151123, -0.17112362384796143, 0.059143081307411194, -0.325749288948525, -0.5690777889153487, 0.7535943793526237,-0.04618800006488749,-0.6129608154296875,0.26727294921875,-0.0809326171875
20220225-1323,2022-02-25 13:23:44Z,u01, 158,40,movements,el-ex, rt, d,243595.74263425003, -1.4109374513994764, -0.46316052438556293, -0.5002427343552628, 0.13315586745738983, -0.06521393358707428, 0.4416535794734955, -0.8832380175590515, 0.446777880191803, -0.1424085795879364, 0.210493266582489, -0.325012743473053, 0.04768192768096924, -0.32550133476569054, -0.5681941488774618, 0.7547620456155019,-0.03922446746658323,-0.6624298095703125,0.1244964599609375,-0.0871734619140625
20220225-1323,2022-02-25 13:23:44Z,u01, 159,40,movements,el-ex, rt, d,243595.76758025002, -1.4137764862449447, -0.47673240102018033, -0.509460540145056, -0.8727747797966003, 0.15804845094680786, 0.5097918510437012, -0.8775684833526611, 0.45887836813926697, -0.13893939554691315, 0.1682942509651184, -0.16166773438453674, 0.042122259736061096, -0.3327745669779163, -0.5655010052406, 0.7536855088545276,-0.037786286457116264,-0.7092742919921875,0.297210693359375,-0.0968170166015625
20220225-1323,2022-02-25 13:23:44Z,u01, 160,40,movements,el-ex, rt, d,243595.79252525003, -1.4206446480633137, -0.49049346254286935, -0.528733410656017, -0.5119243264198303, 0.0861387699842453, 0.32395750284194946, -0.8721754550933838, 0.47106122970581055, -0.1319517344236374, 0.039686501026153564, 0.037498921155929565, 0.030923262238502502, -0.34296917453957454, -0.5624911338724348, 0.7512836065177444,-0.03935440490466466,-0.7923126220703125,0.4746551513671875,-0.0995330810546875
20220225-1323,2022-02-25 13:23:44Z,u01, 161,40,movements,el-ex, rt, d,243595.81747025, -1.416497006070966, -0.49587459532889044, -0.5320229477835985, 0.3585126996040344, 0.269633024930954, 0.08298835158348083, -0.8691034317016602, 0.4758010804653168, -0.13517655432224274, -0.0013036727905273438, 0.05650177597999573, 0.05181771516799927, -0.3456085965141472, -0.5594340196869422, 0.7523465965921365,-0.03953443579406485,-0.8704071044921875,0.5323028564453125,-0.0833587646484375
20220225-1323,2022-02-25 13:23:44Z,u01, 162,40,movements,el-ex, rt, d,243595.84241525002, -1.4015854496634665, -0.49522505474600576, -0.5114675434601766, 0.9788311123847961, 0.19732488691806793, 0.1297602504491806, -0.8672955632209778, 0.4752296805381775, -0.14817273616790771, 0.03633248805999756, -0.06833881139755249, -0.04442375898361206, -0.339374390581504, -0.5574393756661602, 0.7568969902720227,-0.034544769279516996,-0.815155029296875,0.425994873046875,-0.1641845703125
20220225-1323,2022-02-25 13:23:44Z,u01, 163,40,movements,el-ex, rt, d,243595.86736125, -1.3800664220976886, -0.49268342550456334, -0.4772872775869982, 1.275918960571289, 0.2179168462753296, 0.06953831762075424, -0.8650896549224854, 0.47299185395240784, -0.1670287847518921, -0.04682129621505737, -0.12377923727035522, -0.10225844383239746, -0.32867037952823575, -0.5553930058257903, 0.7634395337624846,-0.025970850301084814,-0.9119110107421875,0.349212646484375,-0.269287109375
20220225-1323,2022-02-25 13:23:44Z,u01, 164,40,movements,el-ex, rt, d,243595.89230625003, -1.3602229786313618, -0.4894757108031668, -0.4531943384967343, 0.3430628180503845, 0.47988414764404297, 0.00919654592871666, -0.8630843758583069, 0.4701632261276245, -0.184477299451828, -0.12454068660736084, -0.08205592632293701, -0.07634127140045166, -0.3206503257046657, -0.5522179983889248, 0.7692841777595428,-0.02098738040028003,-0.9933319091796875,0.39788818359375,-0.2584991455078125
20220225-1323,2022-02-25 13:23:44Z,u01, 165,40,movements,el-ex, rt, d,243595.91725125, -1.3497957430852572, -0.4901107415695761, -0.4544587072858058, -0.34471607208251953, 0.32148924469947815, 0.06972387433052063, -0.8608224391937256, 0.47072359919548035, -0.19340121746063232, -0.03970545530319214, -0.11096715927124023, -0.07239168882369995, -0.3211065266874221, -0.5478959648027162, 0.7721231301050236,-0.022945922556976583,-0.9005279541015625,0.3597564697265625,-0.2657928466796875
20220225-1323,2022-02-25 13:23:44Z,u01, 166,40,movements,el-ex, rt, d,243595.94219625002, -1.3459898346268047, -0.4938571123348788, -0.46055730217735774, -0.050252076238393784, 0.26890993118286133, 0.06452564895153046, -0.8583549857139587, 0.4740256369113922, -0.1962815225124359, -0.16750860214233398, -0.020717531442642212, -0.05419158935546875, -0.3240452567673836, -0.544843011978198, 0.773000131282584,-0.02473044123580706,-1.00152587890625,0.4344024658203125,-0.2465667724609375
20220225-1323,2022-02-25 13:23:44Z,u01, 167,40,movements,el-ex, rt, d,243595.96714125, -1.3344525693112326, -0.49255550566886774, -0.45508618957176894, 0.3963398337364197, 0.41400617361068726, -0.04691053181886673, -0.8566325306892395, 0.4728791415691376, -0.20631562173366547, -0.13448679447174072, -0.03266310691833496, -0.10064554214477539, -0.32195694680811965, -0.5414664467067202, 0.7762336407009074,-0.02488470938561979,-0.991119384765625,0.440216064453125,-0.3069610595703125
20220225-1323,2022-02-25 13:23:44Z,u01, 168,40,movements,el-ex, rt, d,243595.99208725002, -1.321481572730032, -0.4900070600962802, -0.4432049766099274, 0.40432748198509216, 0.12644264101982117, 0.052026499062776566, -0.8550493717193604, 0.4706321060657501, -0.21770593523979187, 0.024696648120880127, -0.08849102258682251, -0.06430709362030029, -0.31768630384929836, -0.5387229739103654, 0.7799472766364376,-0.0231334273055315,-0.8265533447265625,0.3782806396484375,-0.3052520751953125
20220225-1323,2022-02-25 13:23:44Z,u01, 169,40,movements,el-ex, rt, d,243596.01703225, -1.3164033319953916, -0.49010354568050407, -0.43685189640126776, 0.10034551471471786, 0.17787662148475647, 0.04865314066410065, -0.8538888096809387, 0.47071725130081177, -0.22203382849693298, -0.10027366876602173, -0.025206416845321655, 0.048754945397377014, -0.3159545619854937, -0.5377320917644128, 0.7813818904361828,-0.021428048298542585,-0.95416259765625,0.4455108642578125,-0.17327880859375
20220225-1323,2022-02-25 13:23:44Z,u01, 170,40,movements,el-ex, rt, d,243596.04197725002, -1.3071626166178372, -0.48912193781088453, -0.4325018312745577, 0.2370656579732895, 0.32001930475234985, 0.003595852293074131, -0.8522464632987976, 0.46985095739364624, -0.23003511130809784, -0.007372677326202393, -0.01315540075302124, 0.04967612028121948, -0.3143359810662673, -0.5349535847309799, 0.783936201172172,-0.021485738865095222,-0.89886474609375,0.4601593017578125,-0.1726226806640625
20220225-1323,2022-02-25 13:23:44Z,u01, 171,40,movements,el-ex, rt, d,243596.06692225003, -1.2964405538780115, -0.48877709760488763, -0.4252245799574947, 0.23290333151817322, 0.2796565592288971, 0.0508284792304039, -0.8498868942260742, 0.46954652667045593, -0.23920340836048126, 0.076296865940094, -0.06508186459541321, 0.05971421301364899, -0.3121580044629112, -0.5319357820169782, 0.7868830628006054,-0.02041333223609304,-0.773590087890625,0.4044647216796875,-0.1794891357421875
20220225-1323,2022-02-25 13:23:44Z,u01, 172,40,movements,el-ex, rt, d,243596.09186825002, -1.2882972361766916, -0.48806626781230433, -0.41866347071889753, 0.3039323091506958, 0.046114519238471985, 0.09889440983533859, -0.8482312560081482, 0.4689188003540039, -0.2462093085050583, 0.17298400402069092, -0.13528534770011902, 0.08323010802268982, -0.3100770630449432, -0.5298561681473538, 0.7891335674304135,-0.01931243348000311,-0.68218994140625,0.3408660888671875,-0.183868408203125
20220225-1323,2022-02-25 13:23:44Z,u01, 173,40,movements,el-ex, rt, d,243596.11681325, -1.2792889727831007, -0.48774138479294965, -0.40116875396806273, 0.8507260680198669, 0.1696922481060028, 0.12883512675762177, -0.8461246490478516, 0.4686318337917328, -0.2538840174674988, 0.06145679950714111, -0.12288302183151245, 0.1462027132511139, -0.3052521967526626, -0.529035993826297, 0.7916749111013865,-0.013882961258602083,-0.78466796875,0.3457489013671875,-0.1076812744140625
20220225-1323,2022-02-25 13:23:44Z,u01, 174,40,movements,el-ex, rt, d,243596.14175825, -1.257661092880931, -0.4847212274443698, -0.3757860411272298, 0.7923886179924011, 0.5425851941108704, 0.19967448711395264, -0.8417788743972778, 0.4659617245197296, -0.2725578546524048, 0.08521771430969238, -0.06396898627281189, 0.08282998204231262, -0.2973301819859706, -0.5247054806394401, 0.7976310833847425,-0.007964346123093241,-0.781951904296875,0.402587890625,-0.1841583251953125
20220225-1323,2022-02-25 13:23:44Z,u01, 175,40,movements,el-ex, rt, d,243596.16670325003, -1.2395380043458595, -0.4868279907544158, -0.3626226708664518, -0.040524814277887344, 0.3181407153606415, 0.2912505567073822, -0.835771381855011, 0.4678247570991516, -0.28744804859161377, 0.146135151386261, -0.10681706666946411, 0.10820293426513672, -0.2946257361684188, -0.5191065929888293, 0.8023101145458892,-0.004755920158819427,-0.68963623046875,0.3610076904296875,-0.1792449951171875
20220225-1323,2022-02-25 13:23:44Z,u01, 176,40,movements,el-ex, rt, d,243596.19164925002, -1.2360796365809523, -0.49680899750402996, -0.3677567573308984, -0.39165061712265015, 0.27007970213890076, 0.2828405499458313, -0.830320417881012, 0.47662273049354553, -0.2887883484363556, -0.04570186138153076, -0.03979414701461792, 0.0927281379699707, -0.29969488827206514, -0.5155470867770856, 0.8027296395522641,-0.004388740673613056,-0.8373870849609375,0.4055633544921875,-0.1814422607421875
20220225-1323,2022-02-25 13:23:44Z,u01, 177,40,movements,el-ex, rt, d,243596.21659425003, -1.2271374219572735, -0.5030063161798427, -0.3712221798682384, 0.013416614383459091, 0.531668484210968, 0.11099933832883835, -0.8249078989028931, 0.4820616543292999, -0.2952007055282593, -0.04815417528152466, 0.017984092235565186, -0.029048681259155273, -0.30289000191300275, -0.5105460766344574, 0.8047186729213069,-0.005308846969390463,-0.8730621337890625,0.5000457763671875,-0.324249267578125
20220225-1323,2022-02-25 13:23:44Z,u01, 178,40,movements,el-ex, rt, d,243596.24153925, -1.214569116999919, -0.5035912811836939, -0.36775553448804993, 0.03386569768190384, 0.33142542839050293, 0.01937727816402912, -0.820868194103241, 0.48257407546043396, -0.3054463863372803, 0.08174788951873779, -0.027694404125213623, -0.07648119330406189, -0.3021951647098229, -0.505919844729076, 0.807893086322238,-0.005641884490885346,-0.7370452880859375,0.4477386474609375,-0.3936309814453125
20220225-1323,2022-02-25 13:23:44Z,u01, 179,40,movements,el-ex, rt, d,243596.26648429167, -1.2111794469298185, -0.5053014095419923, -0.3723710133555161, -0.2574522793292999, 0.166635200381279, -0.03310024365782738, -0.8190545439720154, 0.48407119512557983, -0.30793625116348267, -0.006644248962402344, -0.020738065242767334, 0.03388833999633789, -0.30399522573200377, -0.5036057734025292, 0.8086479409330019,-0.007524757263029869,-0.8256988525390625,0.4633331298828125,-0.2740478515625
20220225-1323,2022-02-25 13:23:44Z,u01, 180,40,movements,el-ex, rt, d,243596.2914302917, -1.2041231256321991, -0.5033446019266455, -0.37432541562784727, 0.3236215114593506, 0.4815255105495453, -0.09166288375854492, -0.8177439570426941, 0.48235800862312317, -0.31404703855514526, -0.09210705757141113, 0.07577794790267944, -0.006036639213562012, -0.3037144641969738, -0.5007334623559111, 0.810508750603504,-0.00995384434488844,-0.9340057373046875,0.542694091796875,-0.2984771728515625
20220225-1323,2022-02-25 13:23:44Z,u01, 181,40,movements,el-ex, rt, d,243596.31637529167, -1.1848982593850979, -0.49408561352253993, -0.3559625691194844, 1.0132821798324585, 0.3041905164718628, -0.1941627711057663, -0.815658450126648, 0.47422683238983154, -0.3313758969306946, 0.021911680698394775, 0.11395364999771118, -0.06529161334037781, -0.295516349464451, -0.49697298247941, 0.8158574986653634,-0.008020192597976289,-0.7937469482421875,0.5881805419921875,-0.39666748046875
20220225-1323,2022-02-25 13:23:44Z,u01, 182,40,movements,el-ex, rt, d,243596.34132029169, -1.1701023157358368, -0.4805266995957305, -0.33603170633216856, 0.5984122157096863, 0.15558461844921112, -0.21784725785255432, -0.816512405872345, 0.462246298789978, -0.3458840548992157, -0.04849296808242798, 0.004886209964752197, -0.03311380743980408, -0.2852853649425696, -0.4956513200651047, 0.8203095356454154,-0.0058491916744065064,-0.828765869140625,0.483001708984375,-0.3892669677734375
20220225-1323,2022-02-25 13:23:44Z,u01, 183,40,movements,el-ex, rt, d,243596.36626529167, -1.1581153823219268, -0.4702156354327874, -0.32754730349684097, 0.3817819356918335, 0.509804368019104, -0.3548438549041748, -0.8166305422782898, 0.4530785381793976, -0.3575390875339508, -0.17410719394683838, 0.004089981317520142, -0.00433841347694397, -0.27913154507520577, -0.4932707542012371, 0.823845427971723,-0.006937331886724296,-0.9907379150390625,0.4571685791015625,-0.36187744140625
20220225-1323,2022-02-25 13:23:44Z,u01, 184,40,movements,el-ex, rt, d,243596.3912112917, -1.1426517594108212, -0.45654340588806597, -0.3213808286023939, 0.4697803556919098, 0.4304671883583069, -0.46120598912239075, -0.8165638446807861, 0.440848171710968, -0.37266114354133606, -0.0004984736442565918, 0.029931217432022095, -0.11162236332893372, -0.27217818918565806, -0.4894777456836858, 0.8283865481568566,-0.010306219375314757,-0.84979248046875,0.47125244140625,-0.4581146240234375
20220225-1323,2022-02-25 13:23:44Z,u01, 185,40,movements,el-ex, rt, d,243596.41615629167, -1.1337661321693213, -0.4417673441955651, -0.3152729402417926, 0.43133196234703064, -0.012192461639642715, -0.39297571778297424, -0.819033145904541, 0.42753779888153076, -0.3826175332069397, 0.09140259027481079, 0.03025636076927185, -0.09756135940551758, -0.2647830116291778, -0.4884477345563527, 0.831347933617993,-0.01301655389971157,-0.727630615234375,0.457794189453125,-0.4801788330078125
20220225-1323,2022-02-25 13:23:44Z,u01, 186,40,movements,el-ex, rt, d,243596.44110129168, -1.1313508133106764, -0.42790860330109465, -0.3066582641660515, 0.5919320583343506, 0.07453491538763046, -0.36135023832321167, -0.8233900666236877, 0.414968878030777, -0.3870784044265747, -0.13882911205291748, -0.0026611685752868652, -0.12044423818588257, -0.2571422137896431, -0.49024348806917023, 0.8326801407407834,-0.01352954776274512,-0.9222412109375,0.4051971435546875,-0.4998931884765625
20220225-1323,2022-02-25 13:23:45Z,u01, 187,40,movements,el-ex, rt, d,243596.4660462917, -1.122312070829674, -0.41382546780856544, -0.29784596812902003, 0.41916555166244507, 0.24687984585762024, -0.4434138834476471, -0.8250423669815063, 0.4021148085594177, -0.39699965715408325, -0.1379091739654541, -0.015731781721115112, -0.0532415509223938, -0.24928299859397596, -0.4892424267495178, 0.8356315885867659,-0.014821565447502155,-0.96295166015625,0.386383056640625,-0.4502410888671875
20220225-1323,2022-02-25 13:23:45Z,u01, 188,40,movements,el-ex, rt, d,243596.49099229168, -1.1175996115265547, -0.40125765866262986, -0.2977809116970381, 0.0060182539746165276, 0.11892068386077881, -0.34309935569763184, -0.8276408314704895, 0.39057642221450806, -0.4030642509460449, -0.03496897220611572, -0.06339746713638306, -0.07912880182266235, -0.24417143382145, -0.488720971414971, 0.8373648754820799,-0.018768122569547685,-0.8754425048828125,0.3169708251953125,-0.4860687255859375
20220225-1323,2022-02-25 13:23:45Z,u01, 189,40,movements,el-ex, rt, d,243596.51593729167, -1.1179391958451208, -0.3950244674417761, -0.2988072814950156, 0.284927099943161, -0.022822335362434387, -0.2125091552734375, -0.8299506902694702, 0.3848307728767395, -0.4038405418395996, -0.08331829309463501, 0.010478675365447998, -0.051634371280670166, -0.24191289295824278, -0.48944650695068653, 0.8375477194546466,-0.0208362009538281,-0.91326904296875,0.3953094482421875,-0.455474853515625
20220225-1323,2022-02-25 13:23:45Z,u01, 190,40,movements,el-ex, rt, d,243596.54088229168, -1.1132375173768854, -0.38615064995354803, -0.2905126235593711, 0.45895901322364807, 0.1321992725133896, -0.16219717264175415, -0.8310738205909729, 0.37662529945373535, -0.40923070907592773, -0.11843478679656982, 0.02941107749938965, -0.08132416009902954, -0.23624867530901766, -0.4894601122957343, 0.8391680661590356,-0.020307456131330587,-0.9635772705078125,0.424072265625,-0.485809326171875
20220225-1323,2022-02-25 13:23:45Z,u01, 191,40,movements,el-ex, rt, d,243596.5658272917, -1.108462523169045, -0.3803012480243696, -0.28627205531215594, 0.0003904281184077263, 0.11788811534643173, -0.14215223491191864, -0.8310678005218506, 0.37120020389556885, -0.41416996717453003, -0.08941859006881714, -0.06306424736976624, -0.041808485984802246, -0.2327908587190195, -0.4885933211031014, 0.8406298074368426,-0.02065281865248733,-0.9204864501953125,0.308135986328125,-0.4559783935546875
20220225-1323,2022-02-25 13:23:45Z,u01, 192,40,movements,el-ex, rt, d,243596.59077229167, -1.1094574141693003, -0.3794686629840909, -0.2927547014457565, -0.275374174118042, -0.05123407021164894, -0.09351012855768204, -0.8317558765411377, 0.3704269826412201, -0.41348037123680115, -0.07417362928390503, -0.01895606517791748, -0.052675724029541016, -0.234047175350801, -0.4883459184400813, 0.8403503554612095,-0.023483631125390564,-0.907440185546875,0.333099365234375,-0.4649200439453125
20220225-1323,2022-02-25 13:23:45Z,u01, 193,40,movements,el-ex, rt, d,243596.6157182917, -1.1106163321156, -0.37778174342922966, -0.2916137556276728, 0.5433545112609863, 0.028892122209072113, -0.0011714724823832512, -0.832793116569519, 0.36885952949523926, -0.41279301047325134, -0.13147062063217163, 0.047949522733688354, -0.030947864055633545, -0.23309757903971048, -0.48915131237849163, 0.8401502747626894,-0.02332044041424261,-0.964263916015625,0.41680908203125,-0.4437408447265625
20220225-1323,2022-02-25 13:23:45Z,u01, 194,40,movements,el-ex, rt, d,243596.64066329168, -1.0989351978190478, -0.3660344913547446, -0.26761996315637443, 1.2737261056900024, 0.18869070708751678, -0.0624336302280426, -0.8317170143127441, 0.357915461063385, -0.42443305253982544, 0.006674289703369141, -0.02885967493057251, 0.039957284927368164, -0.22232839799720308, -0.4882146603759181, 0.8437440736818982,-0.0176777671611186,-0.858917236328125,0.3564453125,-0.37261962890625
20220225-1323,2022-02-25 13:23:45Z,u01, 195,40,movements,el-ex, rt, d,243596.6656082917, -1.0848823037714432, -0.3497255269881653, -0.24130997044756441, 0.8715380430221558, 0.1211184486746788, -0.19416862726211548, -0.8307221531867981, 0.3426399528980255, -0.43874678015708923, 0.0896332859992981, -0.1348152756690979, -0.010807693004608154, -0.20910309116172432, -0.4867263105784581, 0.8480689030676941,-0.012355707872151067,-0.7410888671875,0.20782470703125,-0.449554443359375
20220225-1323,2022-02-25 13:23:45Z,u01, 196,40,movements,el-ex, rt, d,243596.69055329167, -1.0823747476775625, -0.3443753182925858, -0.23967480091581217, -0.48343920707702637, 0.10465865582227707, -0.057275887578725815, -0.8312262892723083, 0.3376087248325348, -0.441682368516922, -0.06214529275894165, -0.05373424291610718, -0.006178438663482666, -0.2064765523705202, -0.4863396490668044, 0.8489192302287507,-0.013318976916116942,-0.8586883544921875,0.2690887451171875,-0.460174560546875
20220225-1323,2022-02-25 13:23:45Z,u01, 197,40,movements,el-ex, rt, d,243596.7154992917, -1.0826699103076196, -0.350822035260805, -0.2537080402457678, -0.4201851785182953, 0.23315630853176117, 0.002583851106464863, -0.8294169902801514, 0.3436698913574219, -0.4404070973396301, -0.13489264249801636, 0.027606964111328125, -0.0068128108978271484, -0.2125494259535324, -0.48437505549256166, 0.8484663401691102,-0.017560956007643014,-0.9643096923828125,0.37127685546875,-0.4472198486328125
20220225-1323,2022-02-25 13:23:45Z,u01, 198,40,movements,el-ex, rt, d,243596.74044429167, -1.0748286662370525, -0.35069360196627053, -0.2501088657604139, 0.7154741287231445, 0.30980879068374634, 0.06947825849056244, -0.825977087020874, 0.34354928135871887, -0.44691818952560425, -0.15002089738845825, 0.13893365859985352, -0.1033748984336853, -0.21155972326445033, -0.4814388745977988, 0.850396189612534,-0.016897149622680213,-0.9693145751953125,0.4559783935546875,-0.526031494140625
20220225-1323,2022-02-25 13:23:45Z,u01, 199,40,movements,el-ex, rt, d,243596.7653892917, -1.062145894338334, -0.3374405023881478, -0.2288044584230932, 0.9529168605804443, 0.09848245233297348, -0.20893685519695282, -0.82414710521698, 0.33107301592826843, -0.45953473448753357, -0.17562389373779297, 0.24871516227722168, -0.1665029525756836, -0.20083849305577137, -0.47947527144594715, 0.8541721196194604,-0.012543147922533998,-0.9997711181640625,0.5797882080078125,-0.62603759765625
20220225-1323,2022-02-25 13:23:45Z,u01, 200,40,movements,el-ex, rt, d,243596.79033429167, -1.0568953324939372, -0.3236069054499597, -0.215676249313622, 0.41576385498046875, -0.02809666097164154, -0.2369086891412735, -0.825632631778717, 0.3179883062839508, -0.4660625755786896, -0.35101842880249023, 0.24882996082305908, -0.14863765239715576, -0.19187204491504978, -0.4797435001609736, 0.8561021130391103,-0.01098067695320079,-1.1500091552734375,0.56097412109375,-0.619903564453125
20220225-1323,2022-02-25 13:23:45Z,u01, 201,40,movements,el-ex, rt, d,243596.81527929168, -1.057428710339987, -0.3163060868452774, -0.20872586401827334, 0.5010624527931213, -0.15665508806705475, -0.004967276006937027, -0.8278812766075134, 0.31105801463127136, -0.46674981713294983, -0.467925488948822, 0.27916714549064636, -0.20112743973731995, -0.18714160639564115, -0.4812516051475177, 0.8563168081204304,-0.00981500814130748,-1.295806884765625,0.5902252197265625,-0.667877197265625
20220225-1323,2022-02-25 13:23:45Z,u01, 202,40,movements,el-ex, rt, d,243596.84022529167, -1.0584803776590066, -0.3091908561916725, -0.19284208825897534, 0.7480700016021729, -0.4004844129085541, 0.0455855131149292, -0.8302798271179199, 0.30428797006607056, -0.46695205569267273, -0.5404171347618103, 0.34140294790267944, -0.37209832668304443, -0.18032284087583492, -0.4837433669066233, 0.8564190727586076,-0.004729655040501157,-1.3689422607421875,0.6478424072265625,-0.816802978515625
20220225-1323,2022-02-25 13:23:45Z,u01, 203,40,movements,el-ex, rt, d,243596.86517029168, -1.0688015791255276, -0.30348061778638813, -0.17900231877915113, 0.3237893581390381, -0.6868516206741333, 0.11580095440149307, -0.8365645408630371, 0.2988435626029968, -0.4591864347457886, -0.6264327764511108, 0.3424222469329834, -0.3588677942752838, -0.17456384620230372, -0.4898308330871601, 0.8541620159904233,0.0006450772704140184,-1.4629974365234375,0.641265869140625,-0.81805419921875
20220225-1323,2022-02-25 13:23:45Z,u01, 204,40,movements,el-ex, rt, d,243596.8901152917, -1.086086727717785, -0.30862829133937153, -0.17644878970876302, -0.2935068905353546, -0.72744220495224, 0.3415147662162781, -0.8430039882659912, 0.30375203490257263, -0.44393572211265564, -0.8234235644340515, 0.39976966381073, -0.33928272128105164, -0.17606829353630055, -0.49702323355993255, 0.8496745313622317,0.004577790078045096,-1.641387939453125,0.7135162353515625,-0.7794342041015625
20220225-1323,2022-02-25 13:23:45Z,u01, 205,40,movements,el-ex, rt, d,243596.91506029168, -1.104490846208487, -0.3226955196470419, -0.17888230979581474, -0.3761495053768158, -0.6758747100830078, 0.6469454169273376, -0.8471302390098572, 0.3171240985393524, -0.4263833165168762, -0.834388256072998, 0.3803856372833252, -0.40367960929870605, -0.1824709918712809, -0.5035004199705486, 0.844460083818338,0.008882971006165807,-1.6815185546875,0.697509765625,-0.8300628662109375
20220225-1323,2022-02-25 13:23:45Z,u01, 206,40,movements,el-ex, rt, d,243596.94000629167, -1.1279143568145897, -0.34616049485387346, -0.17903335668590376, -0.524103581905365, -1.0132912397384644, 0.8767033815383911, -0.8499256372451782, 0.3392885625362396, -0.4031248688697815, -0.9086039662361145, 0.436620831489563, -0.3685731887817383, -0.19203807565821837, -0.5114283374596522, 0.8374153302129153,0.017262736648291616,-1.711029052734375,0.76739501953125,-0.8083648681640625
20220225-1323,2022-02-25 13:23:45Z,u01, 207,40,movements,el-ex, rt, d,243596.96495129168, -1.1558339205575265, -0.3751597018284089, -0.1865112305806717, -0.9440518021583557, -1.0258995294570923, 1.0557715892791748, -0.8514832258224487, 0.3664211332798004, -0.37511566281318665, -0.915316641330719, 0.3432956039905548, -0.39577367901802063, -0.205496432190026, -0.5198205272208825, 0.8288200827034614,0.024798932503670157,-1.7667999267578125,0.709716796875,-0.7708892822265625
20220225-1323,2022-02-25 13:23:45Z,u01, 208,40,movements,el-ex, rt, d,243596.9898962917, -1.1879780391428356, -0.41275232661829947, -0.19695171297447242, -0.8796576857566833, -1.2299760580062866, 1.4242016077041626, -0.8497146368026733, 0.4011320173740387, -0.3421667516231537, -0.9403396248817444, 0.3837953209877014, -0.421581506729126, -0.22285021972151473, -0.5284452713242431, 0.8184749655544219,0.03438140258734526,-1.77264404296875,0.7649383544921875,-0.7807769775390625
20220225-1323,2022-02-25 13:23:45Z,u01, 209,40,movements,el-ex, rt, d,243597.01484129168, -1.2225355011748746, -0.4554589027376512, -0.19978280502965243, -0.5924568772315979, -1.4872010946273804, 1.6910611391067505, -0.8441466093063354, 0.43987447023391724, -0.30647486448287964, -0.9577789902687073, 0.3590451776981354, -0.36849772930145264, -0.23971837620490866, -0.5378639830752506, 0.8067220881654864,0.04936402658144068,-1.8019256591796875,0.798919677734375,-0.6749725341796875
20220225-1323,2022-02-25 13:23:45Z,u01, 210,40,movements,el-ex, rt, d,243597.0397872917, -1.2635062242349362, -0.5031335073939044, -0.19715563982667172, -0.5613278746604919, -1.9046971797943115, 1.9785985946655273, -0.8350377082824707, 0.4821730852127075, -0.2649926543235779, -0.999968945980072, 0.2002304494380951, -0.33075636625289917, -0.2561953930257057, -0.5494247868378425, 0.7922654709481481,0.0693666960881118,-1.806610107421875,0.685577392578125,-0.607879638671875
20220225-1323,2022-02-25 13:23:45Z,u01, 211,40,movements,el-ex, rt, d,243597.06473229168, -1.3094229345419215, -0.556205656950717, -0.19536003532034676, -0.395030677318573, -1.7580710649490356, 2.068514347076416, -0.8204200863838196, 0.527967631816864, -0.21945635974407196, -1.0618125200271606, 0.09448415040969849, -0.2313341498374939, -0.27383117243363175, -0.5615053961096815, 0.7754137882693958,0.09198724761448707,-1.882232666015625,0.6224517822265625,-0.4507904052734375
20220225-1323,2022-02-25 13:23:45Z,u01, 212,40,movements,el-ex, rt, d,243597.0896772917, -1.342178973394208, -0.6052450292199941, -0.18485491692023076, 0.0788804441690445, -1.3829210996627808, 1.8686467409133911, -0.8009653687477112, 0.5689635872840881, -0.18637293577194214, -0.703764796257019, -0.00208437442779541, 0.0024586915969848633, -0.28718532465180263, -0.5695069090344588, 0.7614708829388485,0.11553597391294124,-1.5850982666015625,0.5651397705078125,-0.208526611328125
20220225-1323,2022-02-25 13:23:45Z,u01, 213,40,movements,el-ex, rt, d,243597.11462229167, -1.367642536026626, -0.645157953625361, -0.17589360619811376, -0.519212007522583, -1.0162001848220825, 1.3443806171417236, -0.7825733423233032, 0.6013246774673462, -0.16120661795139313, -0.4911234974861145, -0.1259371042251587, 0.027341187000274658, -0.2974154074054218, -0.5752745145555374, 0.7499316796912354,0.13492878244025375,-1.2736968994140625,0.4753875732421875,-0.1338653564453125
20220225-1323,2022-02-25 13:23:45Z,u01, 214,40,movements,el-ex, rt, d,243597.13956729168, -1.4064100779989597, -0.673094906773962, -0.21610086257413452, -2.454582452774048, -0.14402373135089874, 0.26841846108436584, -0.7713553309440613, 0.623408854007721, -0.1279548555612564, -0.3528969883918762, -0.3610798120498657, 0.13164740800857544, -0.3162463145616795, -0.5796644185523377, 0.7388126745707976,0.13466006204896977,-1.1579742431640625,0.2844390869140625,-0.051300048828125
20220225-1323,2022-02-25 13:23:45Z,u01, 215,40,movements,el-ex, rt, d,243597.16451329167, -1.4555367875484748, -0.6699883447665936, -0.3015538938957918, -2.088134527206421, 0.4579372704029083, -1.0798462629318237, -0.7786281704902649, 0.6209768652915955, -0.09014385938644409, -0.1720249056816101, -0.41275542974472046, 0.27932220697402954, -0.3370537041282469, -0.5842284412571852, 0.7300047106090103,0.11029527046725196,-0.950653076171875,0.208221435546875,0.189178466796875
20220225-1323,2022-02-25 13:23:45Z,u01, 216,40,movements,el-ex, rt, d,243597.1894582917, -1.4630044749304523, -0.6371136497345314, -0.34098496676855244, -0.12456268817186356, 0.7847058176994324, -1.8311971426010132, -0.7991508841514587, 0.5948778390884399, -0.08647714555263519, 0.388369083404541, -0.12303030490875244, 0.15714049339294434, -0.33732655092561525, -0.5856383067663994, 0.7319810993813523,0.08626869800906004,-0.5507049560546875,0.5349884033203125,0.1762847900390625
20220225-1323,2022-02-25 13:23:45Z,u01, 217,40,movements,el-ex, rt, d,243597.21440329167, -1.4410669774328122, -0.581747251153056, -0.3361070156311792, 0.6030668616294861, 0.5955253839492798, -2.5018258094787598, -0.8284829258918762, 0.5494846105575562, -0.10808558017015457, 1.1135478019714355, -0.7822880148887634, 0.011817768216133118, -0.31819525328267023, -0.5871192298627335, 0.7413958521217947,0.06614272195739904,0.285064697265625,-0.2328033447265625,-0.0962677001953125
20220225-1323,2022-02-25 13:23:45Z,u01, 218,40,movements,el-ex, rt, d,243597.23934829168, -1.4351935081323197, -0.5131474035092582, -0.3447938443923501, -0.3926357924938202, 0.5407520532608032, -2.7461113929748535, -0.8632059693336487, 0.4909217059612274, -0.11777594685554504, 1.526383638381958, -0.9278113842010498, 0.17398923635482788, -0.2974624703667325, -0.5938249790832155, 0.7465496587994113,0.039389292829975386,0.6810455322265625,-0.459747314453125,0.0035247802734375
20220225-1323,2022-02-25 13:23:45Z,u01, 219,40,movements,el-ex, rt, d,243597.26429379167, -1.419124844826475, -0.44484273924769646, -0.35440533515606876, 0.5963326692581177, 0.7325825095176697, -2.5228099822998047, -0.8923156261444092, 0.43031594157218933, -0.13638626039028168, 1.6998716592788696, -0.6058530211448669, 0.17709659039974213, -0.2767463906819724, -0.5960019338814171, 0.7537052546962957,0.011028078306994205,0.80755615234375,-0.175537109375,0.04071044921875
20220225-1323,2022-02-25 13:23:45Z,u01, 220,40,movements,el-ex, rt, d,243597.28923879168, -1.3977531787941664, -0.39517796946560224, -0.3456134262030593, 0.2936633825302124, 0.6017033457756042, -1.3456242084503174, -0.9091444611549377, 0.3849724531173706, -0.15891052782535553, 1.54688560962677, -0.7227563261985779, 0.05733264982700348, -0.2565182421758153, -0.5956031632540244, 0.7612052947301494,-0.004662198509163856,0.7088775634765625,-0.29833984375,-0.1043243408203125
20220225-1323,2022-02-25 13:23:45Z,u01, 221,40,movements,el-ex, rt, d,243597.3141837917, -1.3989465739822988, -0.37578937024556563, -0.3695012512252634, -1.7216694355010986, 0.09339987486600876, -0.5754830837249756, -0.9165161848068237, 0.36700692772865295, -0.15907208621501923, 1.1801729202270508, -0.7671687602996826, 0.12263400852680206, -0.25668478025330776, -0.5954635814218056, 0.7610130342381909,-0.01987862712237448,0.2636566162109375,-0.4001617431640625,-0.03643798828125
20220225-1323,2022-02-25 13:23:45Z,u01, 222,40,movements,el-ex, rt, d,243597.33912879167, -1.4147752659943913, -0.3781481215316968, -0.4238848708132311, -1.9125604629516602, 0.3226293921470642, 0.044637229293584824, -0.9180614352226257, 0.36920005083084106, -0.14441059529781342, 0.5581371784210205, -0.11523276567459106, 0.16861093044281006, -0.27392271985979194, -0.5939369029470272, 0.7555058996876636,-0.037630597860987186,-0.2840728759765625,0.0680999755859375,0.00750732421875
20220225-1323,2022-02-25 13:23:45Z,u01, 223,40,movements,el-ex, rt, d,243597.3640737917, -1.4203274070120302, -0.3837674864769685, -0.4522160613228824, 0.15164829790592194, -0.056336354464292526, 0.17814116179943085, -0.9167834520339966, 0.3744165599346161, -0.13899801671504974, 0.5352222323417664, 0.3621099293231964, 0.03711497783660889, -0.2844024032840994, -0.5912835733381573, 0.7532665275113046,-0.04570147365069274,-0.381561279296875,0.7365264892578125,-0.1018829345703125
20220225-1323,2022-02-25 13:23:45Z,u01, 224,40,movements,el-ex, rt, d,243597.38901979168, -1.4217883485657825, -0.38844269950162463, -0.43272493568626635, 0.7190584540367126, -0.4644203186035156, 0.3666929006576538, -0.9152443408966064, 0.3787475824356079, -0.13739711046218872, 0.485129714012146, 0.1544555127620697, 0.15657730400562286, -0.2802896876542722, -0.5939184584568807, 0.7532313705761441,-0.03661982314996959,-0.3621368408203125,0.58935546875,-0.0183258056640625
20220225-1323,2022-02-25 13:23:45Z,u01, 225,40,movements,el-ex, rt, d,243597.4139647917, -1.4253346652716457, -0.39265130448332763, -0.4250865849388665, -0.18802808225154877, -0.0352681539952755, 0.09701481461524963, -0.9141404628753662, 0.3826392889022827, -0.13391825556755066, 0.22395509481430054, 0.198674738407135, 0.2314523607492447, -0.2795492130843989, -0.5957290556209566, 0.7522922305989087,-0.031865250025766706,-0.690185546875,0.5813140869140625,0.0975341796875
20220225-1323,2022-02-25 13:23:45Z,u01, 226,40,movements,el-ex, rt, d,243597.43890979167, -1.4266740199454209, -0.39626954003995046, -0.4292948176347212, -0.15676283836364746, 0.07108279317617416, 0.1377883404493332, -0.9129431247711182, 0.38597965240478516, -0.13249410688877106, 0.1637212634086609, 0.3239355683326721, 0.17009161412715912, -0.28208568273926193, -0.5951307569275283, 0.7518103062882858,-0.03206874048289235,-0.71600341796875,0.6786651611328125,0.054412841796875
20220225-1323,2022-02-25 13:23:46Z,u01, 227,40,movements,el-ex, rt, d,243597.46385479168, -1.423550839211823, -0.39680714362402064, -0.4335072000602531, -0.24009740352630615, 0.3027426600456238, -0.11338663101196289, -0.9123193025588989, 0.386475533246994, -0.1353142410516739, 0.11277413368225098, 0.2978810966014862, 0.1333305388689041, -0.28347309019796046, -0.5932839821622335, 0.752666340701858,-0.03391778749625532,-0.7995452880859375,0.684356689453125,-0.001983642578125
20220225-1323,2022-02-25 13:23:46Z,u01, 228,40,movements,el-ex, rt, d,243597.4887997917, -1.4221508290522307, -0.39603376431958526, -0.44499378525289646, -0.5106934905052185, 0.11786673218011856, 0.010135510005056858, -0.9124244451522827, 0.38576215505599976, -0.13663561642169952, 0.2493690848350525, 0.13112932443618774, 0.03948277235031128, -0.28657973802081377, -0.5912311259912915, 0.7528748891139669,-0.03869487838222033,-0.6544036865234375,0.5408782958984375,-0.086822509765625
20220225-1323,2022-02-25 13:23:46Z,u01, 229,40,movements,el-ex, rt, d,243597.5137457917, -1.4197841947992969, -0.39991788164487363, -0.4506296119518589, 0.1280338019132614, 0.25796782970428467, 0.1482272744178772, -0.9106102585792542, 0.38934269547462463, -0.13856813311576843, 0.11736690998077393, 0.18379265069961548, 0.03831779956817627, -0.2895476155537237, -0.5889635899866942, 0.7534543020464514,-0.03988284589173097,-0.793243408203125,0.5731353759765625,-0.100250244140625
20220225-1323,2022-02-25 13:23:46Z,u01, 230,40,movements,el-ex, rt, d,243597.53869079167, -1.414130315899954, -0.40102192254598273, -0.4460846010214605, -0.12221162021160126, 0.03803941607475281, 0.024118836969137192, -0.9093872308731079, 0.39035940170288086, -0.143647238612175, 0.19580990076065063, 0.2594972252845764, -0.07073886692523956, -0.28848470689977523, -0.5873269591800839, 0.7552031989478671,-0.03862393381259607,-0.716217041015625,0.685211181640625,-0.1947021484375
20220225-1323,2022-02-25 13:23:46Z,u01, 231,40,movements,el-ex, rt, d,243597.56363579168, -1.4167847564778715, -0.40292956875696817, -0.45465344969641514, -0.26655396819114685, -0.0037862611934542656, 0.00033394526690244675, -0.9090277552604675, 0.3921149671077728, -0.14111831784248352, 0.0686194896697998, 0.20924913883209229, -0.018824398517608643, -0.291717296973783, -0.5868064929748047, 0.7542483783380564,-0.04084789281515169,-0.8404083251953125,0.6013641357421875,-0.159942626953125
20220225-1323,2022-02-25 13:23:46Z,u01, 232,40,movements,el-ex, rt, d,243597.5885807917, -1.419869252497005, -0.40340673832224994, -0.4554054488261085, 0.11540203541517258, -0.21873238682746887, -0.009833204559981823, -0.9092735648155212, 0.3925538957118988, -0.1382855921983719, 0.06917047500610352, 0.2846769094467163, -0.008916005492210388, -0.2921666902505937, -0.5877889293314802, 0.7533262857937658,-0.04052458507025247,-0.8323211669921875,0.669097900390625,-0.144378662109375
20220225-1323,2022-02-25 13:23:46Z,u01, 233,40,movements,el-ex, rt, d,243597.61352679168, -1.4234582040964685, -0.39959021967261943, -0.45315239896515414, 0.146060511469841, -0.10899011045694351, -0.27676230669021606, -0.9112394452095032, 0.38904088735580444, -0.1352403610944748, -0.008224725723266602, 0.28513824939727783, -0.0017073899507522583, -0.2902510944326517, -0.5900289188161463, 0.7523213885337432,-0.04040762605474443,-0.919464111328125,0.6741790771484375,-0.1369476318359375
20220225-1323,2022-02-25 13:23:46Z,u01, 234,40,movements,el-ex, rt, d,243597.6384717917, -1.4255531999128184, -0.39077550210184986, -0.446542117487778, 0.41227447986602783, -0.27351275086402893, -0.2677922546863556, -0.9148785471916199, 0.3809055685997009, -0.13382217288017273, 0.1249767541885376, 0.12124598026275635, 0.022112473845481873, -0.2852758714934238, -0.5930485596208176, 0.751843965289237,-0.04051971328684931,-0.78643798828125,0.520599365234375,-0.1263885498046875
20220225-1323,2022-02-25 13:23:46Z,u01, 235,40,movements,el-ex, rt, d,243597.66341679168, -1.428782287281827, -0.38382439370386356, -0.4377255569308062, 0.29586005210876465, -0.21383090317249298, -0.21844133734703064, -0.917904794216156, 0.3744693398475647, -0.13123883306980133, 0.04267585277557373, 0.07889983057975769, 0.08109836280345917, -0.2802984263815928, -0.5965009446990843, 0.7510628484394267,-0.03903945339179177,-0.8752288818359375,0.453369140625,-0.050140380859375
20220225-1323,2022-02-25 13:23:46Z,u01, 236,40,movements,el-ex, rt, d,243597.6883617917, -1.4301064843483156, -0.3779483832009171, -0.43245085403637323, 0.21923771500587463, -0.08416984975337982, -0.17352738976478577, -0.9202404022216797, 0.3690144121646881, -0.13032951951026917, 0.10738956928253174, 0.007740288972854614, 0.036564186215400696, -0.27669946386062116, -0.5985588095652226, 0.7507718424921735,-0.03881147992455028,-0.830230712890625,0.385986328125,-0.0889129638671875
20220225-1323,2022-02-25 13:23:46Z,u01, 237,40,movements,el-ex, rt, d,243597.71330679167, -1.4310575174137685, -0.374443955235507, -0.4287837307537451, 0.01634822227060795, -0.0563068613409996, -0.08191125839948654, -0.9216389656066895, 0.3657550811767578, -0.1296336054801941, 0.10440874099731445, -0.0054035186767578125, 0.07325226068496704, -0.2743955867627816, -0.5999085397936388, 0.7505582236959498,-0.038459745713186805,-0.817230224609375,0.3603515625,-0.0563812255859375
20220225-1323,2022-02-25 13:23:46Z,u01, 238,40,movements,el-ex, rt, d,243597.7382527917, -1.4322335733818738, -0.373747131845742, -0.43427104341073425, -0.3214379847049713, 0.11960171908140182, -0.05527365580201149, -0.9220427870750427, 0.3651064336299896, -0.12858477234840393, 0.06648266315460205, 0.0697537362575531, 0.08677561581134796, -0.27582128508111553, -0.5996917820487224, 0.7500966141481206,-0.040586503764606235,-0.8563079833984375,0.417816162109375,-0.0298309326171875
20220225-1323,2022-02-25 13:23:46Z,u01, 239,40,movements,el-ex, rt, d,243597.76319779168, -1.4315743481676293, -0.37364351239058957, -0.44300766391874835, -0.34539490938186646, 0.1814706027507782, -0.015258129686117172, -0.9219954013824463, 0.36500996351242065, -0.1291978359222412, 0.09908902645111084, 0.05157020688056946, 0.04864664375782013, -0.2783877101418547, -0.5982485804874115, 0.7501091993129693,-0.04398873310416543,-0.822906494140625,0.4165802001953125,-0.0805511474609375
20220225-1323,2022-02-25 13:23:46Z,u01, 240,40,movements,el-ex, rt, d,243597.7881427917, -1.4294382791664666, -0.3758032354537574, -0.4500182095043897, -0.13518451154232025, 0.16724461317062378, 0.0937403216958046, -0.9209348559379578, 0.3670198321342468, -0.13105563819408417, 0.10822117328643799, -0.01916518807411194, 0.016858741641044617, -0.2811847535973384, -0.596160478047654, 0.7505950431368917,-0.0462056266558106,-0.824493408203125,0.3531951904296875,-0.108367919921875
20220225-1323,2022-02-25 13:23:46Z,u01, 241,40,movements,el-ex, rt, d,243597.81308779167, -1.4270171458654477, -0.38078409652729744, -0.4515981379306461, -0.062357641756534576, 0.07110835611820221, 0.24301330745220184, -0.9187941551208496, 0.37164852023124695, -0.13302136957645416, 0.11589199304580688, 0.047144174575805664, 0.04336065053939819, -0.2833325608525779, -0.5943163961069301, 0.7512925098613591,-0.045499959162486,-0.8029022216796875,0.418792724609375,-0.08966064453125
20220225-1323,2022-02-25 13:23:46Z,u01, 242,40,movements,el-ex, rt, d,243597.83803279168, -1.426212326810158, -0.38669332868647105, -0.454551241854369, -0.24996298551559448, 0.09338269382715225, 0.17181308567523956, -0.9164974689483643, 0.3771279752254486, -0.1334420144557953, 0.08995944261550903, 0.06522431969642639, 0.043979644775390625, -0.28624522375464356, -0.5927416497075618, 0.7514757458033183,-0.044778964069131705,-0.8284454345703125,0.4402923583984375,-0.0836334228515625
20220225-1323,2022-02-25 13:23:46Z,u01, 243,40,movements,el-ex, rt, d,243597.86297879167, -1.4273096769667224, -0.39157680505916, -0.46395423485570597, -0.4317772686481476, 0.08585154265165329, 0.14562702178955078, -0.9148097038269043, 0.3816463351249695, -0.13217128813266754, 0.10440021753311157, 0.10539892315864563, 0.033736780285835266, -0.2907467873910323, -0.5910843094648768, 0.7509455352358715,-0.046544680428849405,-0.8104095458984375,0.4870452880859375,-0.0984344482421875
20220225-1323,2022-02-25 13:23:46Z,u01, 244,40,movements,el-ex, rt, d,243597.88792379168, -1.430636592501957, -0.3983165328394481, -0.4771766426789477, -0.635938823223114, 0.05385952070355415, 0.2283509373664856, -0.9126765727996826, 0.3878672122955322, -0.1287647932767868, 0.10035973787307739, 0.14828082919120789, 0.12646062672138214, -0.2970547489082386, -0.5893861889523586, 0.7496675352199884,-0.04879431234551493,-0.8155517578125,0.5583038330078125,0.0002899169921875
20220225-1323,2022-02-25 13:23:46Z,u01, 245,40,movements,el-ex, rt, d,243597.91286879167, -1.436976376927444, -0.40726543239189833, -0.5007997023450015, -1.2712607383728027, 0.25360140204429626, 0.2423247992992401, -0.9099981188774109, 0.39609992504119873, -0.12250806391239166, 0.13581299781799316, -0.01998603343963623, 0.05225652456283569, -0.3072279836108546, -0.5868193382035993, 0.7472404554540628,-0.053718786051236395,-0.7741851806640625,0.3761138916015625,-0.07025146484375
20220225-1323,2022-02-25 13:23:46Z,u01, 246,40,movements,el-ex, rt, d,243597.93781379168, -1.4439259311280226, -0.4201571916296442, -0.5356673993690108, -1.2039668560028076, 0.23049640655517578, 0.4888278543949127, -0.9056865572929382, 0.4079039692878723, -0.11552531272172928, 0.2088024616241455, -0.029897987842559814, 0.012696266174316406, -0.32197550066851527, -0.5818669262518923, 0.7443108934280432,-0.06135059748897198,-0.6875762939453125,0.34967041015625,-0.1326751708984375
20220225-1323,2022-02-25 13:23:46Z,u01, 247,40,movements,el-ex, rt, d,243597.96275979167, -1.4470530112311952, -0.43546138853650956, -0.5568944562691648, -0.4276074171066284, 0.2310769259929657, 0.4343120753765106, -0.8997425436973572, 0.4218287765979767, -0.11190890520811081, 0.10756736993789673, 0.010467946529388428, 0.05111778527498245, -0.3333336977921211, -0.5770044994781827, 0.7429026633833892,-0.06363919856620331,-0.79217529296875,0.4322967529296875,-0.060791015625
20220225-1323,2022-02-25 13:23:46Z,u01, 248,40,movements,el-ex, rt, d,243597.98770479168, -1.44344289888509, -0.44542367662939164, -0.5623100045908761, -0.13788309693336487, 0.2549896538257599, 0.3248201608657837, -0.8951200246810913, 0.43084025382995605, -0.11461693048477173, 0.09778726100921631, 0.07044148445129395, 0.03423357009887695, -0.33808191758546846, -0.5730551044214532, 0.7438728204032561,-0.06294302403630297,-0.790985107421875,0.49139404296875,-0.0741424560546875
20220225-1323,2022-02-25 13:23:46Z,u01, 249,40,movements,el-ex, rt, d,243598.0126497917, -1.436094113959262, -0.4514181155732503, -0.5617571370092316, 0.059521354734897614, 0.29181376099586487, 0.20318326354026794, -0.8916782736778259, 0.4362420439720154, -0.12084280699491501, 0.08641082048416138, 0.057471394538879395, 0.037285611033439636, -0.3396836052324694, -0.5693800541646953, 0.7460418715846949,-0.061992293459565306,-0.805267333984375,0.49371337890625,-0.08355712890625
