SessionID,LoggingTime,UID,RecNo,Hertz,Activity,MoveType,Wrist,Side,TimeStamp,DMRoll,DMPitch,DMYaw,DMRotX,DMRotY,DMRotZ,DMGrvX,DMGrvY,DMGrvZ,DMUAccelX,DMUAccelY,DMUAccelZ,DMQuatX,DMQuatY,DMQuatW,DMQuatZ,AccelroX,AceelroY,AceelroZ
20220227-1545,2022-02-27 15:45:10Z,u01, 1,40,movements,el-ex, rt, d,297765.3554881667, -1.259355787029199, -0.5228105490609279, -0.3850235796134863, -0.33339521288871765, 0.21658676862716675, 0.18094967305660248, -0.8247385621070862, 0.4993172287940979, -0.26549702882766724, -0.005659997463226318, -0.0447579026222229, -0.05342698097229004, -0.31385639036169166, -0.5184068427203481, 0.7954549212216234,0.0,-0.8303985595703125,0.454559326171875,-0.3189239501953125
20220227-1545,2022-02-27 15:45:10Z,u01, 2,40,movements,el-ex, rt, d,297765.3804334167, -1.2615857242658979, -0.5301247259248025, -0.39692918404165184, -0.7197383046150208, 0.041554443538188934, 0.15526288747787476, -0.8218275308609009, 0.5056409239768982, -0.2625388205051422, -0.033198654651641846, -0.07680803537368774, -0.07915124297142029, -0.3196268421249905, -0.5163034684941261, 0.7945215711699545,-0.0021885286872883047,-0.87420654296875,0.4267425537109375,-0.3165130615234375
20220227-1545,2022-02-27 15:45:10Z,u01, 3,40,movements,el-ex, rt, d,297765.4053774167, -1.2711820830191563, -0.5392572523779959, -0.41750306516676294, -0.6820926070213318, 0.8265604376792908, -0.43568316102027893, -0.8198627829551697, 0.5134987831115723, -0.2532667815685272, 0.19417619705200195, -0.06853723526000977, -0.08837753534317017, -0.3282856521123938, -0.5153592276782412, 0.7915787575291041,-0.006043462581509895,-0.6256866455078125,0.4449615478515625,-0.341644287109375
20220227-1545,2022-02-27 15:45:10Z,u01, 4,40,movements,el-ex, rt, d,297765.4303214167, -1.2741837151903375, -0.542949834587692, -0.4249527340178202, 0.15854166448116302, -0.0004064533859491348, 0.023961186408996582, -0.8188003897666931, 0.5166638493537903, -0.25024881958961487, -0.00270235538482666, 0.06260555982589722, -0.046702563762664795, -0.33155218150910853, -0.5147317238488512, 0.7906136808103446,-0.007378145759012911,-0.8482666015625,0.593780517578125,-0.2900238037109375
20220227-1545,2022-02-27 15:45:11Z,u01, 5,40,movements,el-ex, rt, d,297765.4552654167, -1.2673402243065743, -0.5395762493154893, -0.41019070760436277, 0.8052607774734497, -0.0043322183191776276, 0.041432056576013565, -0.8187271952629089, 0.5137724876403809, -0.25636568665504456, -0.08154124021530151, 0.02483212947845459, -0.03765588998794556, -0.32650877166649594, -0.5149846363601266, 0.792571211571631,-0.0036801239944945774,-0.9002685546875,0.538604736328125,-0.2940216064453125
20220227-1545,2022-02-27 15:45:11Z,u01, 6,40,movements,el-ex, rt, d,297765.4802094167, -1.2532095835675743, -0.5325322548903616, -0.38424159541089303, 0.9812225103378296, 0.04632323607802391, -0.026920367032289505, -0.8184407949447632, 0.5077165365219116, -0.2690323293209076, -0.055948734283447266, 0.035816729068756104, 0.010533183813095093, -0.3172424525450903, -0.5146271027624115, 0.7965620046024996,0.0022443411685316716,-0.8584747314453125,0.5379486083984375,-0.2473602294921875
20220227-1545,2022-02-27 15:45:11Z,u01, 7,40,movements,el-ex, rt, d,297765.50515441666, -1.2405394611798577, -0.5247297782551182, -0.36127374280300595, 0.6883333921432495, 0.048281725496053696, -0.0779944658279419, -0.8186891674995422, 0.5009791851043701, -0.2806563973426819, -0.02426731586456299, -0.006930112838745117, 0.05462789535522461, -0.30846963033697994, -0.5143134210972411, 0.8001734751732296,0.007116987956596821,-0.84295654296875,0.494049072265625,-0.2260284423828125
20220227-1545,2022-02-27 15:45:11Z,u01, 8,40,movements,el-ex, rt, d,297765.53009841667, -1.2322646870762906, -0.5181912970069176, -0.3490481120908328, 0.33944740891456604, 0.1323569267988205, -0.12809865176677704, -0.8194110989570618, 0.4953097105026245, -0.28850287199020386, -0.028458774089813232, 0.0025388002395629883, 0.04687988758087158, -0.3029128575436316, -0.5138018710603798, 0.8026042649290219,0.008827718019147723,-0.8437347412109375,0.4990234375,-0.2486724853515625
20220227-1545,2022-02-27 15:45:11Z,u01, 9,40,movements,el-ex, rt, d,297765.5550424167, -1.223356094128672, -0.5118533293805981, -0.34021275270391643, 0.46889641880989075, 0.2369694709777832, -0.1526869535446167, -0.8197436332702637, 0.48979389667510986, -0.29685404896736145, -0.005024373531341553, 0.02918800711631775, 0.05655863881111145, -0.29829806072803555, -0.51243657844072, 0.805197226755529,0.009187818062484643,-0.82476806640625,0.51898193359375,-0.24029541015625
20220227-1545,2022-02-27 15:45:11Z,u01, 10,40,movements,el-ex, rt, d,297765.5799864167, -1.2107488576867063, -0.502797967185047, -0.3285026360144091, 0.49350184202194214, 0.30311834812164307, -0.2450190782546997, -0.8200535178184509, 0.4818791151046753, -0.30871492624282837, 0.030533254146575928, 0.030221104621887207, 0.0664205551147461, -0.2919246747513673, -0.5103160994743321, 0.8088687788932485,0.009427093924453456,-0.7831878662109375,0.5099639892578125,-0.2532806396484375
20220227-1545,2022-02-27 15:45:11Z,u01, 11,40,movements,el-ex, rt, d,297765.6049304167, -1.1984183292363049, -0.49196555052433744, -0.3195256864171509, 0.4053155779838562, 0.3288741111755371, -0.3528091311454773, -0.8209987878799438, 0.47235924005508423, -0.3206833004951477, 0.05682337284088135, 0.02913612127304077, 0.013493359088897705, -0.285546021122273, -0.5080569041034294, 0.8125730062460517,0.008173562927010991,-0.7641754150390625,0.501495361328125,-0.30718994140625
20220227-1545,2022-02-27 15:45:11Z,u01, 12,40,movements,el-ex, rt, d,297765.6298754167, -1.187677758155518, -0.47901701581621303, -0.3133830483812956, 0.45937833189964294, 0.3386906683444977, -0.43160632252693176, -0.8231112957000732, 0.4609070420265198, -0.3317412734031677, 0.05451095104217529, -0.02624523639678955, 0.020049959421157837, -0.2790286557414741, -0.5062335095304212, 0.8159905662315456,0.005469362371275321,-0.7773895263671875,0.421661376953125,-0.3206329345703125
20220227-1545,2022-02-27 15:45:11Z,u01, 13,40,movements,el-ex, rt, d,297765.6548194167, -1.1740631975349873, -0.462998828191758, -0.3027525271686665, 0.7193556427955627, 0.3404844403266907, -0.46328476071357727, -0.825222909450531, 0.4466332197189331, -0.3457252085208893, 0.086789071559906, -0.012093424797058105, -0.031060099601745605, -0.27014034722886293, -0.504144409937471, 0.8202748571932624,0.0034261460263934618,-0.738433837890625,0.434539794921875,-0.3767852783203125
20220227-1545,2022-02-27 15:45:11Z,u01, 14,40,movements,el-ex, rt, d,297765.6797634167, -1.1602120283788584, -0.44491237906718845, -0.2894594987869924, 0.6890426278114319, 0.30396324396133423, -0.4861871004104614, -0.8276273012161255, 0.430378794670105, -0.36028772592544556, 0.07378208637237549, -0.03629007935523987, -0.02185344696044922, -0.2597068373410224, -0.5024027257521284, 0.8247059375503527,0.002005611635557014,-0.7582855224609375,0.3763275146484375,-0.385955810546875
20220227-1545,2022-02-27 15:45:11Z,u01, 15,40,movements,el-ex, rt, d,297765.7047074167, -1.1479864045271473, -0.42730617105628277, -0.27837659675828963, 0.6444967985153198, 0.2919853925704956, -0.48378410935401917, -0.8299428820610046, 0.4144206941127777, -0.37343037128448486, 0.08803009986877441, -0.0882183313369751, 0.002321392297744751, -0.24995025461758016, -0.5008090271715024, 0.8286827534153967,0.00016150284296462258,-0.741912841796875,0.326202392578125,-0.3711090087890625
20220227-1545,2022-02-27 15:45:11Z,u01, 16,40,movements,el-ex, rt, d,297765.7296514167, -1.136054833262634, -0.4084568603035426, -0.26694862099858335, 0.7300795912742615, 0.31196868419647217, -0.535461962223053, -0.8323661684989929, 0.3971936106681824, -0.3865278363227844, 0.049376726150512695, -0.08527347445487976, 0.040107518434524536, -0.23954664082917876, -0.4993530721514333, 0.8326229196631478,-0.0017126544953274814,-0.796600341796875,0.3215789794921875,-0.3482666015625
20220227-1545,2022-02-27 15:45:11Z,u01, 17,40,movements,el-ex, rt, d,297765.75459641666, -1.1223293273420505, -0.38853031421067397, -0.2546701628747247, 0.736678957939148, 0.39542025327682495, -0.5342464447021484, -0.8339499235153198, 0.37882867455482483, -0.4012681543827057, 0.014614105224609375, -0.06169009208679199, -0.0045545995235443115, -0.22842613955668215, -0.49717946693972276, 0.8370310804693977,-0.00359113532105082,-0.8193359375,0.317138671875,-0.40582275390625
20220227-1545,2022-02-27 15:45:11Z,u01, 18,40,movements,el-ex, rt, d,297765.77954041667, -1.1083426642575194, -0.3692363619312018, -0.24590021862534567, 0.4980207681655884, 0.4535755515098572, -0.5632574558258057, -0.8346429467201233, 0.3609033524990082, -0.41607657074928284, 0.007189452648162842, -0.07640329003334045, 0.0005644857883453369, -0.21836051903994994, -0.4942472993335706, 0.8414238366268244,-0.006640527385769424,-0.8217926025390625,0.2852020263671875,-0.4144439697265625
20220227-1545,2022-02-27 15:45:11Z,u01, 19,40,movements,el-ex, rt, d,297765.8044844167, -1.096230708627416, -0.3527981014970739, -0.2440745676680637, 0.27430957555770874, 0.467695027589798, -0.5398578643798828, -0.8347072005271912, 0.3455249071121216, -0.4288082420825958, 0.004415452480316162, -0.05553165078163147, 0.04027366638183594, -0.2111135171317631, -0.49094496438858437, 0.8451457251163002,-0.011527209742441424,-0.830291748046875,0.2899932861328125,-0.3885345458984375
20220227-1545,2022-02-27 15:45:11Z,u01, 20,40,movements,el-ex, rt, d,297765.8294284167, -1.0838823102356991, -0.33713150053206986, -0.2434998928099946, 0.3852126896381378, 0.5089625716209412, -0.5490908622741699, -0.8340306878089905, 0.3307814300060272, -0.44156143069267273, -0.026244521141052246, -0.06016683578491211, 0.028811156749725342, -0.20442064310441804, -0.4872694117056221, 0.8488242550189585,-0.016677598898034274,-0.8569183349609375,0.2672119140625,-0.4237060546875
20220227-1545,2022-02-27 15:45:11Z,u01, 21,40,movements,el-ex, rt, d,297765.8543724167, -1.0695078792394894, -0.31875318180957624, -0.23909170811035443, 0.6006946563720703, 0.5385980606079102, -0.5916054248809814, -0.8327887058258057, 0.3133828043937683, -0.4563487768173218, -0.041036367416381836, -0.03420796990394592, 0.026844322681427002, -0.19558111007223447, -0.48329457174135937, 0.8530727037515633,-0.02100894723482022,-0.8738250732421875,0.2791748046875,-0.42950439453125
20220227-1545,2022-02-27 15:45:11Z,u01, 22,40,movements,el-ex, rt, d,297765.8793164167, -1.053662257877166, -0.29768185600870223, -0.23302276331664395, 0.5729454159736633, 0.5682228207588196, -0.6570699214935303, -0.8310096263885498, 0.29330480098724365, -0.47264719009399414, -0.028838396072387695, -0.0011753439903259277, 0.016973912715911865, -0.18511806559862362, -0.47896524740067337, 0.8577194171475404,-0.025319072435684375,-0.8462066650390625,0.2919464111328125,-0.4701995849609375
20220227-1545,2022-02-27 15:45:11Z,u01, 23,40,movements,el-ex, rt, d,297765.9042614167, -1.0393155220941155, -0.2770248066934456, -0.23011117043499135, 0.48976439237594604, 0.5116915702819824, -0.676132321357727, -0.8291902542114258, 0.2734951078891754, -0.4874874949455261, -0.0023221969604492188, -0.0405239462852478, -0.016449332237243652, -0.1755135140043481, -0.4748170728869396, 0.861863436706447,-0.030582574256238504,-0.831512451171875,0.23297119140625,-0.503936767578125
20220227-1545,2022-02-27 15:45:11Z,u01, 24,40,movements,el-ex, rt, d,297765.9292054167, -1.0277043472905592, -0.25621661623928366, -0.22954869825335136, 0.42383575439453125, 0.40780705213546753, -0.7263344526290894, -0.8281676173210144, 0.25342249870300293, -0.4999154508113861, -0.02418828010559082, -0.029331952333450317, 0.006598800420761108, -0.16635775896989077, -0.4715584511136117, 0.8652301582229682,-0.036531000140494096,-0.859619140625,0.214385986328125,-0.4944000244140625
20220227-1545,2022-02-27 15:45:11Z,u01, 25,40,movements,el-ex, rt, d,297765.9541494167, -1.0175331611765046, -0.23453790887435405, -0.22800206355471614, 0.6069334745407104, 0.3890841603279114, -0.6886396408081055, -0.8275206685066223, 0.23239357769489288, -0.5110800862312317, -0.07325136661529541, -0.023332923650741577, -0.025510549545288086, -0.15654770208083482, -0.46899123342104754, 0.8682006942750188,-0.04204351172768134,-0.9007720947265625,0.2090606689453125,-0.536590576171875
20220227-1545,2022-02-27 15:45:11Z,u01, 26,40,movements,el-ex, rt, d,297765.9790934167, -1.0068859876870693, -0.21134443896032784, -0.22159692323302616, 0.7898542881011963, 0.33742839097976685, -0.6220552921295166, -0.8263663053512573, 0.20977461338043213, -0.5226025581359863, -0.033985257148742676, -0.02261030673980713, -0.05245548486709595, -0.1448696375203843, -0.4665956614602089, 0.8713261778021216,-0.0457385319743428,-0.856109619140625,0.173919677734375,-0.5732879638671875
20220227-1545,2022-02-27 15:45:11Z,u01, 27,40,movements,el-ex, rt, d,297766.00403741666, -0.997874695477578, -0.1880027421870681, -0.21349726321709545, 0.7194067239761353, 0.2535738945007324, -0.6050953269004822, -0.8255138993263245, 0.18689720332622528, -0.532537579536438, -0.06888002157211304, -0.014198243618011475, -0.020105302333831787, -0.13270755926396963, -0.46488700142910666, 0.8740238923367317,-0.04848699885701191,-0.8943939208984375,0.172698974609375,-0.552642822265625
20220227-1545,2022-02-27 15:45:11Z,u01, 28,40,movements,el-ex, rt, d,297766.02898241667, -0.9915901897952053, -0.16645161742575648, -0.20889589063436045, 0.48737794160842896, 0.2032780945301056, -0.6491177678108215, -0.8253306150436401, 0.1656840592622757, -0.5397946238517761, -0.14373981952667236, 0.030849158763885498, -0.0007480382919311523, -0.12214885290817099, -0.4638775170137668, 0.8758924578838363,-0.05205518345458254,-0.987152099609375,0.1913604736328125,-0.5435638427734375
20220227-1545,2022-02-27 15:45:11Z,u01, 29,40,movements,el-ex, rt, d,297766.0539264167, -0.9863969069626535, -0.14793075035440875, -0.21055178603606764, 0.2518876791000366, 0.22125522792339325, -0.6615973711013794, -0.8249343037605286, 0.14739179611206055, -0.5456730127334595, -0.16447603702545166, 0.04244278371334076, -0.06213033199310303, -0.11434501411571621, -0.4626972093508927, 0.8772279335916496,-0.05751221319615302,-0.989410400390625,0.1898345947265625,-0.6078033447265625
20220227-1545,2022-02-27 15:45:11Z,u01, 30,40,movements,el-ex, rt, d,297766.0788704167, -0.9819184372211527, -0.13151378812091408, -0.21530237596811683, 0.15991689264774323, 0.18529462814331055, -0.6339057087898254, -0.8243834376335144, 0.1311350017786026, -0.5506318211555481, -0.14580076932907104, 0.11358539760112762, -0.0878111720085144, -0.10815960715543371, -0.46150360664449436, 0.8782096270425257,-0.06374663983606715,-0.9842071533203125,0.250274658203125,-0.634765625
20220227-1545,2022-02-27 15:45:11Z,u01, 31,40,movements,el-ex, rt, d,297766.1038144167, -0.9783205114954163, -0.11754469340307544, -0.22112609088081003, 0.10180818289518356, 0.1734457015991211, -0.5564924478530884, -0.8238363862037659, 0.1172742024064064, -0.5545632839202881, -0.27162253856658936, 0.1234942078590393, -0.07667762041091919, -0.10329011775472788, -0.4604883396276348, 0.8788685445814081,-0.06979837065207922,-1.095458984375,0.2407684326171875,-0.6312408447265625
20220227-1545,2022-02-27 15:45:11Z,u01, 32,40,movements,el-ex, rt, d,297766.1287584167, -0.9745021470655917, -0.1052465201041438, -0.2266532766098191, 0.10145258158445358, 0.18393255770206451, -0.5007158517837524, -0.8228440284729004, 0.10505232959985733, -0.5584726929664612, -0.31894057989120483, 0.17754042148590088, -0.12515157461166382, -0.09905212579322506, -0.4592954824164204, 0.8795247352460174,-0.07531672313847942,-1.1507568359375,0.288360595703125,-0.6996612548828125
20220227-1545,2022-02-27 15:45:11Z,u01, 33,40,movements,el-ex, rt, d,297766.1537034167, -0.970530121722211, -0.09397244352175126, -0.2320308527823856, 0.029671968892216682, 0.18001791834831238, -0.48402851819992065, -0.8215444087982178, 0.09383419901132584, -0.5623698830604553, -0.40074557065963745, 0.22690555453300476, -0.23590892553329468, -0.0952008220807373, -0.4579867560944525, 0.88017143211669,-0.08051749446616135,-1.2222900390625,0.32073974609375,-0.79827880859375
20220227-1545,2022-02-27 15:45:11Z,u01, 34,40,movements,el-ex, rt, d,297766.1786474167, -0.9674599265124817, -0.08539175253155909, -0.23843458987038382, -0.05541576072573662, 0.09394854307174683, -0.34938254952430725, -0.820446789264679, 0.08528801798820496, -0.5653255581855774, -0.44893181324005127, 0.21730902791023254, -0.2772037386894226, -0.09278198639148041, -0.45686837240420464, 0.8805426957023208,-0.0854830308708952,-1.2847137451171875,0.3082122802734375,-0.8382568359375
20220227-1545,2022-02-27 15:45:11Z,u01, 35,40,movements,el-ex, rt, d,297766.2035914167, -0.9669824345254191, -0.08189514586562666, -0.243996205446496, -0.14751571416854858, -0.01758091151714325, -0.13144677877426147, -0.8204171657562256, 0.08180363476276398, -0.5658831000328064, -0.5732747316360474, 0.21696344017982483, -0.2941938042640686, -0.09250017966162571, -0.4566203684059391, 0.880375899131786,-0.08876763864133974,-1.3936920166015625,0.29876708984375,-0.860076904296875
20220227-1545,2022-02-27 15:45:11Z,u01, 36,40,movements,el-ex, rt, d,297766.2285354167, -0.9694989397173767, -0.08407321465739154, -0.2483278961610388, -0.26162368059158325, -0.15553885698318481, 0.06311038881540298, -0.821689784526825, 0.0839742049574852, -0.5637146234512329, -0.6393391489982605, 0.2116037905216217, -0.3461211919784546, -0.09455566085932068, -0.45738595555524486, 0.8796297852339354,-0.09004839696110317,-1.479644775390625,0.293670654296875,-0.9171600341796875
20220227-1545,2022-02-27 15:45:11Z,u01, 37,40,movements,el-ex, rt, d,297766.25347941666, -0.9764140388645972, -0.09369152257372226, -0.2549828977695486, -0.6207220554351807, -0.3233078122138977, 0.2389613687992096, -0.8248609900474548, 0.09355451166629791, -0.5575410723686218, -0.7493273019790649, 0.21935749053955078, -0.3871459364891052, -0.1005939135613361, -0.45946744779644233, 0.8778391406382697,-0.09038294140820269,-1.574188232421875,0.3129119873046875,-0.9446868896484375
20220227-1545,2022-02-27 15:45:11Z,u01, 38,40,movements,el-ex, rt, d,297766.27842441667, -0.9884014041632097, -0.11208133417813078, -0.2676010694494236, -0.9772107005119324, -0.5241131782531738, 0.44027793407440186, -0.8299076557159424, 0.11184681951999664, -0.5465744733810425, -0.7413356304168701, 0.20774850249290466, -0.3826247453689575, -0.1120455716490727, -0.4627726716753935, 0.8746541731446851,-0.09092524519771533,-1.5755615234375,0.32366943359375,-0.92315673828125
20220227-1545,2022-02-27 15:45:11Z,u01, 39,40,movements,el-ex, rt, d,297766.3033684167, -1.0053159617543206, -0.1369798059622901, -0.28055511074945816, -0.9486464262008667, -0.7108356952667236, 0.6498664617538452, -0.8364223837852478, 0.1365518420934677, -0.5308023691177368, -0.7627444267272949, 0.2184591293334961, -0.3562978506088257, -0.12658233129757138, -0.46752081755858216, 0.8702728603127882,-0.08959012474253147,-1.5991668701171875,0.355010986328125,-0.8871002197265625
20220227-1545,2022-02-27 15:45:11Z,u01, 40,40,movements,el-ex, rt, d,297766.3283124167, -1.0274232487369332, -0.16512770947601219, -0.2907390600123984, -0.9139190316200256, -0.9354745149612427, 0.8255012631416321, -0.8443261384963989, 0.1643783003091812, -0.5099932551383972, -0.7375372052192688, 0.1564529687166214, -0.3284161686897278, -0.14201048124445653, -0.47416915983098995, 0.8646755805871471,-0.08563155609486683,-1.585479736328125,0.3248291015625,-0.822601318359375
20220227-1545,2022-02-27 15:45:11Z,u01, 41,40,movements,el-ex, rt, d,297766.3532564167, -1.0541717168204576, -0.19486752847107713, -0.2982477248075446, -0.7629121541976929, -1.0958561897277832, 0.9223144054412842, -0.8530347943305969, 0.19363656640052795, -0.4845992624759674, -0.7172166109085083, 0.17089585959911346, -0.2471664845943451, -0.15752309488104005, -0.48258350658313165, 0.8579008878042649,-0.0794078459715678,-1.57025146484375,0.364532470703125,-0.7317657470703125
20220227-1545,2022-02-27 15:45:11Z,u01, 42,40,movements,el-ex, rt, d,297766.37820054166, -1.0834990644238187, -0.22291084100273087, -0.3026221230349864, -0.6616048216819763, -1.167815089225769, 0.8751818537712097, -0.8617395758628845, 0.22106938064098358, -0.45665431022644043, -0.6638340950012207, 0.10642999410629272, -0.24750834703445435, -0.17145121746414102, -0.4922167531201712, 0.8504075157528466,-0.07165281406528046,-1.5168304443359375,0.313018798828125,-0.71142578125
20220227-1545,2022-02-27 15:45:11Z,u01, 43,40,movements,el-ex, rt, d,297766.40314554167, -1.1140940793825174, -0.24901107328582636, -0.30554964498635273, -0.4751029312610626, -1.244367241859436, 0.8712034821510315, -0.8698293566703796, 0.2464456558227539, -0.42738911509513855, -0.5574319362640381, 0.053496360778808594, -0.2529240846633911, -0.18401487514745937, -0.5024380286375002, 0.8424307560037438,-0.06328534276123005,-1.4272613525390625,0.2999420166015625,-0.6803131103515625
20220227-1545,2022-02-27 15:45:11Z,u01, 44,40,movements,el-ex, rt, d,297766.4280895417, -1.145826620231074, -0.27208888518019925, -0.3033966967479438, -0.122805655002594, -1.3439114093780518, 0.8803542852401733, -0.8775350451469421, 0.2687440514564514, -0.3971255421638489, -0.4786507487297058, 0.035546690225601196, -0.1771237552165985, -0.19382151994386224, -0.5136832116786734, 0.8341096716906127,-0.05313853699977378,-1.3459014892578125,0.3139801025390625,-0.5472259521484375
20220227-1545,2022-02-27 15:45:12Z,u01, 45,40,movements,el-ex, rt, d,297766.4530335417, -1.1767210490901376, -0.29153413123987737, -0.293441919362013, 0.13754236698150635, -1.3455238342285156, 0.8331866264343262, -0.8843902349472046, 0.28742197155952454, -0.36775314807891846, -0.37713009119033813, -0.03435501456260681, -0.15589794516563416, -0.1998069478059268, -0.5255479097896816, 0.825972238724402,-0.04057482039129484,-1.2615203857421875,0.2530670166015625,-0.523651123046875
20220227-1545,2022-02-27 15:45:12Z,u01, 46,40,movements,el-ex, rt, d,297766.4779775417, -1.2082956580158548, -0.30984657316032665, -0.2864643154376133, -0.21720126271247864, -1.3794249296188354, 0.7286752462387085, -0.8904879689216614, 0.3049125075340271, -0.3377269208431244, -0.2627254128456116, -0.20116806030273438, -0.23133441805839539, -0.2058054916814794, -0.5373831445846107, 0.8173152315674372,-0.02931186731190044,-1.1380462646484375,0.06243896484375,-0.5606842041015625
20220227-1545,2022-02-27 15:45:12Z,u01, 47,40,movements,el-ex, rt, d,297766.5029215417, -1.2435627338252462, -0.33100804822012825, -0.2895122241113106, -0.5508498549461365, -1.3627161979675293, 0.7811669707298279, -0.8955308794975281, 0.3249965310096741, -0.3039761483669281, -0.2619396448135376, -0.19816550612449646, -0.11121553182601929, -0.21539055330786602, -0.5491983581746891, 0.8071925409641121,-0.020690863161051065,-1.157470703125,0.1268310546875,-0.415191650390625
20220227-1545,2022-02-27 15:45:12Z,u01, 48,40,movements,el-ex, rt, d,297766.5278665417, -1.2797056775734754, -0.3540692867686993, -0.2978181293863976, -0.5841478705406189, -1.2954407930374146, 0.7708000540733337, -0.8985105156898499, 0.3467175364494324, -0.2691946029663086, -0.27786576747894287, -0.20928162336349487, 0.011580407619476318, -0.22690774460797958, -0.5602816918922977, 0.7965073765536634,-0.013162887656338496,-1.164825439453125,0.1178131103515625,-0.24456787109375
20220227-1545,2022-02-27 15:45:12Z,u01, 49,40,movements,el-ex, rt, d,297766.5528105417, -1.312783278000181, -0.3743776473378539, -0.30376878129835994, -0.16700774431228638, -1.1536623239517212, 0.664154052734375, -0.8999269604682922, 0.3656933605670929, -0.2374863177537918, -0.1757107973098755, -0.3571484684944153, -0.04579317569732666, -0.23644958423093526, -0.5703932280838625, 0.7865829927248262,-0.005505928701142415,-1.0756378173828125,0.008544921875,-0.2832794189453125
20220227-1545,2022-02-27 15:45:12Z,u01, 50,40,movements,el-ex, rt, d,297766.5777545417, -1.334570476241742, -0.38704646334781534, -0.29341436605245513, 0.7027385830879211, -0.8866825699806213, 0.5369423627853394, -0.9003105163574219, 0.3774549961090088, -0.21672293543815613, -0.08633804321289062, -0.4213850498199463, -0.08927685022354126, -0.23822004545064673, -0.5786965913561287, 0.7799589616833325,0.00505557619291952,-0.96856689453125,-0.0518951416015625,-0.3013153076171875
20220227-1545,2022-02-27 15:45:12Z,u01, 51,40,movements,el-ex, rt, d,297766.6026985417, -1.3401675663393333, -0.392777833091318, -0.2610674377215513, 1.4448635578155518, -0.5216480493545532, 0.47271960973739624, -0.8993885517120361, 0.38275617361068726, -0.21118244528770447, -0.05127978324890137, -0.47227948904037476, -0.02479475736618042, -0.23091929528598454, -0.5840248771821717, 0.7779378864654761,0.02009713272287106,-0.9506683349609375,-0.0895233154296875,-0.2359771728515625
20220227-1545,2022-02-27 15:45:12Z,u01, 52,40,movements,el-ex, rt, d,297766.62764254166, -1.333497834163579, -0.3949407859655773, -0.22026437502796203, 1.2225271463394165, -0.2602822482585907, 0.35352790355682373, -0.8971531391143799, 0.3847535252571106, -0.21698124706745148, 0.05970507860183716, -0.5041536092758179, 0.0477001816034317, -0.21988979258817787, -0.585796772718415, 0.7792313843774388,0.0359027915177913,-0.8079833984375,-0.130523681640625,-0.1595611572265625
20220227-1545,2022-02-27 15:45:12Z,u01, 53,40,movements,el-ex, rt, d,297766.65258754167, -1.3299342370343583, -0.3983773096293306, -0.19823183631845215, 0.28535032272338867, -0.1432422399520874, 0.26441100239753723, -0.8950848579406738, 0.3879232406616211, -0.21986024081707, 0.1697583794593811, -0.5512838363647461, 0.07241453230381012, -0.21480068947658004, -0.5864559152652278, 0.7796731228654946,0.04516501869182671,-0.7253265380859375,-0.163360595703125,-0.1474456787109375
20220227-1545,2022-02-27 15:45:12Z,u01, 54,40,movements,el-ex, rt, d,297766.6775315417, -1.3307032639453449, -0.4005045558492885, -0.19855717608481113, -0.23408862948417664, 0.11140170693397522, -0.10478600114583969, -0.8944501280784607, 0.38988301157951355, -0.21897511184215546, 0.25438976287841797, -0.49162864685058594, 0.08727645874023438, -0.21568192184911364, -0.5865098067576134, 0.779353503439262,0.0457776630251312,-0.595733642578125,-0.0591583251953125,-0.1380462646484375
20220227-1545,2022-02-27 15:45:12Z,u01, 55,40,movements,el-ex, rt, d,297766.7024755417, -1.3272444174098526, -0.3945707078216142, -0.20564341003798278, -0.021194107830524445, 0.3589722812175751, -0.5566433072090149, -0.8959168791770935, 0.38441193103790283, -0.22262156009674072, 0.5132417678833008, -0.23597446084022522, 0.10601386427879333, -0.2155906209422645, -0.5849870990035684, 0.7807978437062921,0.04080990360937292,-0.3826751708984375,0.1484375,-0.116607666015625
20220227-1545,2022-02-27 15:45:12Z,u01, 56,40,movements,el-ex, rt, d,297766.7274195417, -1.3136627618527807, -0.3728992692579769, -0.20388438440124676, 0.4693460762500763, 0.6770156025886536, -1.0362534523010254, -0.9006572961807251, 0.3643169701099396, -0.23683196306228638, 0.5943830013275146, -0.06280338764190674, 0.1620791256427765, -0.2071013704974864, -0.5819734017134396, 0.7856842803588093,0.03340736343636097,-0.278350830078125,0.342803955078125,-0.0801849365234375
20220227-1545,2022-02-27 15:45:12Z,u01, 57,40,movements,el-ex, rt, d,297766.7523635417, -1.2911655901302208, -0.3374918797244385, -0.19296671956878395, 0.9946527481079102, 0.7836351990699768, -1.4973716735839844, -0.9069367051124573, 0.3311215043067932, -0.2604310214519501, 0.836654782295227, -0.1412869095802307, 0.10337227582931519, -0.19066030955052113, -0.5774366948448819, 0.7934760312438126,0.02472369038889105,-0.070281982421875,0.1898345947265625,-0.1570587158203125
20220227-1545,2022-02-27 15:45:12Z,u01, 58,40,movements,el-ex, rt, d,297766.7773085417, -1.270395876001544, -0.2932499601558897, -0.18352111746254857, 0.6297076344490051, 0.6665043234825134, -1.544601321220398, -0.91443932056427, 0.2890649735927582, -0.2832705080509186, 0.96442711353302, -0.22781619429588318, 0.12430441379547119, -0.17089435084110913, -0.5737245573482512, 0.8009100590237492,0.01335392956130782,0.0544281005859375,0.04644775390625,-0.18035888671875
20220227-1545,2022-02-27 15:45:12Z,u01, 59,40,movements,el-ex, rt, d,297766.8022525417, -1.2547770180996227, -0.2562496222476359, -0.1816762149084766, 0.3802582621574402, 0.4799323081970215, -1.2317765951156616, -0.9194443225860596, 0.25345441699028015, -0.30063748359680176, 0.9836533665657043, -0.19521167874336243, 0.11525842547416687, -0.15583023982380623, -0.5704368479281925, 0.8064212410196298,0.0018624271802292203,0.064208984375,0.0582427978515625,-0.1853790283203125
20220227-1545,2022-02-27 15:45:12Z,u01, 60,40,movements,el-ex, rt, d,297766.8271965417, -1.2452224765806976, -0.23040237736077773, -0.18409553258901254, 0.13430121541023254, 0.36026471853256226, -0.7971040606498718, -0.922430157661438, 0.22836928069591522, -0.31140032410621643, 0.8633023500442505, -0.17594009637832642, 0.08367806673049927, -0.14622985557727455, -0.5682575768064828, 0.8097190988052474,-0.007427025801454656,-0.082183837890625,0.04852294921875,-0.256011962890625
20220227-1545,2022-02-27 15:45:12Z,u01, 61,40,movements,el-ex, rt, d,297766.8521405417, -1.2403852528158206, -0.21695720580248926, -0.1894862671415825, -0.17086546123027802, 0.09512792527675629, -0.24719268083572388, -0.9237341284751892, 0.21525916457176208, -0.3168262541294098, 0.6975682973861694, -0.16707190871238708, -0.047858864068984985, -0.14236651251609092, -0.5668497630407382, 0.8113077614668315,-0.013889880408929411,-0.226165771484375,0.048187255859375,-0.36468505859375
20220227-1545,2022-02-27 15:45:12Z,u01, 62,40,movements,el-ex, rt, d,297766.87708454166, -1.2418704802929876, -0.22171847698222696, -0.19900279338110852, -0.4983920156955719, 0.029926683753728867, 0.4029921293258667, -0.9232231378555298, 0.21990635991096497, -0.31511926651000977, 0.45921868085861206, 0.03085656464099884, 0.013941258192062378, -0.14697530918455615, -0.5664261926434915, 0.810737585115343,-0.01625141756638593,-0.498992919921875,0.2929229736328125,-0.2941436767578125
20220227-1545,2022-02-27 15:45:12Z,u01, 63,40,movements,el-ex, rt, d,297766.90202954167, -1.2426164523198062, -0.2359217149343385, -0.2016737065426093, -0.16414964199066162, -0.06338980793952942, 0.6118205785751343, -0.9204081892967224, 0.23373927175998688, -0.3133920431137085, 0.3662700653076172, 0.20670562982559204, 0.0697091817855835, -0.15339811262166766, -0.5654847414013303, 0.8102614489039714,-0.0131266906302695,-0.55413818359375,0.4404449462890625,-0.243682861328125
20220227-1545,2022-02-27 15:45:12Z,u01, 64,40,movements,el-ex, rt, d,297766.9269735417, -1.2452778774064113, -0.2539268681932217, -0.20594496762266146, -0.6962021589279175, 0.004448555409908295, 0.6303824782371521, -0.9171025156974792, 0.2512068450450897, -0.3095451593399048, 0.23201334476470947, 0.2785325348377228, 0.11003649234771729, -0.161779058961031, -0.5648494932511909, 0.8091258971651804,-0.009376319928476096,-0.7273712158203125,0.560272216796875,-0.1958770751953125
20220227-1545,2022-02-27 15:45:12Z,u01, 65,40,movements,el-ex, rt, d,297766.9519175417, -1.2460866462411877, -0.2735956079537243, -0.218539552764573, -0.6490599513053894, 0.14316296577453613, 0.5719009637832642, -0.9124926328659058, 0.27019503712654114, -0.3071673810482025, 0.14073365926742554, 0.2911452651023865, 0.09014153480529785, -0.17312635373053936, -0.5625331727010549, 0.808399120135078,-0.008635345618660306,-0.771759033203125,0.56134033203125,-0.2170257568359375
20220227-1545,2022-02-27 15:45:12Z,u01, 66,40,movements,el-ex, rt, d,297766.9768615417, -1.24436214957421, -0.2929705623052628, -0.2266321411423001, -0.40408188104629517, 0.07595562934875488, 0.6916824579238892, -0.9068321585655212, 0.2887974679470062, -0.3070039749145508, 0.20598077774047852, 0.1650294065475464, 0.014172494411468506, -0.1830439398786647, -0.5594577087577453, 0.8083695284125171,-0.006378323334927549,-0.6722564697265625,0.438201904296875,-0.31658935546875
20220227-1545,2022-02-27 15:45:12Z,u01, 67,40,movements,el-ex, rt, d,297767.0018055417, -1.24560340088387, -0.3141050167898353, -0.22940152880092946, -0.37891510128974915, -0.03475237637758255, 0.7439300417900085, -0.9012266993522644, 0.30896541476249695, -0.3038599193096161, 0.1222502589225769, 0.15418460965156555, 0.0514337420463562, -0.19214515098214524, -0.5578084576633475, 0.807420940405589,-0.0011819796899409374,-0.7789764404296875,0.4631500244140625,-0.2524261474609375
20220227-1545,2022-02-27 15:45:12Z,u01, 68,40,movements,el-ex, rt, d,297767.0267505417, -1.245649919390076, -0.3309421654328598, -0.23238524673281885, -0.2288370132446289, 0.06960898637771606, 0.5252057909965515, -0.8961837887763977, 0.3249342143535614, -0.30211323499679565, 0.0750320553779602, 0.1117723286151886, 0.02713453769683838, -0.19958935769982875, -0.5559743484717892, 0.8068767337225247,0.002559645772451269,-0.796051025390625,0.43292236328125,-0.2947235107421875
20220227-1545,2022-02-27 15:45:12Z,u01, 69,40,movements,el-ex, rt, d,297767.0516945417, -1.2445405893767163, -0.34378000917244417, -0.23211393870276273, -0.15067793428897858, 0.03668319061398506, 0.45184361934661865, -0.8918230533599854, 0.33704832196235657, -0.30174532532691956, 0.12348198890686035, 0.19685667753219604, -0.000821232795715332, -0.2045497594629907, -0.55433449033863, 0.806742075569413,0.006323372927008963,-0.768341064453125,0.533905029296875,-0.3025665283203125
20220227-1545,2022-02-27 15:45:12Z,u01, 70,40,movements,el-ex, rt, d,297767.0766385417, -1.2435231910686968, -0.35444102759235135, -0.23222543411370028, -0.12302223592996597, 0.06370621919631958, 0.38235366344451904, -0.8880623579025269, 0.347066193819046, -0.301480233669281, 0.09518516063690186, 0.17038986086845398, 0.0045899152755737305, -0.2087597089134097, -0.5528826921733999, 0.8066310672128854,0.009298589924383593,-0.7938079833984375,0.4997406005859375,-0.309234619140625
20220227-1545,2022-02-27 15:45:12Z,u01, 71,40,movements,el-ex, rt, d,297767.1015825417, -1.2420806324537281, -0.3637572934738661, -0.23051443677507646, 0.044193923473358154, -0.017117256298661232, 0.3785344660282135, -0.8845278024673462, 0.3557881712913513, -0.3017040491104126, 0.1279054880142212, 0.1161203682422638, -0.05764049291610718, -0.21194082829201843, -0.5515696339873368, 0.8066561551437629,0.012565439855148186,-0.756622314453125,0.4719085693359375,-0.359344482421875
20220227-1545,2022-02-27 15:45:12Z,u01, 72,40,movements,el-ex, rt, d,297767.12652654166, -1.2423002220673014, -0.3719913426569148, -0.22577699116608108, -0.04427076131105423, -0.067231684923172, 0.3348584771156311, -0.8817911744117737, 0.36347129940986633, -0.30055445432662964, 0.08691507577896118, 0.15959998965263367, -0.005964159965515137, -0.2138533343116033, -0.5513524462012911, 0.8062204189078964,0.01690882805534455,-0.8167724609375,0.54241943359375,-0.2989349365234375
20220227-1545,2022-02-27 15:45:12Z,u01, 73,40,movements,el-ex, rt, d,297767.15147054166, -1.2428747272630845, -0.37892079520175137, -0.22781600600992824, -0.2540629804134369, 0.04946223646402359, 0.16141992807388306, -0.8795580863952637, 0.3699180483818054, -0.2992294132709503, 0.10213804244995117, 0.18721085786819458, -0.01771092414855957, -0.21711745582901024, -0.5506771299153292, 0.8057818066055825,0.018177114664768512,-0.7774200439453125,0.55712890625,-0.3169403076171875
20220227-1545,2022-02-27 15:45:12Z,u01, 74,40,movements,el-ex, rt, d,297767.1764155417, -1.244038741960189, -0.3839566233495648, -0.23315045752910143, -0.23810990154743195, 0.007640354335308075, 0.08531196415424347, -0.8781303763389587, 0.3745919466018677, -0.29760369658470154, 0.13427972793579102, 0.17061981558799744, -0.02608102560043335, -0.22053932025149847, -0.5500550480051989, 0.8052894291832204,0.01763093174951491,-0.756683349609375,0.56396484375,-0.311553955078125
20220227-1545,2022-02-27 15:45:12Z,u01, 75,40,movements,el-ex, rt, d,297767.2013595417, -1.2446133012653218, -0.38611556829174154, -0.23590112643563588, 0.007727422751486301, -0.0013331659138202667, 0.015042061917483807, -0.8775331377983093, 0.37659281492233276, -0.29683929681777954, 0.10905474424362183, 0.19254472851753235, 0.012445926666259766, -0.22213162138013792, -0.5497616744537813, 0.8050609814737424,0.017220014069400158,-0.7684783935546875,0.5691375732421875,-0.284393310546875
20220227-1545,2022-02-27 15:45:12Z,u01, 76,40,movements,el-ex, rt, d,297767.2263035417, -1.244065205624895, -0.385323768846674, -0.23257995251842056, 0.2000904083251953, -0.07703098654747009, -0.012343356385827065, -0.8776524662971497, 0.37585917115211487, -0.2974158525466919, 0.14625287055969238, 0.14086449146270752, 0.01982787251472473, -0.22091494167618694, -0.5499896991548575, 0.805217029313056,0.01826419605113777,-0.7274169921875,0.5114593505859375,-0.2872314453125
20220227-1545,2022-02-27 15:45:12Z,u01, 77,40,movements,el-ex, rt, d,297767.2512475417, -1.2423751113132457, -0.39290936696160295, -0.22713429324439008, 0.14362341165542603, -0.07883074879646301, -0.013065071776509285, -0.8744245767593384, 0.3828777074813843, -0.2979705035686493, 0.13026869297027588, 0.09650763869285583, -0.013842940330505371, -0.2223920248032719, -0.5491416409241687, 0.8052822207780849,0.022490568077766615,-0.7441558837890625,0.4793853759765625,-0.3118133544921875
20220227-1545,2022-02-27 15:45:12Z,u01, 78,40,movements,el-ex, rt, d,297767.2761915417, -1.243117803873336, -0.41276701474599653, -0.22501036682060324, -0.02757570520043373, -0.12120390683412552, 0.01211711298674345, -0.867275059223175, 0.40114548802375793, -0.2948154807090759, 0.10845553874969482, 0.12145271897315979, 0.03410378098487854, -0.2295288419624548, -0.5476392698671502, 0.8040850567799336,0.029238281068776073,-0.78265380859375,0.53131103515625,-0.24102783203125
20220227-1545,2022-02-27 15:45:12Z,u01, 79,40,movements,el-ex, rt, d,297767.3011365417, -1.2435805727670066, -0.43293448412846025, -0.22542176618566354, -0.01829938404262066, -0.02891126461327076, -0.10824897885322571, -0.8595746159553528, 0.4195363521575928, -0.2917541563510895, 0.07621902227401733, 0.05398958921432495, 0.03525391221046448, -0.23745916434366612, -0.5456519589512261, 0.8029010564112609,0.03502591794142812,-0.783355712890625,0.4735260009765625,-0.256500244140625
20220227-1545,2022-02-27 15:45:12Z,u01, 80,40,movements,el-ex, rt, d,297767.3260805417, -1.2431041422518416, -0.4355974723273158, -0.22436873553697387, 0.18923985958099365, -0.09005045890808105, -0.025570012629032135, -0.858374834060669, 0.42195215821266174, -0.2918030917644501, 0.14935994148254395, -0.04049772024154663, -0.02101743221282959, -0.2382119681981432, -0.5453013080709932, 0.8028656374368675,0.036170597708278074,-0.703887939453125,0.3567657470703125,-0.318267822265625
20220227-1545,2022-02-27 15:45:12Z,u01, 81,40,movements,el-ex, rt, d,297767.3510245417, -1.2433686703567484, -0.43775008128445136, -0.22015494265195787, 0.014497778378427029, -0.05133015662431717, 0.037405826151371, -0.8575899004936218, 0.4239027798175812, -0.2912832200527191, 0.08323699235916138, -0.03166040778160095, 0.02701619267463684, -0.23789161084895782, -0.5456793731710139, 0.8025942802484367,0.03852251037571375,-0.77435302734375,0.392242431640625,-0.2642669677734375
20220227-1545,2022-02-27 15:45:12Z,u01, 82,40,movements,el-ex, rt, d,297767.37596800004, -1.2473684434583463, -0.441139770132145, -0.22745612367579338, -0.5754745006561279, -0.015842001885175705, 0.008570647798478603, -0.8573808073997498, 0.42697039246559143, -0.28739240765571594, 0.15768909454345703, -0.13902178406715393, -0.015204668045043945, -0.24111993422773667, -0.546044846116434, 0.8014501466205206,0.037065805226112136,-0.668243408203125,0.23431396484375,-0.3138580322265625
20220227-1545,2022-02-27 15:45:12Z,u01, 83,40,movements,el-ex, rt, d,297767.40091200004, -1.2570609863472981, -0.4489162377068115, -0.24316506277595032, -0.6282775402069092, -0.2707039713859558, 0.23702871799468994, -0.856941819190979, 0.43398940563201904, -0.2780357003211975, 0.256752610206604, -0.3878926634788513, -0.08622217178344727, -0.2482331391543631, -0.5471402573204829, 0.7986515521170227,0.03425615643961072,-0.600189208984375,0.0460968017578125,-0.3642578125
20220227-1545,2022-02-27 15:45:12Z,u01, 84,40,movements,el-ex, rt, d,297767.425857, -1.272147761178574, -0.4646709052545506, -0.2615805191869211, -0.8648842573165894, -0.1800614297389984, 0.5303176045417786, -0.8543975949287415, 0.4481286108493805, -0.2630315124988556, 0.054745495319366455, -0.04744809865951538, 0.010239124298095703, -0.25903164566572434, -0.5489871085306688, 0.7939725697459176,0.03351680021824549,-0.84783935546875,0.48028564453125,-0.241668701171875
20220227-1545,2022-02-27 15:45:13Z,u01, 85,40,movements,el-ex, rt, d,297767.450801, -1.2811665011751345, -0.47899815818207875, -0.27622960737196117, -0.4853498339653015, -0.03571171313524246, 0.3158273696899414, -0.8504942059516907, 0.4608903229236603, -0.2534555196762085, 0.01632678508758545, 0.05977007746696472, -0.012795120477676392, -0.26831153168490407, -0.5488908519471005, 0.7909651319456357,0.033194380167484716,-0.83416748046875,0.520660400390625,-0.2662506103515625
20220227-1545,2022-02-27 15:45:13Z,u01, 86,40,movements,el-ex, rt, d,297767.475745, -1.2870867257468468, -0.48819077770108943, -0.2876020572796078, -0.5292692184448242, -0.05138787627220154, 0.20333093404769897, -0.8478763699531555, 0.4690287709236145, -0.247219517827034, 0.09564870595932007, -0.06840932369232178, -0.05284455418586731, -0.2747806501980669, -0.5485306114846786, 0.7890297247450504,0.03227584768245417,-0.750823974609375,0.42364501953125,-0.28973388671875
20220227-1545,2022-02-27 15:45:13Z,u01, 87,40,movements,el-ex, rt, d,297767.500689, -1.2921111937229228, -0.4943713316438408, -0.29685848466073195, -0.16474241018295288, 0.0023937951773405075, 0.11479967832565308, -0.8463047742843628, 0.4744783341884613, -0.24215425550937653, 0.07121932506561279, -0.04625570774078369, -0.04307830333709717, -0.2795437828356352, -0.5484324407422729, 0.7874669435630572,0.03119378968866654,-0.77508544921875,0.42822265625,-0.2852325439453125
20220227-1545,2022-02-27 15:45:13Z,u01, 88,40,movements,el-ex, rt, d,297767.525633, -1.2911121150863722, -0.4967592560042431, -0.2932961665254422, 0.21373921632766724, -0.055506058037281036, 0.1958308070898056, -0.8449710607528687, 0.4765790104866028, -0.2426862120628357, 0.1139070987701416, -0.1401989459991455, -0.02193179726600647, -0.2794716372664475, -0.5482266838013407, 0.7875546554359689,0.03318027806172952,-0.7453460693359375,0.3376922607421875,-0.2490234375
20220227-1545,2022-02-27 15:45:13Z,u01, 89,40,movements,el-ex, rt, d,297767.550578, -1.289481457769918, -0.5019496470953784, -0.2885887641130592, -0.06996261328458786, 0.015117911621928215, 0.3068733215332031, -0.8421863317489624, 0.48113560676574707, -0.24337370693683624, -0.0018383264541625977, -0.04120945930480957, 0.03197836875915527, -0.28014259094680977, -0.5475703353754857, 0.7876316863052542,0.03637636796134175,-0.844024658203125,0.4399261474609375,-0.211395263671875
20220227-1545,2022-02-27 15:45:13Z,u01, 90,40,movements,el-ex, rt, d,297767.575522, -1.2903886078050144, -0.5117786080803871, -0.2933084307964985, -0.4574616849422455, 0.043433237820863724, 0.3126135766506195, -0.8378218412399292, 0.48972874879837036, -0.2412891685962677, -0.0080338716506958, -0.06519871950149536, 0.05397224426269531, -0.28507037062931717, -0.5459764611771054, 0.7869113381607152,0.03761932392141365,-0.8435516357421875,0.4041290283203125,-0.183807373046875
20220227-1545,2022-02-27 15:45:13Z,u01, 91,40,movements,el-ex, rt, d,297767.60046600003, -1.2958697427524384, -0.5208614882331999, -0.3087414335894084, -0.663332998752594, 0.15853959321975708, 0.14726215600967407, -0.8348161578178406, 0.4976275563240051, -0.2354760468006134, -0.020988404750823975, -0.13784056901931763, -0.003842860460281372, -0.29253913282377025, -0.5446859912851647, 0.7851790653640885,0.03509945565530598,-0.855804443359375,0.3597869873046875,-0.23931884765625
20220227-1545,2022-02-27 15:45:13Z,u01, 92,40,movements,el-ex, rt, d,297767.62541000004, -1.2995968897852637, -0.5263974954863537, -0.32120445901707495, -0.32957082986831665, -0.0074506476521492004, 0.12823127210140228, -0.8330208659172058, 0.5024217963218689, -0.23162133991718292, 0.08707982301712036, -0.11349058151245117, -0.05629679560661316, -0.29790295261084965, -0.5435468310006755, 0.7840649765226506,0.0324454638024117,-0.748443603515625,0.419677734375,-0.27252197265625
20220227-1545,2022-02-27 15:45:13Z,u01, 93,40,movements,el-ex, rt, d,297767.65035400004, -1.300409048647034, -0.5316316053087318, -0.3232799106144824, 0.046740733087062836, 0.04529478773474693, 0.2217523604631424, -0.8306632041931152, 0.5069404244422913, -0.2302391678094864, -0.022013187408447266, -0.11916881799697876, -0.01689225435256958, -0.300371723371306, -0.5428233993540401, 0.7835862258243018,0.03334983182300788,-0.8526763916015625,0.3877716064453125,-0.24713134765625
20220227-1545,2022-02-27 15:45:13Z,u01, 94,40,movements,el-ex, rt, d,297767.675299, -1.2983999424910182, -0.5367759659756016, -0.31963806615376855, 0.04111471027135849, -0.06119749695062637, 0.2886204123497009, -0.8276762366294861, 0.5113680362701416, -0.2312029004096985, 0.06708669662475586, -0.2208559513092041, -0.03613114356994629, -0.30130332860882536, -0.5418623908750542, 0.7837744541899134,0.03604267357697294,-0.7488861083984375,0.2682037353515625,-0.260955810546875
20220227-1545,2022-02-27 15:45:13Z,u01, 95,40,movements,el-ex, rt, d,297767.700243, -1.3018379286282753, -0.5440201863945284, -0.31860102011342556, -0.206685870885849, -0.23870378732681274, 0.3301372826099396, -0.8248732089996338, 0.517579972743988, -0.227365642786026, 0.050916969776153564, -0.2516345977783203, -0.012349948287010193, -0.3036080774944083, -0.5423461225813666, 0.7823988604774609,0.0391767793102219,-0.773956298828125,0.2659454345703125,-0.239715576171875
20220227-1545,2022-02-27 15:45:13Z,u01, 96,40,movements,el-ex, rt, d,297767.725187, -1.3109516589652828, -0.5542430541007554, -0.3220042325892113, -0.19620905816555023, -0.33632180094718933, 0.4382348656654358, -0.8217543363571167, 0.5262998342514038, -0.21846768260002136, 0.03542327880859375, -0.23687118291854858, 0.007865875959396362, -0.30806937867356166, -0.5439296055108159, 0.7793834765615517,0.04236895127479584,-0.8174591064453125,0.320831298828125,-0.204345703125
20220227-1545,2022-02-27 15:45:13Z,u01, 97,40,movements,el-ex, rt, d,297767.750131, -1.3148589629163083, -0.5665841252506513, -0.32234858937748584, -0.06863878667354584, 0.009351568296551704, 0.5220659375190735, -0.8162558078765869, 0.5367530584335327, -0.21359461545944214, -0.07240080833435059, -0.04783099889755249, -0.00013530254364013672, -0.312545595358448, -0.5436156173585569, 0.7775750852045218,0.0466301374340381,-0.8886566162109375,0.488922119140625,-0.2137298583984375
20220227-1545,2022-02-27 15:45:13Z,u01, 98,40,movements,el-ex, rt, d,297767.775075, -1.3146210943839198, -0.5784247502717625, -0.3218730465270224, -0.28596869111061096, 0.005691586062312126, 0.4228459298610687, -0.8099996447563171, 0.5467056035995483, -0.21216340363025665, 0.00941687822341919, -0.15826267004013062, -0.04949435591697693, -0.31669619232614094, -0.5418688186874573, 0.776878291533883,0.0504151782636148,-0.826171875,0.372314453125,-0.2565155029296875
20220227-1545,2022-02-27 15:45:13Z,u01, 99,40,movements,el-ex, rt, d,297767.80002, -1.318452290256438, -0.5900877141203109, -0.33141187488378987, -0.4504062831401825, 0.10185506939888, 0.33470213413238525, -0.8045774698257446, 0.556433916091919, -0.20745249092578888, -0.12301957607269287, -0.12435078620910645, 0.04081118106842041, -0.32337103074494217, -0.5400971503227866, 0.7753284221171787,0.05091343651646785,-0.9275970458984375,0.4320831298828125,-0.1666412353515625
20220227-1545,2022-02-27 15:45:13Z,u01, 100,40,movements,el-ex, rt, d,297767.824964, -1.3205529229940078, -0.5999828835472988, -0.3409324236236564, -0.33832085132598877, 0.14373794198036194, 0.33665385842323303, -0.7996374368667603, 0.5646283626556396, -0.2043883055448532, -0.061980485916137695, -0.07929211854934692, -0.0016663968563079834, -0.3294195999446674, -0.5378555351157412, 0.7743589925009793,0.050617948401455615,-0.8366851806640625,0.47979736328125,-0.2249298095703125
20220227-1545,2022-02-27 15:45:13Z,u01, 101,40,movements,el-ex, rt, d,297767.84990800003, -1.321520260209432, -0.6090563778984548, -0.34740017517963695, -0.2812570333480835, 0.06525957584381104, 0.322327584028244, -0.7948371767997742, 0.5720937848091125, -0.2023424357175827, -0.034600019454956055, -0.006053805351257324, 0.02854481339454651, -0.33435871507669984, -0.5357546379362835, 0.7736681241697736,0.05107599964740217,-0.829437255859375,0.5660400390625,-0.173797607421875
20220227-1545,2022-02-27 15:45:13Z,u01, 102,40,movements,el-ex, rt, d,297767.87485200004, -1.31995798283018, -0.6160318153292998, -0.35022835949505415, 0.003379879519343376, 0.20980024337768555, 0.13506287336349487, -0.7906351685523987, 0.577800989151001, -0.20258848369121552, -0.15891927480697632, 0.04989981651306152, 0.09141290187835693, -0.3376295061647195, -0.5335841753909387, 0.7736947004761912,0.05187246702260262,-0.936920166015625,0.6323394775390625,-0.1159515380859375
20220227-1545,2022-02-27 15:45:13Z,u01, 103,40,movements,el-ex, rt, d,297767.89979600004, -1.3122958291136777, -0.6151664352081222, -0.3464751874484616, 0.15382470190525055, 0.20051953196525574, -0.08850643038749695, -0.7895427346229553, 0.5770944356918335, -0.20876817405223846, 0.0014568567276000977, -0.01892799139022827, -0.020357832312583923, -0.3365213719351231, -0.5313843034590497, 0.7756958413556387,0.05176855650368595,-0.7880859375,0.55816650390625,-0.2291259765625
20220227-1545,2022-02-27 15:45:13Z,u01, 104,40,movements,el-ex, rt, d,297767.924741, -1.3064016040898758, -0.6107067979518762, -0.34407734047872074, 0.15539416670799255, 0.20118172466754913, -0.14095459878444672, -0.7907748818397522, 0.5734466314315796, -0.21408870816230774, -0.05176961421966553, -0.09084165096282959, 0.03556084632873535, -0.3344445102324812, -0.5301910176316187, 0.7775022952402446,0.05034401946933498,-0.867340087890625,0.46844482421875,-0.157135009765625
20220227-1545,2022-02-27 15:45:13Z,u01, 105,40,movements,el-ex, rt, d,297767.949685, -1.2932933686539099, -0.6054741093579079, -0.3338701246741228, 0.6002249121665955, 0.3681526184082031, -0.05836544185876846, -0.7907758951187134, 0.5691519975662231, -0.22525466978549957, -0.04766404628753662, -0.06561195850372314, 0.0882154107093811, -0.3301968656914041, -0.5275819294617772, 0.7810711902193517,0.05054897400716818,-0.83843994140625,0.5035400390625,-0.1370391845703125
20220227-1545,2022-02-27 15:45:13Z,u01, 106,40,movements,el-ex, rt, d,297767.974629, -1.2748355270889047, -0.5992281412582706, -0.3179508563683408, 0.37228167057037354, 0.3485654294490814, -0.11988646537065506, -0.7898687124252319, 0.5640052556991577, -0.24084363877773285, 0.05610394477844238, -0.08594733476638794, 0.02273443341255188, -0.32421780160907937, -0.5238902557837253, 0.7859580486567912,0.05188308120509105,-0.730682373046875,0.46478271484375,-0.23272705078125
20220227-1545,2022-02-27 15:45:13Z,u01, 107,40,movements,el-ex, rt, d,297767.999573, -1.265746438547903, -0.5950358109680064, -0.31660319624371, -0.15695130825042725, 0.3468998670578003, -0.15427592396736145, -0.7898954153060913, 0.5605384111404419, -0.24872073531150818, -0.06107199192047119, -0.1557990312576294, 0.03547912836074829, -0.32256183048284404, -0.5211463320011644, 0.7886007419132391,0.04969181407889739,-0.8509674072265625,0.4047393798828125,-0.2132415771484375
20220227-1545,2022-02-27 15:45:13Z,u01, 108,40,movements,el-ex, rt, d,297768.024517, -1.2605149418203385, -0.5924015414213503, -0.3242112923960881, -0.18435709178447723, 0.3988341689109802, -0.16203850507736206, -0.7899868488311768, 0.5583549737930298, -0.25329962372779846, -0.06116378307342529, -0.08472210168838501, 0.040241092443466187, -0.3236954228447619, -0.5182388046995527, 0.7903287477167124,0.045059688984808,-0.83453369140625,0.487579345703125,-0.2322235107421875
20220227-1545,2022-02-27 15:45:13Z,u01, 109,40,movements,el-ex, rt, d,297768.049462, -1.254483431861178, -0.5884919370626548, -0.32920060248684263, -0.09338352084159851, 0.27441659569740295, -0.2077026665210724, -0.790513277053833, 0.5551072955131531, -0.25873687863349915, 0.010514557361602783, -0.051506221294403076, -0.017584621906280518, -0.323676637776191, -0.515620984197735, 0.7922699501036534,0.040949392932381146,-0.779998779296875,0.50360107421875,-0.2763214111328125
20220227-1545,2022-02-27 15:45:13Z,u01, 110,40,movements,el-ex, rt, d,297768.074406, -1.249662290446442, -0.5835856321976937, -0.3326660063720566, 0.06380610167980194, 0.2866695523262024, -0.21750390529632568, -0.7918314933776855, 0.5510196685791016, -0.26340150833129883, -0.09864091873168945, -0.06261634826660156, 0.010609149932861328, -0.3228540955156224, -0.5138720410168394, 0.793918292637223,0.0373440343549446,-0.89581298828125,0.491943359375,-0.2469635009765625
20220227-1545,2022-02-27 15:45:13Z,u01, 111,40,movements,el-ex, rt, d,297768.09935000003, -1.2389387807432675, -0.5752078791231829, -0.3267432699278891, 0.4960063695907593, 0.3269359767436981, -0.25924360752105713, -0.7932981252670288, 0.5440092086791992, -0.2733718454837799, -0.05077230930328369, -0.05273723602294922, -0.01036536693572998, -0.31842724353654506, -0.5117794088039626, 0.7971353732034536,0.035513338009709405,-0.8440704345703125,0.49127197265625,-0.2837371826171875
20220227-1545,2022-02-27 15:45:13Z,u01, 112,40,movements,el-ex, rt, d,297768.12429400004, -1.2255098275199106, -0.5635130224432506, -0.315505382243352, 0.4089868366718292, 0.24775895476341248, -0.3549967110157013, -0.7954880595207214, 0.5341593623161316, -0.28613391518592834, 0.02760469913482666, -0.08008831739425659, -0.023207545280456543, -0.31142232697148786, -0.5098521067074127, 0.8011732469909374,0.03447359147695439,-0.7700347900390625,0.441070556640625,-0.314971923828125
20220227-1545,2022-02-27 15:45:13Z,u01, 113,40,movements,el-ex, rt, d,297768.14923800004, -1.2182351866434327, -0.5524681091876636, -0.31192316231274303, 0.1542809158563614, 0.20392490923404694, -0.32948386669158936, -0.7988738417625427, 0.5247897505760193, -0.29393255710601807, -0.0326690673828125, -0.10627168416976929, 0.01983886957168579, -0.30647106901161913, -0.5090277126348274, 0.8037217933446656,0.03158453186641397,-0.83154296875,0.41851806640625,-0.2740936279296875
20220227-1545,2022-02-27 15:45:13Z,u01, 114,40,movements,el-ex, rt, d,297768.174183, -1.2120028078714382, -0.5432548719824662, -0.3092453893210943, 0.31133559346199036, 0.19671060144901276, -0.2723405063152313, -0.8015197515487671, 0.5169249773025513, -0.30059078335762024, -0.03870558738708496, -0.091403067111969, 0.021202296018600464, -0.30239719507712515, -0.5081934101739498, 0.8058854603416906,0.029053888875700318,-0.8415679931640625,0.4250640869140625,-0.285003662109375
20220227-1545,2022-02-27 15:45:13Z,u01, 115,40,movements,el-ex, rt, d,297768.199127, -1.202388343532861, -0.5330032138913066, -0.30138678510198047, 0.4361715614795685, 0.2345951497554779, -0.2808336019515991, -0.8034943342208862, 0.5081222653388977, -0.3101751506328583, 0.017651498317718506, -0.10252845287322998, -0.010106891393661499, -0.29663636557656503, -0.5068720678566301, 0.8088957223539143,0.027843788487557253,-0.7858428955078125,0.4055938720703125,-0.320281982421875
20220227-1545,2022-02-27 15:45:13Z,u01, 116,40,movements,el-ex, rt, d,297768.224071, -1.192487776845656, -0.5218506885779285, -0.29279041291265956, 0.4078648090362549, 0.24482327699661255, -0.3153367042541504, -0.8056002855300903, 0.49848535656929016, -0.32018807530403137, 0.007565677165985107, -0.09954437613487244, 0.015332728624343872, -0.29031859957542894, -0.5055898326704642, 0.8120229514141646,0.02669616273094272,-0.811859130859375,0.407379150390625,-0.309112548828125
20220227-1545,2022-02-27 15:45:13Z,u01, 117,40,movements,el-ex, rt, d,297768.249015, -1.1823885587524068, -0.5098911616858351, -0.2851511952255288, 0.41018545627593994, 0.23813147842884064, -0.3621165454387665, -0.8077857494354248, 0.48808225989341736, -0.3305417597293854, 0.04586869478225708, -0.08654725551605225, 0.002691417932510376, -0.28390102659857674, -0.5041124088401698, 0.8152590269031251,0.024971123648377502,-0.7619171142578125,0.4015350341796875,-0.327850341796875
20220227-1545,2022-02-27 15:45:13Z,u01, 118,40,movements,el-ex, rt, d,297768.273959, -1.172655312787969, -0.49683689299103323, -0.27703779288218555, 0.5618271827697754, 0.24276399612426758, -0.3523193895816803, -0.8103347420692444, 0.4766472578048706, -0.3408297598361969, 0.02829134464263916, -0.0923852026462555, 0.01717555522918701, -0.27689690224061625, -0.5029047890070042, 0.8184583367190285,0.023254999462822556,-0.7906951904296875,0.3875885009765625,-0.3218994140625
20220227-1545,2022-02-27 15:45:13Z,u01, 119,40,movements,el-ex, rt, d,297768.298904, -1.1585185033100436, -0.48050395345782326, -0.2613680758699385, 0.9477620124816895, 0.2956628203392029, -0.38324007391929626, -0.812460720539093, 0.46222612261772156, -0.3553232252597809, 0.018301844596862793, -0.06864094734191895, -0.006600081920623779, -0.26671733791992347, -0.5011988169753727, 0.8228745001196213,0.023220654185132583,-0.794158935546875,0.393585205078125,-0.3619232177734375
20220227-1545,2022-02-27 15:45:13Z,u01, 120,40,movements,el-ex, rt, d,297768.323848, -1.1418485721077114, -0.45987506434314696, -0.24015767667789584, 0.9790069460868835, 0.2772173583507538, -0.49272966384887695, -0.8149241209030151, 0.44383615255355835, -0.3727039694786072, 0.04206645488739014, -0.07669442892074585, -0.0404735803604126, -0.2534207850426889, -0.49942558853061614, 0.8281118403899469,0.024142384529294347,-0.7746734619140625,0.36370849609375,-0.4188690185546875
20220227-1545,2022-02-27 15:45:13Z,u01, 121,40,movements,el-ex, rt, d,297768.34879200003, -1.1288638051531588, -0.43934366173334727, -0.2255310966572222, 0.6710630655288696, 0.2612677812576294, -0.4974822700023651, -0.818081796169281, 0.4253455400466919, -0.38707008957862854, 0.008450508117675781, -0.10257646441459656, -0.02214011549949646, -0.24168872250523457, -0.49804770432948886, 0.8324687219071709,0.023038903885161666,-0.80963134765625,0.3227691650390625,-0.409210205078125
20220227-1545,2022-02-27 15:45:13Z,u01, 122,40,movements,el-ex, rt, d,297768.37373675004, -1.1166882637578888, -0.4213856947792604, -0.21322544682353342, 0.823043167591095, 0.3015093207359314, -0.40824681520462036, -0.8200412392616272, 0.40902531147003174, -0.4002882242202759, -0.024990439414978027, -0.09513676166534424, -0.002269148826599121, -0.2314973677831922, -0.4962507994157598, 0.8364591692911578,0.0219134476753039,-0.84649658203125,0.3173065185546875,-0.4001617431640625
20220227-1545,2022-02-27 15:45:13Z,u01, 123,40,movements,el-ex, rt, d,297768.39868075, -1.102001186478973, -0.4016923672769913, -0.19576873559812497, 0.9279948472976685, 0.3033394515514374, -0.4006120562553406, -0.8211016654968262, 0.39097654819488525, -0.4158478081226349, -0.013294696807861328, -0.07736268639564514, -0.045074462890625, -0.21929545037065606, -0.4939489813191221, 0.8410851227826722,0.02235481458309524,-0.8343963623046875,0.3136138916015625,-0.4609222412109375
20220227-1545,2022-02-27 15:45:13Z,u01, 124,40,movements,el-ex, rt, d,297768.42362575, -1.0894055130832223, -0.3835841017730595, -0.18096009142966646, 0.6817359328269958, 0.24524199962615967, -0.38157185912132263, -0.8219399452209473, 0.3742465078830719, -0.4293648898601532, -0.02736419439315796, -0.07134431600570679, -0.0859396755695343, -0.2083265530541026, -0.49185119886663253, 0.8450892878566155,0.022504196188625702,-0.8493194580078125,0.299835205078125,-0.5126953125
20220227-1545,2022-02-27 15:45:14Z,u01, 125,40,movements,el-ex, rt, d,297768.44856975, -1.0819481622808502, -0.36909861258925575, -0.17442990294774086, 0.3231757581233978, 0.17813533544540405, -0.39259207248687744, -0.8234153985977173, 0.3607749044895172, -0.4379824697971344, -0.058313727378845215, -0.08372107148170471, -0.012075543403625488, -0.20079727662867738, -0.49060087196343355, 0.8476798289997728,0.020741193066712016,-0.8817291259765625,0.2770538330078125,-0.4500579833984375
20220227-1545,2022-02-27 15:45:14Z,u01, 126,40,movements,el-ex, rt, d,297768.47351375, -1.0769074816726796, -0.35660165031281815, -0.1733284757384452, 0.2772982120513916, 0.22710645198822021, -0.4271067976951599, -0.8251027464866638, 0.34909170866012573, -0.44423019886016846, -0.1060037612915039, -0.04341241717338562, 0.008088231086730957, -0.19537343572009697, -0.4896060838227646, 0.8495938198734629,0.01747892234902293,-0.9292755126953125,0.308349609375,-0.4506988525390625
20220227-1545,2022-02-27 15:45:14Z,u01, 127,40,movements,el-ex, rt, d,297768.49845775, -1.069604421154631, -0.3426892338124858, -0.17049529402906602, 0.4226512610912323, 0.2874893248081207, -0.4118615984916687, -0.8260161876678467, 0.33602118492126465, -0.45253390073776245, -0.050891101360321045, -0.054343998432159424, -0.022197574377059937, -0.18892683928548434, -0.48789312233686094, 0.8520911871043175,0.014404160209075312,-0.8769073486328125,0.28167724609375,-0.4747314453125
20220227-1545,2022-02-27 15:45:14Z,u01, 128,40,movements,el-ex, rt, d,297768.52340175, -1.0599603353525113, -0.3277984988482597, -0.16466058035669032, 0.48203742504119873, 0.32136964797973633, -0.4000229239463806, -0.8258872032165527, 0.321959525346756, -0.46287408471107483, -0.007044315338134766, -0.04940706491470337, 0.01924002170562744, -0.18132109209725644, -0.4854746376289893, 0.8551539073794368,0.012199041722654402,-0.825408935546875,0.282623291015625,-0.4376678466796875
20220227-1545,2022-02-27 15:45:14Z,u01, 129,40,movements,el-ex, rt, d,297768.54834675003, -1.0505694328821993, -0.3136315708962406, -0.1599825645302435, 0.341624915599823, 0.33607515692710876, -0.4083191156387329, -0.8253791928291321, 0.3085150718688965, -0.47282931208610535, -0.031920552253723145, -0.024350672960281372, 0.04570525884628296, -0.1742645805952025, -0.482925661529942, 0.858090303480422,0.009779549080705552,-0.8572998046875,0.2841644287109375,-0.4271240234375
20220227-1545,2022-02-27 15:45:14Z,u01, 130,40,movements,el-ex, rt, d,297768.57329075004, -1.0426051148655038, -0.3008972538064934, -0.16062895684918435, 0.1367700845003128, 0.325692355632782, -0.46737465262413025, -0.8249139189720154, 0.2963772714138031, -0.48132890462875366, -0.055487632751464844, -0.02934849262237549, 0.04666697978973389, -0.1690572450739977, -0.48036985266300336, 0.8606003276116124,0.005616324452684562,-0.8917236328125,0.25836181640625,-0.4418487548828125
20220227-1545,2022-02-27 15:45:14Z,u01, 131,40,movements,el-ex, rt, d,297768.59823475004, -1.03471108470651, -0.28814130040399427, -0.1636947802521747, 0.21017703413963318, 0.3839087188243866, -0.49736616015434265, -0.8242719769477844, 0.28417065739631653, -0.4897170066833496, -0.0927354097366333, -0.04300549626350403, 0.024888455867767334, -0.16438196164942157, -0.4776191659366956, 0.863051722918803,0.00045054121730803143,-0.9170074462890625,0.2411651611328125,-0.4648284912109375
20220227-1545,2022-02-27 15:45:14Z,u01, 132,40,movements,el-ex, rt, d,297768.62317875004, -1.0243617376641063, -0.27296795910613647, -0.16248963781328982, 0.4714089632034302, 0.4083236753940582, -0.4937247037887573, -0.8227491974830627, 0.26959067583084106, -0.5004045367240906, -0.08641517162322998, -0.025999397039413452, -0.004783511161804199, -0.15761257853195498, -0.4742952875971982, 0.866134645925455,-0.0036229956119634976,-0.9062652587890625,0.24188232421875,-0.5175323486328125
20220227-1545,2022-02-27 15:45:14Z,u01, 133,40,movements,el-ex, rt, d,297768.64812275, -1.0139243332608867, -0.25572691828765004, -0.1593347025637401, 0.3734445571899414, 0.3483380377292633, -0.5127636790275574, -0.8213056325912476, 0.2529487609863281, -0.5113453269004822, -0.04402029514312744, -0.05444720387458801, -0.0462261438369751, -0.1494473743441947, -0.4711611395067699, 0.8692638164168258,-0.007290112980429031,-0.865325927734375,0.1985015869140625,-0.5575714111328125
20220227-1545,2022-02-27 15:45:14Z,u01, 134,40,movements,el-ex, rt, d,297768.67306775, -1.0077027173192445, -0.2416738970629273, -0.16204171546689614, 0.06183173879981041, 0.21690422296524048, -0.5110461115837097, -0.8210333585739136, 0.23932820558547974, -0.518291711807251, -0.056728482246398926, -0.054025501012802124, -0.0230138897895813, -0.14400617695864884, -0.46916561116216726, 0.8712022652199054,-0.012350439195066898,-0.892364501953125,0.1848297119140625,-0.5353240966796875
20220227-1545,2022-02-27 15:45:14Z,u01, 135,40,movements,el-ex, rt, d,297768.69801175, -1.0040724930662257, -0.22841538646279655, -0.1652635950443529, 0.3794316351413727, 0.15239493548870087, -0.5046111345291138, -0.8217513561248779, 0.2264343500137329, -0.5229264497756958, -0.1085922122001648, -0.03540961444377899, -0.014747440814971924, -0.13901602008490466, -0.4682000743295709, 0.8724484398362509,-0.017230098360013102,-0.9303436279296875,0.1910247802734375,-0.5376739501953125
20220227-1545,2022-02-27 15:45:14Z,u01, 136,40,movements,el-ex, rt, d,297768.72295575, -0.9999645195101006, -0.21017819465747806, -0.16083187856099593, 0.6155508756637573, 0.09523884952068329, -0.4937264323234558, -0.822934627532959, 0.2086341828107834, -0.5284414887428284, -0.09231805801391602, 0.014876574277877808, -0.0708475112915039, -0.13005632022003735, -0.4678296913150539, 0.8739687743631468,-0.019981789836637842,-0.91357421875,0.2209930419921875,-0.6032867431640625
20220227-1545,2022-02-27 15:45:14Z,u01, 137,40,movements,el-ex, rt, d,297768.74789975, -0.9986912673087744, -0.1924201289215966, -0.15774709780093168, 0.2883356511592865, -0.02392502874135971, -0.528850793838501, -0.825246274471283, 0.19123491644859314, -0.5314111113548279, -0.12409448623657227, -0.0017055124044418335, -0.05985170602798462, -0.12162507971894748, -0.4685101744058941, 0.8747438096482919,-0.022994863195614834,-0.9493408203125,0.1895294189453125,-0.5912628173828125
20220227-1545,2022-02-27 15:45:14Z,u01, 138,40,movements,el-ex, rt, d,297768.77284375, -1.000972134675489, -0.17873593555083994, -0.16233032765359237, 0.07262077182531357, -0.07769244909286499, -0.5530757904052734, -0.8285821676254272, 0.17778578400611877, -0.530889630317688, -0.18852287530899048, 0.029153868556022644, -0.03833949565887451, -0.1167940941615597, -0.47001523804004103, 0.8744436558559019,-0.02816283210622006,-1.02716064453125,0.210479736328125,-0.5720977783203125
20220227-1545,2022-02-27 15:45:14Z,u01, 139,40,movements,el-ex, rt, d,297768.79778875003, -1.0030843888361503, -0.16366813618533196, -0.16558165558764945, 0.36017099022865295, -0.045019328594207764, -0.5659652948379517, -0.8318660855293274, 0.1629384160041809, -0.5305185914039612, -0.20875275135040283, 0.058558136224746704, -0.056242942810058594, -0.11105551639983927, -0.4716008632296598, 0.8741645051904321,-0.03310338544119734,-1.040618896484375,0.22149658203125,-0.586761474609375
20220227-1545,2022-02-27 15:45:14Z,u01, 140,40,movements,el-ex, rt, d,297768.82273275004, -1.0038669422733406, -0.14619470422007716, -0.16415621494005164, 0.3736978769302368, -0.040882572531700134, -0.5182542204856873, -0.834555447101593, 0.14567449688911438, -0.5313154458999634, -0.1972132921218872, 0.09036369621753693, -0.09447795152664185, -0.10314837373299104, -0.47297217871655967, 0.8742502856399073,-0.03666230147014937,-1.0431671142578125,0.2338714599609375,-0.6237640380859375
20220227-1545,2022-02-27 15:45:14Z,u01, 141,40,movements,el-ex, rt, d,297768.84767675004, -1.0052746976589386, -0.13431676865396602, -0.16942867891668578, -0.35830244421958923, -0.014164743945002556, -0.4752085506916046, -0.8367045521736145, 0.13391326367855072, -0.5310298800468445, -0.2871052026748657, 0.07299590110778809, -0.08577620983123779, -0.09926625108152023, -0.47395281841255454, 0.8739395620431747,-0.04176802168654248,-1.123809814453125,0.2069091796875,-0.6168060302734375
20220227-1545,2022-02-27 15:45:14Z,u01, 142,40,movements,el-ex, rt, d,297768.87262075004, -1.008914223957484, -0.1360287543749897, -0.1927852797904154, -1.086739420890808, 0.0026115085929632187, -0.3301464915275574, -0.838436484336853, 0.13560962677001953, -0.5278582572937012, -0.3557621240615845, 0.09412667155265808, -0.0849805474281311, -0.10563021573686271, -0.4742500753915965, 0.8725198156478993,-0.05136454537890617,-1.210052490234375,0.24267578125,-0.63348388671875
20220227-1545,2022-02-27 15:45:14Z,u01, 143,40,movements,el-ex, rt, d,297768.89756475, -1.0118672557599715, -0.1400246693596543, -0.21416881234515417, -0.49976712465286255, 0.00817105546593666, -0.2841566801071167, -0.8395254611968994, 0.1395675390958786, -0.5250884890556335, -0.4202858805656433, 0.1856124848127365, -0.20193177461624146, -0.11251051624179759, -0.4741277734707826, 0.8712047138174273,-0.05955339970706641,-1.2598114013671875,0.3251800537109375,-0.727020263671875
20220227-1545,2022-02-27 15:45:14Z,u01, 144,40,movements,el-ex, rt, d,297768.92250975, -1.013478779833294, -0.13642402520360808, -0.2251042360869942, -0.26929354667663574, -0.003120681270956993, -0.33884570002555847, -0.8407915830612183, 0.13600124418735504, -0.5239972472190857, -0.532468855381012, 0.14279206097126007, -0.2576647400856018, -0.11359939910329472, -0.4744434052184976, 0.8704943289763492,-0.06510157183507542,-1.404693603515625,0.280426025390625,-0.79180908203125
20220227-1545,2022-02-27 15:45:14Z,u01, 145,40,movements,el-ex, rt, d,297768.94745375, -1.016448544190277, -0.13460443651941328, -0.23861709104722403, -0.6900666356086731, -0.09665583074092865, -0.15869471430778503, -0.8425530195236206, 0.13419833779335022, -0.5216274261474609, -0.6187201142311096, 0.1346615105867386, -0.33471107482910156, -0.11612381710171302, -0.47508057818292904, 0.8693311760459141,-0.07125293684548456,-1.461273193359375,0.26885986328125,-0.8563385009765625
20220227-1545,2022-02-27 15:45:14Z,u01, 146,40,movements,el-ex, rt, d,297768.97239775, -1.0233759835592267, -0.13920765757055786, -0.25699254824457507, -0.8746813535690308, -0.2527441680431366, 0.09021424502134323, -0.8456099629402161, 0.13875848054885864, -0.5154512524604797, -0.6907669305801392, 0.10719794034957886, -0.37422776222229004, -0.12273321594152195, -0.476666477688234, 0.8670009037857684,-0.07768653868389241,-1.5418701171875,0.2458038330078125,-0.9037628173828125
20220227-1545,2022-02-27 15:45:14Z,u01, 147,40,movements,el-ex, rt, d,297768.99734175, -1.0346273416902734, -0.1522035217534397, -0.26862758483908816, -0.46544039249420166, -0.5151927471160889, 0.3821428418159485, -0.8497337698936462, 0.15161654353141785, -0.5049406886100769, -0.7795692682266235, 0.19629909098148346, -0.40474265813827515, -0.1315181993951747, -0.4798256274022149, 0.8638648591200178,-0.07879045092160347,-1.629302978515625,0.3479156494140625,-0.9096832275390625
20220227-1545,2022-02-27 15:45:14Z,u01, 148,40,movements,el-ex, rt, d,297769.02228575, -1.0508794645536006, -0.1658784275211789, -0.2671427780254393, -0.06140480935573578, -0.8048536777496338, 0.6005808711051941, -0.8559479117393494, 0.1651187688112259, -0.48998862504959106, -0.7949156165122986, 0.2167629450559616, -0.4146134555339813, -0.13760025903104417, -0.48587226001431205, 0.8599842475454863,-0.07362979099617772,-1.6566162109375,0.3835296630859375,-0.8911895751953125
20220227-1545,2022-02-27 15:45:14Z,u01, 149,40,movements,el-ex, rt, d,297769.04723075003, -1.0727448588447963, -0.18182982208189416, -0.2626230941586734, -0.32816994190216064, -1.0048410892486572, 0.7116056084632874, -0.8640322685241699, 0.18082952499389648, -0.4698392450809479, -0.8126034736633301, 0.20561453700065613, -0.3184603452682495, -0.14400208305318726, -0.4943114196331223, 0.8547234701829731,-0.06608626269688644,-1.6766357421875,0.386444091796875,-0.788299560546875
20220227-1545,2022-02-27 15:45:14Z,u01, 150,40,movements,el-ex, rt, d,297769.07217475004, -1.0989414864834801, -0.20441421773666263, -0.26409899488988464, -0.6017558574676514, -1.0621544122695923, 0.8359375596046448, -0.8721818923950195, 0.20299360156059265, -0.44507575035095215, -0.824397087097168, 0.19516924023628235, -0.3055346608161926, -0.1546550672045295, -0.5035314611322873, 0.847980615528459,-0.05887952818283787,-1.6810455322265625,0.3994293212890625,-0.744903564453125
20220227-1545,2022-02-27 15:45:14Z,u01, 151,40,movements,el-ex, rt, d,297769.09711875004, -1.1269391924659893, -0.23172336416969921, -0.26777928928672734, -0.5737085342407227, -1.113436222076416, 1.0110387802124023, -0.8789639472961426, 0.2296551614999771, -0.41794833540916443, -0.7268099188804626, 0.1547747403383255, -0.28688564896583557, -0.1676785955225795, -0.5127472229609806, 0.8404659178688114,-0.05090337022789271,-1.60577392578125,0.384429931640625,-0.704833984375
20220227-1545,2022-02-27 15:45:14Z,u01, 152,40,movements,el-ex, rt, d,297769.12206275004, -1.1566895971457212, -0.2631190263280141, -0.2715791680050142, -0.7876031994819641, -1.1837714910507202, 1.1525774002075195, -0.8839686512947083, 0.26009348034858704, -0.3885240852832794, -0.6753727793693542, 0.08306142687797546, -0.24915599822998047, -0.18219558842146866, -0.5220562503429182, 0.8321983234168904,-0.04132910399879608,-1.5531463623046875,0.3267822265625,-0.62713623046875
20220227-1545,2022-02-27 15:45:14Z,u01, 153,40,movements,el-ex, rt, d,297769.14700675, -1.190563048812173, -0.29820025315524135, -0.28265104705989746, -1.1386595964431763, -1.273633599281311, 1.0554556846618652, -0.8875969648361206, 0.29380035400390625, -0.3547576069831848, -0.6485205888748169, -0.0031967759132385254, -0.21177077293395996, -0.19987764876579206, -0.5316672973175425, 0.8223737472075359,-0.0328663216863645,-1.5361175537109375,0.2906036376953125,-0.5665283203125
20220227-1545,2022-02-27 15:45:14Z,u01, 154,40,movements,el-ex, rt, d,297769.17195175, -1.228659323205491, -0.33277422902259307, -0.30367258042598455, -1.2066112756729126, -1.291123628616333, 0.996123194694519, -0.8903592228889465, 0.32666632533073425, -0.3170953094959259, -0.5108247995376587, -0.04097604751586914, -0.2566504180431366, -0.21976149449625196, -0.5414399657128108, 0.8110425079455639,-0.027524299089728477,-1.347442626953125,0.2827606201171875,-0.5758056640625
20220227-1545,2022-02-27 15:45:14Z,u01, 155,40,movements,el-ex, rt, d,297769.19689575, -1.267546318498117, -0.3625866350383773, -0.32048050684715307, -0.7666481137275696, -1.3739045858383179, 0.8788752555847168, -0.8923201560974121, 0.3546938896179199, -0.2792077362537384, -0.2992539405822754, -0.12936735153198242, -0.259641170501709, -0.23636422981070881, -0.5518406331790267, 0.7994751002380542,-0.02105748981537575,-1.1915740966796875,0.2253265380859375,-0.538848876953125
20220227-1545,2022-02-27 15:45:14Z,u01, 156,40,movements,el-ex, rt, d,297769.22183975, -1.3044019085583116, -0.38854577150955244, -0.3299399184702529, -0.5184576511383057, -1.2821015119552612, 0.9360013008117676, -0.8928166031837463, 0.3788429796695709, -0.2436320036649704, -0.2733362913131714, -0.1818215250968933, -0.21729028224945068, -0.2491437303693079, -0.5622378465252689, 0.7884543728104311,-0.01248043238180735,-1.14361572265625,0.18896484375,-0.4372711181640625
20220227-1545,2022-02-27 15:45:14Z,u01, 157,40,movements,el-ex, rt, d,297769.24678375, -1.3357779034645767, -0.4155222308626739, -0.32957295195295033, 0.16041746735572815, -1.2458590269088745, 1.1948683261871338, -0.8897550106048584, 0.40366777777671814, -0.21304576098918915, -0.12355077266693115, -0.26821547746658325, -0.10282650589942932, -0.25916595996193925, -0.5712356100679471, 0.7787958338482505,-6.09417353930608e-06,-1.0133056640625,0.1354522705078125,-0.3158721923828125
20220227-1545,2022-02-27 15:45:14Z,u01, 158,40,movements,el-ex, rt, d,297769.27172775, -1.353964537121724, -0.44083839264621494, -0.303479487294744, 1.0831743478775024, -1.0610636472702026, 1.1031523942947388, -0.883216917514801, 0.42669785022735596, -0.19456838071346283, -0.09638208150863647, -0.32316696643829346, 0.006244361400604248, -0.2608644197134711, -0.5785028632760327, 0.7725718632906545,0.020418940261600793,-0.9564971923828125,0.0816497802734375,-0.1602935791015625
20220227-1545,2022-02-27 15:45:14Z,u01, 159,40,movements,el-ex, rt, d,297769.29667175, -1.367498890568252, -0.45784557666267783, -0.28045330806612395, -0.02205650508403778, -0.7720569372177124, 0.6652388572692871, -0.8785341382026672, 0.4420166015625, -0.18110565841197968, 0.029336750507354736, -0.56903076171875, 0.1524038314819336, -0.2601787615513413, -0.5845974519270674, 0.767610814719832,0.03642210494668685,-0.8491973876953125,-0.12701416015625,-0.0287017822265625
20220227-1545,2022-02-27 15:45:14Z,u01, 160,40,movements,el-ex, rt, d,297769.32161675004, -1.3871802544704743, -0.4767992961491863, -0.29626951891166975, -1.1029610633850098, -0.25128647685050964, 0.5764649510383606, -0.8735330700874329, 0.45893779397010803, -0.16222190856933594, 0.08418071269989014, -0.6233665943145752, 0.16330523788928986, -0.27128671528718884, -0.5876159973427104, 0.7613062908853023,0.03903334934741687,-0.7682647705078125,-0.129852294921875,0.0101318359375
20220227-1545,2022-02-27 15:45:14Z,u01, 161,40,movements,el-ex, rt, d,297769.34656075004, -1.3978534841233776, -0.49081489021163754, -0.3157310625278461, -0.1574115753173828, 0.13940298557281494, 0.32574325799942017, -0.8687926530838013, 0.4713447391986847, -0.1517675817012787, 0.12465208768844604, -0.4829567074775696, 0.11755730211734772, -0.2817929534653477, -0.5871191903847297, 0.7579366558017101,0.03762636225352228,-0.744140625,-0.0116119384765625,-0.034210205078125
20220227-1545,2022-02-27 15:45:14Z,u01, 162,40,movements,el-ex, rt, d,297769.371504875, -1.3814485876293934, -0.49068667561602475, -0.2972434933604079, 1.209920883178711, 0.4062563180923462, -0.1720304787158966, -0.8662455081939697, 0.4712316393852234, -0.16601034998893738, 0.3015635013580322, -0.47233033180236816, 0.13448566198349, -0.2766646240153801, -0.5834822259651662, 0.7623739686088479,0.04232163094339192,-0.500152587890625,0.0013275146484375,-0.017425537109375
20220227-1545,2022-02-27 15:45:14Z,u01, 163,40,movements,el-ex, rt, d,297769.396448875, -1.3560441104597882, -0.47158421003936535, -0.267558542396601, 0.956156849861145, 0.511452317237854, -0.8655407428741455, -0.8703861832618713, 0.45429813861846924, -0.18984483182430267, 0.5765477418899536, -0.5242596864700317, 0.1711375117301941, -0.2616642928144855, -0.5801804739396945, 0.7700434473446925,0.044221067448135865,-0.2938385009765625,-0.0699615478515625,-0.018707275390625
20220227-1545,2022-02-27 15:45:14Z,u01, 164,40,movements,el-ex, rt, d,297769.42139387503, -1.3384767747578343, -0.44264298701154053, -0.2596344410108414, 0.16344645619392395, 0.6317085027694702, -1.1941336393356323, -0.8793468475341797, 0.4283292293548584, -0.20804591476917267, 0.5870496034622192, -0.4099271893501282, 0.2169112265110016, -0.2490710981516833, -0.57787596593603, 0.776355402980389,0.035988549794481295,-0.286651611328125,0.0543365478515625,-0.00360107421875
20220227-1545,2022-02-27 15:45:15Z,u01, 165,40,movements,el-ex, rt, d,297769.44633787504, -1.3239293723199268, -0.41246743688458154, -0.26730128631045974, 0.07243281602859497, 0.7708174586296082, -1.24381685256958, -0.888359785079956, 0.40087103843688965, -0.22387312352657318, 0.7221916317939758, -0.24784070253372192, 0.0781974345445633, -0.24025385835874816, -0.5747534473774336, 0.7819580562611934,0.02186517536418703,-0.166168212890625,0.1530303955078125,-0.1456756591796875
20220227-1545,2022-02-27 15:45:15Z,u01, 166,40,movements,el-ex, rt, d,297769.47128187504, -1.304506104676608, -0.3795911764266996, -0.26917736625459027, 0.3524385690689087, 0.793879508972168, -1.2951568365097046, -0.8960789442062378, 0.3705407679080963, -0.24442191421985626, 0.8087071776390076, -0.3167688250541687, 0.03325547277927399, -0.22855769595286585, -0.5705702628358416, 0.7887549107742702,0.00875332007826135,-0.07293701171875,0.039886474609375,-0.2249755859375
20220227-1545,2022-02-27 15:45:15Z,u01, 167,40,movements,el-ex, rt, d,297769.49622587505, -1.285825398754262, -0.3462697216668238, -0.2672856509672928, 0.5130037069320679, 0.6080612540245056, -1.2398431301116943, -0.9027088284492493, 0.3393913209438324, -0.26444315910339355, 0.8521870970726013, -0.2984672486782074, 0.06481239199638367, -0.2153384819584553, -0.5669283519548953, 0.7951190199640134,-0.0026882914395686686,-0.0505218505859375,0.040924072265625,-0.1996307373046875
20220227-1545,2022-02-27 15:45:15Z,u01, 168,40,movements,el-ex, rt, d,297769.521169875, -1.2728490432711728, -0.3152829269028116, -0.26243039593729806, 0.5208666324615479, 0.3098428249359131, -0.929411768913269, -0.9088214635848999, 0.3100854754447937, -0.2790886461734772, 0.8375782370567322, -0.1408960521221161, 0.13191762566566467, -0.20196608246169054, -0.5653895769260344, 0.7996336039491232,-0.011418912389745739,-0.0863037109375,0.1920623779296875,-0.14605712890625
20220227-1545,2022-02-27 15:45:15Z,u01, 169,40,movements,el-ex, rt, d,297769.546113875, -1.2661231569896088, -0.29102668619164856, -0.2531370704217715, 0.7566949129104614, 0.021474743261933327, -0.6208264827728271, -0.9138314127922058, 0.2869358956813812, -0.2873671352863312, 0.7188546657562256, -0.12940415740013123, 0.037244975566864014, -0.18985802340761246, -0.5659243504639628, 0.8021472936389314,-0.015595997337198741,-0.194976806640625,0.15753173828125,-0.2501220703125
20220227-1545,2022-02-27 15:45:15Z,u01, 170,40,movements,el-ex, rt, d,297769.571058875, -1.2623828078115291, -0.2740012017188687, -0.23746059119736002, 0.7912904024124146, -0.013710539788007736, -0.16681009531021118, -0.9172723889350891, 0.2705855369567871, -0.29222384095191956, 0.5574244260787964, -0.0592208206653595, 0.05627715587615967, -0.17872624976015555, -0.5674019823237142, 0.8036762809856733,-0.014707881650027232,-0.399993896484375,0.2276153564453125,-0.2330169677734375
20220227-1545,2022-02-27 15:45:15Z,u01, 171,40,movements,el-ex, rt, d,297769.596002875, -1.257292027642777, -0.26265141398782643, -0.21706390162384592, 0.6724416613578796, 0.04283110052347183, 0.130235493183136, -0.9186352491378784, 0.25964194536209106, -0.2978176474571228, 0.3847759962081909, 0.10519570112228394, 0.07508504390716553, -0.16843973248198227, -0.5680838310676561, 0.8054828552663579,-0.010305422827444288,-0.5338592529296875,0.364837646484375,-0.2227325439453125
20220227-1545,2022-02-27 15:45:15Z,u01, 172,40,movements,el-ex, rt, d,297769.620946875, -1.2516628963479663, -0.2641224941570498, -0.20640907275226358, 0.2171211838722229, 0.17726705968379974, 0.19528894126415253, -0.9165805578231812, 0.26106229424476624, -0.30286383628845215, 0.2883762717247009, 0.1533205807209015, 0.07743045687675476, -0.1659753650229419, -0.5665865020307175, 0.8070906356097602,-0.006046766527990577,-0.633941650390625,0.4151763916015625,-0.241424560546875
20220227-1545,2022-02-27 15:45:15Z,u01, 173,40,movements,el-ex, rt, d,297769.645890875, -1.2462935794970875, -0.26968725814067646, -0.20353268073451447, -0.09929446876049042, 0.1712631732225418, 0.31773728132247925, -0.9135500192642212, 0.2664300203323364, -0.30731287598609924, 0.28517794609069824, 0.2060278058052063, 0.05050745606422424, -0.16735242171199358, -0.5642133702197949, 0.8084816878021553,-0.0036978249716645983,-0.6283721923828125,0.4724578857421875,-0.256805419921875
20220227-1545,2022-02-27 15:45:15Z,u01, 174,40,movements,el-ex, rt, d,297769.670834875, -1.2428695885419736, -0.27926803258072047, -0.20529647565922593, -0.11318016052246094, 0.16326336562633514, 0.3657277524471283, -0.9100340008735657, 0.27565211057662964, -0.30960267782211304, 0.20921319723129272, 0.24505403637886047, 0.06483641266822815, -0.17164090407145033, -0.5619057411190597, 0.8091956564241061,-0.001895366604407589,-0.7177886962890625,0.5,-0.2574310302734375
20220227-1545,2022-02-27 15:45:15Z,u01, 175,40,movements,el-ex, rt, d,297769.69577987504, -1.2372645723079416, -0.2865054980097572, -0.1996866265639787, 0.285868763923645, 0.14176353812217712, 0.3685426115989685, -0.9063755869865417, 0.28260189294815063, -0.31403717398643494, 0.17885184288024902, 0.2012237012386322, -0.022251278162002563, -0.17293912201853226, -0.5595296884019922, 0.8105642777540746,0.0020064634731655207,-0.7275238037109375,0.48382568359375,-0.3362884521484375
20220227-1545,2022-02-27 15:45:15Z,u01, 176,40,movements,el-ex, rt, d,297769.72072387504, -1.2311551448679845, -0.2933353386450248, -0.188480462789244, 0.19910696148872375, 0.11482060700654984, 0.4209480285644531, -0.9025992751121521, 0.28914669156074524, -0.3189183175563812, 0.1342734694480896, 0.18321964144706726, -0.022024154663085938, -0.17254031142522314, -0.5574681054900759, 0.8120314755352223,0.008009757898822412,-0.783355712890625,0.4752044677734375,-0.32904052734375
20220227-1545,2022-02-27 15:45:15Z,u01, 177,40,movements,el-ex, rt, d,297769.74566787505, -1.2274645787533773, -0.3042624741805954, -0.18805208543215876, -0.48215538263320923, 0.13603468239307404, 0.40848538279533386, -0.8983871340751648, 0.299589604139328, -0.32116439938545227, 0.11551976203918457, 0.10965108871459961, -0.024615049362182617, -0.17678897285211673, -0.5551247290290693, 0.8126872701100736,0.011025730561747715,-0.782867431640625,0.40924072265625,-0.3457794189453125
20220227-1545,2022-02-27 15:45:15Z,u01, 178,40,movements,el-ex, rt, d,297769.770611875, -1.2286823476170734, -0.3201822819119663, -0.20175477784781448, -0.764774739742279, 0.12242072820663452, 0.41750723123550415, -0.8941709399223328, 0.3147395849227905, -0.3184296190738678, 0.08131992816925049, 0.12422522902488708, -0.05684506893157959, -0.18690562342349873, -0.5530384092473648, 0.8118566653395176,0.010178706683122818,-0.819305419921875,0.4445648193359375,-0.3819427490234375
20220227-1545,2022-02-27 15:45:15Z,u01, 179,40,movements,el-ex, rt, d,297769.795555875, -1.229850247128423, -0.335413581477206, -0.21318426331247847, -0.3995986580848694, 0.058915793895721436, 0.47066977620124817, -0.8899205923080444, 0.3291597366333008, -0.31574535369873047, 0.11089843511581421, 0.11209386587142944, -0.06302359700202942, -0.1960858800622589, -0.5510695582920944, 0.8110309792668249,0.010067953794797968,-0.779022216796875,0.441253662109375,-0.3787689208984375
20220227-1545,2022-02-27 15:45:15Z,u01, 180,40,movements,el-ex, rt, d,297769.820500875, -1.2299799024170448, -0.34870078596014004, -0.21288249127091222, 0.06911245733499527, -0.061480991542339325, 0.5768110156059265, -0.8857610821723938, 0.34167706966400146, -0.3141402304172516, 0.1296880841255188, 0.13798290491104126, -0.0451279878616333, -0.20124967184510256, -0.5499349527876299, 0.8104767130668824,0.014056868925369503,-0.761016845703125,0.50042724609375,-0.3526611328125
20220227-1545,2022-02-27 15:45:15Z,u01, 181,40,movements,el-ex, rt, d,297769.845444875, -1.2284800558700877, -0.35959120811506556, -0.20329700791482272, 0.1747060865163803, -0.06441080570220947, 0.45421022176742554, -0.881731390953064, 0.3518916070461273, -0.3142006993293762, 0.07689130306243896, 0.2516545355319977, 0.004416704177856445, -0.20292666649479757, -0.549290837689042, 0.8103466476080393,0.020944941583964316,-0.804840087890625,0.603546142578125,-0.309783935546875
20220227-1545,2022-02-27 15:45:15Z,u01, 182,40,movements,el-ex, rt, d,297769.870388875, -1.22762074792529, -0.36764792746666786, -0.1980741508462978, -0.03920440003275871, -0.022814489901065826, 0.2883657217025757, -0.8787626624107361, 0.3594215214252472, -0.31399407982826233, 0.08239126205444336, 0.1580650508403778, -0.01963937282562256, -0.2046828276153043, -0.548732996697797, 0.8101584561770352,0.025304187179067628,-0.7872772216796875,0.499267578125,-0.345062255859375
20220227-1545,2022-02-27 15:45:15Z,u01, 183,40,movements,el-ex, rt, d,297769.895332875, -1.2289074478526623, -0.3753437561003392, -0.19927440125096324, -0.17947152256965637, -0.06763635575771332, 0.2668643891811371, -0.8765339851379395, 0.3665923774242401, -0.3119264841079712, 0.140511155128479, 0.0945281982421875, -0.032052427530288696, -0.2080300186181791, -0.5484161486685153, 0.809459435132015,0.02717703741978006,-0.73602294921875,0.46112060546875,-0.3439788818359375
20220227-1545,2022-02-27 15:45:15Z,u01, 184,40,movements,el-ex, rt, d,297769.920276875, -1.2333188956192467, -0.38391204893515507, -0.20073790951477105, -0.12703371047973633, -0.2118304818868637, 0.3488978147506714, -0.8749054670333862, 0.37455061078071594, -0.307005375623703, 0.12920844554901123, 0.16678544878959656, 0.02017056941986084, -0.21174029513585685, -0.5492388958366533, 0.8078555595961034,0.029531278971340336,-0.7670745849609375,0.571563720703125,-0.27374267578125
20220227-1545,2022-02-27 15:45:15Z,u01, 185,40,movements,el-ex, rt, d,297769.94522187504, -1.2380746369387008, -0.39194337125148737, -0.20260788735981963, -0.11457371711730957, -0.0790276974439621, 0.17281252145767212, -0.8734841346740723, 0.3819851279258728, -0.30184879899024963, 0.03907257318496704, 0.2206301987171173, 0.006270736455917358, -0.2153320243816313, -0.5501888102341277, 0.8061789509520612,0.031619006102994174,-0.83441162109375,0.6026153564453125,-0.2955780029296875
20220227-1545,2022-02-27 15:45:15Z,u01, 186,40,movements,el-ex, rt, d,297769.97016587504, -1.23968745574006, -0.3946604813235196, -0.20301496216708523, 0.045433055609464645, -0.07092169672250748, 0.09251435101032257, -0.8729851245880127, 0.3844947814941406, -0.3001011312007904, 0.14399653673171997, 0.0679892897605896, -0.05751916766166687, -0.21648185818966556, -0.5505315981463373, 0.8056050260262766,0.032420524254504424,-0.711944580078125,0.4235382080078125,-0.3683013916015625
20220227-1545,2022-02-27 15:45:15Z,u01, 187,40,movements,el-ex, rt, d,297769.99510987505, -1.2412871990754577, -0.39683961414568913, -0.19972175227670672, 0.005778755061328411, -0.1613665670156479, 0.16030411422252655, -0.8726693987846375, 0.38650548458099365, -0.2984324097633362, 0.1309700608253479, 0.06872525811195374, -0.012633353471755981, -0.21640029968008268, -0.5513208714397038, 0.8049983406287076,0.034554949687725434,-0.74169921875,0.455230712890625,-0.311065673828125
20220227-1545,2022-02-27 15:45:15Z,u01, 188,40,movements,el-ex, rt, d,297770.020053875, -1.2452770659280787, -0.402407634780253, -0.20214046285435208, -0.3458036780357361, -0.06304939091205597, 0.14301107823848724, -0.871800422668457, 0.3916347920894623, -0.2942553758621216, 0.04770374298095703, 0.07177460193634033, 0.05278497934341431, -0.21917222119565774, -0.552119417722926, 0.8036524629169255,0.03564283195071688,-0.828369140625,0.451446533203125,-0.2452850341796875
20220227-1545,2022-02-27 15:45:15Z,u01, 189,40,movements,el-ex, rt, d,297770.044997875, -1.2498648889869093, -0.4088591752649863, -0.21359269139434026, -0.5369741916656494, 0.00741485133767128, 0.09729652106761932, -0.8707254528999329, 0.39756280183792114, -0.2894495725631714, 0.11865025758743286, 0.0017901957035064697, -0.01951044797897339, -0.22476568271393443, -0.5520467426381062, 0.8022507600932396,0.033444554824984485,-0.7520751953125,0.39935302734375,-0.3089599609375
20220227-1545,2022-02-27 15:45:15Z,u01, 190,40,movements,el-ex, rt, d,297770.069942875, -1.2560736600613784, -0.415965170008779, -0.22584207851486396, -0.4535214602947235, -0.07796728610992432, 0.1731858253479004, -0.8697973489761353, 0.40407299995422363, -0.283156156539917, 0.12295597791671753, 0.04038497805595398, -0.01249811053276062, -0.23080094001629659, -0.5524064096573293, 0.800372451556852,0.03133522376732406,-0.7692108154296875,0.4452362060546875,-0.28155517578125
20220227-1545,2022-02-27 15:45:15Z,u01, 191,40,movements,el-ex, rt, d,297770.094886875, -1.2602977338027788, -0.42152558642702337, -0.23227543918309673, -0.15253661572933197, -0.08061453700065613, 0.1346580684185028, -0.8688328862190247, 0.4091529846191406, -0.27878880500793457, 0.09476983547210693, 0.0396384596824646, 0.008799761533737183, -0.23465831441964838, -0.5527577043183565, 0.7990242152705727,0.03089746444150543,-0.7740631103515625,0.44879150390625,-0.269989013671875
20220227-1545,2022-02-27 15:45:15Z,u01, 192,40,movements,el-ex, rt, d,297770.119830875, -1.2626269081893755, -0.4244066213529999, -0.23105600086188768, 0.12866166234016418, -0.09666374325752258, 0.07420891523361206, -0.8683530688285828, 0.41178011894226074, -0.2764056921005249, 0.08811014890670776, 0.01029321551322937, 0.020622551441192627, -0.23539333507706328, -0.5535224773008056, 0.7982141560189424,0.03251135694541585,-0.7924041748046875,0.4170684814453125,-0.257843017578125
20220227-1545,2022-02-27 15:45:15Z,u01, 193,40,movements,el-ex, rt, d,297770.144774875, -1.2633137557641245, -0.42498687189605905, -0.22775069157643607, 0.033238671720027924, -0.06484070420265198, 0.0796205922961235, -0.868314802646637, 0.41230881214141846, -0.27573683857917786, 0.08898746967315674, -0.039353519678115845, -0.014225959777832031, -0.23468990265596354, -0.5541229399618732, 0.7979390585805646,0.03408299747704424,-0.779327392578125,0.372955322265625,-0.2899627685546875
20220227-1545,2022-02-27 15:45:15Z,u01, 194,40,movements,el-ex, rt, d,297770.169718875, -1.2654336684161556, -0.42801045963220935, -0.22763613721552015, -0.05202499032020569, -0.12515763938426971, 0.16734105348587036, -0.867704451084137, 0.4150615632534027, -0.2735194265842438, 0.10630613565444946, -0.0574413537979126, 0.008336901664733887, -0.23578418685949137, -0.5546585461690005, 0.7971922058968725,0.03527478547014634,-0.763885498046875,0.360015869140625,-0.25823974609375
20220227-1545,2022-02-27 15:45:15Z,u01, 195,40,movements,el-ex, rt, d,297770.19466387504, -1.2690301116510554, -0.43249745920340626, -0.2264495994216556, 0.05081690102815628, -0.1758667528629303, 0.21607117354869843, -0.8668954968452454, 0.4191395938396454, -0.2698407471179962, 0.06989854574203491, -0.02469998598098755, 0.035267382860183716, -0.23711223054980943, -0.5557494161316279, 0.7959356675190048,0.03750561013942927,-0.7969970703125,0.394439697265625,-0.2345733642578125
20220227-1545,2022-02-27 15:45:15Z,u01, 196,40,movements,el-ex, rt, d,297770.21960787504, -1.2720529984563322, -0.43669794428410214, -0.22229782045759053, 0.057670485228300095, -0.2012268453836441, 0.2189219444990158, -0.8660170435905457, 0.4229496121406555, -0.2666984796524048, 0.07336878776550293, -0.044272273778915405, 0.0368095338344574, -0.23750839992223743, -0.5569923834928242, 0.7947876454891746,0.0407654802786338,-0.7989044189453125,0.3884429931640625,-0.223358154296875
20220227-1545,2022-02-27 15:45:15Z,u01, 197,40,movements,el-ex, rt, d,297770.24455187505, -1.2742226929121125, -0.44065928755753514, -0.21976985613795083, -0.028308041393756866, -0.11568763852119446, 0.1389603316783905, -0.8649846315383911, 0.42653587460517883, -0.26432716846466064, 0.07009327411651611, -0.049277544021606445, 0.02735811471939087, -0.238275183520945, -0.5577287398544247, 0.7939123089569816,0.04320797754444711,-0.794891357421875,0.37725830078125,-0.236968994140625
20220227-1545,2022-02-27 15:45:15Z,u01, 198,40,movements,el-ex, rt, d,297770.269495875, -1.2774101699969997, -0.4447890117543754, -0.22049674913883535, -0.06343160569667816, -0.11334232985973358, 0.1371109038591385, -0.8641291260719299, 0.43026742339134216, -0.2610570788383484, 0.09224808216094971, -0.03652966022491455, 0.03208363056182861, -0.23998697985168385, -0.5584601304624658, 0.7928085171917465,0.04453315866625934,-0.7729339599609375,0.3958282470703125,-0.2285614013671875
20220227-1545,2022-02-27 15:45:15Z,u01, 199,40,movements,el-ex, rt, d,297770.294439875, -1.2812728233115955, -0.4473977740335865, -0.2198222874892957, 0.04794717952609062, -0.2154397964477539, 0.1064109206199646, -0.8640522956848145, 0.4326208829879761, -0.2573959231376648, 0.10063987970352173, 0.001735776662826538, 0.06087794899940491, -0.24070644154741516, -0.5597878536070092, 0.7915666582130796,0.046044684427510585,-0.7634124755859375,0.434356689453125,-0.1965179443359375
20220227-1545,2022-02-27 15:45:15Z,u01, 200,40,movements,el-ex, rt, d,297770.319384875, -1.2830778880639164, -0.4487755292385014, -0.21538069674012814, 0.25555986166000366, -0.05661319941282272, 0.09849328547716141, -0.8639432191848755, 0.4338626265525818, -0.25566649436950684, 0.05231297016143799, 0.003957808017730713, 0.07845085859298706, -0.2399445764770375, -0.5608862193139149, 0.7908778070462732,0.048431352362680924,-0.7924041748046875,0.4253997802734375,-0.1841583251953125
20220227-1545,2022-02-27 15:45:15Z,u01, 201,40,movements,el-ex, rt, d,297770.344328875, -1.2802818447829425, -0.44818164224940554, -0.20574169473055376, 0.41729259490966797, -0.06429768353700638, 0.08928679674863815, -0.8634718060493469, 0.43332746624946594, -0.25815489888191223, 0.21558350324630737, -0.06345438957214355, 0.051032036542892456, -0.23708449220143946, -0.5609933096738213, 0.7914551536837444,0.05173323240415928,-0.64788818359375,0.369873046875,-0.207122802734375
20220227-1545,2022-02-27 15:45:15Z,u01, 202,40,movements,el-ex, rt, d,297770.36927225004, -1.2770449363166603, -0.44701141483446183, -0.191750298343294, 0.5135579109191895, -0.18041251599788666, 0.09748460352420807, -0.8631163239479065, 0.4322725236415863, -0.2610951364040375, 0.20361626148223877, -0.06821310520172119, 0.05897718667984009, -0.23279797237172797, -0.5614779894553257, 0.792054610658567,0.056542838047589916,-0.686737060546875,0.3782196044921875,-0.192962646484375
20220227-1545,2022-02-27 15:45:15Z,u01, 203,40,movements,el-ex, rt, d,297770.39421625005, -1.2746565901754807, -0.445978903272972, -0.17942468494547967, 0.30064669251441956, -0.023469559848308563, 0.052485641092061996, -0.8629167079925537, 0.4313412308692932, -0.26328593492507935, 0.01765608787536621, -0.0294247567653656, 0.10709691047668457, -0.22900958972410207, -0.5620601804251202, 0.7924273822288902,0.06084250890928794,-0.8452606201171875,0.40191650390625,-0.15618896484375
20220227-1545,2022-02-27 15:45:15Z,u01, 204,40,movements,el-ex, rt, d,297770.41916025, -1.2705925943741643, -0.44600595179781716, -0.175368677239572, 0.01151084341108799, 0.14492017030715942, 0.02916640415787697, -0.8618285059928894, 0.43136563897132874, -0.26678720116615295, 0.05573713779449463, -0.052550941705703735, 0.05380496382713318, -0.22800609765477073, -0.5609096357042427, 0.7934421251857235,0.061994263769852787,-0.787384033203125,0.367218017578125,-0.2239837646484375
20220227-1545,2022-02-27 15:45:16Z,u01, 205,40,movements,el-ex, rt, d,297770.44410525, -1.267354768422986, -0.4468174066612364, -0.17586488769376032, 0.0022119171917438507, 0.14243099093437195, 0.03972989693284035, -0.8606257438659668, 0.43209758400917053, -0.26947152614593506, 0.05561792850494385, -0.1125633716583252, 0.03950628638267517, -0.22855796339794293, -0.5594868161393938, 0.7943127552855371,0.06166773358288269,-0.8050079345703125,0.3195343017578125,-0.2299652099609375
20220227-1545,2022-02-27 15:45:16Z,u01, 206,40,movements,el-ex, rt, d,297770.46904925, -1.2623790076905526, -0.44681447652980744, -0.173339838946098, 0.1387566179037094, 0.14485879242420197, 0.021720338612794876, -0.8592755198478699, 0.432094931602478, -0.27375084161758423, 0.05435913801193237, -0.14338341355323792, 0.017113208770751953, -0.22800548752703934, -0.5577975250670142, 0.7956247022522593,0.062102588575682516,-0.7898406982421875,0.2794342041015625,-0.2657470703125
20220227-1545,2022-02-27 15:45:16Z,u01, 207,40,movements,el-ex, rt, d,297770.49399325, -1.2587047472321462, -0.44741332714361237, -0.17232843537426978, -0.11828707158565521, 0.1429055631160736, 0.042175743728876114, -0.8580175638198853, 0.4326349198818207, -0.2768267095088959, 0.016434311866760254, -0.07809695601463318, 0.04464888572692871, -0.2280696116073291, -0.5563909585592077, 0.7965782065423784,0.062262294213270675,-0.841583251953125,0.3545379638671875,-0.232177734375
20220227-1545,2022-02-27 15:45:16Z,u01, 208,40,movements,el-ex, rt, d,297770.51893725, -1.2555158930991033, -0.44918195070226535, -0.17733461140391976, -0.24314960837364197, 0.3359459340572357, -0.033230796456336975, -0.8564016222953796, 0.434228777885437, -0.27932366728782654, -0.08233433961868286, -0.0543765127658844, 0.07821279764175415, -0.23024224033477814, -0.5543705178216152, 0.7975031223202389,0.060420752245667175,-0.9450531005859375,0.37646484375,-0.2049560546875
20220227-1545,2022-02-27 15:45:16Z,u01, 209,40,movements,el-ex, rt, d,297770.54388125, -1.248519594665015, -0.44616807394599955, -0.1820705594343561, 0.01036155503243208, 0.2991616725921631, -0.07074474543333054, -0.8556638956069946, 0.43151190876960754, -0.28572162985801697, 0.05334150791168213, -0.08434394001960754, 0.018250226974487305, -0.23058815900334895, -0.551333186821129, 0.7997686258654193,0.056841809788969966,-0.8023223876953125,0.34716796875,-0.2674713134765625
20220227-1545,2022-02-27 15:45:16Z,u01, 210,40,movements,el-ex, rt, d,297770.56882625003, -1.2398673252509533, -0.4404488096830494, -0.17746520980530403, 0.36997273564338684, 0.2985946834087372, -0.07503217458724976, -0.8554797768592834, 0.42634549736976624, -0.2939113676548004, -0.10747188329696655, -0.08444181084632874, 0.05386006832122803, -0.22734047490912565, -0.5489632298274547, 0.8023815868739228,0.05603094896162708,-0.985992431640625,0.34307861328125,-0.23834228515625
20220227-1545,2022-02-27 15:45:16Z,u01, 211,40,movements,el-ex, rt, d,297770.59377025004, -1.2283128718221488, -0.43438069100313037, -0.16810923720723647, 0.3136836290359497, 0.3360150456428528, -0.13294260203838348, -0.8544478416442871, 0.42084869742393494, -0.3046393096446991, -0.06100308895111084, -0.08706274628639221, 0.0661444365978241, -0.2227314444009106, -0.5459588288149038, 0.8056676142522956,0.05673840377973971,-0.9154510498046875,0.3337860107421875,-0.238494873046875
20220227-1545,2022-02-27 15:45:16Z,u01, 212,40,movements,el-ex, rt, d,297770.61871425004, -1.2195030028913236, -0.429715551334507, -0.16695246332253244, -0.08237237483263016, 0.3301294445991516, -0.22879402339458466, -0.8535650968551636, 0.4166122376918793, -0.3128271996974945, -0.052791714668273926, -0.03901827335357666, 0.03890138864517212, -0.22082805105110392, -0.5429745586843695, 0.8083320433147925,0.0548897283172925,-0.9083099365234375,0.3796234130859375,-0.289154052734375
20220227-1545,2022-02-27 15:45:16Z,u01, 213,40,movements,el-ex, rt, d,297770.64365825005, -1.216048252869181, -0.4245654149093597, -0.17474820524843068, -0.19842514395713806, 0.19448626041412354, -0.32048627734184265, -0.854479968547821, 0.411924809217453, -0.3165152966976166, 0.00627446174621582, -0.042112797498703, 0.01501685380935669, -0.22100139515328118, -0.5412030494492956, 0.8097959090647023,0.049882172355399546,-0.84820556640625,0.36981201171875,-0.3014984130859375
20220227-1545,2022-02-27 15:45:16Z,u01, 214,40,movements,el-ex, rt, d,297770.66860225, -1.211326851574697, -0.41662467631821287, -0.1754062695376118, 0.5158223509788513, 0.2367161512374878, -0.271110862493515, -0.8560110926628113, 0.4046761691570282, -0.32168662548065186, -0.03343898057937622, -0.027066946029663086, 0.03730851411819458, -0.21815734153831065, -0.5399667192483466, 0.8115726293738559,0.04683169262063275,-0.87152099609375,0.3790130615234375,-0.2892608642578125
20220227-1545,2022-02-27 15:45:16Z,u01, 215,40,movements,el-ex, rt, d,297770.69354725, -1.1995916979572907, -0.40248233089834745, -0.15732386247480531, 0.9112259745597839, 0.14429354667663574, -0.31489163637161255, -0.8574250936508179, 0.3917035162448883, -0.33375242352485657, 0.03729569911956787, -0.0774335265159607, 0.03521418571472168, -0.20794721152744725, -0.5384066763500761, 0.815157979888276,0.04892571257412831,-0.82012939453125,0.31427001953125,-0.2985382080078125
20220227-1545,2022-02-27 15:45:16Z,u01, 216,40,movements,el-ex, rt, d,297770.71849125, -1.1905566448904183, -0.3885347244777172, -0.14395057336534703, 0.35797643661499023, 0.18488077819347382, -0.34425684809684753, -0.85936439037323, 0.37883275747299194, -0.3434799313545227, 0.00017255544662475586, -0.10997295379638672, 0.04419401288032532, -0.1989942273631422, -0.5372721263850642, 0.8180984448820963,0.04954567932794157,-0.8621978759765625,0.2707672119140625,-0.2889862060546875
20220227-1545,2022-02-27 15:45:16Z,u01, 217,40,movements,el-ex, rt, d,297770.74343525, -1.1842543175737517, -0.379359276849783, -0.143744022411739, 0.05080505087971687, 0.29102426767349243, -0.34767448902130127, -0.8603660464286804, 0.37032538652420044, -0.35018476843833923, 0.042754411697387695, -0.07425913214683533, 0.07197120785713196, -0.19540210933914276, -0.5354676708383564, 0.8203263687301996,0.04644385973474768,-0.8176116943359375,0.2960662841796875,-0.2782135009765625
20220227-1545,2022-02-27 15:45:16Z,u01, 218,40,movements,el-ex, rt, d,297770.76837925, -1.177821372078048, -0.3705595820583401, -0.14534424614494, 0.10076428949832916, 0.2577122449874878, -0.349791556596756, -0.8610726594924927, 0.3621370792388916, -0.35694628953933716, 0.06532680988311768, -0.05804473161697388, 0.05430340766906738, -0.19242473896011425, -0.5333850121872319, 0.822586618415138,0.04271310338104717,-0.81768798828125,0.3039703369140625,-0.3018951416015625
20220227-1545,2022-02-27 15:45:16Z,u01, 219,40,movements,el-ex, rt, d,297770.79332325, -1.1707209565252197, -0.36225385439315905, -0.14640539054898985, 0.0950927585363388, 0.32942837476730347, -0.30965331196784973, -0.8612570762634277, 0.35438272356987, -0.36421018838882446, -0.006357550621032715, -0.03259015083312988, 0.07566645741462708, -0.1894927425269449, -0.5310248700213269, 0.8249611204729542,0.03929610821299623,-0.86761474609375,0.3217926025390625,-0.288543701171875
20220227-1545,2022-02-27 15:45:16Z,u01, 220,40,movements,el-ex, rt, d,297770.81826725, -1.1632051352017403, -0.3539585275184954, -0.14763177865342192, 0.07483795285224915, 0.31824177503585815, -0.3543957769870758, -0.8611648678779602, 0.34661364555358887, -0.3718254566192627, 0.0851333737373352, -0.03431200981140137, 0.09979170560836792, -0.1865916546144115, -0.5284608123318467, 0.8274246169227909,0.03579507346981575,-0.756866455078125,0.306854248046875,-0.2798309326171875
20220227-1545,2022-02-27 15:45:16Z,u01, 221,40,movements,el-ex, rt, d,297770.84321225004, -1.15729461738053, -0.34491868968997935, -0.15226056684841527, -0.11618752777576447, 0.2737102508544922, -0.4137443006038666, -0.8617861866950989, 0.33812016248703003, -0.378152459859848, 0.11788976192474365, -0.06282109022140503, 0.01850271224975586, -0.18423052999012493, -0.5262916390501211, 0.8295327766440425,0.030847564746686262,-0.743896484375,0.275299072265625,-0.359649658203125
20220227-1545,2022-02-27 15:45:16Z,u01, 222,40,movements,el-ex, rt, d,297770.86815625004, -1.1525942069273787, -0.33831627929446995, -0.16259967251134358, -0.3479169011116028, 0.40411195158958435, -0.39742445945739746, -0.8620204925537109, 0.3318992853164673, -0.3830972909927368, -0.027582168579101562, -0.07309499382972717, 0.017023682594299316, -0.1843167559237844, -0.5239071323561685, 0.8312385301632467,0.024314334073692878,-0.91033935546875,0.2544097900390625,-0.3678436279296875
20220227-1545,2022-02-27 15:45:16Z,u01, 223,40,movements,el-ex, rt, d,297770.89310025005, -1.14501456439699, -0.33380104428989743, -0.17513852135021207, -0.29132649302482605, 0.5120223760604858, -0.29916372895240784, -0.8604481220245361, 0.32763662934303284, -0.3902350664138794, 0.002187013626098633, -0.054199159145355225, -0.02484983205795288, -0.18582290544611052, -0.5199541537508134, 0.833560468247549,0.01716244733454575,-0.8582611083984375,0.2734375,-0.4150848388671875
20220227-1545,2022-02-27 15:45:16Z,u01, 224,40,movements,el-ex, rt, d,297770.91804425, -1.1341824016132769, -0.32868923304198494, -0.17938145011269024, 0.14446920156478882, 0.45992398262023926, -0.22822058200836182, -0.8576771020889282, 0.32280272245407104, -0.40023547410964966, 0.025264382362365723, -0.056567370891571045, -0.05818438529968262, -0.1849086921932265, -0.5154522637591156, 0.836629375069301,0.013000837407992127,-0.855010986328125,0.264312744140625,-0.4519195556640625
20220227-1545,2022-02-27 15:45:16Z,u01, 225,40,movements,el-ex, rt, d,297770.94298825, -1.1213191586497202, -0.3207403948412641, -0.17442787982863, 0.4557952880859375, 0.4411173462867737, -0.20177774131298065, -0.8547419905662537, 0.3152692914009094, -0.41233640909194946, -0.06098365783691406, -0.07131180167198181, -0.043901413679122925, -0.18044530784158364, -0.5111470237144895, 0.8402557249049695,0.01176655334767479,-0.9157257080078125,0.24395751953125,-0.45623779296875
20220227-1545,2022-02-27 15:45:16Z,u01, 226,40,movements,el-ex, rt, d,297770.96793325, -1.1077901906805547, -0.3105159897481131, -0.16535208608109614, 0.4542708396911621, 0.41655755043029785, -0.23159435391426086, -0.8519251346588135, 0.3055499792098999, -0.4252796769142151, -0.06688284873962402, -0.04142037034034729, -0.06017875671386719, -0.17398098955783742, -0.5070411967006088, 0.8440993216367527,0.011671161752086545,-0.918212890625,0.260894775390625,-0.4877166748046875
20220227-1545,2022-02-27 15:45:16Z,u01, 227,40,movements,el-ex, rt, d,297770.99287725, -1.0967566121081553, -0.3014892883975787, -0.1624907303170307, 0.062044691294431686, 0.38964810967445374, -0.2885817885398865, -0.8496004343032837, 0.29694265127182007, -0.4358946979045868, -0.03771340847015381, -0.056448906660079956, -0.0686829686164856, -0.16955890355867068, -0.5032915971174539, 0.8472638542616089,0.009557470960835146,-0.8873138427734375,0.2404937744140625,-0.50457763671875
20220227-1545,2022-02-27 15:45:16Z,u01, 228,40,movements,el-ex, rt, d,297771.01782125, -1.087821076621681, -0.2946978183405761, -0.1641206218871985, 0.20143307745456696, 0.3665960431098938, -0.25413063168525696, -0.8474380970001221, 0.29045072197914124, -0.44439515471458435, -0.05501246452331543, -0.06629908084869385, -0.05841249227523804, -0.16716450160859542, -0.49985843593266477, 0.8497984074866043,0.006340249387092212,-0.9013824462890625,0.23052978515625,-0.50518798828125
20220227-1545,2022-02-27 15:45:16Z,u01, 229,40,movements,el-ex, rt, d,297771.04276525, -1.0777511479390733, -0.28373727010967964, -0.15747270275143596, 0.6086587309837341, 0.2898392379283905, -0.290705144405365, -0.8456738591194153, 0.279945433139801, -0.4543856978416443, -0.011274993419647217, -0.043968260288238525, -0.05231297016143799, -0.16093786534558316, -0.4968965292870947, 0.8527382936002617,0.005503834651407524,-0.8569488525390625,0.2359771728515625,-0.5066986083984375
20220227-1545,2022-02-27 15:45:16Z,u01, 230,40,movements,el-ex, rt, d,297771.06770925, -1.0682110983890007, -0.2687448503041026, -0.14617835613629512, 0.7068179249763489, 0.23571546375751495, -0.36173704266548157, -0.8448838591575623, 0.2655215561389923, -0.4644022583961487, -0.0022534728050231934, -0.0554690957069397, -0.045470207929611206, -0.15184140751631817, -0.49471512072108204, 0.8556682962068628,0.005730361768600645,-0.841156005859375,0.2038726806640625,-0.509033203125
20220227-1545,2022-02-27 15:45:16Z,u01, 231,40,movements,el-ex, rt, d,297771.09265425004, -1.0596793302868748, -0.2519034636544342, -0.13506001860438663, 0.7219146490097046, 0.230817973613739, -0.3861866593360901, -0.844671905040741, 0.24924780428409576, -0.47371405363082886, -0.020074188709259033, -0.05840611457824707, -0.003458857536315918, -0.14198130537550618, -0.49293435663645435, 0.8583856937169552,0.005577169488213685,-0.86474609375,0.1908416748046875,-0.4771728515625
20220227-1545,2022-02-27 15:45:16Z,u01, 232,40,movements,el-ex, rt, d,297771.11759825004, -1.0506236607402366, -0.23459139013948227, -0.12302082124662529, 0.7531188130378723, 0.2541728913784027, -0.36302027106285095, -0.8439656496047974, 0.2324455827474594, -0.48341602087020874, -0.02354222536087036, -0.0294426828622818, 0.015093237161636353, -0.13167156778871322, -0.49087125609239146, 0.8612054447765338,0.005758174737446331,-0.8562164306640625,0.196075439453125,-0.4667510986328125
20220227-1545,2022-02-27 15:45:16Z,u01, 233,40,movements,el-ex, rt, d,297771.14254225005, -1.042664248331884, -0.21891707684662323, -0.11464916548819269, 0.37389427423477173, 0.2208395153284073, -0.38800784945487976, -0.843134880065918, 0.21717266738414764, -0.49189382791519165, 0.012873709201812744, -0.07399947941303253, 0.009777098894119263, -0.12293595344929753, -0.48881473283509774, 0.8636680755270404,0.004931271913189872,-0.83026123046875,0.1431732177734375,-0.48211669921875
20220227-1545,2022-02-27 15:45:16Z,u01, 234,40,movements,el-ex, rt, d,297771.16748625, -1.0375414765622732, -0.2087415606439558, -0.11599483769009915, 0.02923368103802204, 0.20412950217723846, -0.3677060306072235, -0.8424634337425232, 0.20722894370555878, -0.49730417132377625, -0.008320748805999756, -0.05767756700515747, 0.013722598552703857, -0.11890542346199709, -0.48704149706821565, 0.8652454727260341,0.001503140752220744,-0.8480072021484375,0.1522369384765625,-0.481964111328125
20220227-1545,2022-02-27 15:45:16Z,u01, 235,40,movements,el-ex, rt, d,297771.19243025, -1.0337728660423267, -0.2000245654522379, -0.11966025064818914, 0.06655251979827881, 0.1693110167980194, -0.38898956775665283, -0.8421034812927246, 0.1986934095621109, -0.5013806223869324, -0.011274755001068115, -0.03408162295818329, 0.01906561851501465, -0.11604799860057569, -0.4856362209643347, 0.8664203105019859,-0.002470243511391357,-0.8533782958984375,0.16461181640625,-0.4823150634765625
20220227-1545,2022-02-27 15:45:16Z,u01, 236,40,movements,el-ex, rt, d,297771.21737525, -1.0302598373211103, -0.19046349576449645, -0.12398552046030435, 0.020602740347385406, 0.1918243020772934, -0.43738746643066406, -0.8419274091720581, 0.18931402266025543, -0.5052903890609741, 2.378225326538086e-05, -0.028638973832130432, -0.001194596290588379, -0.11297199708227498, -0.4843471149896571, 0.8675236700625808,-0.00691418753324563,-0.8444976806640625,0.1612396240234375,-0.505584716796875
20220227-1545,2022-02-27 15:45:16Z,u01, 237,40,movements,el-ex, rt, d,297771.24231925, -1.0264931955468526, -0.18037841145773517, -0.12845361423937365, 0.14662708342075348, 0.15013405680656433, -0.4215717911720276, -0.8416088223457336, 0.17940185964107513, -0.5094208717346191, 0.001246333122253418, 0.014323681592941284, 0.07010501623153687, -0.10968664809542863, -0.48296832674488444, 0.868663947105541,-0.011553361179083954,-0.840362548828125,0.1937255859375,-0.4393157958984375
20220227-1545,2022-02-27 15:45:16Z,u01, 238,40,movements,el-ex, rt, d,297771.26726325, -1.0230643827427095, -0.16850900044754985, -0.1281234891561651, 0.3501056432723999, 0.12442043423652649, -0.3968941569328308, -0.8416157960891724, 0.16771265864372253, -0.5133762955665588, -0.012571156024932861, 0.006008580327033997, 0.05547535419464111, -0.1044586343932794, -0.4820790765151154, 0.8697570890947619,-0.014514859834170724,-0.837158203125,0.1571044921875,-0.47015380859375
20220227-1545,2022-02-27 15:45:16Z,u01, 239,40,movements,el-ex, rt, d,297771.29220725, -1.0184544704346559, -0.15446786897381903, -0.12402856659362847, 0.530831515789032, 0.20699146389961243, -0.4004228413105011, -0.8411622047424316, 0.15385432541370392, -0.5184351801872253, 0.02194833755493164, -0.06877133250236511, 0.005785584449768066, -0.0973607719719164, -0.4809399981361342, 0.8711764789610126,-0.016407975239320194,-0.8192138671875,0.0850830078125,-0.5126495361328125
20220227-1545,2022-02-27 15:45:16Z,u01, 240,40,movements,el-ex, rt, d,297771.31715125, -1.0111598949730547, -0.13706489391682852, -0.11671094547008375, 0.6592579483985901, 0.2835787832736969, -0.4914061427116394, -0.8395002484321594, 0.13663612306118011, -0.5258991718292236, 0.006126224994659424, -0.03870522975921631, 0.03915905952453613, -0.08798978342049701, -0.478861358975034, 0.8732885528487646,-0.017797231062664454,-0.8370819091796875,0.0991058349609375,-0.47869873046875
20220227-1545,2022-02-27 15:45:16Z,u01, 241,40,movements,el-ex, rt, d,297771.34209625004, -1.0025857359864048, -0.11751869656460835, -0.11035997006168537, 0.562074601650238, 0.3296751379966736, -0.5742158889770508, -0.8370516896247864, 0.11724837869405746, -0.5344130396842957, -0.07807886600494385, -0.01869186758995056, 0.027683913707733154, -0.07787976368903157, -0.47615986777314045, 0.8756725349276336,-0.02010454855816607,-0.915130615234375,0.0985565185546875,-0.5067291259765625
20220227-1545,2022-02-27 15:45:16Z,u01, 242,40,movements,el-ex, rt, d,297771.3670404167, -0.9944879047332799, -0.09987286247023043, -0.10976549876670207, 0.21576397120952606, 0.30195745825767517, -0.5806567072868347, -0.834301769733429, 0.09970691055059433, -0.5422168970108032, -0.06531059741973877, -0.058218300342559814, -0.04488033056259155, -0.06993845099599424, -0.47328656700642335, 0.87778938773174,-0.024377986084288317,-0.902069091796875,0.0311126708984375,-0.6031341552734375
20220227-1545,2022-02-27 15:45:16Z,u01, 243,40,movements,el-ex, rt, d,297771.3919844167, -0.9884044654724109, -0.08757890462906323, -0.11562156603505673, 0.008203962817788124, 0.23036497831344604, -0.48656171560287476, -0.8319486379623413, 0.08746699243783951, -0.5479150414466858, -0.12103897333145142, -0.013507641851902008, -0.1270269751548767, -0.06585305002157707, -0.4708565091426131, 0.8792338872247659,-0.030087164752305717,-0.9529876708984375,0.0739593505859375,-0.6749420166015625
20220227-1545,2022-02-27 15:45:16Z,u01, 244,40,movements,el-ex, rt, d,297771.4169284167, -0.9843511254691716, -0.07816705682975286, -0.12202608210993429, -0.04320815950632095, 0.1525222361087799, -0.4594103991985321, -0.8303698897361755, 0.07808747887611389, -0.5517138838768005, -0.20750242471694946, 0.03031092882156372, -0.14829838275909424, -0.06316321931203325, -0.46920515024353626, 0.8801210932709892,-0.03526717831738663,-1.0561065673828125,0.1131591796875,-0.70440673828125
20220227-1545,2022-02-27 15:45:17Z,u01, 245,40,movements,el-ex, rt, d,297771.4418724167, -0.9817618825698236, -0.06959006438366172, -0.13197220653444375, -0.26858317852020264, 0.10984707623720169, -0.56343013048172, -0.8294649720191956, 0.06953390687704086, -0.5542137622833252, -0.25969207286834717, 0.08090245723724365, -0.17884904146194458, -0.0616780665214251, -0.4680693724842103, 0.8805472747481162,-0.04175342297967599,-1.0891571044921875,0.1504364013671875,-0.733062744140625
20220227-1545,2022-02-27 15:45:17Z,u01, 246,40,movements,el-ex, rt, d,297771.4668164167, -0.9806238177053139, -0.0619514498459624, -0.14606779330672023, -0.23258240520954132, 0.031611666083335876, -0.5479925870895386, -0.8292508125305176, 0.06191182881593704, -0.5554367303848267, -0.23665189743041992, 0.08591529726982117, -0.19842374324798584, -0.061593842155562906, -0.46742680806055475, 0.8804763801247737,-0.049796049561740496,-1.0583038330078125,0.15380859375,-0.75384521484375
20220227-1545,2022-02-27 15:45:17Z,u01, 247,40,movements,el-ex, rt, d,297771.49176141666, -0.9819271432078563, -0.051057622845198776, -0.15219800678949724, 0.36740362644195557, -0.10545551031827927, -0.4494190216064453, -0.8304856419563293, 0.05103544145822525, -0.5546972155570984, -0.24272596836090088, 0.11626189947128296, -0.1808679699897766, -0.05827826931041047, -0.46824675778995284, 0.8799551560007268,-0.05502342947861577,-1.073211669921875,0.16729736328125,-0.735565185546875
20220227-1545,2022-02-27 15:45:17Z,u01, 248,40,movements,el-ex, rt, d,297771.51670541667, -0.984948877784749, -0.03462409264859991, -0.14609896324923521, 0.6567110419273376, -0.1364290714263916, -0.3913508355617523, -0.8327444195747375, 0.03461717441678047, -0.5525743365287781, -0.3173562288284302, 0.11836743354797363, -0.18172436952590942, -0.04971581788635823, -0.4703628173765748, 0.8792812680278325,-0.05613879097596425,-1.1661834716796875,0.154022216796875,-0.7433013916015625
20220227-1545,2022-02-27 15:45:17Z,u01, 249,40,movements,el-ex, rt, d,297771.5416494167, -0.9877957875132364, -0.01955963550703222, -0.14046884791538913, 0.3340343236923218, -0.11311396211385727, -0.35689041018486023, -0.8346548676490784, 0.019558388739824295, -0.5504260063171387, -0.37950223684310913, 0.17595243453979492, -0.20663881301879883, -0.04185616176341128, -0.4722658773933469, 0.8786042940271146,-0.05716231168995267,-1.2141571044921875,0.1955108642578125,-0.7570648193359375
