SessionID,LoggingTime,UID,RecNo,Hertz,Activity,MoveType,Wrist,Side,TimeStamp,DMRoll,DMPitch,DMYaw,DMRotX,DMRotY,DMRotZ,DMGrvX,DMGrvY,DMGrvZ,DMUAccelX,DMUAccelY,DMUAccelZ,DMQuatX,DMQuatY,DMQuatW,DMQuatZ,AccelroX,AceelroY,AceelroZ
20220227-1534,2022-02-27 15:34:41Z,u01, 1,40,movements,el-ex, rt, d,297176.521952125, -1.1498412177818136, 0.2948395143073942, 0.19184163918132602, 0.7634826898574829, 0.3422696590423584, -0.2447938323020935, -0.873315155506134, -0.29058629274368286, -0.390999436378479, 0.09232443571090698, -0.23233243823051453, 0.032570600509643555, 0.17421942659931816, -0.5235913195762532, 0.8339663922612293,0.0,-0.7809906005859375,-0.522918701171875,-0.358428955078125
20220227-1534,2022-02-27 15:34:42Z,u01, 2,40,movements,el-ex, rt, d,297176.546897125, -1.1440741615197059, 0.30637680616071494, 0.2033309204727028, 0.3979381024837494, 0.3594147861003876, -0.195554718375206, -0.867935836315155, -0.301606148481369, -0.39461544156074524, 0.07223564386367798, -0.20977693796157837, 0.026283621788024902, 0.18193319850916892, -0.5192230672823532, 0.8350468502261503,0.002156429804914539,-0.7916107177734375,-0.5238037109375,-0.37786865234375
20220227-1534,2022-02-27 15:34:42Z,u01, 3,40,movements,el-ex, rt, d,297176.57184212503, -1.13745480694704, 0.31323557129223956, 0.20777442387077194, 0.15008090436458588, 1.1815333366394043, -0.7835119962692261, -0.8634069561958313, -0.308138370513916, -0.3994738757610321, 0.35821884870529175, -0.26806408166885376, -0.12295645475387573, 0.18588206816114816, -0.5154715542701157, 0.8364983405230157,0.002756413681508918,-0.50518798828125,-0.576202392578125,-0.522430419921875
20220227-1534,2022-02-27 15:34:42Z,u01, 4,40,movements,el-ex, rt, d,297176.59678712505, -1.1352512784843445, 0.31903984542601777, 0.20469093413609257, -0.13260069489479065, -0.073115274310112, -0.279312402009964, -0.8608885407447815, -0.31365498900413513, -0.4006141126155853, 0.21513646841049194, -0.18027204275131226, -0.057881951332092285, 0.18746417096080545, -0.5143443744436491, 0.8368435853190417,9.854765375694186e-05,-0.6920623779296875,-0.520782470703125,-0.4521331787109375
20220227-1534,2022-02-27 15:34:42Z,u01, 5,40,movements,el-ex, rt, d,297176.621732125, -1.1339473846728505, 0.3218351160096904, 0.19529180809807525, -0.4118715524673462, -0.047240935266017914, -0.22514250874519348, -0.8595676422119141, -0.31630799174308777, -0.4013637602329254, 0.12084382772445679, -0.20319277048110962, -0.014911144971847534, 0.18619400703958586, -0.514441363541927, 0.8370555728933644,-0.0044694351371296626,-0.7387237548828125,-0.519500732421875,-0.4162750244140625
20220227-1534,2022-02-27 15:34:42Z,u01, 6,40,movements,el-ex, rt, d,297176.646677125, -1.1299957234873825, 0.32078089867211007, 0.17775170263481394, -0.8307937383651733, -0.1191454827785492, -0.25459548830986023, -0.8582759499549866, -0.31530770659446716, -0.40489935874938965, 0.1858820915222168, -0.16163626313209534, 0.03142532706260681, 0.1812644978988603, -0.5144837250768846, 0.8380483429678058,-0.01116740582875786,-0.6571044921875,-0.460479736328125,-0.376739501953125
20220227-1534,2022-02-27 15:34:42Z,u01, 7,40,movements,el-ex, rt, d,297176.671622125, -1.1279056028981287, 0.3184138829578239, 0.15834755761740496, -0.4432973265647888, -0.11889581382274628, -0.21347613632678986, -0.8580997586250305, -0.31306058168411255, -0.40701109170913696, 0.14772677421569824, -0.21074315905570984, -0.004304707050323486, 0.1753081133273401, -0.515520631974692, 0.838548862519986,-0.018478144095217197,-0.7103729248046875,-0.5238037109375,-0.41131591796875
20220227-1534,2022-02-27 15:34:42Z,u01, 8,40,movements,el-ex, rt, d,297176.69656712504, -1.1280772537421346, 0.3193608208282308, 0.15244957866797035, -0.01771482080221176, -0.017759010195732117, -0.08964387327432632, -0.8579012751579285, -0.3139597773551941, -0.4067365825176239, 0.09636563062667847, -0.2307789921760559, -0.00949251651763916, 0.17417614385884436, -0.5160371876537644, 0.8384020610050456,-0.02121987468795017,-0.7722625732421875,-0.5291748046875,-0.4309539794921875
20220227-1534,2022-02-27 15:34:42Z,u01, 9,40,movements,el-ex, rt, d,297176.721512125, -1.126811928042519, 0.3206680258747916, 0.1494808052295851, -0.14896182715892792, -0.016344938427209854, -0.09981295466423035, -0.8570146560668945, -0.3152005970478058, -0.40764516592025757, 0.16891944408416748, -0.1651460826396942, -0.03868955373764038, 0.17396397166265654, -0.5156684506538127, 0.8386341126660426,-0.02270486215363643,-0.6880950927734375,-0.4803466796875,-0.4463348388671875
20220227-1534,2022-02-27 15:34:42Z,u01, 10,40,movements,el-ex, rt, d,297176.746457125, -1.1260859216101957, 0.3207209064538173, 0.14125087271598932, -0.3541284501552582, -0.12724542617797852, -0.12811629474163055, -0.8567034006118774, -0.31525078415870667, -0.4082600772380829, 0.15177780389785767, -0.19436228275299072, -0.035679012537002563, 0.17187189495073038, -0.5160717183838678, 0.8387183360249197,-0.026107388091509975,-0.71490478515625,-0.522369384765625,-0.4543914794921875
20220227-1534,2022-02-27 15:34:42Z,u01, 11,40,movements,el-ex, rt, d,297176.771402125, -1.127071310069737, 0.3204774242278326, 0.13285162930848105, -0.17572098970413208, -0.16652299463748932, -0.12566052377223969, -0.8571746349334717, -0.31501972675323486, -0.4074486792087555, 0.13670027256011963, -0.1450328230857849, -0.060645103454589844, 0.16958776449646104, -0.5172191568332947, 0.8383588206304418,-0.029647892829203326,-0.7204742431640625,-0.460052490234375,-0.4680938720703125
20220227-1534,2022-02-27 15:34:42Z,u01, 12,40,movements,el-ex, rt, d,297176.796346125, -1.130270732017091, 0.32259959889267903, 0.12859056279161657, -0.08626165241003036, -0.15964184701442719, -0.14369405806064606, -0.8578671813011169, -0.3170331120491028, -0.40441811084747314, 0.1535213589668274, -0.0873248279094696, -0.036530256271362305, 0.1693118107586698, -0.518772060346882, 0.8373575340563483,-0.03227244501447463,-0.7086029052734375,-0.4061279296875,-0.44171142578125
20220227-1534,2022-02-27 15:34:42Z,u01, 13,40,movements,el-ex, rt, d,297176.82129112503, -1.132673538101387, 0.3248369372207408, 0.12272643969775118, -0.2653282880783081, -0.21600645780563354, -0.2154645174741745, -0.8581920266151428, -0.3191542625427246, -0.4020537734031677, 0.18944495916366577, -0.029554903507232666, -0.025848329067230225, 0.16867215307108988, -0.5201180828944095, 0.8365194106176103,-0.035529619251465416,-0.6687469482421875,-0.3487091064453125,-0.4279022216796875
20220227-1534,2022-02-27 15:34:42Z,u01, 14,40,movements,el-ex, rt, d,297176.84623612504, -1.1364773147426654, 0.32777711109827734, 0.11274245828921711, -0.20284518599510193, -0.3466312885284424, -0.2892455458641052, -0.8588601350784302, -0.32193928956985474, -0.39838990569114685, 0.19421768188476562, 0.006829977035522461, 0.007887125015258789, 0.16721125170541565, -0.5223460962151143, 0.8351823309872252,-0.0408115585532014,-0.6746978759765625,-0.334625244140625,-0.38250732421875
20220227-1534,2022-02-27 15:34:42Z,u01, 15,40,movements,el-ex, rt, d,297176.871181125, -1.142611356285959, 0.33345329878352764, 0.1075019554531271, -0.009487583301961422, -0.2370254546403885, -0.24530550837516785, -0.8596113324165344, -0.3273080587387085, -0.3923490047454834, 0.08969861268997192, -0.034065842628479004, 0.04232779145240784, 0.1680472316881039, -0.5249624976204921, 0.833154108995259,-0.04504090641600117,-0.7699127197265625,-0.3613739013671875,-0.3500213623046875
20220227-1534,2022-02-27 15:34:42Z,u01, 16,40,movements,el-ex, rt, d,297176.896126125, -1.146614739874027, 0.33897812705426805, 0.10378026921044371, -0.1319267451763153, -0.2046298235654831, -0.2880815863609314, -0.8595139980316162, -0.33252355456352234, -0.38815435767173767, 0.14369362592697144, 0.007190912961959839, 0.05659624934196472, 0.16924840489272405, -0.5265717454206729, 0.831704644708132,-0.04842091721564018,-0.7027435302734375,-0.315399169921875,-0.3236236572265625
20220227-1534,2022-02-27 15:34:42Z,u01, 17,40,movements,el-ex, rt, d,297176.921071125, -1.149771570518201, 0.3441125071076533, 0.0949184535661248, -0.32307764887809753, -0.2601085305213928, -0.33383044600486755, -0.8591655492782593, -0.33736133575439453, -0.3847362697124481, 0.141437828540802, 0.01572132110595703, 0.07917910814285278, 0.16894064181891535, -0.5282905728709053, 0.8303481633548377,-0.05376041709728957,-0.7177276611328125,-0.3216400146484375,-0.3055572509765625
20220227-1534,2022-02-27 15:34:42Z,u01, 18,40,movements,el-ex, rt, d,297176.94601612503, -1.1522352004105088, 0.347195351208474, 0.08503645777307053, -0.25307023525238037, -0.1905476450920105, -0.196708083152771, -0.8591563701629639, -0.340261846780777, -0.3821938633918762, 0.09257006645202637, 0.010580480098724365, 0.08795872330665588, 0.16752298085770934, -0.5299425658046694, 0.8292329667716458,-0.05890326511802446,-0.776092529296875,-0.3233489990234375,-0.289154052734375
20220227-1534,2022-02-27 15:34:42Z,u01, 19,40,movements,el-ex, rt, d,297176.97096112504, -1.1536437012561984, 0.3496556248850001, 0.07937916821368902, -0.09710348397493362, -0.04649259150028229, -0.17247024178504944, -0.858925998210907, -0.3425742983818054, -0.3806430697441101, 0.03197580575942993, -0.00616532564163208, 0.07806137204170227, 0.166990191271521, -0.5308415470037106, 0.8285369890866909,-0.06203281407463812,-0.8269500732421875,-0.3487396240234375,-0.302581787109375
20220227-1534,2022-02-27 15:34:42Z,u01, 20,40,movements,el-ex, rt, d,297176.995906125, -1.1522737374987557, 0.35256477853377793, 0.07426302587979317, -0.19280265271663666, 0.0022950582206249237, -0.22195376455783844, -0.8574894070625305, -0.3453059494495392, -0.38141271471977234, 0.05847817659378052, 0.1032710075378418, 0.06483873724937439, 0.16687068078096812, -0.5305165524110766, 0.8285553196451354,-0.06482623318470954,-0.7913665771484375,-0.2122344970703125,-0.3204803466796875
20220227-1534,2022-02-27 15:34:42Z,u01, 21,40,movements,el-ex, rt, d,297177.020851125, -1.1501227691462843, 0.3572544499493783, 0.06798902897989188, 0.0046221110969781876, -0.0008171796798706055, -0.30164575576782227, -0.855179488658905, -0.3497033715248108, -0.38259077072143555, 0.050461411476135254, 0.1677575409412384, 0.03481253981590271, 0.16720606656886922, -0.5298554008961832, 0.8286140936836885,-0.06851374022369722,-0.804718017578125,-0.18194580078125,-0.3477783203125
20220227-1534,2022-02-27 15:34:42Z,u01, 22,40,movements,el-ex, rt, d,297177.045796125, -1.1497952287239288, 0.3654937781741619, 0.07008189773292503, 0.3590673804283142, 0.12036164849996567, -0.22900941967964172, -0.8523954153060913, -0.3574104905128479, -0.38168036937713623, -0.0009981989860534668, 0.08185195922851562, 0.032025277614593506, 0.17115644749188258, -0.5290229534665557, 0.8282283820719407,-0.06984313743786469,-0.8602752685546875,-0.29071044921875,-0.351348876953125
20220227-1534,2022-02-27 15:34:42Z,u01, 23,40,movements,el-ex, rt, d,297177.07074112503, -1.1500715785395519, 0.3744010038066859, 0.07828764504982993, 0.479562908411026, 0.02222415804862976, -0.19311080873012543, -0.8495612144470215, -0.3657150864601135, -0.38012945652008057, 0.06438958644866943, 0.03623202443122864, 0.017672240734100342, 0.17696967829979626, -0.5278418393665275, 0.827841270445595,-0.06887431123925475,-0.7851715087890625,-0.3294830322265625,-0.362457275390625
20220227-1534,2022-02-27 15:34:42Z,u01, 24,40,movements,el-ex, rt, d,297177.09568612505, -1.1527325421197994, 0.38285484107411016, 0.08432568204294241, 0.057878509163856506, -0.003921160474419594, -0.2045980840921402, -0.8477138876914978, -0.37357014417648315, -0.3765987753868103, -0.0013004541397094727, 0.032719314098358154, 0.051418811082839966, 0.18193333183626031, -0.5278265642820594, 0.8267721329992949,-0.0689007824784526,-0.8623046875,-0.329071044921875,-0.3087921142578125
20220227-1534,2022-02-27 15:34:42Z,u01, 25,40,movements,el-ex, rt, d,297177.120631125, -1.1489385512076022, 0.38418581162901033, 0.0753241784622536, -0.4886992871761322, -0.0013473471626639366, -0.1796417385339737, -0.8458245992660522, -0.37480443716049194, -0.3796083331108093, 0.04617244005203247, 0.09321871399879456, 0.053161948919296265, 0.1802387584768878, -0.5269818034946487, 0.8273619573206046,-0.07263916831711875,-0.799652099609375,-0.281585693359375,-0.326446533203125
20220227-1534,2022-02-27 15:34:42Z,u01, 26,40,movements,el-ex, rt, d,297177.145575125, -1.1447526862913215, 0.3843253925554971, 0.06212206964870464, -0.2933163046836853, -0.083107128739357, -0.22109536826610565, -0.8441805243492126, -0.3749338388442993, -0.38312387466430664, 0.09755265712738037, 0.13097631931304932, 0.02873864769935608, 0.17697662940450218, -0.5264193562412689, 0.8279579448771519,-0.07776634017947487,-0.7408447265625,-0.2440643310546875,-0.3611297607421875
20220227-1534,2022-02-27 15:34:42Z,u01, 27,40,movements,el-ex, rt, d,297177.170520125, -1.1468232881095133, 0.39029203956732905, 0.05920956649038498, 0.2805456817150116, -0.11292754113674164, -0.28139325976371765, -0.8429180979728699, -0.3804585039615631, -0.38044804334640503, -0.01801353693008423, 0.021846354007720947, 0.0668342113494873, 0.17857698865923916, -0.5271491563437808, 0.8268631762967193,-0.08075611599794336,-0.860931396484375,-0.358612060546875,-0.3136138916015625
20220227-1534,2022-02-27 15:34:42Z,u01, 28,40,movements,el-ex, rt, d,297177.195465125, -1.14775752224174, 0.3982795537585992, 0.06549135427898045, 0.318600058555603, 0.20571422576904297, -0.10679575800895691, -0.8404752612113953, -0.3878331184387207, -0.3784007430076599, -0.10416603088378906, -0.010985910892486572, 0.09748643636703491, 0.18346862168527342, -0.5264398311820608, 0.8262797273864562,-0.0803893630432082,-0.911956787109375,-0.3822021484375,-0.2742767333984375
20220227-1534,2022-02-27 15:34:42Z,u01, 29,40,movements,el-ex, rt, d,297177.22041012504, -1.1449276910367492, 0.4026299997965735, 0.06934571519672593, -0.021659262478351593, 0.06357599049806595, -0.1406211107969284, -0.8378564715385437, -0.3918393850326538, -0.38007694482803345, 0.1690637469291687, 0.13433203101158142, 0.10146680474281311, 0.18637683618774975, -0.5246191019007531, 0.826853111583606,-0.07970244392471698,-0.668792724609375,-0.25750732421875,-0.2786102294921875
20220227-1534,2022-02-27 15:34:42Z,u01, 30,40,movements,el-ex, rt, d,297177.245355125, -1.141004787968502, 0.4041437547208673, 0.056650123936105815, -0.7136369347572327, -0.08638660609722137, -0.3415294289588928, -0.8358190059661865, -0.3932316303253174, -0.383113294839859, 0.15895426273345947, 0.2097141146659851, 0.15363645553588867, 0.18383071911216947, -0.5240702410742928, 0.8272441504826411,-0.08499420290302867,-0.7032470703125,-0.176849365234375,-0.2333221435546875
20220227-1534,2022-02-27 15:34:42Z,u01, 31,40,movements,el-ex, rt, d,297177.270300125, -1.1334864446462425, 0.4053346418256265, 0.03741131542329767, -0.30260881781578064, 0.08772014081478119, -0.33893370628356934, -0.8324901461601257, -0.3943262994289398, -0.389187753200531, 0.03222757577896118, 0.20537668466567993, 0.05270105600357056, 0.17962000636452707, -0.5226306304005857, 0.8282639136448247,-0.09259002811610623,-0.800262451171875,-0.1889495849609375,-0.33648681640625
20220227-1534,2022-02-27 15:34:42Z,u01, 32,40,movements,el-ex, rt, d,297177.295245125, -1.130622205241095, 0.4155345445097536, 0.03938452387967306, 0.8178958892822266, 0.1731526255607605, -0.3031465709209442, -0.8276901841163635, -0.4036790430545807, -0.38983649015426636, 0.036140382289886475, 0.1768265962600708, 0.04013568162918091, 0.184471150632721, -0.52062668893142, 0.8282775419476404,-0.09420610087490666,-0.7781524658203125,-0.25091552734375,-0.349517822265625
20220227-1534,2022-02-27 15:34:42Z,u01, 33,40,movements,el-ex, rt, d,297177.320190125, -1.1379585017798526, 0.4343721437362164, 0.06642959088895542, 1.3090696334838867, 0.131647527217865, -0.261441707611084, -0.8234778046607971, -0.42084094882011414, -0.3804963529109955, 0.07271468639373779, 0.07043802738189697, 0.08186662197113037, 0.1989051187560683, -0.5197966721455276, 0.826062034880819,-0.08871257258195908,-0.750762939453125,-0.35040283203125,-0.2986297607421875
20220227-1534,2022-02-27 15:34:42Z,u01, 34,40,movements,el-ex, rt, d,297177.34513512504, -1.1411673469779182, 0.44869405527717693, 0.0847102473598566, 0.18878811597824097, 0.251926988363266, -0.19155777990818024, -0.819130539894104, -0.4337892234325409, -0.3753027319908142, 0.024757981300354004, 0.027829080820083618, 0.13218459486961365, 0.20935653687271538, -0.5181876895599007, 0.8248474802557195,-0.08531156503838455,-0.79412841796875,-0.4159698486328125,-0.22332763671875
20220227-1534,2022-02-27 15:34:42Z,u01, 35,40,movements,el-ex, rt, d,297177.370080125, -1.1308526183339545, 0.4475995112494757, 0.0747740017188687, -0.6887141466140747, 0.19659122824668884, -0.04630478471517563, -0.8156450986862183, -0.4328027665615082, -0.38393375277519226, 0.09422469139099121, -0.006802976131439209, 0.10715466737747192, 0.20679009819712035, -0.5150446394749969, 0.8271723559037079,-0.0880512653456565,-0.7214202880859375,-0.439605712890625,-0.2767791748046875
20220227-1534,2022-02-27 15:34:42Z,u01, 36,40,movements,el-ex, rt, d,297177.395025125, -1.1202071770376214, 0.4402873848963047, 0.05947404629905521, -0.36928343772888184, 0.1602630615234375, 0.0953918993473053, -0.8143388628959656, -0.42619946599006653, -0.39396238327026367, 0.10826879739761353, 0.07459118962287903, 0.04464307427406311, 0.2003361118025935, -0.5127223890376345, 0.8298377668718062,-0.09138133827932188,-0.7093658447265625,-0.340728759765625,-0.345672607421875
20220227-1534,2022-02-27 15:34:42Z,u01, 37,40,movements,el-ex, rt, d,297177.419970125, -1.1151019717585042, 0.43661860594725926, 0.05947582801983979, 0.177649587392807, 0.3071167469024658, 0.18392448127269745, -0.8137156367301941, -0.422877699136734, -0.3988000750541687, 0.02375274896621704, 0.05697190761566162, 0.06888985633850098, 0.19905679638872922, -0.5108584510424865, 0.8314541542857272,-0.08991190530992332,-0.7899627685546875,-0.36590576171875,-0.3299102783203125
20220227-1534,2022-02-27 15:34:42Z,u01, 38,40,movements,el-ex, rt, d,297177.44491512503, -1.1090776139384775, 0.4326293589532524, 0.0657998141844397, 0.023817874491214752, 0.3060398995876312, 0.27547210454940796, -0.8128021359443665, -0.41925936937332153, -0.4044431746006012, 0.08602601289749146, 0.026391297578811646, 0.09362185001373291, 0.19928564831403273, -0.5079996419096031, 0.8335990035656287,-0.08564053297171742,-0.7048187255859375,-0.39056396484375,-0.32159423828125
20220227-1534,2022-02-27 15:34:42Z,u01, 39,40,movements,el-ex, rt, d,297177.46986012504, -1.1034188474105093, 0.42440716731904754, 0.06370749341348678, -0.45303842425346375, 0.06225759536027908, 0.2472601979970932, -0.8135506510734558, -0.41178062558174133, -0.4105754792690277, 0.13465648889541626, 0.10481947660446167, 0.06977051496505737, 0.19559331672102231, -0.506414370317083, 0.835620613070828,-0.08382167479790537,-0.67889404296875,-0.3069610595703125,-0.3408050537109375
20220227-1534,2022-02-27 15:34:42Z,u01, 40,40,movements,el-ex, rt, d,297177.49480412505, -1.0970651979993802, 0.4124734959362301, 0.052779734163900485, -0.6697304248809814, 0.15962402522563934, 0.2837669849395752, -0.8152406215667725, -0.40087661147117615, -0.41794833540916443, -0.008398354053497314, 0.13216927647590637, 0.06133529543876648, 0.1881416185432613, -0.5055972336839901, 0.8377348496004058,-0.08470281696952675,-0.8555755615234375,-0.253143310546875,-0.361083984375
20220227-1534,2022-02-27 15:34:42Z,u01, 41,40,movements,el-ex, rt, d,297177.519749125, -1.0877023752388204, 0.3990791587976856, 0.04392024702695472, -0.31571826338768005, 0.24257804453372955, 0.33616361021995544, -0.8159739375114441, -0.38857004046440125, -0.4280188977718353, -0.027059078216552734, 0.18375125527381897, -0.01788860559463501, 0.18071529293372238, -0.503321505313, 0.840793088745351,-0.08412285870922531,-0.8430328369140625,-0.2048187255859375,-0.4459075927734375
20220227-1534,2022-02-27 15:34:43Z,u01, 42,40,movements,el-ex, rt, d,297177.54469425004, -1.0858407439330748, 0.39284583615245905, 0.04786562779927021, 0.3449769914150238, 0.06741906702518463, 0.2273823469877243, -0.8173025846481323, -0.3828189969062805, -0.43065789341926575, 0.018092870712280273, 0.19467812776565552, -0.10127866268157959, 0.17917648531922126, -0.5025602802991023, 0.8419120578228145,-0.08070407463797646,-0.810943603515625,-0.193328857421875,-0.53387451171875
20220227-1534,2022-02-27 15:34:43Z,u01, 43,40,movements,el-ex, rt, d,297177.56963925, -1.0885271201737639, 0.3944160413157454, 0.060132401197465976, 0.35869964957237244, 0.11985338479280472, 0.08693802356719971, -0.8179229497909546, -0.384269118309021, -0.4281814396381378, -0.059793174266815186, 0.1470712423324585, -0.029429525136947632, 0.18280987417946037, -0.5024836571958846, 0.8415975896108592,-0.07618599265752146,-0.877716064453125,-0.2371978759765625,-0.457611083984375
20220227-1534,2022-02-27 15:34:43Z,u01, 44,40,movements,el-ex, rt, d,297177.59458425, -1.0860036758533065, 0.39301806011422663, 0.06229276063891252, -0.23160243034362793, 0.10988476127386093, 0.15188387036323547, -0.8173144459724426, -0.3829781115055084, -0.4304940402507782, -0.01839423179626465, 0.12721025943756104, -0.02081507444381714, 0.18286295766261548, -0.5013123982730681, 0.8424185318784689,-0.07468778163154327,-0.8090972900390625,-0.263153076171875,-0.478424072265625
20220227-1534,2022-02-27 15:34:43Z,u01, 45,40,movements,el-ex, rt, d,297177.61952925, -1.0861118416630045, 0.3859292579969666, 0.06057426978326985, -0.02707429975271225, -0.23416388034820557, 0.23645980656147003, -0.8197425603866577, -0.37642019987106323, -0.4316597282886505, 0.07259583473205566, 0.04620468616485596, -0.12418735027313232, 0.1794630405556076, -0.5019593205577251, 0.8428593895351733,-0.07360755014116721,-0.7471466064453125,-0.3302154541015625,-0.55584716796875
20220227-1534,2022-02-27 15:34:43Z,u01, 46,40,movements,el-ex, rt, d,297177.64447425003, -1.0944742371723317, 0.38343396317520856, 0.06573558467053375, 0.14892403781414032, -0.13130035996437073, 0.15166155993938446, -0.8241556882858276, -0.3741072714328766, -0.42521899938583374, -0.13983362913131714, 0.0398939847946167, -0.07601684331893921, 0.17941642390115747, -0.5051734754100174, 0.8411248787853645,-0.07154378074929246,-1.01055908203125,-0.3351898193359375,-0.467254638671875
20220227-1534,2022-02-27 15:34:43Z,u01, 47,40,movements,el-ex, rt, d,297177.66941925004, -1.0937530159357793, 0.3783605313521137, 0.0654837479453158, -0.39783602952957153, 0.08916696906089783, 0.20354706048965454, -0.8255243301391602, -0.36939746141433716, -0.4266793131828308, -0.0996161699295044, 0.014111757278442383, 0.09200841188430786, 0.17726038235469552, -0.5052119361927341, 0.8416655686707397,-0.07027697578807734,-0.925140380859375,-0.35528564453125,-0.3346710205078125
20220227-1534,2022-02-27 15:34:43Z,u01, 48,40,movements,el-ex, rt, d,297177.69436425, -1.090503669233321, 0.366036285533474, 0.05493877607228572, -0.6275748610496521, -0.18907329440116882, 0.322507381439209, -0.8281083106994629, -0.3579171299934387, -0.43143025040626526, 0.07826083898544312, -0.007698714733123779, -0.00957915186882019, 0.16955594436144109, -0.5055053483726843, 0.8429927057891768,-0.07126361093336303,-0.728790283203125,-0.371917724609375,-0.451385498046875
20220227-1534,2022-02-27 15:34:43Z,u01, 49,40,movements,el-ex, rt, d,297177.71930925, -1.0938936916921849, 0.3532551869394462, 0.04596871174208264, -0.5416754484176636, -0.2113257348537445, 0.2738816738128662, -0.833562433719635, -0.3459538221359253, -0.43068528175354004, -0.09142547845840454, -0.015298038721084595, 0.0619262158870697, 0.16180442489708197, -0.5084060244461374, 0.8427061492153838,-0.07203558567838897,-0.92498779296875,-0.3612518310546875,-0.3687591552734375
20220227-1534,2022-02-27 15:34:43Z,u01, 50,40,movements,el-ex, rt, d,297177.74425425, -1.0901286897383937, 0.338225833591944, 0.034706221029442014, -0.7644960880279541, 0.14155122637748718, 0.3767445385456085, -0.8364511132240295, -0.3318139612674713, -0.4361755847930908, -0.17258214950561523, -0.034183382987976074, 0.1039002537727356, 0.15276579135737578, -0.5085025303067581, 0.8442829372875784,-0.0726238887873834,-0.9745025634765625,-0.362213134765625,-0.3473968505859375
20220227-1534,2022-02-27 15:34:43Z,u01, 51,40,movements,el-ex, rt, d,297177.76919925003, -1.0832417364182927, 0.3219671591911596, 0.02054293905716553, -0.7241002321243286, -0.005703014321625233, 0.26549863815307617, -0.8380832672119141, -0.31643325090408325, -0.444394588470459, 0.028741776943206787, -0.014728277921676636, -0.026720374822616577, 0.14256703057196454, -0.5074222584867867, 0.8465991445836273,-0.07394137174373244,-0.8093414306640625,-0.3311614990234375,-0.4711151123046875
20220227-1534,2022-02-27 15:34:43Z,u01, 52,40,movements,el-ex, rt, d,297177.79414425005, -1.0826309236040699, 0.31134898229645147, 0.012358719632987437, -0.1868717521429062, -0.0802527517080307, 0.209618479013443, -0.8407319188117981, -0.30634304881095886, -0.4464571475982666, -0.01043391227722168, -0.018104642629623413, -0.03782624006271362, 0.13602265995989402, -0.5082019915642213, 0.8471452877045847,-0.07465646540318599,-0.8831329345703125,-0.3117523193359375,-0.4764251708984375
20220227-1534,2022-02-27 15:34:43Z,u01, 53,40,movements,el-ex, rt, d,297177.81908825, -1.0819599226056773, 0.30532909501292105, 0.014255698738502508, -0.0031384406611323357, 0.16323494911193848, 0.30802327394485474, -0.8420450687408447, -0.3006070554256439, -0.4478790760040283, -0.08486545085906982, 0.09829074144363403, 0.03274857997894287, 0.1339816219144542, -0.5080446739140986, 0.847771374990758,-0.0722726773059032,-0.926910400390625,-0.2023162841796875,-0.415130615234375
20220227-1534,2022-02-27 15:34:43Z,u01, 54,40,movements,el-ex, rt, d,297177.84403325, -1.078997918433044, 0.29771181969573085, 0.017831490145387558, -0.020615436136722565, 0.12150506675243378, 0.3510250747203827, -0.8427088260650635, -0.2933334410190582, -0.4514394700527191, 0.030529141426086426, 0.06458890438079834, -0.01074916124343872, 0.13176650863153805, -0.5068706431912248, 0.8491239664690892,-0.06861834751479412,-0.7998046875,-0.255340576171875,-0.4897613525390625
20220227-1534,2022-02-27 15:34:43Z,u01, 55,40,movements,el-ex, rt, d,297177.86897825, -1.0781294101549446, 0.28966932377019966, 0.02136927030985819, -0.033314451575279236, 0.07325098663568497, 0.35281363129615784, -0.8443676233291626, -0.2856353521347046, -0.4532723128795624, -0.03658336400985718, -0.011605888605117798, -0.06215420365333557, 0.1292816157638597, -0.5066064561521971, 0.8499468867546177,-0.06501133822765887,-0.880950927734375,-0.2972412109375,-0.5154266357421875
20220227-1534,2022-02-27 15:34:43Z,u01, 56,40,movements,el-ex, rt, d,297177.89392325, -1.076210704578794, 0.28145066090138193, 0.025508235520348716, 0.013266964815557003, 0.14754772186279297, 0.3802483379840851, -0.845534086227417, -0.27774950861930847, -0.4559905230998993, -0.08688479661941528, -0.015875399112701416, -0.012118518352508545, 0.12690177950881365, -0.5058662642720869, 0.8510404863254535,-0.06103630831282525,-0.929229736328125,-0.2949371337890625,-0.4624176025390625
20220227-1534,2022-02-27 15:34:43Z,u01, 57,40,movements,el-ex, rt, d,297177.91886825004, -1.0742022650331946, 0.2728727307524871, 0.031685754278829865, 0.09969542920589447, 0.12978410720825195, 0.4751063287258148, -0.8466802835464478, -0.2694989740848541, -0.4588060975074768, -0.026793956756591797, -0.012071460485458374, -0.03669250011444092, 0.12487778709642558, -0.5049777116618781, 0.8522067636576249,-0.05609712633407399,-0.87347412109375,-0.2815704345703125,-0.4954986572265625
20220227-1534,2022-02-27 15:34:43Z,u01, 58,40,movements,el-ex, rt, d,297177.94381325, -1.0739796114332876, 0.26316254265021444, 0.041702401378179724, 0.16272592544555664, 0.13229893147945404, 0.5515981912612915, -0.8488386273384094, -0.2601355016231537, -0.46022021770477295, -0.003547966480255127, -0.0031243860721588135, -0.05052188038825989, 0.12328454738372371, -0.5046690175310659, 0.8530390493044249,-0.04934169008272832,-0.8605804443359375,-0.2605438232421875,-0.51324462890625
20220227-1534,2022-02-27 15:34:43Z,u01, 59,40,movements,el-ex, rt, d,297177.96875825, -1.072387818010513, 0.25132138625493966, 0.04914267399122345, -0.13546085357666016, 0.11683641374111176, 0.5727664232254028, -0.8507510423660278, -0.24868404865264893, -0.46301090717315674, -0.05661296844482422, -0.05032721161842346, -0.10107588768005371, 0.12016125344067896, -0.5040395040732987, 0.854196733422264,-0.04305352035935134,-0.9073638916015625,-0.29901123046875,-0.5640869140625
20220227-1534,2022-02-27 15:34:43Z,u01, 60,40,movements,el-ex, rt, d,297177.99370325, -1.0716086377059801, 0.23634855222523596, 0.05201809555686211, -0.1265549510717392, 0.02135603502392769, 0.5615846514701843, -0.853563666343689, -0.23415425419807434, -0.46540406346321106, -0.1314064860343933, -0.12244363129138947, -0.1653026044368744, 0.11452687340743661, -0.5041642272691877, 0.8551378192855357,-0.037965543913730915,-1.015594482421875,-0.360595703125,-0.6529541015625
20220227-1534,2022-02-27 15:34:43Z,u01, 61,40,movements,el-ex, rt, d,297178.01864825, -1.0716916144669861, 0.22558983941427657, 0.060907295614480474, 0.37556663155555725, 0.14589396119117737, 0.5652768015861511, -0.8557647466659546, -0.22368130087852478, -0.4665120840072632, -0.29940199851989746, -0.04800143837928772, -0.16877222061157227, 0.11218233115148782, -0.5041419208188846, 0.8557269605210225,-0.03142607611435494,-1.1551666259765625,-0.2716827392578125,-0.635284423828125
20220227-1534,2022-02-27 15:34:43Z,u01, 62,40,movements,el-ex, rt, d,297178.04359325004, -1.0716117444436957, 0.218745714931034, 0.08141511862759969, 0.7630484104156494, 0.25166887044906616, 0.6032037138938904, -0.8570515513420105, -0.2170054018497467, -0.4673023819923401, -0.3134044408798218, 0.049967408180236816, -0.21133220195770264, 0.11443262779358215, -0.5032434649783442, 0.8562795729235573,-0.020897196180368727,-1.1800689697265625,-0.18975830078125,-0.6949005126953125
20220227-1534,2022-02-27 15:34:43Z,u01, 63,40,movements,el-ex, rt, d,297178.06853825, -1.068160323962824, 0.2152724634455315, 0.10060323305853698, 0.17698854207992554, 0.2529338598251343, 0.4202815592288971, -0.8560889363288879, -0.2136136144399643, -0.4706178903579712, -0.3992975950241089, -0.2092532515525818, -0.19127780199050903, 0.11779784701546803, -0.5008140660959596, 0.8574233438052075,-0.01158949374302759,-1.2553863525390625,-0.4228668212890625,-0.661895751953125
20220227-1534,2022-02-27 15:34:43Z,u01, 64,40,movements,el-ex, rt, d,297178.09348325, -1.064971456880945, 0.2035679844638989, 0.10104753315130202, -0.45845985412597656, 0.05429947376251221, 0.3719535768032074, -0.8567123413085938, -0.2021649181842804, -0.4745244085788727, -0.4290695786476135, -0.2801959216594696, -0.23441410064697266, 0.11293484700524614, -0.49998351517406214, 0.8586003411860428,-0.00823339623020547,-1.2999725341796875,-0.469207763671875,-0.721466064453125
20220227-1534,2022-02-27 15:34:43Z,u01, 65,40,movements,el-ex, rt, d,297178.11842825, -1.063871571785692, 0.19166016658835258, 0.0952759896748136, -0.3326433300971985, -0.04974111169576645, 0.24435602128505707, -0.8582338094711304, -0.19048891961574554, -0.4766014516353607, -0.5253722667694092, -0.21048158407211304, -0.2697821259498596, 0.10641118370193017, -0.5003757971574623, 0.8592105905986278,-0.00762396246990138,-1.38360595703125,-0.400970458984375,-0.7463836669921875
20220227-1534,2022-02-27 15:34:43Z,u01, 66,40,movements,el-ex, rt, d,297178.14337325003, -1.0655494863976378, 0.1857272046925112, 0.09364937286032336, -0.04520449787378311, -0.09169901907444, 0.1010294109582901, -0.8600060939788818, -0.18466128408908844, -0.47569936513900757, -0.6285498738288879, -0.25691282749176025, -0.26776978373527527, 0.1034626424161014, -0.501443715523915, 0.858954122946999,-0.0069020250111118675,-1.5137176513671875,-0.4578399658203125,-0.73291015625
20220227-1534,2022-02-27 15:34:43Z,u01, 67,40,movements,el-ex, rt, d,297178.16831825004, -1.0686662451200313, 0.18360383525642923, 0.09352447676931029, -0.09233017265796661, -0.17803384363651276, 0.046342529356479645, -0.8618263006210327, -0.18257401883602142, -0.47320428490638733, -0.7093102931976318, -0.30488330125808716, -0.2550976276397705, 0.10251388461400232, -0.5028804668544126, 0.8582301890119168,-0.006575113822227252,-1.571136474609375,-0.487457275390625,-0.728302001953125
20220227-1534,2022-02-27 15:34:43Z,u01, 68,40,movements,el-ex, rt, d,297178.19326225005, -1.0741269728235021, 0.18317959803045405, 0.09171956007141552, -0.057978786528110504, -0.2305150330066681, -0.10094506293535233, -0.8644655346870422, -0.18215689063072205, -0.4685279130935669, -0.7370361089706421, -0.29516857862472534, -0.29738694429397583, 0.10185872250035183, -0.5053324069413624, 0.8568591388848438,-0.0075195416318638575,-1.6120147705078125,-0.4594879150390625,-0.7607879638671875
20220227-1534,2022-02-27 15:34:43Z,u01, 69,40,movements,el-ex, rt, d,297178.21820725, -1.080203256310992, 0.18870446870064134, 0.09032748290454069, 0.18794472515583038, -0.4405989348888397, -0.3066302239894867, -0.8663954734802246, -0.18758651614189148, -0.4627853035926819, -0.7991929650306702, -0.21860243380069733, -0.3062422573566437, 0.10383247290574263, -0.5077658509818512, 0.8551583403589484,-0.009847165961414939,-1.66558837890625,-0.40618896484375,-0.7690277099609375
20220227-1534,2022-02-27 15:34:43Z,u01, 70,40,movements,el-ex, rt, d,297178.24315225, -1.0932223181338494, 0.20145154004321741, 0.09295295118621122, 0.48704975843429565, -0.4838237166404724, -0.5455470085144043, -0.870152473449707, -0.20009171962738037, -0.45033106207847595, -0.8878737092018127, -0.2148100584745407, -0.355775386095047, 0.10983806272402344, -0.5126110330035093, 0.8514715100681335,-0.012722867615321265,-1.77069091796875,-0.4162445068359375,-0.798492431640625
20220227-1534,2022-02-27 15:34:43Z,u01, 71,40,movements,el-ex, rt, d,297178.26809725, -1.1086168783421226, 0.22288898612794603, 0.09945735858612927, 0.6858125925064087, -0.616114616394043, -0.7711294889450073, -0.8729411363601685, -0.22104805707931519, -0.4348697066307068, -0.8715658187866211, -0.1779235303401947, -0.31914323568344116, 0.12044624992501432, -0.5177430328988124, 0.84685530277006,-0.016462772722994234,-1.7445068359375,-0.3989715576171875,-0.7540130615234375
20220227-1534,2022-02-27 15:34:43Z,u01, 72,40,movements,el-ex, rt, d,297178.29304225004, -1.125649074822617, 0.2489006298259362, 0.10316271110013026, 0.4494151473045349, -0.7193657755851746, -0.9356712102890015, -0.8747342824935913, -0.2463386207818985, -0.41732165217399597, -0.8700015544891357, -0.15605095028877258, -0.26178592443466187, 0.13214057543979082, -0.5233335894560923, 0.8415091104024588,-0.022876059222022016,-1.741119384765625,-0.4066314697265625,-0.6819305419921875
20220227-1534,2022-02-27 15:34:43Z,u01, 73,40,movements,el-ex, rt, d,297178.31798725, -1.1431737149624601, 0.2740351157039353, 0.10003167556269016, 0.22655193507671356, -0.7702845931053162, -1.0064144134521484, -0.8760008811950684, -0.27061817049980164, -0.3992345333099365, -0.7940430641174316, -0.11880135536193848, -0.29385000467300415, 0.1415260238407536, -0.5294838230721056, 0.835813375639146,-0.03214403613296751,-1.6700439453125,-0.3894195556640625,-0.693084716796875
20220227-1534,2022-02-27 15:34:43Z,u01, 74,40,movements,el-ex, rt, d,297178.34293225, -1.1623408635609576, 0.30080519299519204, 0.0948676965905159, 0.3057869076728821, -0.8949827551841736, -1.1086324453353882, -0.8765275478363037, -0.2962893545627594, -0.3793577253818512, -0.7255996465682983, -0.12427341938018799, -0.32634592056274414, 0.1508329797816163, -0.5362560420642067, 0.8293560433757832,-0.04298399530118491,-1.582275390625,-0.41815185546875,-0.695526123046875
20220227-1534,2022-02-27 15:34:43Z,u01, 75,40,movements,el-ex, rt, d,297178.36787725, -1.1881746626568075, 0.3319087038130651, 0.09464228091607833, 0.7247018814086914, -1.1467201709747314, -1.2079579830169678, -0.8770577907562256, -0.32584816217422485, -0.3529770076274872, -0.578569769859314, 0.06264927983283997, -0.34802693128585815, 0.16285054473848937, -0.5449689877596735, 0.8207341097601597,-0.05370411826474236,-1.45562744140625,-0.2631988525390625,-0.7010040283203125
20220227-1534,2022-02-27 15:34:43Z,u01, 76,40,movements,el-ex, rt, d,297178.39282225, -1.2210405576239214, 0.37065539133809494, 0.10455148042955088, 0.9826812148094177, -1.193248987197876, -1.4270960092544556, -0.8756581544876099, -0.3622263967990875, -0.31939783692359924, -0.5039500594139099, 0.26827800273895264, -0.32295122742652893, 0.18021696482698027, -0.5548179209016869, 0.8097390962682269,-0.0634162546041081,-1.3615570068359375,-0.0783233642578125,-0.624237060546875
20220227-1534,2022-02-27 15:34:43Z,u01, 77,40,movements,el-ex, rt, d,297178.41776725004, -1.2542487508498252, 0.4128045829340699, 0.11432037311556886, 0.7311543822288513, -1.1787784099578857, -1.493249535560608, -0.8704885840415955, -0.4011799097061157, -0.28513914346694946, -0.3924356698989868, 0.09823191165924072, -0.1160142719745636, 0.1984853992889302, -0.5639450045737067, 0.7981078302968958,-0.07478955831289857,-1.2629241943359375,-0.302947998046875,-0.401153564453125
20220227-1534,2022-02-27 15:34:43Z,u01, 78,40,movements,el-ex, rt, d,297178.44271225, -1.2855460096325362, 0.4502695636169722, 0.11606776747321489, 0.36203017830848694, -1.256415605545044, -1.3023079633712769, -0.8639487624168396, -0.4352082312107086, -0.25335076451301575, -0.2862284183502197, 0.11576536297798157, -0.09197083115577698, 0.21227645466943937, -0.5729426943986421, 0.7866847758522297,-0.08833251279028709,-1.1110382080078125,-0.274322509765625,-0.3554534912109375
20220227-1534,2022-02-27 15:34:43Z,u01, 79,40,movements,el-ex, rt, d,297178.46765725, -1.3114615594370032, 0.48053047575156194, 0.1083630329208332, -0.2999342679977417, -1.1164817810058594, -1.1724622249603271, -0.8570977449417114, -0.46224963665008545, -0.22739605605602264, -0.18004226684570312, 0.2802885174751282, 0.0022832751274108887, 0.22040300768037835, -0.5811406785358851, 0.7765629154979964,-0.10319019113314842,-1.037139892578125,-0.1819610595703125,-0.2251129150390625
20220227-1534,2022-02-27 15:34:43Z,u01, 80,40,movements,el-ex, rt, d,297178.49260225, -1.3269376748016892, 0.5012320507606821, 0.08651781521405784, -0.8299093842506409, -0.9119263887405396, -0.7593675255775452, -0.8510441780090332, -0.48050639033317566, -0.21174857020378113, -0.15736347436904907, 0.21805518865585327, 0.04368843138217926, 0.22100810201136228, -0.5876062714577196, 0.7691387438821033,-0.11958229482103777,-0.9847564697265625,-0.2377777099609375,-0.1506195068359375
20220227-1534,2022-02-27 15:34:43Z,u01, 81,40,movements,el-ex, rt, d,297178.51754725, -1.3327365773740827, 0.5085160046670453, 0.055467479519926755, -1.1662880182266235, -0.7850388884544373, -0.34940966963768005, -0.8488340377807617, -0.4868815541267395, -0.2059791088104248, 0.05406463146209717, 0.3813364803791046, 0.10606467723846436, 0.21423241206196086, -0.5925495059691952, 0.7648186746143719,-0.1343209812268859,-0.794769287109375,-0.1055450439453125,-0.09991455078125
20220227-1534,2022-02-27 15:34:44Z,u01, 82,40,movements,el-ex, rt, d,297178.54249150003, -1.329472261070517, 0.5025853221728992, 0.014753070911104393, -1.6782337427139282, -0.39679473638534546, 0.17563626170158386, -0.8509459495544434, -0.48169276118278503, -0.20943525433540344, 0.09522390365600586, 0.46794456243515015, 0.19918152689933777, 0.20011418579797954, -0.5960173518365586, 0.7634695507574047,-0.14775626239239736,-0.7373504638671875,0.002410888671875,0.021820068359375
20220227-1534,2022-02-27 15:34:44Z,u01, 83,40,movements,el-ex, rt, d,297178.56743650005, -1.3139349955512913, 0.4808236297787483, -0.02550944020527911, -1.162460446357727, 0.037964705377817154, 0.8327891230583191, -0.8575264811515808, -0.4625095725059509, -0.22524096071720123, 0.41647112369537354, 0.5053409337997437, 0.24564212560653687, 0.18096040268063215, -0.5955105832756318, 0.7671572620460081,-0.15521084371665078,-0.4410552978515625,0.0428314208984375,0.0204010009765625
20220227-1534,2022-02-27 15:34:44Z,u01, 84,40,movements,el-ex, rt, d,297178.5923815, -1.313044665333718, 0.45372843490635206, -0.023400896945173544, 0.7666274309158325, 0.10584375262260437, 1.2341669797897339, -0.8691271543502808, -0.43831977248191833, -0.22911542654037476, 0.713243305683136, 0.48650699853897095, 0.13296987116336823, 0.17119549117334026, -0.5967699671263923, 0.7701637557456389,-0.14630648841977906,-0.1401824951171875,0.0313568115234375,-0.125
20220227-1534,2022-02-27 15:34:44Z,u01, 85,40,movements,el-ex, rt, d,297178.6173265, -1.322051662374532, 0.42654808977616254, 0.015867727025387243, 1.1426759958267212, 0.6069386601448059, 1.577586054801941, -0.8823793530464172, -0.413730651140213, -0.22412891685962677, 0.7076661586761475, 0.37918469309806824, 0.1654742956161499, 0.17183239245901702, -0.5986728400192032, 0.7724851563768353,-0.12381947352472694,-0.174713134765625,-0.0345458984375,-0.05865478515625
20220227-1534,2022-02-27 15:34:44Z,u01, 86,40,movements,el-ex, rt, d,297178.6422715, -1.3104142338854141, 0.3868466028868918, 0.038501409800716244, -0.3987780511379242, 0.9674789905548096, 1.898356556892395, -0.8948860168457031, -0.3772699236869812, -0.2384251207113266, 0.7898597121238708, 0.3416101336479187, 0.40480709075927734, 0.16389721608968896, -0.5949160789326258, 0.780245765401569,-0.10212340092298122,-0.09051513671875,-0.054412841796875,0.1634674072265625
20220227-1534,2022-02-27 15:34:44Z,u01, 87,40,movements,el-ex, rt, d,297178.66721650003, -1.2835098795446618, 0.33544083022701415, 0.03495341658691041, -0.7299813032150269, 1.0727949142456055, 1.9892419576644897, -0.9055659174919128, -0.32918545603752136, -0.2675584852695465, 0.9995447397232056, 0.3482436239719391, 0.22471189498901367, 0.14401668830979808, -0.5877754232812505, 0.7914319396562817,-0.08610997038430851,0.0939788818359375,0.0190582275390625,-0.0428466796875
20220227-1534,2022-02-27 15:34:44Z,u01, 88,40,movements,el-ex, rt, d,297178.69216150005, -1.259050084590452, 0.28541911813138915, 0.03951591217139362, -0.09485900402069092, 0.9159119725227356, 1.8033955097198486, -0.9132933020591736, -0.28155964612960815, -0.29431241750717163, 1.1321041584014893, 0.28810563683509827, 0.13284403085708618, 0.12645328311933055, -0.5803906903042062, 0.8015885404352172,-0.06791341953558577,0.2205352783203125,-0.0216827392578125,-0.2158355712890625
20220227-1534,2022-02-27 15:34:44Z,u01, 89,40,movements,el-ex, rt, d,297178.7171065, -1.2459293554718813, 0.2544219373107738, 0.0516225469156906, 0.04294556379318237, 0.5096855759620667, 0.7786688208580017, -0.9171860814094543, -0.2516860067844391, -0.3089079260826111, 0.87232506275177, 0.2155378758907318, 0.010995447635650635, 0.11793805575688357, -0.5758790261993993, 0.8072318991161869,-0.05320498944445412,-0.04486083984375,-0.0361480712890625,-0.29791259765625
20220227-1534,2022-02-27 15:34:44Z,u01, 90,40,movements,el-ex, rt, d,297178.7420515, -1.2340781054749554, 0.24340982853596407, 0.061122144850625094, 0.46950072050094604, 0.7211082577705383, 0.4227348566055298, -0.9160212874412537, -0.2410133332014084, -0.3206520676612854, 0.5300195813179016, 0.12110976874828339, 0.05514928698539734, 0.11652064877913307, -0.5710489478015879, 0.8113309790426935,-0.045477458783169555,-0.4425201416015625,-0.144683837890625,-0.2678070068359375
20220227-1534,2022-02-27 15:34:44Z,u01, 91,40,movements,el-ex, rt, d,297178.7669965, -1.2211592747601472, 0.2407907637591359, 0.07967498302185735, 0.8393902778625488, 0.5476556420326233, 0.09407402575016022, -0.9123923778533936, -0.2384706437587738, -0.3326739966869354, 0.6066672205924988, -0.0010923594236373901, 0.035722821950912476, 0.12099482462906816, -0.5648214375447718, 0.8154822157501769,-0.03641185762180299,-0.30572509765625,-0.23956298828125,-0.2969512939453125
20220227-1534,2022-02-27 15:34:44Z,u01, 92,40,movements,el-ex, rt, d,297178.79194150004, -1.216126965102454, 0.25112525251841883, 0.09680960547199742, 0.6315056085586548, 0.24210357666015625, -0.38282662630081177, -0.9083470106124878, -0.24849407374858856, -0.3363873362541199, 0.5721195340156555, -0.11634357273578644, 0.09085831046104431, 0.13008952346855956, -0.5611444061599902, 0.8168022832955161,-0.03205880120843335,-0.3854827880859375,-0.4013519287109375,-0.216217041015625
20220227-1534,2022-02-27 15:34:44Z,u01, 93,40,movements,el-ex, rt, d,297178.8168865, -1.2121845974179204, 0.26327848540659493, 0.10094607160263211, 0.09758310765028, 0.13139978051185608, -0.3959341049194336, -0.9041190147399902, -0.26024746894836426, -0.338880717754364, 0.27673858404159546, -0.33756136894226074, 0.14707788825035095, 0.13623372932333505, -0.5585696087304152, 0.8175043465932315,-0.03357157972091562,-0.62738037109375,-0.597808837890625,-0.191802978515625
20220227-1534,2022-02-27 15:34:44Z,u01, 94,40,movements,el-ex, rt, d,297178.8418315, -1.2085686359713717, 0.27166871478361737, 0.09846885612516007, 0.05232701450586319, 0.100892074406147, -0.3170119822025299, -0.9008141756057739, -0.2683393359184265, -0.34136199951171875, 0.22118759155273438, -0.28074824810028076, 0.0868760347366333, 0.1390056602092828, -0.5567732311464446, 0.8181275374829455,-0.036721059903781716,-0.6739959716796875,-0.5363311767578125,-0.269775390625
20220227-1534,2022-02-27 15:34:44Z,u01, 95,40,movements,el-ex, rt, d,297178.8667765, -1.2067121178077544, 0.2800605595927244, 0.09671823121465617, 0.03138701245188713, 0.02913086488842964, -0.36669692397117615, -0.8980428576469421, -0.27641385793685913, -0.3422197997570038, 0.12341517210006714, -0.33064180612564087, 0.06359443068504333, 0.141955385251242, -0.5556426582896838, 0.8182510906564187,-0.039686974094320315,-0.774627685546875,-0.6070556640625,-0.27862548828125
20220227-1534,2022-02-27 15:34:44Z,u01, 96,40,movements,el-ex, rt, d,297178.8917205, -1.205389182344787, 0.2900353281040192, 0.09505009131693286, 0.09423025697469711, 0.049366295337677, -0.4278101325035095, -0.894969642162323, -0.285986065864563, -0.3424052894115448, 0.06048166751861572, -0.23435387015342712, 0.04600343108177185, 0.14556188945787427, -0.5546251793729633, 0.8181351899380858,-0.04309889947749346,-0.835968017578125,-0.4818572998046875,-0.300750732421875
20220227-1534,2022-02-27 15:34:44Z,u01, 97,40,movements,el-ex, rt, d,297178.91666550003, -1.204199690007044, 0.30079907152251095, 0.09133320454146639, -0.0048107728362083435, -0.015637069940567017, -0.48097947239875793, -0.8916361927986145, -0.296283483505249, -0.34234634041786194, 0.03827309608459473, -0.1645624339580536, 0.01301601529121399, 0.14891951709508408, -0.5537597011994305, 0.8178690590316977,-0.04757493518013983,-0.853363037109375,-0.460845947265625,-0.3293304443359375
20220227-1534,2022-02-27 15:34:44Z,u01, 98,40,movements,el-ex, rt, d,297178.94161050004, -1.2031908368118274, 0.3124354507766201, 0.09014259501587914, 0.21600650250911713, 0.07410546392202377, -0.3761692941188812, -0.8880127668380737, -0.3073770999908447, -0.34198346734046936, 0.057965099811553955, -0.14696860313415527, 0.009143620729446411, 0.15332703245711357, -0.5527197183590375, 0.8175347614980877,-0.05127077184263645,-0.8199310302734375,-0.462890625,-0.3259429931640625
20220227-1534,2022-02-27 15:34:44Z,u01, 99,40,movements,el-ex, rt, d,297178.9665555, -1.2005820026385734, 0.32059350258250024, 0.08725283339291322, -0.2589852213859558, 0.03384053707122803, -0.34002336859703064, -0.8847504258155823, -0.3151298761367798, -0.34338024258613586, 0.093994140625, -0.17566907405853271, 0.07416954636573792, 0.15590137634873805, -0.5513661508165268, 0.8177497137465023,-0.054549292697751384,-0.7907562255859375,-0.4907989501953125,-0.2692108154296875
20220227-1534,2022-02-27 15:34:44Z,u01, 100,40,movements,el-ex, rt, d,297178.9915005, -1.1973362628280642, 0.3258874915188207, 0.07746117538152532, -0.17496594786643982, 0.007630234584212303, -0.2946619987487793, -0.8820655941963196, -0.320149689912796, -0.34563663601875305, 0.09376591444015503, -0.13627123832702637, -0.004003167152404785, 0.1554421780051322, -0.5504719940549174, 0.8180732572048786,-0.05978824986035486,-0.7993621826171875,-0.4574127197265625,-0.363372802734375
20220227-1534,2022-02-27 15:34:44Z,u01, 101,40,movements,el-ex, rt, d,297179.0164455, -1.1954758548561044, 0.3310623484490022, 0.07523914838781158, 0.10199453681707382, 0.08523235470056534, -0.153839111328125, -0.8798677921295166, -0.32504788041114807, -0.34666505455970764, 0.07762163877487183, -0.13978064060211182, -0.027159899473190308, 0.1569864670140493, -0.5495659432551956, 0.8182226934337116,-0.06200174251868995,-0.80224609375,-0.4648284912109375,-0.3738250732421875
20220227-1534,2022-02-27 15:34:44Z,u01, 102,40,movements,el-ex, rt, d,297179.04139050003, -1.194458577190198, 0.3348934612412457, 0.07627123073525423, 0.03476347029209137, 0.04431774467229843, -0.125056654214859, -0.878350019454956, -0.3286685645580292, -0.3470996916294098, 0.10459208488464355, -0.12103849649429321, 0.003075152635574341, 0.15885547274975145, -0.548830653696285, 0.8183121181204855,-0.0625710631155354,-0.774444580078125,-0.4417266845703125,-0.340179443359375
20220227-1534,2022-02-27 15:34:44Z,u01, 103,40,movements,el-ex, rt, d,297179.06633550004, -1.1931262088276677, 0.3379286025172338, 0.07669427683848275, 0.1207471489906311, 0.09457731992006302, -0.04399628937244415, -0.876955509185791, -0.3315335512161255, -0.3479002118110657, 0.07112354040145874, -0.1757601499557495, -0.004318267107009888, 0.16024443615465828, -0.5480616855842337, 0.8185129402286189,-0.06314003613829888,-0.8058319091796875,-0.507293701171875,-0.3522186279296875
20220227-1534,2022-02-27 15:34:44Z,u01, 104,40,movements,el-ex, rt, d,297179.0912805, -1.1920655231554578, 0.3400510597066521, 0.08151762039063135, 0.2126336246728897, 0.10163275897502899, -0.016668595373630524, -0.8759303092956543, -0.33353522419929504, -0.34856927394866943, 0.11909425258636475, -0.11803337931632996, -0.008211612701416016, 0.16245896084753017, -0.5471036863913552, 0.8188292065664288,-0.06167290235885281,-0.7563934326171875,-0.442169189453125,-0.361083984375
20220227-1534,2022-02-27 15:34:44Z,u01, 105,40,movements,el-ex, rt, d,297179.1162255, -1.1895984241883677, 0.35293647490577346, 0.08405142803844182, 0.12144869565963745, 0.051670726388692856, -0.12394318729639053, -0.8710058927536011, -0.34565475583076477, -0.3491012454032898, 0.13743948936462402, -0.00956985354423523, -0.03624415397644043, 0.16845220035976283, -0.5450442526101481, 0.8188109787569172,-0.0640257621941791,-0.7335662841796875,-0.355224609375,-0.385345458984375
20220227-1534,2022-02-27 15:34:44Z,u01, 106,40,movements,el-ex, rt, d,297179.1411705, -1.1896004352328018, 0.3656635427722463, 0.08706777106141046, 0.28598886728286743, 0.017832273617386818, -0.18793556094169617, -0.8668527603149414, -0.35756903886795044, -0.3474346399307251, 0.11605924367904663, -0.07942745089530945, -0.031486719846725464, 0.17442715044962892, -0.5439281637786051, 0.818117886670481,-0.06633698006385369,-0.7655792236328125,-0.4704437255859375,-0.3740997314453125
20220227-1534,2022-02-27 15:34:44Z,u01, 107,40,movements,el-ex, rt, d,297179.16611550003, -1.1895371176161589, 0.38219936207290195, 0.09390350474595918, 0.44906023144721985, 0.04672284424304962, -0.1590319275856018, -0.8612244129180908, -0.37296202778816223, -0.34524208307266235, 0.11661064624786377, -0.10303595662117004, -0.032336533069610596, 0.18296814505380102, -0.5421269368298598, 0.8172992039181586,-0.06814142300318199,-0.7446136474609375,-0.4759979248046875,-0.3775787353515625
20220227-1534,2022-02-27 15:34:44Z,u01, 108,40,movements,el-ex, rt, d,297179.19106050004, -1.1919033229516127, 0.3913608953357885, 0.10417379962182972, 0.4767032861709595, 0.020272793248295784, -0.12970685958862305, -0.8588281273841858, -0.3814467787742615, -0.3419249951839447, 0.12764215469360352, -0.0813981294631958, -0.02698659896850586, 0.18936350860953985, -0.5414600341729453, 0.8164011770560535,-0.06672106886773077,-0.7241363525390625,-0.4594268798828125,-0.369903564453125
20220227-1534,2022-02-27 15:34:44Z,u01, 109,40,movements,el-ex, rt, d,297179.2160045, -1.1944834850001842, 0.39784867465773777, 0.11117481360744559, 0.19627054035663605, -0.012338746339082718, -0.16936592757701874, -0.8573879599571228, -0.3874359428882599, -0.3387913703918457, 0.11867928504943848, -0.08911138772964478, 0.039429277181625366, 0.19378153965623796, -0.5413437237474864, 0.8155058755266194,-0.06592481761453617,-0.73870849609375,-0.4765472412109375,-0.2993621826171875
20220227-1534,2022-02-27 15:34:44Z,u01, 110,40,movements,el-ex, rt, d,297179.2409495, -1.1959496643981635, 0.4038355270441301, 0.11300196854895847, 0.14229564368724823, -0.03795263171195984, -0.24407492578029633, -0.8557098507881165, -0.3929482102394104, -0.3366785943508148, 0.1390349268913269, -0.0685233473777771, 0.018395662307739258, 0.19662985369155078, -0.5412923415953677, 0.8147702466911777,-0.06699883705294085,-0.7052001953125,-0.4385986328125,-0.3291168212890625
20220227-1534,2022-02-27 15:34:44Z,u01, 111,40,movements,el-ex, rt, d,297179.2658945, -1.1980451903098561, 0.4100310114069469, 0.11442679928997397, 0.18098309636116028, -0.0823553130030632, -0.21569767594337463, -0.8541298508644104, -0.3986377716064453, -0.33399173617362976, 0.15660464763641357, -0.04652225971221924, 0.03348526358604431, 0.19942704564249145, -0.5415099140674045, 0.8138321485556934,-0.06836207888882645,-0.6975250244140625,-0.445159912109375,-0.300506591796875
20220227-1534,2022-02-27 15:34:44Z,u01, 112,40,movements,el-ex, rt, d,297179.2908395, -1.199909968377841, 0.41516118301289545, 0.11567595493628598, 0.055650707334280014, -0.0407101996243, -0.1649237722158432, -0.8528337478637695, -0.40333741903305054, -0.3316527307033539, 0.09552472829818726, -0.04324162006378174, 0.04181218147277832, 0.2017535010273759, -0.5417279346552853, 0.8130183969754845,-0.06948027373021576,-0.752166748046875,-0.4350128173828125,-0.2842864990234375
20220227-1534,2022-02-27 15:34:44Z,u01, 113,40,movements,el-ex, rt, d,297179.31578450004, -1.1993510329330281, 0.41869049118827034, 0.11173187084424314, -0.21731628477573395, -0.05866236984729767, -0.24278907477855682, -0.851316511631012, -0.4065644145011902, -0.33161062002182007, 0.16934019327163696, 0.060266196727752686, 0.05388548970222473, 0.2021161452322477, -0.54161218664291, 0.8127846241417656,-0.07201704228996131,-0.681976318359375,-0.3462982177734375,-0.2777252197265625
20220227-1534,2022-02-27 15:34:44Z,u01, 114,40,movements,el-ex, rt, d,297179.3407295, -1.1978376205352952, 0.4233105485826068, 0.10125994817833106, -0.2862355709075928, -0.16548681259155273, -0.375116765499115, -0.8490554094314575, -0.41078102588653564, -0.3322106599807739, 0.18007951974868774, 0.08370891213417053, 0.03908941149711609, 0.20118486383896067, -0.5416819380984141, 0.8124731261954867,-0.07741300007720503,-0.680755615234375,-0.3213043212890625,-0.306396484375
20220227-1534,2022-02-27 15:34:44Z,u01, 115,40,movements,el-ex, rt, d,297179.3656745, -1.1983059443312456, 0.42979804166183466, 0.0941900988481627, 0.0004282314330339432, -0.09851723909378052, -0.29456692934036255, -0.8467109799385071, -0.4166872203350067, -0.3308361768722534, 0.0918738842010498, 0.07447826862335205, 0.02636241912841797, 0.20184689346472215, -0.5420698624974094, 0.8115853038352796,-0.08214372551987509,-0.7548370361328125,-0.3422088623046875,-0.304473876953125
20220227-1534,2022-02-27 15:34:44Z,u01, 116,40,movements,el-ex, rt, d,297179.3906195, -1.2001449322532631, 0.4358870477054064, 0.0934988969941905, 0.04661433398723602, -0.05379803478717804, -0.20761185884475708, -0.844937264919281, -0.42221468687057495, -0.3283533751964569, 0.05431830883026123, 0.005527585744857788, 0.06867939233779907, 0.20401773621142577, -0.5424021282852249, 0.8105974902561071,-0.08431211623824048,-0.79730224609375,-0.429290771484375,-0.2528228759765625
20220227-1534,2022-02-27 15:34:44Z,u01, 117,40,movements,el-ex, rt, d,297179.4155645, -1.1976712526140023, 0.43904834481616084, 0.08754041017509562, -0.35758131742477417, -0.0003097131848335266, -0.23386415839195251, -0.8428753614425659, -0.42507827281951904, -0.3299542963504791, 0.09742236137390137, 0.03573495149612427, 0.08112937211990356, 0.20377280749616622, -0.5417559329616103, 0.8107687720696517,-0.08735760618524141,-0.745452880859375,-0.38934326171875,-0.2488250732421875
20220227-1534,2022-02-27 15:34:44Z,u01, 118,40,movements,el-ex, rt, d,297179.44050950004, -1.192569721047825, 0.440662438802826, 0.0709635462984973, -0.5760282874107361, -0.1508830338716507, -0.29426100850105286, -0.8405423164367676, -0.42653870582580566, -0.33399611711502075, 0.15134859085083008, 0.18708249926567078, 0.07230803370475769, 0.20016264589594238, -0.5412364173726569, 0.8112703967835598,-0.0940131267901752,-0.70269775390625,-0.233154296875,-0.26861572265625
20220227-1534,2022-02-27 15:34:44Z,u01, 119,40,movements,el-ex, rt, d,297179.4654545, -1.1889438101570162, 0.4427832085008132, 0.057561903605647405, -0.3130529224872589, 0.014819571748375893, -0.25375545024871826, -0.8384844064712524, -0.4284559190273285, -0.3367037773132324, -0.042497098445892334, 0.0959516167640686, 0.11392560601234436, 0.197564455482666, -0.5409402860705972, 0.8114288179311397,-0.0996754560913663,-0.8809814453125,-0.3325042724609375,-0.2227783203125
20220227-1534,2022-02-27 15:34:44Z,u01, 120,40,movements,el-ex, rt, d,297179.4903995, -1.1831602220230342, 0.4469174996984456, 0.051516190803823664, 0.048996299505233765, 0.18399088084697723, -0.22268393635749817, -0.8348760604858398, -0.43218785524368286, -0.34087511897087097, -0.003441929817199707, 0.1354043185710907, 0.09435421228408813, 0.19788935837514032, -0.5388898260412791, 0.8123370784326207,-0.10269456922830955,-0.7936553955078125,-0.2759246826171875,-0.2444915771484375
20220227-1534,2022-02-27 15:34:44Z,u01, 121,40,movements,el-ex, rt, d,297179.5153445, -1.1806651540806778, 0.45313588581357805, 0.054384560383629744, 0.21022586524486542, 0.14459460973739624, -0.16745997965335846, -0.8315213322639465, -0.43778708577156067, -0.3419284522533417, 0.015465915203094482, -0.009875297546386719, 0.11680036783218384, 0.2012949577043405, -0.53713696575165, 0.8126246621871638,-0.10298359929276885,-0.8160552978515625,-0.447662353515625,-0.225128173828125
20220227-1534,2022-02-27 15:34:45Z,u01, 122,40,movements,el-ex, rt, d,297179.54028841667, -1.1754710838473768, 0.4551618207011297, 0.05691185458631619, -0.003988821525126696, 0.34196415543556213, 0.06999758630990982, -0.8289138078689575, -0.4396076798439026, -0.3459004759788513, -0.11226361989974976, -0.0839519202709198, 0.13754186034202576, 0.20305507683998156, -0.5346198573406229, 0.8139715059757308,-0.1019842140172677,-0.9091949462890625,-0.479644775390625,-0.2129364013671875
20220227-1534,2022-02-27 15:34:45Z,u01, 123,40,movements,el-ex, rt, d,297179.5652334167, -1.1663915268091736, 0.4527716976801432, 0.053800271146981854, -0.3202018737792969, 0.27700677514076233, -0.02460874430835247, -0.8267025947570801, -0.4374596178531647, -0.3538246750831604, 0.0759090781211853, 0.14430776238441467, 0.08559057116508484, 0.20172212692887315, -0.5314093011281483, 0.8164390057776633,-0.10168433404917288,-0.75079345703125,-0.29315185546875,-0.2682342529296875
20220227-1534,2022-02-27 15:34:45Z,u01, 124,40,movements,el-ex, rt, d,297179.5901784167, -1.155736977036718, 0.4517391373383626, 0.04413454053935404, -0.2570849061012268, 0.230801060795784, -0.16116832196712494, -0.8232989311218262, -0.4365308880805969, -0.36279457807540894, 0.10187852382659912, 0.21677374839782715, 0.04103255271911621, 0.19929148502759692, -0.528096224088775, 0.8188535489411312,-0.10428951401203163,-0.7132568359375,-0.203826904296875,-0.345672607421875
20220227-1534,2022-02-27 15:34:45Z,u01, 125,40,movements,el-ex, rt, d,297179.6151234167, -1.1487913549651692, 0.45429404317859423, 0.038751004448888036, 0.026630740612745285, 0.15346427261829376, -0.1793251484632492, -0.819739043712616, -0.43882808089256287, -0.3680460453033447, 0.10414755344390869, 0.21733146905899048, 0.010578513145446777, 0.19927973360306514, -0.5256087577032251, 0.8201729807753415,-0.10648639598798632,-0.7155914306640625,-0.22149658203125,-0.3574676513671875
20220227-1534,2022-02-27 15:34:45Z,u01, 126,40,movements,el-ex, rt, d,297179.64006841666, -1.1453457587832987, 0.45880481293976166, 0.03968990381393544, 0.1815197914838791, 0.16223353147506714, -0.13207082450389862, -0.8166547417640686, -0.4428768455982208, -0.37004759907722473, 0.029789447784423828, 0.09874528646469116, 0.017356038093566895, 0.20154947519407215, -0.5237881306958039, 0.8207218078319443,-0.10695616597868379,-0.79510498046875,-0.3696746826171875,-0.354827880859375
20220227-1534,2022-02-27 15:34:45Z,u01, 127,40,movements,el-ex, rt, d,297179.66501341667, -1.1426142824568262, 0.4613555732758765, 0.04086484602845668, -0.07843326032161713, 0.044502031058073044, -0.03935852646827698, -0.8146105408668518, -0.4451623558998108, -0.3718065917491913, 0.12405872344970703, 0.06367731094360352, 0.024074196815490723, 0.20304353390390706, -0.5223696231350349, 0.8212680112204893,-0.1068745577960395,-0.6905517578125,-0.3814849853515625,-0.3477325439453125
20220227-1534,2022-02-27 15:34:45Z,u01, 128,40,movements,el-ex, rt, d,297179.6899584167, -1.1407433734446935, 0.45812894138416305, 0.03125846365270898, -0.6464840769767761, -0.2571028769016266, -0.05225308984518051, -0.815214991569519, -0.44227075576782227, -0.37392696738243103, 0.202650785446167, 0.10399860143661499, 0.024851739406585693, 0.199316781374963, -0.5227899515530023, 0.8215306524727419,-0.10977742863423046,-0.6198272705078125,-0.3289794921875,-0.35223388671875
20220227-1534,2022-02-27 15:34:45Z,u01, 129,40,movements,el-ex, rt, d,297179.7149034167, -1.138809820836735, 0.45177297387074195, 0.010593967316539898, -0.7572144865989685, -0.2453935593366623, -0.09947526454925537, -0.8170266151428223, -0.43656131625175476, -0.37667179107666016, 0.08667993545532227, 0.20966312289237976, 0.03505811095237732, 0.1914133643547428, -0.5244282864096981, 0.8214541639986839,-0.11639981251168868,-0.7303466796875,-0.226898193359375,-0.34161376953125
20220227-1534,2022-02-27 15:34:45Z,u01, 130,40,movements,el-ex, rt, d,297179.7398484167, -1.1376165225115302, 0.4490134522641181, -0.003842263604924286, -0.16053472459316254, -0.21200606226921082, -0.12951278686523438, -0.8176670670509338, -0.4340769946575165, -0.3781508207321167, 0.11304652690887451, 0.2707468271255493, 0.020713746547698975, 0.18656249462756808, -0.5254702940705326, 0.8211673432983212,-0.12149015256454632,-0.6762847900390625,-0.16259765625,-0.361724853515625
20220227-1534,2022-02-27 15:34:45Z,u01, 131,40,movements,el-ex, rt, d,297179.76479341666, -1.1500872725359663, 0.4560548779005559, 0.004848862785798836, 0.8812195658683777, -0.432706743478775, -0.16582205891609192, -0.8195087313652039, -0.4404096305370331, -0.3666673004627228, 0.24872314929962158, 0.2977856397628784, -0.004105865955352783, 0.19098336300124796, -0.5293313790926955, 0.8177417750273968,-0.12096342798045467,-0.5707855224609375,-0.1426239013671875,-0.3707733154296875
20220227-1534,2022-02-27 15:34:45Z,u01, 132,40,movements,el-ex, rt, d,297179.7897384167, -1.1669196024254453, 0.4708715805861289, 0.023852404583290247, 0.6201208829879761, -0.18032163381576538, -0.34706348180770874, -0.8194734454154968, -0.4536632001399994, -0.3502187430858612, 0.07853710651397705, 0.2685587704181671, 0.07177644968032837, 0.20105055014980305, -0.5333566396889813, 0.8130133649803462,-0.1188225746385897,-0.7804412841796875,-0.2230072021484375,-0.2527313232421875
20220227-1534,2022-02-27 15:34:45Z,u01, 133,40,movements,el-ex, rt, d,297179.8146834167, -1.1718372237112697, 0.47815071563677225, 0.026618429049329307, -0.028931953012943268, -0.1911574900150299, -0.08309122920036316, -0.818121075630188, -0.46013808250427246, -0.344892680644989, 0.03294950723648071, 0.07499092817306519, 0.03143152594566345, 0.20443898905184554, -0.53456370965612, 0.8111770148936133,-0.12015935703535341,-0.7851715087890625,-0.3851470947265625,-0.3134613037109375
20220227-1534,2022-02-27 15:34:45Z,u01, 134,40,movements,el-ex, rt, d,297179.8396284167, -1.1761838206223574, 0.47633968022959744, 0.02282833469298837, -0.3513427972793579, -0.2669021189212799, 0.12102056294679642, -0.8203803896903992, -0.45852941274642944, -0.3416531980037689, -0.037270426750183105, -0.02401462197303772, 0.04012441635131836, 0.2024299948929204, -0.5368384231897634, 0.809955836087626,-0.12164804821173492,-0.8933563232421875,-0.4986724853515625,-0.2914886474609375
20220227-1534,2022-02-27 15:34:45Z,u01, 135,40,movements,el-ex, rt, d,297179.8645724167, -1.1768342774417824, 0.4654070744639591, 0.01259330362793073, -0.6267338395118713, -0.17367850244045258, 0.3471827805042267, -0.8251822590827942, -0.4487866163253784, -0.3430233299732208, -0.051709890365600586, 0.03997310996055603, 0.02731907367706299, 0.19522216087932628, -0.5388660772259579, 0.8101898324353629,-0.12289936423273201,-0.87689208984375,-0.4088134765625,-0.315704345703125
20220227-1534,2022-02-27 15:34:45Z,u01, 136,40,movements,el-ex, rt, d,297179.8895174167, -1.17659014984733, 0.45202335638338853, 0.002457797360384908, -0.46891626715660095, -0.17362269759178162, 0.32789871096611023, -0.8305702209472656, -0.43678656220436096, -0.3455008864402771, -0.005306422710418701, 0.08240103721618652, 0.0010643303394317627, 0.1870842803914165, -0.5406006158368097, 0.8108837450923962,-0.12336220133859965,-0.8587493896484375,-0.3520050048828125,-0.348480224609375
20220227-1534,2022-02-27 15:34:45Z,u01, 137,40,movements,el-ex, rt, d,297179.91446241667, -1.1773677635693751, 0.44051372425476687, -0.00301137998713065, -0.19771267473697662, -0.05755595862865448, 0.3972988724708557, -0.8354266285896301, -0.42640420794487, -0.34675922989845276, -0.16757941246032715, 0.08076211810112, -0.00408598780632019, 0.1808879081360343, -0.5421253944207517, 0.811396633278644,-0.12253670807218336,-1.0030059814453125,-0.34564208984375,-0.3508453369140625
20220227-1534,2022-02-27 15:34:45Z,u01, 138,40,movements,el-ex, rt, d,297179.9394074167, -1.1805421967742287, 0.43053048405723443, 0.00218968587809401, 0.14116553962230682, -0.07505153119564056, 0.41749078035354614, -0.8404182195663452, -0.41735294461250305, -0.3457077443599701, -0.09337395429611206, 0.12392637133598328, -0.040766745805740356, 0.17805735263205627, -0.5435455022526996, 0.8117447404949052,-0.1180018011796507,-0.923309326171875,-0.27978515625,-0.3843231201171875
20220227-1534,2022-02-27 15:34:45Z,u01, 139,40,movements,el-ex, rt, d,297179.9643524167, -1.1844029943511114, 0.423014226668115, 0.006911831790533736, -0.13510140776634216, 0.016313405707478523, 0.28432831168174744, -0.8446285724639893, -0.4105108678340912, -0.3436329662799835, -0.1709202527999878, 0.10672357678413391, -0.022471070289611816, 0.17606988419241243, -0.545144853195056, 0.8116244366243739,-0.11437841859994408,-1.0155487060546875,-0.3037872314453125,-0.3661041259765625
20220227-1534,2022-02-27 15:34:45Z,u01, 140,40,movements,el-ex, rt, d,297179.9892974167, -1.1783880970488403, 0.4129368092740466, -0.000630990432956002, -0.6721199154853821, 0.19023920595645905, 0.2270885407924652, -0.8463258743286133, -0.4013010263442993, -0.3502712845802307, -0.114779531955719, 0.10558569431304932, -0.012353688478469849, 0.17026692690379605, -0.5439425758889023, 0.8136949402403948,-0.11417596798013518,-0.9296722412109375,-0.2887420654296875,-0.359832763671875
20220227-1534,2022-02-27 15:34:45Z,u01, 141,40,movements,el-ex, rt, d,297180.0142424167, -1.1643373595546591, 0.398916527129419, -0.022522182021872606, -1.2749019861221313, 0.19618064165115356, 0.17084091901779175, -0.8464061617851257, -0.3884201645851135, -0.3643166422843933, 0.014237463474273682, 0.09577178955078125, 0.04032689332962036, 0.15942009313498814, -0.5407651122048525, 0.8174335461580716,-0.11815620343151628,-0.8321685791015625,-0.2926483154296875,-0.3239898681640625
20220227-1534,2022-02-27 15:34:45Z,u01, 142,40,movements,el-ex, rt, d,297180.03918741667, -1.1480262047168108, 0.3807298919763032, -0.05910851656907544, -1.6378779411315918, 0.028905296698212624, 0.058353979140520096, -0.8466541171073914, -0.37159818410873413, -0.3809090256690979, -0.05277526378631592, 0.030655771493911743, 0.04085180163383484, 0.14306580900452462, -0.5376594301716555, 0.8211629163836554,-0.12706698128494337,-0.944488525390625,-0.36053466796875,-0.351287841796875
20220227-1534,2022-02-27 15:34:45Z,u01, 143,40,movements,el-ex, rt, d,297180.0641324167, -1.1336125649812505, 0.365417058733522, -0.0920234063650903, -0.9226934909820557, 0.19198882579803467, 0.04379161819815636, -0.8461323380470276, -0.3573388457298279, -0.3954354524612427, -0.23380857706069946, 0.092339426279068, -0.05306601524353027, 0.12883246330549614, -0.5344945973042047, 0.8242130928546393,-0.1356122611377527,-1.0799407958984375,-0.2649993896484375,-0.4485015869140625
20220227-1534,2022-02-27 15:34:45Z,u01, 144,40,movements,el-ex, rt, d,297180.0890774167, -1.1242580948773788, 0.36043300463002614, -0.1009144097171312, 0.0825214684009552, 0.26642951369285583, 0.029948506504297256, -0.8439921736717224, -0.35267946124076843, -0.40409722924232483, -0.10907185077667236, 0.15072929859161377, -0.04828000068664551, 0.12502174982978928, -0.5313388242563553, 0.8265415682999426,-0.1373964171998368,-0.9135589599609375,-0.2119903564453125,-0.4465179443359375
20220227-1534,2022-02-27 15:34:45Z,u01, 145,40,movements,el-ex, rt, d,297180.1140224167, -1.121062046314003, 0.36042007682065375, -0.09405417160459395, 0.2205948531627655, 0.17040351033210754, 0.17655566334724426, -0.8427004814147949, -0.35266736149787903, -0.40679457783699036, 0.02836930751800537, 0.0022644996643066406, 0.02620995044708252, 0.12705302566443594, -0.5295849635776503, 0.8278564882346433,-0.1343542747985958,-0.8143310546875,-0.35040283203125,-0.380584716796875
20220227-1534,2022-02-27 15:34:45Z,u01, 146,40,movements,el-ex, rt, d,297180.13896741666, -1.1180041123764834, 0.35560846169520294, -0.09248109503736264, -0.3204409182071686, 0.13692183792591095, 0.20930655300617218, -0.8429686427116394, -0.34816083312034607, -0.41010716557502747, -0.017169296741485596, -0.058028191328048706, 0.07629075646400452, 0.125658432869201, -0.5283525040782074, 0.8291912009468478,-0.13227067916832153,-0.8706512451171875,-0.4062652587890625,-0.3343505859375
20220227-1534,2022-02-27 15:34:45Z,u01, 147,40,movements,el-ex, rt, d,297180.16391241667, -1.1122271108540442, 0.34473494409137756, -0.10152470063772553, -0.5944996476173401, 0.10609695315361023, 0.26359760761260986, -0.8439303040504456, -0.33794721961021423, -0.4166214168071747, -0.07725811004638672, 0.0001938939094543457, 0.04928144812583923, 0.1190940054886491, -0.5267882955860732, 0.8310557123611548,-0.13288043963392987,-0.9211883544921875,-0.3377532958984375,-0.367340087890625
20220227-1534,2022-02-27 15:34:45Z,u01, 148,40,movements,el-ex, rt, d,297180.1888564167, -1.1069258859056594, 0.3328234675430374, -0.10986196159275592, -0.25256386399269104, 0.09443217515945435, 0.29671069979667664, -0.8452501893043518, -0.32671284675598145, -0.4228605329990387, -0.07964617013931274, 0.02773207426071167, 0.03275442123413086, 0.11224245137404101, -0.525329761586461, 0.8329115605620543,-0.1329991108584827,-0.9142913818359375,-0.2959442138671875,-0.4150543212890625
20220227-1534,2022-02-27 15:34:45Z,u01, 149,40,movements,el-ex, rt, d,297180.2138014167, -1.1064343369223748, 0.3259435778550618, -0.10568940089977519, 0.3059457540512085, 0.054546549916267395, 0.3365350663661957, -0.8470319509506226, -0.3202028274536133, -0.4242726266384125, -0.004179716110229492, 0.0733461081981659, -0.015363514423370361, 0.11047159410275989, -0.5250330641132511, 0.8338896199594825,-0.12947812610795711,-0.8512115478515625,-0.246856689453125,-0.43963623046875
20220227-1534,2022-02-27 15:34:45Z,u01, 150,40,movements,el-ex, rt, d,297180.2387464167, -1.1088030652672887, 0.32301589251548946, -0.09107786811878778, 0.5203332901000977, 0.11179059743881226, 0.38423460721969604, -0.8488700985908508, -0.3174279034137726, -0.4226810932159424, -0.029410719871520996, 0.06194993853569031, 0.005505859851837158, 0.11292553895301266, -0.5252687711934819, 0.8344272924180809,-0.12276725871533373,-0.88531494140625,-0.2716827392578125,-0.4193267822265625
20220227-1534,2022-02-27 15:34:45Z,u01, 151,40,movements,el-ex, rt, d,297180.2636914167, -1.110045896291398, 0.3194994791498627, -0.07482772166718114, 0.3693682551383972, 0.2049008309841156, 0.36757922172546387, -0.8503891825675964, -0.31409141421318054, -0.4221193790435791, -0.08192282915115356, -0.010691940784454346, 0.02514687180519104, 0.11563796185568168, -0.5249458723363175, 0.8353441529457957,-0.11515131835140263,-0.93231201171875,-0.3247833251953125,-0.39697265625
20220227-1534,2022-02-27 15:34:45Z,u01, 152,40,movements,el-ex, rt, d,297180.28863641666, -1.107386137544063, 0.3133019196550186, -0.06784566318637462, -0.056595537811517715, 0.14846958220005035, 0.3179507255554199, -0.8509884476661682, -0.30820149183273315, -0.42524170875549316, -0.06269264221191406, -0.005290359258651733, 0.034387946128845215, 0.11500892939606244, -0.5235953499266833, 0.8369075098296105,-0.11048400571580502,-0.9100494384765625,-0.306304931640625,-0.4116973876953125
20220227-1534,2022-02-27 15:34:45Z,u01, 153,40,movements,el-ex, rt, d,297180.3135814167, -1.1056678878890152, 0.3053311660181716, -0.06535451941241206, 0.08556965738534927, 0.08452960848808289, 0.329182505607605, -0.8524251580238342, -0.3006090521812439, -0.42779162526130676, -0.09305530786514282, 0.02633225917816162, -0.10092529654502869, 0.11239502373194979, -0.5229450728273664, 0.8380836616592245,-0.10729250563944737,-0.9454803466796875,-0.2742767333984375,-0.528717041015625
20220227-1534,2022-02-27 15:34:45Z,u01, 154,40,movements,el-ex, rt, d,297180.3385264167, -1.1068183702603454, 0.30074972403149847, -0.05319261341136941, 0.5425043106079102, 0.11874637007713318, 0.4045346975326538, -0.8541394472122192, -0.2962363660335541, -0.4274224638938904, -0.11607551574707031, 0.0487692654132843, -0.12131398916244507, 0.11358349905493242, -0.5228647544496344, 0.8387457457571441,-0.10107872841285392,-0.969329833984375,-0.2471466064453125,-0.550140380859375
20220227-1534,2022-02-27 15:34:45Z,u01, 155,40,movements,el-ex, rt, d,297180.3634714167, -1.1103681483515415, 0.2982608708574829, -0.03256980921042981, 0.7053800225257874, 0.07057863473892212, 0.4542011022567749, -0.856309175491333, -0.2938583195209503, -0.4247140884399414, -0.11003005504608154, -0.05446937680244446, -0.09271132946014404, 0.11775746424848374, -0.5232362173900631, 0.8389845269503553,-0.09198993015471435,-0.966339111328125,-0.34832763671875,-0.517425537109375
20220227-1534,2022-02-27 15:34:45Z,u01, 156,40,movements,el-ex, rt, d,297180.3884164167, -1.1144620451017413, 0.2938929321192211, -0.01382327179605242, 0.3769577145576477, 0.07306502759456635, 0.509976327419281, -0.859184741973877, -0.2896804213523865, -0.421766459941864, -0.18059498071670532, -0.12116247415542603, -0.08931133151054382, 0.12064976046790465, -0.5239851186008854, 0.8390206507739038,-0.083232465075189,-1.055267333984375,-0.422149658203125,-0.50799560546875
20220227-1534,2022-02-27 15:34:45Z,u01, 157,40,movements,el-ex, rt, d,297180.41336141666, -1.11527545626351, 0.28252697615957567, -0.004717755209926719, -0.1979505717754364, 0.06106669083237648, 0.5906999111175537, -0.8624287247657776, -0.27878332138061523, -0.4224886894226074, -0.24519163370132446, -0.17754602432250977, -0.09482988715171814, 0.11822870334058272, -0.5241923522818497, 0.8398774680121746,-0.07648726602546246,-1.1076202392578125,-0.456329345703125,-0.5173187255859375
20220227-1534,2022-02-27 15:34:45Z,u01, 158,40,movements,el-ex, rt, d,297180.4383064167, -1.1128068776483293, 0.26345268699048013, -0.009408777533687789, -0.7415167093276978, 0.03126965090632439, 0.5865919589996338, -0.8659957647323608, -0.260415643453598, -0.42689016461372375, -0.2783219814300537, -0.20253601670265198, -0.09488403797149658, 0.1090692854773403, -0.5240790058559914, 0.8414679551339563,-0.07332772057162917,-1.1516265869140625,-0.4592132568359375,-0.520355224609375
20220227-1534,2022-02-27 15:34:45Z,u01, 159,40,movements,el-ex, rt, d,297180.4632514167, -1.1103117582016269, 0.24189232022604792, -0.020305510535927832, -0.6381571888923645, -0.027705185115337372, 0.546364963054657, -0.8697563409805298, -0.23954027891159058, -0.43144476413726807, -0.30799341201782227, -0.1680372655391693, -0.14774829149246216, 0.09721448322490181, -0.5242394199993007, 0.8429213305702148,-0.07215401613012701,-1.1777496337890625,-0.4075775146484375,-0.579193115234375
20220227-1534,2022-02-27 15:34:45Z,u01, 160,40,movements,el-ex, rt, d,297180.4881954167, -1.109435759101306, 0.2261636229958615, -0.02340560159867073, -0.1342964917421341, 0.0684465765953064, 0.4644237458705902, -0.8726440668106079, -0.2242404967546463, -0.4338301718235016, -0.38558048009872437, -0.1539638489484787, -0.13872525095939636, 0.08978938544111706, -0.524426146906499, 0.8438665515107205,-0.06931384522859374,-1.2708282470703125,-0.3777923583984375,-0.5660247802734375
20220227-1534,2022-02-27 15:34:45Z,u01, 161,40,movements,el-ex, rt, d,297180.5131404167, -1.1071825536932938, 0.21625159305755262, -0.019857227330027642, -0.056531891226768494, 0.18422862887382507, 0.34575334191322327, -0.8736094832420349, -0.2145700305700302, -0.4367677867412567, -0.4163532853126526, -0.16061310470104218, -0.09825095534324646, 0.08660334152061322, -0.5235608478940447, 0.8450692459065448,-0.06512938945095503,-1.2899627685546875,-0.37518310546875,-0.5350189208984375
20220227-1534,2022-02-27 15:34:46Z,u01, 162,40,movements,el-ex, rt, d,297180.5380855, -1.1014508221223456, 0.20853076518158917, -0.018942964821358026, -0.08148254454135895, 0.24409538507461548, 0.22293226420879364, -0.8725433349609375, -0.20702271163463593, -0.44250404834747314, -0.45614635944366455, -0.17965030670166016, -0.1191565990447998, 0.0837548748585836, -0.5212802449178644, 0.8469635629731861,-0.06248852174583408,-1.3412322998046875,-0.3850860595703125,-0.5720062255859375
20220227-1534,2022-02-27 15:34:46Z,u01, 163,40,movements,el-ex, rt, d,297180.5630305, -1.0985148749085316, 0.20496096019394267, -0.014237470075177385, 0.3972238600254059, 0.12666115164756775, 0.12076196819543839, -0.8718929290771484, -0.20352894067764282, -0.4453972280025482, -0.5057926774024963, -0.11815683543682098, -0.19960692524909973, 0.08355491313137256, -0.5199230321740922, 0.8480359107454052,-0.05944514847802834,-1.377685546875,-0.321685791015625,-0.6450042724609375
20220227-1534,2022-02-27 15:34:46Z,u01, 164,40,movements,el-ex, rt, d,297180.58797550004, -1.0986480902665865, 0.20965115472889198, -0.0005318716222453443, 0.6921797394752502, 0.09355912357568741, -0.07946114242076874, -0.8710924983024597, -0.20811870694160461, -0.44484204053878784, -0.5289166569709778, -0.06205345690250397, -0.2373020350933075, 0.08910165826980981, -0.5192685969775346, 0.8481815022318565,-0.0548559544286808,-1.4073486328125,-0.2801361083984375,-0.678375244140625
20220227-1534,2022-02-27 15:34:46Z,u01, 165,40,movements,el-ex, rt, d,297180.61292050005, -1.101570881125671, 0.21691740137165416, 0.011433805351568347, 0.4418608844280243, -0.09500239789485931, -0.19527389109134674, -0.8710172176361084, -0.21522028744220734, -0.4415986239910126, -0.5694431066513062, -0.11322513222694397, -0.27808207273483276, 0.09521093424045912, -0.519745667858707, 0.8474168817884468,-0.05180763224311524,-1.440460205078125,-0.3284454345703125,-0.7196807861328125
20220227-1534,2022-02-27 15:34:46Z,u01, 166,40,movements,el-ex, rt, d,297180.6378655, -1.1067670550159354, 0.22560447276562823, 0.015301697185722966, 0.17591506242752075, -0.2594345510005951, -0.29910314083099365, -0.8715952038764954, -0.2236955612897873, -0.43621352314949036, -0.5946829319000244, -0.11311173439025879, -0.3281906843185425, 0.09975588533100815, -0.5214805915305127, 0.8457722079126242,-0.05269040491699395,-1.4683990478515625,-0.34429931640625,-0.7641143798828125
20220227-1534,2022-02-27 15:34:46Z,u01, 167,40,movements,el-ex, rt, d,297180.6628105, -1.1145708378948205, 0.2344670167755295, 0.01374585720006508, 0.0367300808429718, -0.37510377168655396, -0.4210246801376343, -0.8731586933135986, -0.23232461512088776, -0.42850828170776367, -0.6180828809738159, -0.11078453063964844, -0.3454936742782593, 0.1028752759493066, -0.5245593757714122, 0.8432738512410887,-0.0560666352159499,-1.491241455078125,-0.343109130859375,-0.7740020751953125
20220227-1534,2022-02-27 15:34:46Z,u01, 168,40,movements,el-ex, rt, d,297180.6877555, -1.1241766333916303, 0.24608833676233713, 0.00957023560908406, 0.1321762651205063, -0.4676843583583832, -0.5629499554634094, -0.8747401833534241, -0.24361202120780945, -0.4189067482948303, -0.6189732551574707, -0.10488352179527283, -0.3336413502693176, 0.10638033873811475, -0.5284220311577789, 0.8400502568772459,-0.06139255315945996,-1.4958648681640625,-0.3582916259765625,-0.742950439453125
20220227-1534,2022-02-27 15:34:46Z,u01, 169,40,movements,el-ex, rt, d,297180.71270050004, -1.137229590690767, 0.2626862896796534, 0.008995523908184377, 0.368701696395874, -0.5798719525337219, -0.6594517230987549, -0.8763432502746582, -0.25967562198638916, -0.4056987464427948, -0.6163784861564636, -0.10098114609718323, -0.31605708599090576, 0.11275795308583655, -0.5333256637812864, 0.8356987836763501,-0.06676245020431887,-1.4927215576171875,-0.36065673828125,-0.7217559814453125
20220227-1534,2022-02-27 15:34:46Z,u01, 170,40,movements,el-ex, rt, d,297180.7376455, -1.154335230649146, 0.2839487778827584, 0.013126654110372275, 0.6469132900238037, -0.6877202391624451, -0.7700932025909424, -0.8779056072235107, -0.2801484763622284, -0.3883279860019684, -0.6033108830451965, -0.0894193947315216, -0.29744765162467957, 0.12211956221738726, -0.539372613370735, 0.8300687925362142,-0.07176226744649389,-1.487274169921875,-0.378326416015625,-0.68060302734375
20220227-1534,2022-02-27 15:34:46Z,u01, 171,40,movements,el-ex, rt, d,297180.7625905, -1.1747779434517787, 0.30902007480119054, 0.02204658928542912, 0.7448546886444092, -0.7283636927604675, -0.7856965065002441, -0.8789024353027344, -0.30412527918815613, -0.3674758970737457, -0.6093941926956177, -0.08190685510635376, -0.2615065574645996, 0.13412987289301592, -0.5461421307603822, 0.8233645580515787,-0.07621615577904461,-1.4882965087890625,-0.3860321044921875,-0.6289825439453125
20220227-1534,2022-02-27 15:34:46Z,u01, 172,40,movements,el-ex, rt, d,297180.7875345, -1.1977118147690258, 0.33439191373439786, 0.03236621474117188, 0.727986752986908, -0.8626537919044495, -0.8085194826126099, -0.8796280026435852, -0.32819482684135437, -0.34430044889450073, -0.5772354602813721, -0.04799538850784302, -0.23986691236495972, 0.14643495306433768, -0.5535400470651519, 0.8158744555135571,-0.08061724843646567,-1.4455413818359375,-0.367431640625,-0.565277099609375
20220227-1534,2022-02-27 15:34:46Z,u01, 173,40,movements,el-ex, rt, d,297180.8124795, -1.2237683959484131, 0.36010705182395136, 0.0416185204755776, 0.5806558132171631, -0.9681797027587891, -0.9026643633842468, -0.8800703883171082, -0.35237443447113037, -0.3182898163795471, -0.5138047337532043, 0.003527998924255371, -0.16214823722839355, 0.15831808285597754, -0.5619523783164135, 0.8073003764575859,-0.08608729909541346,-1.3938751220703125,-0.348846435546875,-0.480438232421875
20220227-1534,2022-02-27 15:34:46Z,u01, 174,40,movements,el-ex, rt, d,297180.83742450003, -1.249938882607265, 0.3861064102489088, 0.04303428408768702, 0.24819889664649963, -1.0971895456314087, -1.0302734375, -0.8791048526763916, -0.37658432126045227, -0.29216283559799194, -0.4313200116157532, 0.022473543882369995, -0.1636781096458435, 0.16791003212322958, -0.570723049256531, 0.7981464372249534,-0.09509931153838375,-1.2835235595703125,-0.3566436767578125,-0.4500732421875
20220227-1534,2022-02-27 15:34:46Z,u01, 175,40,movements,el-ex, rt, d,297180.86236950004, -1.2778512293673132, 0.4133476614318215, 0.04018577944976364, 0.3181498050689697, -1.19516122341156, -1.1209774017333984, -0.8767669200897217, -0.40167731046676636, -0.26445305347442627, -0.33211076259613037, 0.07924380898475647, -0.15714716911315918, 0.1764191766068221, -0.5802152655279627, 0.7879539241288979,-0.10656125496244356,-1.2088775634765625,-0.3224334716796875,-0.421600341796875
20220227-1534,2022-02-27 15:34:46Z,u01, 176,40,movements,el-ex, rt, d,297180.8873145, -1.3096588623205765, 0.44440728135806623, 0.046633758626356124, 0.7678479552268982, -1.1237828731536865, -1.1320562362670898, -0.8722559213638306, -0.42992281913757324, -0.23310156166553497, -0.285184383392334, 0.14307275414466858, -0.11321181058883667, 0.1885971237322879, -0.5898138224023372, 0.776570629128482,-0.11614244299664978,-1.136505126953125,-0.2684173583984375,-0.328094482421875
20220227-1534,2022-02-27 15:34:46Z,u01, 177,40,movements,el-ex, rt, d,297180.9122595, -1.3435152196017803, 0.47651787998192974, 0.06060138981274158, 0.68180912733078, -1.1028467416763306, -1.134408712387085, -0.8657453060150146, -0.45868775248527527, -0.20022717118263245, -0.20830577611923218, 0.2036217451095581, -0.03001263737678528, 0.20297041823522227, -0.5989068546403582, 0.7647182214483781,-0.12377334122046069,-1.0740509033203125,-0.25506591796875,-0.2302398681640625
20220227-1534,2022-02-27 15:34:46Z,u01, 178,40,movements,el-ex, rt, d,297180.9372045, -1.3704182656692685, 0.5050329520991029, 0.06091823672513248, -0.1320461928844452, -0.9904117584228516, -1.0480321645736694, -0.8576479554176331, -0.48383629322052, -0.1741914451122284, -0.2962369918823242, 0.12809279561042786, 0.10117828845977783, 0.2120205734553507, -0.606590106059813, 0.7541990192217657,-0.13520238802856627,-1.16552734375,-0.387939453125,-0.0327606201171875
20220227-1534,2022-02-27 15:34:46Z,u01, 179,40,movements,el-ex, rt, d,297180.96214950003, -1.380089624363838, 0.5246279703413383, 0.04071042090799979, -0.8540923595428467, -0.5854223966598511, -0.7632211446762085, -0.8498191237449646, -0.5008910298347473, -0.16405993700027466, -0.24345791339874268, 0.2123016119003296, 0.18169929087162018, 0.2124611031999702, -0.6105983203909309, 0.7480416594834254,-0.1498788362873122,-1.0932769775390625,-0.2885894775390625,0.01763916015625
20220227-1534,2022-02-27 15:34:46Z,u01, 180,40,movements,el-ex, rt, d,297180.98709450004, -1.3778087035169468, 0.5346350427657562, 0.01441449347348855, -0.6877008676528931, -0.26615676283836365, -0.34645429253578186, -0.8444809317588806, -0.5095270276069641, -0.16502824425697327, -0.13414156436920166, 0.3085077404975891, 0.1919601708650589, 0.2083185463331621, -0.6116283659890834, 0.7457167356919178,-0.16254461251919533,-0.9781646728515625,-0.179229736328125,0.0319976806640625
20220227-1534,2022-02-27 15:34:46Z,u01, 181,40,movements,el-ex, rt, d,297181.0120395, -1.3696587224067187, 0.5315587247271721, 0.0009841642785548069, -0.22421559691429138, 0.4017084240913391, 0.47684258222579956, -0.8446397185325623, -0.506877601146698, -0.17221753299236298, -0.047312796115875244, 0.3887593150138855, 0.13950277864933014, 0.20373861041404467, -0.6102309527897374, 0.7474135449928982,-0.16577626077503116,-0.8919525146484375,-0.1181182861328125,-0.03271484375
20220227-1534,2022-02-27 15:34:46Z,u01, 182,40,movements,el-ex, rt, d,297181.0369845, -1.3549724936637184, 0.5106140360553417, 0.002832433862319002, 0.012284492142498493, 0.8076903820037842, 1.1059015989303589, -0.8522042036056519, -0.4887130558490753, -0.18683595955371857, 0.2823799252510071, 0.28206324577331543, 0.3322980999946594, 0.1976274651199612, -0.6062387355806786, 0.7541188366732479,-0.15723497365133415,-0.4929656982421875,-0.223358154296875,0.1269378662109375
20220227-1534,2022-02-27 15:34:46Z,u01, 183,40,movements,el-ex, rt, d,297181.0619295, -1.3306272434028803, 0.47503059334005193, -0.0008717809003219126, -0.9964404106140137, 0.9687681794166565, 1.6498689651489258, -0.8637545704841614, -0.45736566185951233, -0.21152997016906738, 0.711074948310852, 0.44048935174942017, 0.20800527930259705, 0.18484530998561421, -0.6000560178285604, 0.7645731782578864,-0.1455781759745231,-0.152679443359375,-0.016876220703125,-0.0035247802734375
20220227-1534,2022-02-27 15:34:46Z,u01, 184,40,movements,el-ex, rt, d,297181.0868735, -1.2984931067793242, 0.42267166911640763, -0.01757622844954904, -1.0576086044311523, 1.0067821741104126, 2.026014566421509, -0.8783930540084839, -0.41019847989082336, -0.2452819049358368, 0.9268548488616943, 0.4560815691947937, 0.24712836742401123, 0.1618857206853073, -0.59258084512479, 0.7776733845357754,-0.13366111569226657,0.060791015625,0.0407562255859375,-0.0026397705078125
20220227-1534,2022-02-27 15:34:46Z,u01, 185,40,movements,el-ex, rt, d,297181.11181850004, -1.2725442453083506, 0.36813651720449075, -0.015001748967261707, 0.12894126772880554, 1.164341688156128, 2.2072267532348633, -0.8918092250823975, -0.35987743735313416, -0.2741618752479553, 0.9986816644668579, 0.3843372166156769, 0.18492865562438965, 0.14282869184355257, -0.5852512504602694, 0.7898914086875948,-0.11468503128104862,0.10687255859375,0.0244598388671875,-0.0892333984375
20220227-1534,2022-02-27 15:34:46Z,u01, 186,40,movements,el-ex, rt, d,297181.1367635, -1.2579129008775367, 0.3241238170437585, 0.019493709022211553, 1.0690473318099976, 0.8429782390594482, 1.7674537897109985, -0.9019081592559814, -0.3184783458709717, -0.2917760908603668, 1.1411964893341064, 0.42048338055610657, 0.12179335951805115, 0.13612980925738422, -0.5792932219490528, 0.7989332950331557,-0.08714159775424374,0.22296142578125,0.10101318359375,-0.17236328125
20220227-1534,2022-02-27 15:34:46Z,u01, 187,40,movements,el-ex, rt, d,297181.1617085, -1.2480870214195152, 0.2980245492176585, 0.05318546067684228, 0.7435978651046753, 0.8384469747543335, 1.0742757320404053, -0.9065735936164856, -0.2936324179172516, -0.303157240152359, 0.8178742527961731, 0.256980836391449, 0.18062937259674072, 0.13580186613951598, -0.574438184083753, 0.8045521090226231,-0.06537958087739892,-0.0886993408203125,-0.036651611328125,-0.122528076171875
20220227-1534,2022-02-27 15:34:46Z,u01, 188,40,movements,el-ex, rt, d,297181.1866535, -1.2321447551214455, 0.28385653715725206, 0.08237031572392013, 1.254895806312561, 1.0492860078811646, 0.7367478609085083, -0.905458927154541, -0.28005993366241455, -0.31892114877700806, 0.6321586966514587, 0.19464120268821716, 0.17733493447303772, 0.1389011996561543, -0.5667855737014683, 0.810628171100199,-0.04840056094337697,-0.2710723876953125,-0.0991973876953125,-0.180145263671875
20220227-1534,2022-02-27 15:34:46Z,u01, 189,40,movements,el-ex, rt, d,297181.2115985, -1.2252603231408212, 0.29003311702233936, 0.13374963678368432, 2.379620313644409, 0.6149969100952148, 0.03683257848024368, -0.9015970826148987, -0.28598394989967346, -0.32455500960350037, 0.6582803726196289, 0.17953866720199585, 0.09336927533149719, 0.15598639165466796, -0.5598131301062359, 0.8132941925489983,-0.02881167348370589,-0.243316650390625,-0.1064453125,-0.2311859130859375
20220227-1534,2022-02-27 15:34:46Z,u01, 190,40,movements,el-ex, rt, d,297181.23654350004, -1.2245334023346153, 0.30918881549999744, 0.18149795589330445, 1.333191156387329, 0.6596975922584534, -0.36057543754577637, -0.8960428237915039, -0.30428600311279297, -0.323291540145874, 0.46051108837127686, 0.06995677947998047, 0.22879397869110107, 0.176952988017669, -0.5541135888414594, 0.8132805238830998,-0.01485361545554098,-0.4707489013671875,-0.2929229736328125,-0.0394439697265625
20220227-1534,2022-02-27 15:34:46Z,u01, 191,40,movements,el-ex, rt, d,297181.2614885, -1.2135366963266134, 0.3172854881795407, 0.19222087979373853, -0.055914200842380524, 0.33929964900016785, -0.0932224914431572, -0.8900961875915527, -0.3119886815547943, -0.3322528302669525, 0.4965413808822632, -0.3153459131717682, 0.19641917943954468, 0.1832115322901833, -0.5480028487279398, 0.8160800732859547,-0.011823052287598002,-0.3935546875,-0.6273345947265625,-0.135833740234375
20220227-1534,2022-02-27 15:34:46Z,u01, 192,40,movements,el-ex, rt, d,297181.2864335, -1.2077482180261438, 0.3194816813878658, 0.18096169569364912, -0.4103584289550781, -0.09616926312446594, -0.3436003625392914, -0.8875153660774231, -0.3140745162963867, -0.33715540170669556, 0.4072144031524658, -0.24293231964111328, 0.1159641444683075, 0.18105024815725881, -0.5464824855317819, 0.8174991339625053,-0.016521727898346883,-0.5294189453125,-0.5365447998046875,-0.2394866943359375
20220227-1534,2022-02-27 15:34:46Z,u01, 193,40,movements,el-ex, rt, d,297181.3113785, -1.2072477304839324, 0.32859055917278385, 0.17638495333014148, 0.16251756250858307, 0.051270991563797, -0.40167173743247986, -0.884635865688324, -0.322709321975708, -0.33656826615333557, 0.1022871732711792, -0.2006518840789795, 0.11731484532356262, 0.1834531927350499, -0.5459494473012791, 0.8172182422455435,-0.02094216322051684,-0.7823486328125,-0.5233612060546875,-0.2192535400390625
20220227-1534,2022-02-27 15:34:46Z,u01, 194,40,movements,el-ex, rt, d,297181.3363235, -1.2031705734589473, 0.3355821038247925, 0.17147391170872103, -0.2793753147125244, 0.10824765264987946, -0.3123709559440613, -0.8811292052268982, -0.3293188512325287, -0.3393530249595642, 0.07688415050506592, -0.2813989222049713, 0.15536269545555115, 0.18496243301993665, -0.5441620954393381, 0.8179689622294986,-0.024562350485192286,-0.783447265625,-0.61468505859375,-0.2012176513671875
20220227-1534,2022-02-27 15:34:46Z,u01, 195,40,movements,el-ex, rt, d,297181.36126850004, -1.197343019183959, 0.3406814960734287, 0.16079242772175642, -0.18196208775043488, 0.12962539494037628, -0.3572654724121094, -0.877561628818512, -0.3341295123100281, -0.34386491775512695, 0.07971006631851196, -0.18920117616653442, 0.03949800133705139, 0.18418721358050608, -0.5423491595806351, 0.8191715748182611,-0.029840221986110138,-0.7978515625,-0.5233306884765625,-0.3043670654296875
20220227-1534,2022-02-27 15:34:46Z,u01, 196,40,movements,el-ex, rt, d,297181.38621250005, -1.1913288512428195, 0.3477310400396581, 0.15587808615644366, 0.06942813098430634, 0.18911519646644592, -0.32273635268211365, -0.8732681274414062, -0.3407655358314514, -0.3482552766799927, 0.08223718404769897, -0.10965865850448608, 0.031955987215042114, 0.18578849144898077, -0.5397730964351727, 0.8203778693257067,-0.03328435066387103,-0.779876708984375,-0.4523162841796875,-0.3245849609375
20220227-1534,2022-02-27 15:34:46Z,u01, 197,40,movements,el-ex, rt, d,297181.4111575, -1.1866166293819016, 0.3561071279333565, 0.15519845121482664, 0.11071259528398514, 0.15624621510505676, -0.31752511858940125, -0.8689407110214233, -0.3486282527446747, -0.35128435492515564, 0.07246232032775879, -0.10284885764122009, -0.024066507816314697, 0.18906021433554618, -0.537228130964296, 0.8212089620965864,-0.03547130133696158,-0.796478271484375,-0.45147705078125,-0.3753509521484375
20220227-1534,2022-02-27 15:34:46Z,u01, 198,40,movements,el-ex, rt, d,297181.4361025, -1.1834661032920952, 0.36516077794345453, 0.1554863489122185, 0.21177279949188232, 0.07890380918979645, -0.33707717061042786, -0.8648715019226074, -0.3570994734764099, -0.3528134822845459, 0.07037675380706787, -0.06483656167984009, -0.06979382038116455, 0.1928429119712698, -0.5351680807433448, 0.8215803323307915,-0.0375840697507267,-0.7867889404296875,-0.4274444580078125,-0.42431640625
20220227-1534,2022-02-27 15:34:46Z,u01, 199,40,movements,el-ex, rt, d,297181.4610475, -1.1822405516015448, 0.37353633525287366, 0.15621696335467491, 0.02965652570128441, 0.04793817922472954, -0.2032352089881897, -0.861640214920044, -0.36491018533706665, -0.35272765159606934, 0.04286879301071167, -0.17230603098869324, -0.030603498220443726, 0.19643540609686486, -0.5339000957427251, 0.821464190176334,-0.039502598695441926,-0.8187713623046875,-0.5372161865234375,-0.383331298828125
20220227-1534,2022-02-27 15:34:46Z,u01, 200,40,movements,el-ex, rt, d,297181.48599250003, -1.1796497240074655, 0.37564519288724113, 0.1525492046211169, -0.21889986097812653, 0.04652649909257889, -0.03918176144361496, -0.8600101470947266, -0.3668728172779083, -0.3546646535396576, 0.03452485799789429, -0.20041844248771667, -0.016337424516677856, 0.1963590464106717, -0.5330204529211272, 0.8219630021935362,-0.041342754181432795,-0.8291473388671875,-0.5626373291015625,-0.3762359619140625
20220227-1534,2022-02-27 15:34:46Z,u01, 201,40,movements,el-ex, rt, d,297181.51093750005, -1.1759547510678907, 0.3729447278542158, 0.14626511669310577, -0.3054640293121338, 0.043206341564655304, 0.036797959357500076, -0.8596051335334778, -0.3643593192100525, -0.358219712972641, 0.06321835517883301, -0.1260429322719574, -0.011470049619674683, 0.19367339546759205, -0.5323351932577809, 0.8229682207251263,-0.042816266592863084,-0.79638671875,-0.4904022216796875,-0.36968994140625
20220227-1534,2022-02-27 15:34:47Z,u01, 202,40,movements,el-ex, rt, d,297181.5358825417, -1.173607816082752, 0.3689337231283613, 0.1404901321491443, -0.2652597725391388, 0.00863158144056797, 0.08633355051279068, -0.8601029515266418, -0.3606210947036743, -0.3607986271381378, 0.07572472095489502, -0.15636196732521057, -0.01641380786895752, 0.1905654132618297, -0.532245717675256, 0.8236966440076907,-0.0438565527288422,-0.7786407470703125,-0.4853515625,-0.3708038330078125
20220227-1534,2022-02-27 15:34:47Z,u01, 203,40,movements,el-ex, rt, d,297181.5608275417, -1.172460854734021, 0.36471882931217775, 0.13743767191554687, -0.04568663239479065, 0.019617987796664238, 0.11643319576978683, -0.8610817790031433, -0.35668662190437317, -0.3623712360858917, 0.08964312076568604, -0.11748024821281433, -0.019968152046203613, 0.18807126489610376, -0.5323941998803804, 0.8241746409872499,-0.04383922449684047,-0.7714385986328125,-0.4741668701171875,-0.3823394775390625
20220227-1534,2022-02-27 15:34:47Z,u01, 204,40,movements,el-ex, rt, d,297181.5857725417, -1.1716395920408722, 0.36535222854398447, 0.138878204978812, 0.014512225054204464, 0.05880659818649292, 0.02610856108367443, -0.8605755567550659, -0.3572782874107361, -0.3629904091358185, 0.11011767387390137, -0.016302645206451416, -0.03173905611038208, 0.18872910372670712, -0.531870401369389, 0.8243886527620312,-0.04334329767623635,-0.7392578125,-0.3577423095703125,-0.3850860595703125
20220227-1534,2022-02-27 15:34:47Z,u01, 205,40,movements,el-ex, rt, d,297181.6107175417, -1.1693572642316723, 0.3697367886635834, 0.13472493421728673, -0.18029308319091797, -0.053493306040763855, -0.07157778739929199, -0.8582946062088013, -0.3613700270652771, -0.3643379509449005, 0.1275816559791565, -0.09682095050811768, -0.0021628141403198242, 0.18945386656262597, -0.530978579613343, 0.824650485236541,-0.046050421062916846,-0.730712890625,-0.45819091796875,-0.3665008544921875
20220227-1534,2022-02-27 15:34:47Z,u01, 206,40,movements,el-ex, rt, d,297181.63566254167, -1.1694286750255942, 0.3731013089846764, 0.13372035945759048, 0.09311246126890182, -0.008541344664990902, -0.0023873280733823776, -0.857196569442749, -0.3645051121711731, -0.3637996017932892, 0.06354111433029175, -0.1685759425163269, -0.022674888372421265, 0.19054961303237072, -0.5308399439540998, 0.8244107955906944,-0.047399228231773505,-0.781005859375,-0.5047149658203125,-0.3826751708984375
20220227-1534,2022-02-27 15:34:47Z,u01, 207,40,movements,el-ex, rt, d,297181.6606075417, -1.1680110902594152, 0.37756721453486125, 0.1319624684460578, -0.33490705490112305, -0.03335987403988838, -0.19109280407428741, -0.8551738858222961, -0.3686601221561432, -0.3643726706504822, 0.13361620903015137, -0.016807466745376587, 0.011940479278564453, 0.1919280499910736, -0.5300729125211077, 0.8244779546314163,-0.049218927019087866,-0.7215576171875,-0.385467529296875,-0.3524322509765625
20220227-1534,2022-02-27 15:34:47Z,u01, 208,40,movements,el-ex, rt, d,297181.6855515417, -1.162552358378315, 0.3768718182385051, 0.1138653474319098, -0.8043683767318726, -0.09608463943004608, -0.23228511214256287, -0.8534072637557983, -0.3680136203765869, -0.36913707852363586, 0.13015586137771606, 0.006212443113327026, 0.023510366678237915, 0.18699491072129137, -0.5295888600026427, 0.8254910059687672,-0.05597586930616355,-0.7272491455078125,-0.37396240234375,-0.3500213623046875
20220227-1534,2022-02-27 15:34:47Z,u01, 209,40,movements,el-ex, rt, d,297181.7104965417, -1.160383604012715, 0.3762238229462143, 0.09786086669738657, -0.2522507309913635, -0.16647064685821533, -0.10072202235460281, -0.8528231382369995, -0.3674110174179077, -0.3710820972919464, 0.09053975343704224, -0.13559496402740479, -0.03648003935813904, 0.18255458484081913, -0.5302195541547934, 0.8256341130473532,-0.06220484052097153,-0.7622833251953125,-0.5030059814453125,-0.407562255859375
20220227-1534,2022-02-27 15:34:47Z,u01, 210,40,movements,el-ex, rt, d,297181.7354415417, -1.1629642621873353, 0.3763446440927465, 0.095787703102903, 0.031198661774396896, -0.12151496857404709, -0.025909896939992905, -0.8537371158599854, -0.3675234019756317, -0.3688623905181885, 0.09436815977096558, -0.09716778993606567, -0.017535775899887085, 0.1819725937383876, -0.531464752354867, 0.824876166818832,-0.06332845940119236,-0.7528533935546875,-0.44512939453125,-0.376922607421875
20220227-1534,2022-02-27 15:34:47Z,u01, 211,40,movements,el-ex, rt, d,297181.76038654166, -1.1660016333234429, 0.3771940408475071, 0.09611521676966875, 0.020158857107162476, -0.09177478402853012, -0.07028654962778091, -0.8545663952827454, -0.3683132231235504, -0.3661445379257202, 0.10380333662033081, 0.024364858865737915, 0.002527683973312378, 0.18230919914805177, -0.5326265963377086, 0.8240232962391345,-0.06370237951775115,-0.750762939453125,-0.3439483642578125,-0.363616943359375
20220227-1534,2022-02-27 15:34:47Z,u01, 212,40,movements,el-ex, rt, d,297181.7853315417, -1.1680506518846352, 0.3792953552264626, 0.09376409372339951, -0.08359463512897491, -0.14555878937244415, -0.17939239740371704, -0.8546008467674255, -0.37026599049568176, -0.3640885651111603, 0.13092225790023804, 0.035366058349609375, 0.01656976342201233, 0.18247142795853322, -0.5335352852799568, 0.8232634756435084,-0.06543323061530648,-0.728912353515625,-0.35894775390625,-0.3474273681640625
20220227-1534,2022-02-27 15:34:47Z,u01, 213,40,movements,el-ex, rt, d,297181.8102765417, -1.1697481717942428, 0.38183232016400165, 0.08797960082919135, -0.15137749910354614, -0.1768077164888382, -0.2144874632358551, -0.8543500900268555, -0.37262144684791565, -0.36226946115493774, 0.11876964569091797, 0.01985350251197815, 0.03196254372596741, 0.1819016443502114, -0.5345811999077963, 0.8224476221601289,-0.06866338268316391,-0.7355804443359375,-0.3527679443359375,-0.3303070068359375
20220227-1534,2022-02-27 15:34:47Z,u01, 214,40,movements,el-ex, rt, d,297181.8352215417, -1.1717322523547524, 0.38498519968574374, 0.08310866983063238, -0.04565177857875824, -0.12362445890903473, -0.15127155184745789, -0.853980541229248, -0.3755454123020172, -0.3601154088973999, 0.095450758934021, 0.05639258027076721, 0.026909351348876953, 0.18181041866653433, -0.535618583850662, 0.8215323669851243,-0.07171066775418539,-0.7596588134765625,-0.3238067626953125,-0.337249755859375
20220227-1534,2022-02-27 15:34:47Z,u01, 215,40,movements,el-ex, rt, d,297181.8601665417, -1.172720586912494, 0.3875516653217452, 0.0798065902199383, -0.15917986631393433, -0.10579472780227661, -0.1364586502313614, -0.8534446358680725, -0.37792280316352844, -0.3588963747024536, 0.10336834192276001, 0.02443772554397583, 0.06981870532035828, 0.1819324618275457, -0.5361458737935351, 0.8209705997135248,-0.07386085602277648,-0.7500762939453125,-0.353485107421875,-0.2890777587890625
20220227-1534,2022-02-27 15:34:47Z,u01, 216,40,movements,el-ex, rt, d,297181.88511154166, -1.1716372487791507, 0.3888804049652111, 0.07160631386257613, -0.3532589375972748, -0.04092198610305786, -0.16991247236728668, -0.8525919318199158, -0.37915265560150146, -0.3596252501010895, 0.040946364402770996, 0.016924262046813965, 0.06960156559944153, 0.18031478089947034, -0.5363524528971501, 0.8208577686823162,-0.07749295784752347,-0.8212738037109375,-0.3410491943359375,-0.288055419921875
20220227-1534,2022-02-27 15:34:47Z,u01, 217,40,movements,el-ex, rt, d,297181.9100565417, -1.1682199044984094, 0.3898724052403985, 0.06359991278298699, -0.12532614171504974, 0.08101463317871094, -0.15768370032310486, -0.8510115146636963, -0.38007038831710815, -0.3623892068862915, 0.045774638652801514, 0.12019795179367065, 0.05281904339790344, 0.17870803856033546, -0.5356013729233818, 0.8213859870167254,-0.08074460370220765,-0.80523681640625,-0.2598724365234375,-0.3095703125
20220227-1534,2022-02-27 15:34:47Z,u01, 218,40,movements,el-ex, rt, d,297181.9350015417, -1.1644329763870305, 0.39302227316598093, 0.05948455388394605, -0.02707616426050663, 0.05167558789253235, -0.1997113823890686, -0.8485292196273804, -0.3829820156097412, -0.3651343286037445, 0.0818360447883606, 0.12684795260429382, 0.07289811968803406, 0.1790460909946757, -0.5342053288926991, 0.8220010735823902,-0.08295484856208152,-0.773223876953125,-0.2818145751953125,-0.3041229248046875
20220227-1534,2022-02-27 15:34:47Z,u01, 219,40,movements,el-ex, rt, d,297181.9599455417, -1.1610247982817856, 0.39707999581139175, 0.05675943756348981, -0.056087642908096313, 0.15685327351093292, -0.1816219985485077, -0.8458474278450012, -0.3867271840572357, -0.36740195751190186, 0.0009835362434387207, 0.06533131003379822, 0.04063507914543152, 0.18011769956736365, -0.5327819789897428, 0.8224949235430365,-0.08487092328177026,-0.8448638916015625,-0.3213958740234375,-0.3267669677734375
20220227-1534,2022-02-27 15:34:47Z,u01, 220,40,movements,el-ex, rt, d,297181.9848905417, -1.155907324583688, 0.3996621303519823, 0.05324319585698108, -0.09419658035039902, 0.14509615302085876, -0.1610105335712433, -0.8430395722389221, -0.3891071081161499, -0.37132197618484497, 0.019736289978027344, 0.0608905553817749, 0.06303352117538452, 0.18045690241316983, -0.5308241828297007, 0.8235103485639403,-0.08655490018333245,-0.8186798095703125,-0.3291168212890625,-0.308929443359375
20220227-1534,2022-02-27 15:34:47Z,u01, 221,40,movements,el-ex, rt, d,297182.00983554166, -1.1511629742023424, 0.4000330637265676, 0.04828586316450344, -0.20717386901378632, 0.1690150648355484, -0.18200848996639252, -0.8411365747451782, -0.38944879174232483, -0.3752586543560028, -0.004459857940673828, 0.07507190108299255, 0.04869014024734497, 0.1795022267061448, -0.5292916238976306, 0.8245227716006311,-0.08827028866627828,-0.8455963134765625,-0.3143768310546875,-0.326568603515625
20220227-1534,2022-02-27 15:34:47Z,u01, 222,40,movements,el-ex, rt, d,297182.03478054167, -1.1432744656474465, 0.40188708286053043, 0.04175103702056237, -0.12214136123657227, 0.24127493798732758, -0.1968374401330948, -0.8374916911125183, -0.39115577936172485, -0.38158220052719116, 0.029401421546936035, 0.11597871780395508, 0.03578764200210571, 0.1788910210792013, -0.5265044183737153, 0.8261685530090794,-0.0907565928409737,-0.7931365966796875,-0.2711639404296875,-0.34344482421875
20220227-1534,2022-02-27 15:34:47Z,u01, 223,40,movements,el-ex, rt, d,297182.0597255417, -1.1355306815866257, 0.40673429378074466, 0.03599449043705805, -0.12471773475408554, 0.12658026814460754, -0.3145875632762909, -0.8327826857566833, -0.3956121504306793, -0.38725200295448303, 0.11143863201141357, 0.13194024562835693, 0.035750627517700195, 0.17973084595473449, -0.5235177308671963, 0.8275509943402426,-0.09373061715960784,-0.721343994140625,-0.263671875,-0.35150146484375
20220227-1534,2022-02-27 15:34:47Z,u01, 224,40,movements,el-ex, rt, d,297182.0846705417, -1.132134944486933, 0.4123940975350813, 0.029854487184776426, -0.12506097555160522, 0.04864051938056946, -0.2613120377063751, -0.8294224143028259, -0.4008038640022278, -0.3891203999519348, 0.04614293575286865, 0.0875408947467804, 0.027273625135421753, 0.1806197143865147, -0.5223182098203231, 0.8276843961812979,-0.09746129834124578,-0.8036651611328125,-0.315826416015625,-0.3480072021484375
20220227-1534,2022-02-27 15:34:47Z,u01, 225,40,movements,el-ex, rt, d,297182.1096155417, -1.127025591467008, 0.4152163233836926, 0.022876402104216886, -0.2939283549785614, 0.11162927001714706, -0.2120414823293686, -0.8263986706733704, -0.4033878743648529, -0.39286595582962036, 0.08735436201095581, 0.06653481721878052, 0.07229411602020264, 0.18021763487515416, -0.520661720057871, 0.8284360914258737,-0.10063184202747061,-0.739044189453125,-0.33685302734375,-0.3205718994140625
20220227-1534,2022-02-27 15:34:47Z,u01, 226,40,movements,el-ex, rt, d,297182.13456054166, -1.12108144141034, 0.4166239138988004, 0.011205762424111922, -0.4301866292953491, -0.06172340363264084, -0.2690497040748596, -0.8235366344451904, -0.4046754539012909, -0.39752399921417236, 0.15048664808273315, 0.050869882106781006, 0.051775217056274414, 0.17807182720453166, -0.5191612682929859, 0.829260651355638,-0.10530403177724429,-0.683135986328125,-0.349212646484375,-0.3398284912109375
20220227-1534,2022-02-27 15:34:47Z,u01, 227,40,movements,el-ex, rt, d,297182.15950554167, -1.118413404086006, 0.41757259811901537, 0.00042011860013808276, -0.16083993017673492, -0.0011606598272919655, -0.117343470454216, -0.8221274018287659, -0.4055428206920624, -0.39955177903175354, -0.01631253957748413, 0.01415485143661499, 0.07096916437149048, 0.1758091634541138, -0.5189559181943751, 0.8292905277293408,-0.10978685108906466,-0.83843994140625,-0.391387939453125,-0.328582763671875
20220227-1534,2022-02-27 15:34:47Z,u01, 228,40,movements,el-ex, rt, d,297182.1844505417, -1.1159916263837701, 0.41863598879747055, -0.0020639291390658044, -0.011632094159722328, 0.0810963362455368, -0.07349806278944016, -0.8207694888114929, -0.40651461482048035, -0.4013519585132599, 0.031645894050598145, 0.04134124517440796, 0.08203142881393433, 0.17573981465138225, -0.5181115053379597, 0.8296877389630135,-0.11087986897246072,-0.7678985595703125,-0.3544158935546875,-0.320953369140625
20220227-1534,2022-02-27 15:34:47Z,u01, 229,40,movements,el-ex, rt, d,297182.2093955417, -1.1116032896216013, 0.4205827400203288, -0.004168131037339701, -0.12143269181251526, 0.2938196361064911, -0.16176600754261017, -0.8182893395423889, -0.4082924723625183, -0.4045983552932739, 0.0026917457580566406, 0.0926644504070282, 0.09551641345024109, 0.17624834795383046, -0.5163693846120425, 0.8305325409813287,-0.11187001414629677,-0.8155975341796875,-0.3156280517578125,-0.30908203125
20220227-1534,2022-02-27 15:34:47Z,u01, 230,40,movements,el-ex, rt, d,297182.2343395417, -1.098638151491454, 0.42137091324500686, -0.012882332118081334, -0.32157355546951294, 0.3150921165943146, -0.17419743537902832, -0.8126882910728455, -0.4090118408203125, -0.41502684354782104, 0.10577905178070068, 0.14353936910629272, 0.1428254246711731, 0.1750707579764192, -0.5116999167800418, 0.8333007129159279,-0.11455802171057938,-0.6616668701171875,-0.2633209228515625,-0.291839599609375
20220227-1534,2022-02-27 15:34:47Z,u01, 231,40,movements,el-ex, rt, d,297182.2592845417, -1.0901352492909335, 0.4233733922758955, -0.024623267838741573, -0.4215758442878723, 0.06054437905550003, -0.367547869682312, -0.8084020614624023, -0.4108383357524872, -0.42154234647750854, 0.12525075674057007, 0.22132417559623718, 0.10805067420005798, 0.17340852760296632, -0.509075929588803, 0.8346002443414693,-0.11922065866324494,-0.6831512451171875,-0.18951416015625,-0.3134918212890625
20220227-1534,2022-02-27 15:34:47Z,u01, 232,40,movements,el-ex, rt, d,297182.28422954166, -1.0792014070148737, 0.4278928108353251, -0.03738539961444694, -0.14023004472255707, 0.4457724988460541, -0.3812205493450165, -0.8020997047424316, -0.4149545133113861, -0.4294751286506653, -0.07383120059967041, 0.15271693468093872, 0.10748428106307983, 0.17273404447578317, -0.5053962633885396, 0.8361685986079619,-0.12473870198007136,-0.8930511474609375,-0.28973388671875,-0.3283538818359375
20220227-1534,2022-02-27 15:34:47Z,u01, 233,40,movements,el-ex, rt, d,297182.3091745417, -1.0645111084219818, 0.4352892948608678, -0.04231588129375071, 0.10517864674329758, 0.433188796043396, -0.31488677859306335, -0.7929983735084534, -0.4216727316379547, -0.4397110641002655, 0.05578511953353882, 0.07609164714813232, 0.08262497186660767, 0.17553486264817064, -0.49933154001284846, 0.8388303398584909,-0.12735506311481293,-0.737213134765625,-0.3455810546875,-0.357086181640625
20220227-1534,2022-02-27 15:34:47Z,u01, 234,40,movements,el-ex, rt, d,297182.3341195417, -1.0568826855907023, 0.4415527857943858, -0.046737640021905225, -0.32857653498649597, 0.1272594928741455, -0.2711787223815918, -0.7873055934906006, -0.42734384536743164, -0.44444045424461365, 0.07259905338287354, 0.08215942978858948, 0.10108727216720581, 0.17756916882036075, -0.4962347892946881, 0.8398227068143234,-0.1300700790280247,-0.7616729736328125,-0.3510284423828125,-0.3671875
20220227-1534,2022-02-27 15:34:47Z,u01, 235,40,movements,el-ex, rt, d,297182.3590645417, -1.0455793170688954, 0.439290379994147, -0.06213488961761024, -0.7570067048072815, 0.2962474524974823, -0.15632562339305878, -0.7830661535263062, -0.4252973198890686, -0.4537946283817291, -0.15597504377365112, -0.003688246011734009, 0.13131549954414368, 0.1735526691115202, -0.492932202066515, 0.8418262587896428,-0.13500329168594927,-0.9390411376953125,-0.428985595703125,-0.322479248046875
20220227-1534,2022-02-27 15:34:47Z,u01, 236,40,movements,el-ex, rt, d,297182.3840095417, -1.0307751994809418, 0.4326359722711361, -0.07961492095351198, -0.5484208464622498, 0.222278892993927, -0.0521170049905777, -0.7786727547645569, -0.41926535964012146, -0.466781884431839, -0.03245401382446289, 0.05348163843154907, 0.05381810665130615, 0.16744856800315597, -0.4884363211954492, 0.8449402126031408,-0.13952412696691224,-0.77008056640625,-0.33343505859375,-0.43292236328125
20220227-1534,2022-02-27 15:34:47Z,u01, 237,40,movements,el-ex, rt, d,297182.40895454166, -1.0244575355997054, 0.4291272863014426, -0.08897381941385211, -0.20603778958320618, -0.01245332881808281, -0.08223162591457367, -0.7769604325294495, -0.4160773754119873, -0.4724533259868622, 0.07021903991699219, 0.1545875072479248, 0.03313767910003662, 0.1641129973155828, -0.48666236791672685, 0.8461831376946154,-0.1421294145882095,-0.7067413330078125,-0.2614898681640625,-0.4393157958984375
20220227-1534,2022-02-27 15:34:47Z,u01, 238,40,movements,el-ex, rt, d,297182.4338995417, -1.0231283566939768, 0.43021325784267267, -0.09237934000818525, 0.055122338235378265, 0.08680941164493561, -0.1035861149430275, -0.7759455442428589, -0.4170646369457245, -0.4732500910758972, -0.08930420875549316, 0.1309775710105896, 0.010618984699249268, 0.16384417897091982, -0.4863435357578041, 0.8461505687318533,-0.14371625847360542,-0.886138916015625,-0.2770233154296875,-0.4564056396484375
20220227-1534,2022-02-27 15:34:47Z,u01, 239,40,movements,el-ex, rt, d,297182.4588445417, -1.0198564850926788, 0.43389915831601644, -0.09057904999899447, 0.19700483977794647, 0.18691883981227875, -0.1354863941669464, -0.7730779647827148, -0.4204118251800537, -0.47497838735580444, -0.02571970224380493, 0.2388627529144287, -0.031140297651290894, 0.16609375865842194, -0.48468925512832073, 0.8466896076048069,-0.14354775324566582,-0.798797607421875,-0.181549072265625,-0.5061187744140625
20220227-1534,2022-02-27 15:34:47Z,u01, 240,40,movements,el-ex, rt, d,297182.4837895417, -1.0183182650279763, 0.43955304747861323, -0.08951539449906974, 0.140012726187706, -0.04768635332584381, -0.1844165176153183, -0.7703106999397278, -0.42553505301475525, -0.4749119281768799, 0.07974368333816528, 0.21624544262886047, -0.012117952108383179, 0.16888220288761474, -0.48375906544145353, 0.846543877765923,-0.14428944244638514,-0.689544677734375,-0.240814208984375,-0.489837646484375
20220227-1534,2022-02-27 15:34:47Z,u01, 241,40,movements,el-ex, rt, d,297182.5087335417, -1.0202416887392747, 0.4446928801321958, -0.08999530536199979, 0.08563626557588577, -0.06416232883930206, -0.17459245026111603, -0.769348680973053, -0.4301806390285492, -0.47227898240089417, -0.06201130151748657, 0.0970202088356018, -0.03803586959838867, 0.17082538845955167, -0.4844369870300176, 0.8454973578520677,-0.1458557303904947,-0.83135986328125,-0.333160400390625,-0.51031494140625
20220227-1534,2022-02-27 15:34:48Z,u01, 242,40,movements,el-ex, rt, d,297182.53367800004, -1.0220238298275899, 0.44943848648774704, -0.08740751241097623, 0.2639940679073334, -0.02054893970489502, -0.06702830642461777, -0.7684386968612671, -0.4344598650932312, -0.46983692049980164, -0.053338706493377686, 0.08665096759796143, -0.0188867449760437, 0.17335049267591857, -0.4848001065372378, 0.8447457450264908,-0.14602479276443187,-0.797698974609375,-0.3535919189453125,-0.480926513671875
20220227-1534,2022-02-27 15:34:48Z,u01, 243,40,movements,el-ex, rt, d,297182.558623, -1.0249781910268059, 0.4460705608919431, -0.08402573260744946, 0.019634082913398743, -0.0848817229270935, -0.012957747094333172, -0.7710695862770081, -0.43142393231391907, -0.4683215320110321, -0.016924798488616943, 0.03670954704284668, 0.049788326025009155, 0.1725187779298961, -0.48587705120481756, 0.8446340790165191,-0.1440626332880608,-0.787994384765625,-0.39471435546875,-0.4185333251953125
20220227-1534,2022-02-27 15:34:48Z,u01, 244,40,movements,el-ex, rt, d,297182.583568, -1.023766462546002, 0.44019956259777754, -0.08787973931893858, -0.29782676696777344, -0.03776814043521881, 0.1029713824391365, -0.7726516127586365, -0.42612001299858093, -0.47056493163108826, -0.037208735942840576, 0.021472156047821045, 0.06075972318649292, 0.16916226257140224, -0.4859029393353286, 0.8452728639268459,-0.1442093261084646,-0.7861785888671875,-0.39581298828125,-0.411407470703125
20220227-1534,2022-02-27 15:34:48Z,u01, 245,40,movements,el-ex, rt, d,297182.608513, -1.0260410766090458, 0.4307378229270939, -0.08993969573781692, -0.08360648155212402, -0.17767252027988434, 0.23419784009456635, -0.7771334648132324, -0.41754135489463806, -0.47087451815605164, 0.06482261419296265, 0.06474286317825317, -0.014888912439346313, 0.1644535941196744, -0.48735793979747455, 0.8455618478636229,-0.14304678699237838,-0.712310791015625,-0.3527984619140625,-0.4857635498046875
20220227-1534,2022-02-27 15:34:48Z,u01, 246,40,movements,el-ex, rt, d,297182.633458, -1.0305620619771743, 0.42388954222324526, -0.08829776840927578, -0.11657948046922684, -0.0967387855052948, 0.2153003215789795, -0.7816883325576782, -0.4113088548183441, -0.4688161015510559, -0.015766620635986328, 0.04207664728164673, 0.01869720220565796, 0.16160669554332596, -0.4893620555280531, 0.8452795558681706,-0.1411053272901065,-0.8080596923828125,-0.384979248046875,-0.4241943359375
20220227-1534,2022-02-27 15:34:48Z,u01, 247,40,movements,el-ex, rt, d,297182.65840300004, -1.036059932747593, 0.4146319755812295, -0.08790468922850492, -0.25088056921958923, -0.14771728217601776, 0.3860480785369873, -0.7874965071678162, -0.4028531312942505, -0.4664319157600403, 0.04915410280227661, 0.022909224033355713, 0.045152127742767334, 0.1573642440886058, -0.4919558223930958, 0.8448934211702667,-0.13918027045082887,-0.73834228515625,-0.37994384765625,-0.4212799072265625
20220227-1534,2022-02-27 15:34:48Z,u01, 248,40,movements,el-ex, rt, d,297182.683348, -1.0418249254812586, 0.4009827856284778, -0.08604645352866676, -0.23783457279205322, -0.19583268463611603, 0.584382176399231, -0.7948457598686218, -0.39032337069511414, -0.464616060256958, 0.10429388284683228, 0.04617655277252197, 0.05389529466629028, 0.15160068730061277, -0.49468090838669665, 0.8449418760690866,-0.13557812627406496,-0.7187652587890625,-0.3455810546875,-0.41119384765625
20220227-1534,2022-02-27 15:34:48Z,u01, 249,40,movements,el-ex, rt, d,297182.708293, -1.0430505530064027, 0.38375922414420527, -0.0875055841910863, -0.6057137846946716, 0.04360095411539078, 0.562272846698761, -0.8011044263839722, -0.37440890073776245, -0.46695807576179504, -0.04363751411437988, -0.005123019218444824, 0.06900894641876221, 0.14380301012106977, -0.49582421878808874, 0.8461775272830162,-0.1321467798738844,-0.8447418212890625,-0.3795318603515625,-0.39794921875
