SessionID,LoggingTime,UID,RecNo,Hertz,Activity,MoveType,Wrist,Side,TimeStamp,DMRoll,DMPitch,DMYaw,DMRotX,DMRotY,DMRotZ,DMGrvX,DMGrvY,DMGrvZ,DMUAccelX,DMUAccelY,DMUAccelZ,DMQuatX,DMQuatY,DMQuatW,DMQuatZ,AccelroX,AceelroY,AceelroZ
20220225-1320,2022-02-25 13:20:21Z,u01, 1,40,movements,el-ex, rt, d,243395.92310579168, -1.2064841526896142, 0.28760061140021753, 0.1988492171928976, 0.7502182722091675, -0.018324391916394234, 0.045225322246551514, -0.8959921598434448, -0.2836522161960602, -0.34167227149009705, -0.04445314407348633, -0.02401086688041687, -0.17328104376792908, 0.17316009780661495, -0.5469729788531675, 0.8190460976596818,2.7755575615628914e-17,-0.952362060546875,-0.302642822265625,-0.4973297119140625
20220225-1320,2022-02-25 13:20:21Z,u01, 2,40,movements,el-ex, rt, d,243395.94805179167, -1.2124349997114605, 0.29665442017443094, 0.22487432894951237, 1.2251235246658325, 0.12300151586532593, 0.03136030584573746, -0.8955676555633545, -0.29232239723205566, -0.33541977405548096, -0.02707052230834961, -0.02258855104446411, -0.15968185663223267, 0.18390895516183442, -0.5463218873258918, 0.8171006283931089,0.007524722672245937,-0.922637939453125,-0.314910888671875,-0.4951019287109375
20220225-1320,2022-02-25 13:20:21Z,u01, 3,40,movements,el-ex, rt, d,243395.97299679168, -1.2174059466622045, 0.3042172097005394, 0.25556679843235236, 1.0033059120178223, 0.1984758973121643, 0.18550820648670197, -0.8951241970062256, -0.29954642057418823, -0.3301893174648285, -0.01896899938583374, -0.15580642223358154, -0.04627525806427002, 0.1953212481435655, -0.544752196976894, 0.8153477860340783,0.017405228876371998,-0.9068603515625,-0.4295654296875,-0.401336669921875
20220225-1320,2022-02-25 13:20:21Z,u01, 4,40,movements,el-ex, rt, d,243395.9979417917, -1.216233364702709, 0.3027210811908394, 0.2710355262512577, 0.006790470331907272, 0.29218414425849915, 0.33272042870521545, -0.8951557278633118, -0.2981186509132385, -0.33139389753341675, -0.05323934555053711, -0.23851776123046875, -0.020122528076171875, 0.19892213130294195, -0.5428932059954126, 0.8155419926211348,0.024258956310070884,-0.948394775390625,-0.5366363525390625,-0.3515167236328125
20220225-1320,2022-02-25 13:20:21Z,u01, 5,40,movements,el-ex, rt, d,243396.02288779168, -1.2082715350885254, 0.291247513321341, 0.26745756346300376, -0.38254812359809875, 0.2549876868724823, 0.3756987154483795, -0.8956282138824463, -0.2871474325656891, -0.3397011160850525, 0.011777877807617188, -0.12441271543502808, -0.07240796089172363, 0.19329485752987602, -0.5410975317171517, 0.818002789334693,0.026875044940895945,-0.885711669921875,-0.4541168212890625,-0.415252685546875
20220225-1320,2022-02-25 13:20:21Z,u01, 6,40,movements,el-ex, rt, d,243396.0478327917, -1.202396280095468, 0.281232855057987, 0.26691390716065017, 0.21964430809020996, 0.22198142111301422, 0.4009682536125183, -0.8962546586990356, -0.27754026651382446, -0.34597551822662354, -0.009095191955566406, 0.059080153703689575, -0.0583057701587677, 0.18907164205607846, -0.5396889495279135, 0.8198068142058204,0.03007673289255866,-0.9053497314453125,-0.2184600830078125,-0.4042816162109375
20220225-1320,2022-02-25 13:20:21Z,u01, 7,40,movements,el-ex, rt, d,243396.07277775003, -1.2006481522037902, 0.2775551809073867, 0.28636923371260614, 0.823744535446167, 0.8900046348571777, 0.060311466455459595, -0.8965941071510315, -0.2740052044391632, -0.3479086756706238, 0.03618127107620239, -0.004116803407669067, -0.029089927673339844, 0.19281265619664412, -0.5374652995540086, 0.82000764380063,0.039268103008926025,-0.9338531494140625,-0.2621307373046875,-0.3890380859375
20220225-1320,2022-02-25 13:20:21Z,u01, 8,40,movements,el-ex, rt, d,243396.09772375002, -1.1955352983584788, 0.2736446269120664, 0.2995009542692167, -0.12527228891849518, 0.2595885097980499, 0.2926090955734253, -0.8957936763763428, -0.27024224400520325, -0.35287827253341675, 0.07007932662963867, -0.06612256169319153, 0.014377593994140625, 0.19466217906421643, -0.534478717523547, 0.82115707780308,0.04626396514411306,-0.825714111328125,-0.33636474609375,-0.3385009765625
20220225-1320,2022-02-25 13:20:21Z,u01, 9,40,movements,el-ex, rt, d,243396.12266875, -1.1883857769573853, 0.2633853476621555, 0.2902173596201484, -0.7137590646743774, 0.12457171082496643, 0.20927970111370087, -0.8957729935646057, -0.26035064458847046, -0.3602893352508545, 0.019292771816253662, -0.0029550492763519287, 0.09168919920921326, 0.18791385787901543, -0.533426391548903, 0.8234229695314995,0.04603684404074805,-0.843353271484375,-0.26641845703125,-0.29559326171875
20220225-1320,2022-02-25 13:20:21Z,u01, 10,40,movements,el-ex, rt, d,243396.14761375, -1.1842320548686547, 0.2514887940075485, 0.27899232649552613, -0.2814033031463623, 0.04101543128490448, 0.3817853033542633, -0.8970741629600525, -0.24884618818759918, -0.3651489317417145, -0.1455591320991516, -0.0302981436252594, 0.14644503593444824, 0.1800426208537965, -0.5338634548604732, 0.8249462812272939,0.045147111204230914,-1.042633056640625,-0.279144287109375,-0.2187042236328125
20220225-1320,2022-02-25 13:20:21Z,u01, 11,40,movements,el-ex, rt, d,243396.17255975, -1.181643040159285, 0.24104637004024212, 0.2801838535096916, -0.19089500606060028, 0.16205018758773804, 0.444670170545578, -0.8984812498092651, -0.2387188822031021, -0.36843612790107727, -0.22241443395614624, -0.027913272380828857, 0.13177263736724854, 0.17609014310180934, -0.5336423842760208, 0.8257339152647775,0.04880453003024275,-1.1381072998046875,-0.2628021240234375,-0.2223968505859375
20220225-1320,2022-02-25 13:20:21Z,u01, 12,40,movements,el-ex, rt, d,243396.19750475002, -1.1774189290349881, 0.22604951507262133, 0.27187546897071413, -0.8058279156684875, -0.0033058924600481987, 0.3497086465358734, -0.9001224040985107, -0.2241293042898178, -0.3735584318637848, -0.14927047491073608, -0.11646217107772827, 0.028359144926071167, 0.16770481204343995, -0.5339437020643634, 0.8272156397864945,0.049936712798741886,-1.0493927001953125,-0.3405914306640625,-0.3451995849609375
20220225-1320,2022-02-25 13:20:21Z,u01, 13,40,movements,el-ex, rt, d,243396.22244975003, -1.175833555491925, 0.21225467274805535, 0.25928050949400144, -0.25270283222198486, -0.03075069934129715, 0.30382785201072693, -0.9022972583770752, -0.2106645107269287, -0.37613898515701294, -0.23361313343048096, -0.016325324773788452, -0.09673064947128296, 0.1587005483475377, -0.5354854344453168, 0.8280684070655414,0.04870843296146332,-1.1260986328125,-0.277191162109375,-0.4671630859375
20220225-1320,2022-02-25 13:20:21Z,u01, 14,40,movements,el-ex, rt, d,243396.24739575002, -1.1777550527832195, 0.20643135691257722, 0.2692110605966889, 0.5835942625999451, 0.03432384133338928, 0.4126458764076233, -0.9041361808776855, -0.20496833324432373, -0.3748679757118225, -0.19608378410339355, 0.10545045137405396, -0.1616307497024536, 0.15904457368908156, -0.5359765188168261, 0.8273370335822148,0.054292112584643004,-1.1002197265625,-0.099517822265625,-0.5364990234375
20220225-1320,2022-02-25 13:20:21Z,u01, 15,40,movements,el-ex, rt, d,243396.27234075, -1.1792090477773398, 0.20071623807112754, 0.280421160901987, -0.1961905062198639, 0.015782848000526428, 0.3420504629611969, -0.9057481288909912, -0.19937123358249664, -0.3739939332008362, -0.2466413974761963, -0.10986338555812836, -0.16801339387893677, 0.159772002611123, -0.5361678345090435, 0.8266484680748326,0.060409555980572835,-1.1427154541015625,-0.2963409423828125,-0.5442352294921875
20220225-1320,2022-02-25 13:20:21Z,u01, 16,40,movements,el-ex, rt, d,243396.29728575, -1.1779847323300456, 0.1865741810778163, 0.2692092611322966, -0.8327228426933289, -0.05920218303799629, 0.36032241582870483, -0.9078038334846497, -0.1854936182498932, -0.37614431977272034, -0.30055510997772217, -0.0820387601852417, -0.2019346058368683, 0.1509814695007627, -0.5377103606443222, 0.8273413994819526,0.05982106783904445,-1.2083587646484375,-0.2675323486328125,-0.5780792236328125
20220225-1320,2022-02-25 13:20:21Z,u01, 17,40,movements,el-ex, rt, d,243396.32223075003, -1.1768231154633708, 0.17347627075570674, 0.25904122274513447, -0.17514871060848236, 0.01967991515994072, 0.2903732359409332, -0.909531831741333, -0.17260748147964478, -0.37809884548187256, -0.4586782455444336, -0.0048828125, -0.28809958696365356, 0.14287560860554394, -0.5390149733564089, 0.8279654685580624,0.05935332428647898,-1.3423309326171875,-0.18109130859375,-0.6574554443359375
20220225-1320,2022-02-25 13:20:21Z,u01, 18,40,movements,el-ex, rt, d,243396.34717675002, -1.1773461523442923, 0.17145834521764944, 0.26897960539182314, 0.7592923045158386, 0.08174435049295425, 0.15031465888023376, -0.910049319267273, -0.17061948776245117, -0.3777558207511902, -0.5451968908309937, 0.005046337842941284, -0.32131001353263855, 0.14474690626667663, -0.538674693513348, 0.8275162382893636,0.06399162621049834,-1.4552459716796875,-0.1655731201171875,-0.699066162109375
20220225-1320,2022-02-25 13:20:21Z,u01, 19,40,movements,el-ex, rt, d,243396.37212175003, -1.1776570644349247, 0.17935759199095602, 0.29002833041254494, 0.8146262168884277, 0.17398333549499512, -0.10703818500041962, -0.9088934063911438, -0.1783975064754486, -0.37694478034973145, -0.6633266806602478, -0.10567539930343628, -0.3673328459262848, 0.153629026985321, -0.5365871155074685, 0.8267445758789284,0.07046984531495958,-1.5632476806640625,-0.2835235595703125,-0.74798583984375
20220225-1320,2022-02-25 13:20:21Z,u01, 20,40,movements,el-ex, rt, d,243396.39706775002, -1.1761535034288346, 0.18970030235662064, 0.3015096007784324, 0.37713685631752014, 0.11192255467176437, -0.34583190083503723, -0.9065737724304199, -0.18856458365917206, -0.37758129835128784, -0.6885802745819092, -0.10119986534118652, -0.3712892532348633, 0.16084625592630647, -0.534170222932796, 0.8267660377923802,0.07244868577902343,-1.59515380859375,-0.289764404296875,-0.748870849609375
20220225-1320,2022-02-25 13:20:21Z,u01, 21,40,movements,el-ex, rt, d,243396.42201275, -1.175094186071612, 0.20366347613451333, 0.30496318625740476, 0.4149101674556732, 0.06835523992776871, -0.581206738948822, -0.9036555886268616, -0.20225843787193298, -0.37748971581459045, -0.804581344127655, -0.11846610903739929, -0.35755640268325806, 0.16738715456082628, -0.5321998570804852, 0.8269435001389541,0.07006860096092254,-1.68450927734375,-0.3021697998046875,-0.7392120361328125
20220225-1320,2022-02-25 13:20:21Z,u01, 22,40,movements,el-ex, rt, d,243396.44695775, -1.174606024628668, 0.2258415652271066, 0.31321475079454764, 0.9063765406608582, 0.09015881270170212, -0.8338733911514282, -0.8991110324859619, -0.2239266335964203, -0.3761068880558014, -0.8352031111717224, -0.1815451830625534, -0.38838863372802734, 0.17852625598649646, -0.529221066238634, 0.8267526200128632,0.06733241404097105,-1.73431396484375,-0.4054718017578125,-0.764495849609375
20220225-1320,2022-02-25 13:20:21Z,u01, 23,40,movements,el-ex, rt, d,243396.47190275003, -1.177128812985638, 0.2588736148424881, 0.32805822511135696, 1.096674919128418, -0.034606825560331345, -1.148033618927002, -0.8927363157272339, -0.2559918761253357, -0.370796799659729, -0.8035071492195129, -0.1656695306301117, -0.3258887231349945, 0.19581365600205033, -0.525603099500165, 0.825411680168041,0.06398544448748007,-1.7000274658203125,-0.4331207275390625,-0.725250244140625
20220225-1320,2022-02-25 13:20:21Z,u01, 24,40,movements,el-ex, rt, d,243396.49684875002, -1.1835426381266085, 0.29866089483019403, 0.3439541874234958, 1.2457783222198486, -0.09623663127422333, -1.299553632736206, -0.88495934009552, -0.29424065351486206, -0.36092904210090637, -0.8370715975761414, -0.12606275081634521, -0.25271809101104736, 0.2160554708289094, -0.5223557304555352, 0.8228129769085999,0.05868208257078772,-1.7220306396484375,-0.4203033447265625,-0.6136474609375
20220225-1320,2022-02-25 13:20:21Z,u01, 25,40,movements,el-ex, rt, d,243396.52179375003, -1.1918398480581662, 0.34155299956993956, 0.3613200011323455, 1.2450047731399536, -0.1486321985721588, -1.3951719999313354, -0.8753852844238281, -0.3349507749080658, -0.3485812544822693, -0.7362329959869385, -0.2100016474723816, -0.15837645530700684, 0.23774642085213085, -0.5188313948167268, 0.8194586253992189,0.05271069176560424,-1.6353302001953125,-0.520721435546875,-0.526519775390625
20220225-1320,2022-02-25 13:20:21Z,u01, 26,40,movements,el-ex, rt, d,243396.54673875, -1.2032787671143264, 0.3861113841400669, 0.3799974530939567, 1.3932812213897705, -0.2080630362033844, -1.4147294759750366, -0.8645188808441162, -0.37658894062042236, -0.3328484296798706, -0.6827072501182556, -0.2401561439037323, -0.12807351350784302, 0.2602302865336752, -0.5156122406665811, 0.8150417366443671,0.04616662668070949,-1.5472259521484375,-0.6167449951171875,-0.4609222412109375
20220225-1320,2022-02-25 13:20:21Z,u01, 27,40,movements,el-ex, rt, d,243396.57168475, -1.2179274965145819, 0.43148021646165213, 0.4035061270012443, 1.5344692468643188, -0.24546819925308228, -1.3893392086029053, -0.8523801565170288, -0.418215811252594, -0.3139171004295349, -0.5604618787765503, -0.07464313507080078, -0.1301591396331787, 0.28399564291294366, -0.5122381460046562, 0.8095131021267236,0.0405871534372538,-1.4370269775390625,-0.5123748779296875,-0.44342041015625
20220225-1320,2022-02-25 13:20:21Z,u01, 28,40,movements,el-ex, rt, d,243396.59662975, -1.237101240940674, 0.477487701731565, 0.43244618271188223, 1.5836435556411743, -0.2445491999387741, -1.3855011463165283, -0.8391605019569397, -0.45954933762550354, -0.290902316570282, -0.5340085625648499, -0.03253138065338135, -0.11087653040885925, 0.3090552364296106, -0.5089535425528093, 0.8025972068005858,0.03590152260506639,-1.3731689453125,-0.4920806884765625,-0.4017791748046875
20220225-1320,2022-02-25 13:20:21Z,u01, 29,40,movements,el-ex, rt, d,243396.62157475002, -1.25496486985444, 0.5224468297326254, 0.4586621120707435, 1.2483556270599365, -0.18644161522388458, -1.4441907405853271, -0.8237375617027283, -0.49900203943252563, -0.2691722512245178, -0.4594506025314331, -0.09279489517211914, 0.040534913539886475, 0.33252937516469233, -0.5048149076330035, 0.7960395970174837,0.030120985982121706,-1.3052520751953125,-0.6012725830078125,-0.255035400390625
20220225-1320,2022-02-25 13:20:21Z,u01, 30,40,movements,el-ex, rt, d,243396.64652075002, -1.2677432755879952, 0.5633737594278306, 0.47458971087587465, 0.9047262072563171, -0.19187261164188385, -1.320830225944519, -0.8069306015968323, -0.5340415835380554, -0.2523147761821747, -0.3868103623390198, 0.04559248685836792, 0.028239816427230835, 0.3514402777577472, -0.5003322252596842, 0.7909974875127687,0.021920583918985187,-1.1937408447265625,-0.4884490966796875,-0.2240753173828125
20220225-1320,2022-02-25 13:20:21Z,u01, 31,40,movements,el-ex, rt, d,243396.67146575003, -1.2789597957782295, 0.6025096622313713, 0.4876631699518888, 0.898226261138916, -0.021917328238487244, -1.4110058546066284, -0.7890785932540894, -0.5667120218276978, -0.23705023527145386, -0.40431147813796997, 0.2985234260559082, -0.10521936416625977, 0.3686335812691988, -0.4955644936770651, 0.7863537598483576,0.013157519124104289,-1.1901092529296875,-0.273284912109375,-0.3802337646484375
20220225-1320,2022-02-25 13:20:21Z,u01, 32,40,movements,el-ex, rt, d,243396.69641075, -1.2926135263650318, 0.6420682912815779, 0.5157182335062903, 1.522039771080017, 0.16026978194713593, -1.1223924160003662, -0.7700707316398621, -0.5988531112670898, -0.21992287039756775, -0.3132118582725525, 0.25594234466552734, 0.07467475533485413, 0.3893097666916463, -0.4883405250680639, 0.7809434393563032,0.009424454232964175,-1.083282470703125,-0.3429107666015625,-0.1452484130859375
20220225-1320,2022-02-25 13:20:21Z,u01, 33,40,movements,el-ex, rt, d,243396.72135675, -1.2997373873579392, 0.6712576314781386, 0.5408625650139262, 0.34945330023765564, 0.4569326937198639, -0.7607356309890747, -0.7544499039649963, -0.6219712495803833, -0.20966051518917084, -0.2577115297317505, 0.31836700439453125, 0.2509205937385559, 0.40532276115277055, -0.48050307456111446, 0.7776589785607755,0.008776753789611916,-1.033111572265625,-0.3451690673828125,0.0185394287109375
20220225-1320,2022-02-25 13:20:21Z,u01, 34,40,movements,el-ex, rt, d,243396.74630175, -1.279489758340141, 0.6845415815301911, 0.5291352951399538, -0.4037206470966339, 0.6809312701225281, -0.3857373893260956, -0.7420703172683716, -0.6323179602622986, -0.22249957919120789, -0.255656361579895, 0.37569552659988403, 0.28236013650894165, 0.40694073251662066, -0.4723869689324176, 0.7818134248469198,0.004218489080186946,-0.9977264404296875,-0.256622314453125,0.0598602294921875
20220225-1320,2022-02-25 13:20:21Z,u01, 35,40,movements,el-ex, rt, d,243396.77124675002, -1.2519060569720915, 0.6837487074429546, 0.5234998718857746, 0.14085815846920013, 1.158467411994934, 0.29831910133361816, -0.7361273169517517, -0.6317034959793091, -0.24303852021694183, -0.04110985994338989, 0.38654035329818726, 0.32990702986717224, 0.40526948860540013, -0.4628578437241352, 0.7883260529883874,0.007848523164520782,-0.838043212890625,-0.21075439453125,0.085113525390625
20220225-1320,2022-02-25 13:20:21Z,u01, 36,40,movements,el-ex, rt, d,243396.79619275001, -1.2319191562157912, 0.6725321235175523, 0.537511466950002, 0.14517879486083984, 1.1437164545059204, 0.8121125102043152, -0.7377593517303467, -0.6229687333106995, -0.2600410282611847, 0.16427278518676758, 0.3411235809326172, 0.27536118030548096, 0.40447239145156144, -0.45429238421135204, 0.7934657601509361,0.02080296778577563,-0.573486328125,-0.2818450927734375,0.01531982421875
20220225-1320,2022-02-25 13:20:21Z,u01, 37,40,movements,el-ex, rt, d,243396.82113775003, -1.2116781051591297, 0.6474200832225385, 0.5498950569643534, 0.05074388161301613, 1.1409318447113037, 1.4743173122406006, -0.7467586398124695, -0.603130578994751, -0.2803305685520172, 0.37003421783447266, 0.4487573504447937, 0.12722423672676086, 0.39822775451323417, -0.44860825983630837, 0.7992356039952029,0.03725414664493945,-0.4147186279296875,-0.159912109375,-0.1077728271484375
20220225-1320,2022-02-25 13:20:21Z,u01, 38,40,movements,el-ex, rt, d,243396.84608275, -1.2014715164328755, 0.6061612487340173, 0.5835669896289559, 0.6923995614051819, 1.1785205602645874, 2.327599048614502, -0.7664255499839783, -0.5697168111801147, -0.296673059463501, 0.6419135928153992, 0.34654170274734497, 0.14065223932266235, 0.3909895512407491, -0.4458594352744275, 0.8025732738801526,0.06490689859728181,-0.12451171875,-0.223175048828125,-0.1560211181640625
20220225-1320,2022-02-25 13:20:22Z,u01, 39,40,movements,el-ex, rt, d,243396.87102875003, -1.2059695039269374, 0.5539006609261803, 0.6396329811684076, 1.1559098958969116, 0.9850447773933411, 2.6911275386810303, -0.7945055961608887, -0.526008665561676, -0.3034404516220093, 0.9991409778594971, 0.30475616455078125, 0.21710646152496338, 0.38528374757111844, -0.44703043960184163, 0.8008371410980748,0.10188390828930428,0.1610107421875,-0.3303070068359375,-0.106597900390625
20220225-1320,2022-02-25 13:20:22Z,u01, 40,40,movements,el-ex, rt, d,243396.89597375, -1.204851302073071, 0.49384483762977077, 0.6807572291721077, -0.1690215766429901, 0.6409857869148254, 2.881528615951538, -0.8222144842147827, -0.4740148186683655, -0.3150770664215088, 1.3361912965774536, 0.6261448860168457, 0.22364670038223267, 0.37327217899845055, -0.45069872780045084, 0.7993710508246302,0.13617868495315252,0.51397705078125,0.152130126953125,-0.0914306640625
20220225-1320,2022-02-25 13:20:22Z,u01, 41,40,movements,el-ex, rt, d,243396.92091875002, -1.2029758178238577, 0.42595258627981797, 0.6946761429312462, -0.7136020660400391, 0.10596607625484467, 2.5047175884246826, -0.8497356176376343, -0.4131884276866913, -0.32745233178138733, 1.4633065462112427, 0.5423388481140137, 0.10606282949447632, 0.35213388481361996, -0.46073372207631097, 0.7984556561642498,0.16184852489802654,0.631622314453125,0.168060302734375,-0.2093658447265625
20220225-1320,2022-02-25 13:20:22Z,u01, 42,40,movements,el-ex, rt, d,243396.94586475, -1.2102827712912483, 0.3712586712332311, 0.7020960504213317, -0.24925512075424194, -0.4329247772693634, 1.6196744441986084, -0.8719670176506042, -0.3627886474132538, -0.328722208738327, 1.2767672538757324, 0.3679155707359314, 0.12999200820922852, 0.3347992847354402, -0.4728089808718427, 0.7951033344243038,0.17936568821036603,0.4048004150390625,0.005126953125,-0.19873046875
20220225-1320,2022-02-25 13:20:22Z,u01, 43,40,movements,el-ex, rt, d,243396.97080975003, -1.225329261478909, 0.34741351924576647, 0.7140061780806713, 0.3610759675502777, -0.3495388627052307, 0.4927055537700653, -0.8847037553787231, -0.34046700596809387, -0.318404883146286, 0.7588033080101013, 0.34055858850479126, 0.07588198781013489, 0.33042067189341556, -0.4812688788813058, 0.7897323569494062,0.18848174711697083,-0.0452423095703125,-0.005523681640625,-0.2601165771484375
20220225-1320,2022-02-25 13:20:22Z,u01, 44,40,movements,el-ex, rt, d,243396.99575475, -1.2335092929060663, 0.3444957000483243, 0.7182737773133047, 0.032016098499298096, -0.2436744123697281, -0.15169066190719604, -0.888212263584137, -0.3377220630645752, -0.31148481369018555, 0.5670299530029297, 0.15684440732002258, 0.09801468253135681, 0.3311753635390976, -0.4843350798934399, 0.7872558258345528,0.18965941793919996,-0.3211822509765625,-0.180877685546875,-0.213470458984375
20220225-1320,2022-02-25 13:20:22Z,u01, 45,40,movements,el-ex, rt, d,243397.02070075003, -1.238921213755852, 0.35513012225663043, 0.72169084572781, 0.504344642162323, -0.010807618498802185, -0.48554879426956177, -0.8864393830299377, -0.34771236777305603, -0.30548590421676636, 0.26377373933792114, -0.31528201699256897, 0.11870336532592773, 0.3363169258470926, -0.48388838951550367, 0.7859873111806984,0.18699487883311763,-0.574127197265625,-0.6085968017578125,-0.19873046875
20220225-1320,2022-02-25 13:20:22Z,u01, 46,40,movements,el-ex, rt, d,243397.04564575, -1.242209259981525, 0.37237615388204603, 0.7383415591343793, 1.082127571105957, 0.13196423649787903, -0.452706903219223, -0.8816314339637756, -0.36382976174354553, -0.30058953166007996, 0.2142881155014038, -0.3069618344306946, 0.09564909338951111, 0.3467561725440297, -0.4790254561713143, 0.7842092160543419,0.18791173609209602,-0.6673431396484375,-0.6707916259765625,-0.2049407958984375
20220225-1320,2022-02-25 13:20:22Z,u01, 47,40,movements,el-ex, rt, d,243397.0705900417, -1.2496833601912856, 0.39412386890056955, 0.7653030895933851, 1.0278409719467163, 0.07227794826030731, -0.4968310296535492, -0.8761370182037354, -0.38399937748908997, -0.2914251387119293, 0.09380340576171875, -0.29599329829216003, 0.08720183372497559, 0.36150064954605715, -0.47286860275319154, 0.7806002520712646,0.1907248864086424,-0.7682647705078125,-0.68023681640625,-0.2229461669921875
20220225-1320,2022-02-25 13:20:22Z,u01, 48,40,movements,el-ex, rt, d,243397.09553604168, -1.2510434068952363, 0.4064417392026424, 0.7685647303267008, -0.49739256501197815, -0.08792223781347275, -0.3502150774002075, -0.8719759583473206, -0.39534345269203186, -0.28872451186180115, 0.06762391328811646, -0.30062517523765564, 0.10580241680145264, 0.3666692701419684, -0.47030989260712425, 0.7803716189529651,0.18810270668366025,-0.804351806640625,-0.6959686279296875,-0.18292236328125
20220225-1320,2022-02-25 13:20:22Z,u01, 49,40,movements,el-ex, rt, d,243397.12048104167, -1.2460931870044296, 0.4062943546436499, 0.743498369508386, -0.9505831599235535, -0.31495052576065063, -0.27579858899116516, -0.8705911040306091, -0.39520806074142456, -0.2930559813976288, 0.11914139986038208, -0.30109620094299316, -0.0007822215557098389, 0.36025228905177853, -0.4729590929004059, 0.7838365965115759,0.17924360096131797,-0.73431396484375,-0.700531005859375,-0.2747802734375
20220225-1320,2022-02-25 13:20:22Z,u01, 50,40,movements,el-ex, rt, d,243397.14542604168, -1.2438471871934977, 0.40581112499944044, 0.722498982741923, -0.48251765966415405, -0.14088378846645355, -0.1726803034543991, -0.8701115846633911, -0.39476412534713745, -0.29507189989089966, 0.03640162944793701, -0.15809231996536255, 0.014600396156311035, 0.35490441378084714, -0.4759274159251535, 0.7861986057642739,0.17154566801693114,-0.833709716796875,-0.5528564453125,-0.2804718017578125
20220225-1320,2022-02-25 13:20:22Z,u01, 51,40,movements,el-ex, rt, d,243397.1703710417, -1.242554479211896, 0.4093055436614978, 0.7112895979382309, -0.3812791109085083, -0.09146764874458313, -0.3536161482334137, -0.8684183359146118, -0.39797234535217285, -0.2957499623298645, 0.07486939430236816, -0.1469038426876068, 0.09352549910545349, 0.35335590428215286, -0.47672280190735195, 0.7875337521880815,0.166330486114059,-0.7768096923828125,-0.51385498046875,-0.206390380859375
20220225-1320,2022-02-25 13:20:22Z,u01, 52,40,movements,el-ex, rt, d,243397.19531704168, -1.2389725496736534, 0.4123039249080282, 0.7000801883103605, -0.1342136263847351, -0.02743985876441002, -0.1787784844636917, -0.8662213087081909, -0.4007212519645691, -0.29846858978271484, 0.11245214939117432, -0.2236684262752533, 0.01920253038406372, 0.35144954011260326, -0.47670633589237404, 0.7893680317268785,0.16165593590407099,-0.7537689208984375,-0.6243896484375,-0.279266357421875
20220225-1320,2022-02-25 13:20:22Z,u01, 53,40,movements,el-ex, rt, d,243397.2202620417, -1.2386069942637195, 0.4164455893072943, 0.6988292905538658, 0.040058381855487823, 0.024185918271541595, -0.16549983620643616, -0.8645356297492981, -0.4045124053955078, -0.29824134707450867, 0.14683836698532104, -0.1357555091381073, 0.04848581552505493, 0.35258771701834263, -0.4759844766082594, 0.7896327931596909,0.16000233633384206,-0.7180938720703125,-0.5401153564453125,-0.2560882568359375
20220225-1320,2022-02-25 13:20:22Z,u01, 54,40,movements,el-ex, rt, d,243397.24520704168, -1.2355899515472888, 0.42145944514994776, 0.6945580182667891, -0.14558139443397522, 0.11466176062822342, -0.33518365025520325, -0.8617058992385864, -0.40909263491630554, -0.3001774251461029, 0.13726413249969482, -0.11793071031570435, 0.0750647783279419, 0.353107886847548, -0.47457993203069887, 0.7907749313061935,0.15736559670866496,-0.7244415283203125,-0.5270233154296875,-0.2251129150390625
20220225-1320,2022-02-25 13:20:22Z,u01, 55,40,movements,el-ex, rt, d,243397.27015304167, -1.2306325209799618, 0.4276432630839845, 0.691142380630852, 0.14332294464111328, 0.1280243694782257, -0.20371679961681366, -0.8578058481216431, -0.41472744941711426, -0.3035956621170044, 0.16339349746704102, -0.24347564578056335, 0.048255473375320435, 0.3541039827085635, -0.4720302237257491, 0.7923083163035725,0.15506592558372945,-0.6947784423828125,-0.6250152587890625,-0.26458740234375
20220225-1320,2022-02-25 13:20:22Z,u01, 56,40,movements,el-ex, rt, d,243397.29509804168, -1.2294592901182637, 0.433527021293855, 0.6972603182392633, 0.3167768716812134, 0.21183884143829346, -0.09929876774549484, -0.8551349639892578, -0.42007413506507874, -0.30377981066703796, 0.11975270509719849, -0.25405919551849365, 0.04270219802856445, 0.3575365281257395, -0.4693375430618266, 0.792190182663115,0.15596420186845053,-0.735382080078125,-0.67413330078125,-0.261077880859375
20220225-1320,2022-02-25 13:20:22Z,u01, 57,40,movements,el-ex, rt, d,243397.3200430417, -1.2251091817355986, 0.4400388619808826, 0.7019185390658442, 0.15619274973869324, 0.23791532218456268, -0.3080603778362274, -0.8512136340141296, -0.42597463726997375, -0.3065634071826935, 0.1779956817626953, -0.039799898862838745, 0.009139448404312134, 0.36058731951004386, -0.46550518520201667, 0.7929281746369835,0.15667394216370562,-0.6741943359375,-0.4664764404296875,-0.2718658447265625
20220225-1320,2022-02-25 13:20:22Z,u01, 58,40,movements,el-ex, rt, d,243397.34498904168, -1.2195165328543884, 0.4479028751444665, 0.7011288073757188, 0.1843734234571457, 0.1238631084561348, -0.2741343080997467, -0.8463143110275269, -0.43307623267173767, -0.31015685200691223, 0.20172178745269775, -0.15524166822433472, -0.009102463722229004, 0.3627476386570152, -0.46188281042586987, 0.7943768131843564,0.1550614074804275,-0.64459228515625,-0.58831787109375,-0.3192596435546875
20220225-1320,2022-02-25 13:20:22Z,u01, 59,40,movements,el-ex, rt, d,243397.3699340417, -1.2186336622899414, 0.454743622751545, 0.7061656811747917, 0.21414318680763245, 0.14456605911254883, -0.12493383139371872, -0.8432396054267883, -0.4392319917678833, -0.3098747730255127, 0.111824631690979, -0.2088698148727417, 0.04510459303855896, 0.36625397185035247, -0.45926097706025265, 0.7942580503696169,0.15521493517886137,-0.7155303955078125,-0.6640167236328125,-0.2767181396484375
20220225-1320,2022-02-25 13:20:22Z,u01, 60,40,movements,el-ex, rt, d,243397.39487904168, -1.2117322797671883, 0.45958157387402315, 0.700302963723668, -0.500713050365448, 0.1683190017938614, -0.44359204173088074, -0.8390818238258362, -0.44357314705848694, -0.31493648886680603, 0.16999894380569458, -0.01058948040008545, 0.07551109790802002, 0.3660884724503833, -0.45663002787335905, 0.7963305027484026,0.15272944154075896,-0.6690826416015625,-0.45416259765625,-0.2394256591796875
20220225-1320,2022-02-25 13:20:22Z,u01, 61,40,movements,el-ex, rt, d,243397.4198250417, -1.195800755181517, 0.46714013448745867, 0.6745932167914546, -0.7238339185714722, 0.1585025042295456, -0.7044996023178101, -0.8308143615722656, -0.45033466815948486, -0.3270263671875, 0.2767065763473511, 0.19833579659461975, 0.03331020474433899, 0.36174936622253295, -0.4534580574227015, 0.8018854483280851,0.14315374034042327,-0.5673675537109375,-0.24127197265625,-0.2532958984375
20220225-1320,2022-02-25 13:20:22Z,u01, 62,40,movements,el-ex, rt, d,243397.44477004168, -1.1881918692375537, 0.4832345523423241, 0.6647647307507849, 0.4352432191371918, 0.1267140805721283, -0.7352685332298279, -0.8214713931083679, -0.46464577317237854, -0.33058950304985046, 0.24722182750701904, 0.08970677852630615, -0.09073591232299805, 0.36476468539849694, -0.4490567541720533, 0.804250392819527,0.13592769232347698,-0.574249267578125,-0.37493896484375,-0.42132568359375
20220225-1320,2022-02-25 13:20:22Z,u01, 63,40,movements,el-ex, rt, d,243397.4697150417, -1.1879438949680157, 0.5048622360778553, 0.6697934531146849, 0.24191243946552277, 0.09232190251350403, -0.8088635802268982, -0.8118762969970703, -0.4836868643760681, -0.32696205377578735, 0.2449510097503662, 0.04611054062843323, 0.04212653636932373, 0.37359600675233, -0.44378485483391095, 0.8038207713394985,0.1317322922305108,-0.571929931640625,-0.4425201416015625,-0.328094482421875
20220225-1320,2022-02-25 13:20:22Z,u01, 64,40,movements,el-ex, rt, d,243397.49466104168, -1.1782817142263489, 0.5225902152569698, 0.6512576199609587, -0.8039709329605103, -0.028795139864087105, -0.9626272320747375, -0.8006300330162048, -0.4991263151168823, -0.33145880699157715, 0.2569437623023987, 0.10012412071228027, 0.11574575304985046, 0.3752153458652556, -0.4398682111100365, 0.806908466347966,0.12094823961412156,-0.5436859130859375,-0.3990020751953125,-0.2157135009765625
20220225-1320,2022-02-25 13:20:22Z,u01, 65,40,movements,el-ex, rt, d,243397.5196060417, -1.1636162426941263, 0.5353425333697042, 0.6182562180963922, -0.6483846306800842, -0.17466039955615997, -0.8065254092216492, -0.7897739410400391, -0.5101356506347656, -0.340615838766098, 0.2365051507949829, 0.06711184978485107, -0.015554577112197876, 0.37172691159483046, -0.43761991378304393, 0.8117452420429273,0.10666724763505918,-0.5433349609375,-0.39776611328125,-0.3130035400390625
20220225-1320,2022-02-25 13:20:22Z,u01, 66,40,movements,el-ex, rt, d,243397.54455104168, -1.1595062202785247, 0.5497945148671884, 0.602268692369851, 0.020456548780202866, -0.12470696121454239, -0.6159088611602783, -0.7815275192260742, -0.5225120186805725, -0.34087562561035156, 0.05971026420593262, -0.006220340728759766, 0.0041754841804504395, 0.37325767313072644, -0.4361661316953345, 0.8130596877363301,0.09680886639596038,-0.7218170166015625,-0.5287322998046875,-0.336700439453125
20220225-1320,2022-02-25 13:20:22Z,u01, 67,40,movements,el-ex, rt, d,243397.5694970417, -1.1588719858684364, 0.563035975360255, 0.5997830124653375, 0.09000290185213089, 0.05489056929945946, -0.4679345488548279, -0.7749028205871582, -0.5337560176849365, -0.33857131004333496, 0.0276644229888916, 0.05620157718658447, 0.15365034341812134, 0.3774800294547225, -0.43384695390649447, 0.8128940409594914,0.09213680161671267,-0.7754669189453125,-0.512237548828125,-0.1995086669921875
20220225-1320,2022-02-25 13:20:22Z,u01, 68,40,movements,el-ex, rt, d,243397.59444204168, -1.1510044372043629, 0.5718553404068996, 0.587200291411534, -0.6195141673088074, -0.011062484234571457, -0.5358985662460327, -0.7678864002227783, -0.5411931276321411, -0.34272530674934387, 0.16728496551513672, 0.1287633180618286, 0.13619795441627502, 0.37760297017049615, -0.43133900707976813, 0.8148427017578601,0.08598911255651645,-0.6006011962890625,-0.4124298095703125,-0.2065277099609375
20220225-1320,2022-02-25 13:20:22Z,u01, 69,40,movements,el-ex, rt, d,243397.6193870417, -1.1358097771067803, 0.5748503472669875, 0.5579275986740806, -0.7858644127845764, 0.020873546600341797, -0.4427715837955475, -0.7611171007156372, -0.5437092185020447, -0.3536685109138489, 0.10808640718460083, 0.08121514320373535, 0.07547053694725037, 0.37177754822257514, -0.4300548755732465, 0.8191787270939166,0.07603136712527435,-0.6352691650390625,-0.437530517578125,-0.254852294921875
20220225-1320,2022-02-25 13:20:22Z,u01, 70,40,movements,el-ex, rt, d,243397.64433304168, -1.1295375226232973, 0.5819960975934236, 0.5482900656907919, 0.4708534777164459, 0.0886659100651741, -0.30002081394195557, -0.7553512454032898, -0.5496925115585327, -0.356766939163208, 0.03180992603302002, 0.10477674007415771, 0.07678371667861938, 0.3721101292630441, -0.4279609618830211, 0.8205532801443511,0.07124466332632004,-0.723541259765625,-0.444915771484375,-0.2799835205078125
20220225-1320,2022-02-25 13:20:22Z,u01, 71,40,movements,el-ex, rt, d,243397.6692780417, -1.1367929192345987, 0.5953320983155904, 0.5689267389652237, 0.8647955656051636, 0.1960778534412384, -0.14317049086093903, -0.7512016892433167, -0.5607837438583374, -0.34816351532936096, 0.07174283266067505, 0.027901053428649902, 0.12698766589164734, 0.38166227168701305, -0.4245611278108125, 0.8176299601357734,0.07458674560006856,-0.702239990234375,-0.519775390625,-0.2409820556640625
20220225-1320,2022-02-25 13:20:22Z,u01, 72,40,movements,el-ex, rt, d,243397.69422304168, -1.1356459370497511, 0.6016061273192463, 0.5729428018193139, -0.459671288728714, 0.08039353787899017, -0.19589582085609436, -0.7475966811180115, -0.565967321395874, -0.3475348949432373, 0.1356426477432251, 0.03357285261154175, 0.19693094491958618, 0.3847539245026209, -0.4221338223214392, 0.8174291594455635,0.07468107534835973,-0.6119537353515625,-0.5323944091796875,-0.150604248046875
20220225-1320,2022-02-25 13:20:22Z,u01, 73,40,movements,el-ex, rt, d,243397.7191680417, -1.1214087678577518, 0.5968440368823619, 0.5489891646785799, -0.9162045121192932, 0.01180534902960062, -0.12566086649894714, -0.7449922561645508, -0.5620349645614624, -0.35930973291397095, 0.14312440156936646, 0.23990654945373535, 0.11945712566375732, 0.3774459307426465, -0.42175787301991535, 0.8215266965845679,0.06891262019139884,-0.6014251708984375,-0.3550567626953125,-0.23004150390625
20220225-1320,2022-02-25 13:20:22Z,u01, 74,40,movements,el-ex, rt, d,243397.74411404168, -1.1127738139175367, 0.5943387518718245, 0.5340254779363368, -0.051864124834537506, 0.08692833036184311, -0.12387575954198837, -0.7431225180625916, -0.5599610209465027, -0.3663507103919983, 0.10065096616744995, 0.2555938959121704, 0.06317406892776489, 0.37307575867905723, -0.4214725730886939, 0.8239788885271767,0.0650719419186102,-0.6424713134765625,-0.3043670654296875,-0.3031768798828125
20220225-1320,2022-02-25 13:20:22Z,u01, 75,40,movements,el-ex, rt, d,243397.7690590417, -1.1107340217510668, 0.5994737110036126, 0.5408130374150505, 0.5213531851768494, 0.32949715852737427, -0.04102281481027603, -0.7397873997688293, -0.5642080307006836, -0.3665841519832611, 0.007991015911102295, 0.1355733871459961, 0.09110227227210999, 0.3763376830560421, -0.4184230694941086, 0.8239087671213875,0.06683164343495278,-0.734344482421875,-0.4090118408203125,-0.27923583984375
20220225-1320,2022-02-25 13:20:22Z,u01, 76,40,movements,el-ex, rt, d,243397.79400404167, -1.1108865958898122, 0.6049828936056332, 0.5538585958507285, 0.2777674198150635, 0.19251734018325806, 0.05240766704082489, -0.7370468378067017, -0.5687479972839355, -0.3650861084461212, 0.054139554500579834, 0.10622352361679077, 0.0937545895576477, 0.3810966503229588, -0.41499674234773554, 0.8231352260193029,0.07065133612302778,-0.6829071044921875,-0.4625244140625,-0.271331787109375
20220225-1320,2022-02-25 13:20:22Z,u01, 77,40,movements,el-ex, rt, d,243397.8189500417, -1.108733591507043, 0.6008397009788302, 0.5496131987326565, -0.8053942322731018, -0.16352751851081848, 0.10685978829860687, -0.7383620738983154, -0.5653353333473206, -0.367719441652298, 0.061573565006256104, 0.12855249643325806, 0.08872804045677185, 0.3786095430752876, -0.4156862898000445, 0.8239512374676451,0.07045733180521714,-0.649169921875,-0.440765380859375,-0.2721405029296875
20220225-1320,2022-02-25 13:20:22Z,u01, 78,40,movements,el-ex, rt, d,243397.84389504167, -1.0951063774901906, 0.5830817742395885, 0.5199025286726514, -1.3891404867172241, -0.0781652182340622, 0.2647567391395569, -0.7420912384986877, -0.5505990982055664, -0.3822844922542572, -0.027836918830871582, 0.08749479055404663, 0.07840597629547119, 0.36532653022663647, -0.41880100661435393, 0.8287585777906357,0.06558708192469925,-0.769927978515625,-0.463104248046875,-0.3038787841796875
20220225-1320,2022-02-25 13:20:23Z,u01, 79,40,movements,el-ex, rt, d,243397.8688400417, -1.085400180225177, 0.5645387409451601, 0.49662561081272416, -0.4853834807872772, -0.23082460463047028, 0.30172082781791687, -0.7472488880157471, -0.5350261926651001, -0.3941655158996582, 0.049723684787750244, 0.16588544845581055, -0.10449141263961792, 0.35310372596630923, -0.42217886439219354, 0.8325581720277675,0.0626897800789814,-0.7090301513671875,-0.376556396484375,-0.490631103515625
20220225-1320,2022-02-25 13:20:23Z,u01, 80,40,movements,el-ex, rt, d,243397.89378604168, -1.1023816024598032, 0.5593473677669037, 0.5085613691284933, 0.8817063570022583, -0.5680588483810425, 0.4551908075809479, -0.7563024163246155, -0.5306331515312195, -0.38266873359680176, 0.025574028491973877, 0.1483241319656372, -0.11815494298934937, 0.35421717584852414, -0.42801380911483133, 0.8288374352799884,0.06605367756764828,-0.7307281494140625,-0.3823089599609375,-0.500823974609375
20220225-1320,2022-02-25 13:20:23Z,u01, 81,40,movements,el-ex, rt, d,243397.9187310417, -1.1299558609651983, 0.5571035925471327, 0.5370559070650528, 0.351348876953125, -0.3327213525772095, 0.5815637111663818, -0.7676401734352112, -0.5287299752235413, -0.3621785342693329, -0.10003578662872314, 0.02670055627822876, 0.18204882740974426, 0.36048386785641623, -0.43469772971277143, 0.8220012894213771,0.07350674594169643,-0.860870361328125,-0.4920196533203125,-0.2151336669921875
20220225-1320,2022-02-25 13:20:23Z,u01, 82,40,movements,el-ex, rt, d,243397.94367604167, -1.1339575637973844, 0.5375899487781435, 0.5335894221937073, -0.8724071383476257, -0.24480606615543365, 0.713103175163269, -0.7782849669456482, -0.5120673775672913, -0.3634002208709717, 0.029734313488006592, 0.046903133392333984, 0.14915186166763306, 0.35260327917368894, -0.44042117967686284, 0.8220703807502971,0.07681515829752206,-0.7485504150390625,-0.4651641845703125,-0.2142486572265625
20220225-1320,2022-02-25 13:20:23Z,u01, 83,40,movements,el-ex, rt, d,243397.9686220417, -1.1443842355809035, 0.5186000359846415, 0.5348981951538523, 0.616001307964325, -0.5508531928062439, 0.6518034934997559, -0.7907434105873108, -0.4956647455692291, -0.359223335981369, 0.11660993099212646, 0.31136906147003174, -0.1447741687297821, 0.346212599290947, -0.44780037383982607, 0.8204115235147736,0.08084950417517178,-0.6453399658203125,-0.242340087890625,-0.491058349609375
20220225-1320,2022-02-25 13:20:23Z,u01, 84,40,movements,el-ex, rt, d,243397.99356704167, -1.1804425881981433, 0.5221088524265125, 0.5819615036154009, 2.4521071910858154, -0.35904815793037415, 0.44617727398872375, -0.8015664219856262, -0.49870914220809937, -0.32981932163238525, -0.13935178518295288, 0.3929503858089447, -0.02014070749282837, 0.3596777063056397, -0.45356619406631715, 0.8101367083515134,0.09267345429869439,-0.94091796875,-0.1057586669921875,-0.3499603271484375
20220225-1320,2022-02-25 13:20:23Z,u01, 85,40,movements,el-ex, rt, d,243398.0185120417, -1.2223899383868808, 0.5373881006302973, 0.6590460847849557, 2.4141979217529297, 0.009232335723936558, 0.3626050651073456, -0.8074354529380798, -0.5118939876556396, -0.29327961802482605, -0.11233407258987427, 0.19823426008224487, 0.002050638198852539, 0.38474371938016305, -0.4531362554242585, 0.7963917406830823,0.11135662603200323,-0.974822998046875,-0.285186767578125,-0.270721435546875
20220225-1320,2022-02-25 13:20:23Z,u01, 86,40,movements,el-ex, rt, d,243398.04345804168, -1.2479193518003033, 0.5382943207178935, 0.7026105093202203, 0.3482638895511627, -0.2637135088443756, 0.49577850103378296, -0.8142185807228088, -0.5126722455024719, -0.2724256217479706, -0.028387248516082764, 0.03588080406188965, -0.03038477897644043, 0.3964409605471178, -0.45455665410842827, 0.7880331803389212,0.12335645333029316,-0.8426055908203125,-0.4767913818359375,-0.3028106689453125
20220225-1320,2022-02-25 13:20:23Z,u01, 87,40,movements,el-ex, rt, d,243398.06840425002, -1.2482645548612539, 0.5228767661262373, 0.691406667995076, -1.3313711881637573, -0.17966608703136444, 0.4765658676624298, -0.8217120170593262, -0.4993745982646942, -0.274617463350296, -0.24432826042175293, -0.04757675528526306, 0.05898052453994751, 0.38862968884399907, -0.4600632937505857, 0.7887029384494182,0.12351796533040792,-1.071563720703125,-0.5801849365234375,-0.2122955322265625
20220225-1320,2022-02-25 13:20:23Z,u01, 88,40,movements,el-ex, rt, d,243398.09334925, -1.236992372964004, 0.4992240912419182, 0.6588492168567556, -1.1610664129257202, -0.2421594113111496, 0.5373020768165588, -0.8294938206672668, -0.4787444770336151, -0.2876524329185486, -0.06998151540756226, -0.001998990774154663, -0.06741929054260254, 0.3721989149539182, -0.46652090599234747, 0.7933828809818024,0.11987461128829478,-0.89947509765625,-0.480743408203125,-0.355072021484375
20220225-1320,2022-02-25 13:20:23Z,u01, 89,40,movements,el-ex, rt, d,243398.11829525002, -1.2384529585849298, 0.4815281161579394, 0.6430576050895004, -0.38582587242126465, -0.4311974346637726, 0.4487461447715759, -0.8377910852432251, -0.4631340801715851, -0.2891596257686615, -0.134438157081604, 0.0010826289653778076, -0.09200465679168701, 0.36234911698651473, -0.47341662586871214, 0.7940466937922251,0.1186166300654981,-0.9201507568359375,-0.456146240234375,-0.3909149169921875
20220225-1320,2022-02-25 13:20:23Z,u01, 90,40,movements,el-ex, rt, d,243398.14324025, -1.2460237343530596, 0.46824229139692675, 0.6432069578713349, -0.09428854286670685, -0.1417407989501953, 0.5732599496841431, -0.8457134366035461, -0.4513184726238251, -0.2847471237182617, -0.25645971298217773, -0.017630010843276978, -0.029156416654586792, 0.35814459400880505, -0.4789142862616722, 0.7922533942839568,0.1212785612137875,-1.1021728515625,-0.4689483642578125,-0.31390380859375
20220225-1320,2022-02-25 13:20:23Z,u01, 91,40,movements,el-ex, rt, d,243398.16818525002, -1.246435265788169, 0.45167080005486115, 0.6386825343674594, -0.7686534523963928, -0.09261226654052734, 0.5545161962509155, -0.8528030514717102, -0.4364694058895111, -0.2867434620857239, -0.0841631293296814, -0.01848667860031128, 0.015808701515197754, 0.35121124929833913, -0.4829895743844928, 0.7924048640914421,0.12436460075555285,-0.9445648193359375,-0.4647216796875,-0.257568359375
20220225-1320,2022-02-25 13:20:23Z,u01, 92,40,movements,el-ex, rt, d,243398.19313025, -1.2378113897095178, 0.4308979603277635, 0.6183738454443847, -0.9112479090690613, 0.1527271866798401, 0.5488705635070801, -0.8586830496788025, -0.4176868498325348, -0.29698705673217773, -0.17818236351013184, 0.02492561936378479, -0.1200505793094635, 0.3383220210884901, -0.4868723430707979, 0.7956918787230284,0.12396814219456147,-1.036865234375,-0.39276123046875,-0.4170379638671875
20220225-1320,2022-02-25 13:20:23Z,u01, 93,40,movements,el-ex, rt, d,243398.21807625002, -1.2262803133130102, 0.41414585837650736, 0.6066227609551077, -0.38086193799972534, 0.38587862253189087, 0.3741551637649536, -0.8616670370101929, -0.4024081528186798, -0.3091886639595032, -0.12052607536315918, 0.1738925278186798, -0.05697616934776306, 0.3286718589833622, -0.4872170708970661, 0.7991749871923911,0.12614963664442538,-1.0015869140625,-0.243438720703125,-0.3714447021484375
20220225-1320,2022-02-25 13:20:23Z,u01, 94,40,movements,el-ex, rt, d,243398.24302125, -1.2132730129828495, 0.40628258039476506, 0.6031380793001604, -0.07635211944580078, 0.5607122182846069, 0.17363855242729187, -0.8605102896690369, -0.3951972723007202, -0.32146763801574707, -0.10999470949172974, 0.13216620683670044, -0.10054445266723633, 0.3241200245410228, -0.4839549498982161, 0.8025255593998101,0.12917726057053178,-0.9705047607421875,-0.263031005859375,-0.4220123291015625
20220225-1320,2022-02-25 13:20:23Z,u01, 95,40,movements,el-ex, rt, d,243398.26796625002, -1.1986223986118263, 0.40350384321090654, 0.6064782819119576, 0.26216816902160645, 0.7056811451911926, 0.1554337739944458, -0.8567281365394592, -0.3926432132720947, -0.3344377279281616, -0.15146607160568237, 0.006199061870574951, -0.127796471118927, 0.3229375521042339, -0.47800885841222795, 0.805819217270342,0.13369561053982504,-1.01007080078125,-0.3581390380859375,-0.444793701171875
20220225-1320,2022-02-25 13:20:23Z,u01, 96,40,movements,el-ex, rt, d,243398.29291225, -1.1840425222288837, 0.40230975041780365, 0.6151164389722684, 0.1989806741476059, 0.6879661083221436, 0.18654455244541168, -0.8521947264671326, -0.39154472947120667, -0.34706929326057434, -0.13082247972488403, -0.03214609622955322, -0.12576979398727417, 0.323548034743652, -0.47093738153602127, 0.8086828695616508,0.1398814246335927,-0.9830169677734375,-0.4236907958984375,-0.47283935546875
20220225-1320,2022-02-25 13:20:23Z,u01, 97,40,movements,el-ex, rt, d,243398.31785725002, -1.1695381613119955, 0.3989251432021568, 0.6197633560680741, -0.018072502687573433, 0.6103864312171936, 0.22042669355869293, -0.8482863306999207, -0.38842812180519104, -0.35990843176841736, -0.14614444971084595, -0.06120261549949646, -0.052902549505233765, 0.32234442687106063, -0.46490843378459057, 0.811732458266253,0.145068092322042,-1.0038909912109375,-0.4553680419921875,-0.42388916015625
20220225-1320,2022-02-25 13:20:23Z,u01, 98,40,movements,el-ex, rt, d,243398.34280225, -1.1542757395302756, 0.39175814932496134, 0.6168547756601633, -0.40544363856315613, 0.5288436412811279, 0.19764262437820435, -0.8452188968658447, -0.3818139433860779, -0.3739296495914459, -0.12688827514648438, -0.02300173044204712, -0.011995375156402588, 0.31787148427903844, -0.4604268550739123, 0.8154503050992343,0.14834369590232813,-0.97210693359375,-0.404815673828125,-0.38592529296875
20220225-1320,2022-02-25 13:20:23Z,u01, 99,40,movements,el-ex, rt, d,243398.36774825002, -1.1375509839139277, 0.3807911718008413, 0.6057938856141655, -0.6049752235412598, 0.47399988770484924, 0.28851526975631714, -0.8425970673561096, -0.37165507674217224, -0.38974735140800476, -0.09299588203430176, -0.023333996534347534, -0.03032684326171875, 0.30994771070382277, -0.45722941256428, 0.8200764489990293,0.14949448314464286,-0.9416351318359375,-0.3829193115234375,-0.4007720947265625
20220225-1320,2022-02-25 13:20:23Z,u01, 100,40,movements,el-ex, rt, d,243398.39269325, -1.1244606221683604, 0.36945331078322136, 0.5986640722301642, -0.16988259553909302, 0.36738109588623047, 0.32313215732574463, -0.8411701321601868, -0.36110568046569824, -0.40253666043281555, -0.10710281133651733, -0.057900696992874146, -0.08263152837753296, 0.3030133804325408, -0.45487862426820913, 0.8235654319380892,0.15168552562096557,-0.948272705078125,-0.41900634765625,-0.48516845703125
20220225-1320,2022-02-25 13:20:23Z,u01, 101,40,movements,el-ex, rt, d,243398.41763825002, -1.1187955336520061, 0.3634656626075649, 0.6057786309830433, 0.36248892545700073, 0.30243226885795593, 0.3344394862651825, -0.8408061861991882, -0.35551559925079346, -0.40823251008987427, -0.11305147409439087, -0.05288591980934143, -0.035294413566589355, 0.3018953420101203, -0.45248529959582956, 0.824278025658057,0.15710541226636301,-0.9532470703125,-0.401947021484375,-0.4659881591796875
20220225-1320,2022-02-25 13:20:23Z,u01, 102,40,movements,el-ex, rt, d,243398.44258425, -1.1152478514533888, 0.3585359009262786, 0.6146433832348863, -0.02677774429321289, 0.19527596235275269, 0.31195202469825745, -0.8409162759780884, -0.35090360045433044, -0.41197893023490906, -0.10889780521392822, -0.11920443177223206, 0.026557445526123047, 0.3017220450863155, -0.4505267461310404, 0.8243422508091318,0.16263279623444968,-0.9498138427734375,-0.4701080322265625,-0.3854217529296875
20220225-1320,2022-02-25 13:20:23Z,u01, 103,40,movements,el-ex, rt, d,243398.46752925002, -1.111894007155288, 0.3492091843046979, 0.6137734969407178, -0.2769499123096466, 0.07057851552963257, 0.33266499638557434, -0.8424275517463684, -0.3421548306941986, -0.41622862219810486, -0.0755109190940857, -0.05439060926437378, -0.03298985958099365, 0.2976672908579432, -0.45086569170834784, 0.825100392926238,0.16529974492634963,-0.9179840087890625,-0.4014434814453125,-0.4404754638671875
20220225-1320,2022-02-25 13:20:23Z,u01, 104,40,movements,el-ex, rt, d,243398.49247425, -1.1088995032448332, 0.3383581866593335, 0.6096674261127556, -0.411501407623291, 0.05360572785139084, 0.3195658028125763, -0.844451367855072, -0.33193880319595337, -0.42037925124168396, -0.08023148775100708, -0.08284085988998413, -0.00833141803741455, 0.2923072004270824, -0.45206954946008787, 0.8260209197743141,0.16697088877525174,-0.9246826171875,-0.4147796630859375,-0.4287109375
20220225-1320,2022-02-25 13:20:23Z,u01, 105,40,movements,el-ex, rt, d,243398.51742025002, -1.1058737674865127, 0.32557829589789916, 0.602143830126071, -0.4991462230682373, -0.0003497172147035599, 0.3375151753425598, -0.8468984365463257, -0.31985676288604736, -0.42479977011680603, -0.06135070323944092, -0.08384504914283752, -0.02274024486541748, 0.28539897642151846, -0.45403473331509747, 0.8272042856853681,0.16772919197011316,-0.9081268310546875,-0.415008544921875,-0.4396820068359375
20220225-1320,2022-02-25 13:20:23Z,u01, 106,40,movements,el-ex, rt, d,243398.54236525, -1.1037363559242295, 0.3133700229842049, 0.5957017341921423, -0.34910979866981506, 0.010045531205832958, 0.3316400945186615, -0.849412202835083, -0.308266282081604, -0.42833542823791504, -0.08582985401153564, -0.057959944009780884, -0.015145838260650635, 0.2790019875418955, -0.4560594043351409, 0.8280892930131439,0.16863026138487944,-0.93524169921875,-0.3662261962890625,-0.4434814453125
20220225-1320,2022-02-25 13:20:23Z,u01, 107,40,movements,el-ex, rt, d,243398.56731025001, -1.1033371572641864, 0.3039711274429894, 0.5962215541124234, 0.07935235649347305, 0.06729310750961304, 0.38443300127983093, -0.8517900109291077, -0.29931163787841797, -0.42996108531951904, -0.14271706342697144, -0.03288745880126953, -0.03491291403770447, 0.27541776595111267, -0.45734507412017006, 0.8280095887903095,0.17140828845234896,-0.9872589111328125,-0.3389892578125,-0.4575653076171875
20220225-1320,2022-02-25 13:20:23Z,u01, 108,40,movements,el-ex, rt, d,243398.59225625, -1.102880403562728, 0.2970295772926468, 0.6090786541024726, 0.5012010335922241, 0.26278156042099, 0.5395503640174866, -0.8534274101257324, -0.29268115758895874, -0.4312768280506134, -0.14007258415222168, -0.06327590346336365, -0.04382055997848511, 0.2756048457790026, -0.4565123747490126, 0.8268777357448762,0.17863904333258462,-0.993499755859375,-0.35595703125,-0.47509765625
20220225-1320,2022-02-25 13:20:23Z,u01, 109,40,movements,el-ex, rt, d,243398.61720125002, -1.1011965593969633, 0.29115685006942027, 0.6281348110825764, 0.6148521900177002, 0.3086267113685608, 0.5220548510551453, -0.8542180061340332, -0.28706058859825134, -0.4334836006164551, -0.1742856502532959, -0.11789244413375854, -0.03201603889465332, 0.2775000825732481, -0.4541496555088969, 0.825399102249,0.1883036329313468,-1.01824951171875,-0.413116455078125,-0.461669921875
20220225-1320,2022-02-25 13:20:23Z,u01, 110,40,movements,el-ex, rt, d,243398.64214625, -1.0974568854342917, 0.28763385983237216, 0.6473606674265472, 0.48052114248275757, 0.4474641978740692, 0.4234324097633362, -0.8534858822822571, -0.2836840748786926, -0.43713340163230896, -0.2578883767127991, -0.04268619418144226, -0.06364458799362183, 0.28011763496266817, -0.45051904211169114, 0.8243099713888276,0.19768690692899998,-1.1113739013671875,-0.3263702392578125,-0.5007781982421875
20220225-1320,2022-02-25 13:20:23Z,u01, 111,40,movements,el-ex, rt, d,243398.66709125, -1.0888111308170032, 0.2826883616705286, 0.6614230012865158, 0.359835147857666, 0.5383793711662292, 0.38461676239967346, -0.8509072661399841, -0.27893832325935364, -0.4451408386230469, -0.3823082447052002, -0.09922024607658386, -0.17807364463806152, 0.2804748829538428, -0.4458289106750739, 0.8247034550766256,0.20599707002534545,-1.2187347412109375,-0.3800811767578125,-0.586700439453125
20220225-1320,2022-02-25 13:20:23Z,u01, 112,40,movements,el-ex, rt, d,243398.69203725, -1.0788449043217383, 0.28090147834324886, 0.673824285053672, 0.4131357669830322, 0.521514356136322, 0.17041413486003876, -0.84686678647995, -0.2772219181060791, -0.453833669424057, -0.4598656892776489, -0.1350247859954834, -0.2838674783706665, 0.28148337703313564, -0.4402843033851149, 0.8255644749635869,0.21297993646572314,-1.306732177734375,-0.4122467041015625,-0.737701416015625
20220225-1320,2022-02-25 13:20:23Z,u01, 113,40,movements,el-ex, rt, d,243398.71698225001, -1.0709779156596235, 0.2835623397095524, 0.6840419489171568, 0.3339901864528656, 0.3316594362258911, 0.0007398780435323715, -0.8426198363304138, -0.27977749705314636, -0.460126668214798, -0.5577557682991028, -0.15467074513435364, -0.35949891805648804, 0.28390770826389056, -0.4351242074208542, 0.8262591748302431,0.2176220036985754,-1.380889892578125,-0.427459716796875,-0.8087310791015625
20220225-1320,2022-02-25 13:20:23Z,u01, 114,40,movements,el-ex, rt, d,243398.74192725003, -1.0666374509902299, 0.2871578279860471, 0.6869248954392458, 0.019720450043678284, 0.04882435128092766, -0.1392882764339447, -0.839728593826294, -0.2832275927066803, -0.4632907807826996, -0.6107110977172852, -0.1912139356136322, -0.3924981355667114, 0.2854581576628674, -0.43228260556552667, 0.8269835389737883,0.21850383589310746,-1.450439453125,-0.4744415283203125,-0.8557891845703125
20220225-1320,2022-02-25 13:20:23Z,u01, 115,40,movements,el-ex, rt, d,243398.76687325002, -1.0690980402918786, 0.2937617465758703, 0.6875322702454802, 0.37928861379623413, -0.1962359994649887, -0.3578062355518341, -0.8392077684402466, -0.2895548641681671, -0.4603135585784912, -0.6466324329376221, -0.14670920372009277, -0.4421062469482422, 0.28842323257975805, -0.4320361709557122, 0.8265585932473806,0.2166977574375929,-1.4799652099609375,-0.4504547119140625,-0.897430419921875
20220225-1320,2022-02-25 13:20:23Z,u01, 116,40,movements,el-ex, rt, d,243398.79181825003, -1.0780893079416316, 0.31063639535045623, 0.6941934145450316, 0.6395434141159058, -0.3767758905887604, -0.5828139781951904, -0.8388878107070923, -0.30566462874412537, -0.45037397742271423, -0.6265360713005066, -0.11788880825042725, -0.4137614965438843, 0.29735390211594703, -0.4317333246697024, 0.8243175816553616,0.21374706693412887,-1.465423583984375,-0.423553466796875,-0.8641357421875
20220225-1320,2022-02-25 13:20:23Z,u01, 117,40,movements,el-ex, rt, d,243398.81676325, -1.091674270626106, 0.3326657829016938, 0.7002879944574208, 0.6044794917106628, -0.544452965259552, -0.7554940581321716, -0.8387484550476074, -0.3265638053417206, -0.43572601675987244, -0.6137663722038269, -0.19283008575439453, -0.3166082799434662, 0.3085449089427834, -0.4323621487112699, 0.8212370525565595,0.20840539142636255,-1.454559326171875,-0.5126800537109375,-0.761322021484375
20220225-1320,2022-02-25 13:20:23Z,u01, 118,40,movements,el-ex, rt, d,243398.84170925, -1.1085363539537947, 0.3575468586663558, 0.7061692654601434, 0.7049638628959656, -0.6276508569717407, -0.8197731375694275, -0.8384425044059753, -0.3499772846698761, -0.4177679419517517, -0.5674719214439392, -0.15615668892860413, -0.2945882976055145, 0.32097065812636816, -0.4336978934584642, 0.8174802306597269,0.20151936347466476,-1.405914306640625,-0.506134033203125,-0.7123565673828125
20220225-1320,2022-02-25 13:20:24Z,u01, 119,40,movements,el-ex, rt, d,243398.86665425, -1.1273024548598047, 0.38397261763332574, 0.7132512819127867, 0.6835306882858276, -0.6771999001502991, -0.8588061928749084, -0.8374863266944885, -0.37460675835609436, -0.39785274863243103, -0.5542070269584656, -0.19944417476654053, -0.24655616283416748, 0.3342406672980899, -0.43515147439258967, 0.813160257471006,0.19415732423621576,-1.3922271728515625,-0.57037353515625,-0.6552581787109375
20220225-1320,2022-02-25 13:20:24Z,u01, 120,40,movements,el-ex, rt, d,243398.89159925003, -1.1485608715175095, 0.41186773413201105, 0.722175046423972, 0.8839338421821594, -0.7318199872970581, -0.91600501537323, -0.8358942866325378, -0.4003215730190277, -0.3755309283733368, -0.513028621673584, -0.1528400182723999, -0.25720497965812683, 0.34847196345963793, -0.43680868496821007, 0.8080892047218002,0.18643321395910264,-1.3489227294921875,-0.55316162109375,-0.6327362060546875
20220225-1320,2022-02-25 13:20:24Z,u01, 121,40,movements,el-ex, rt, d,243398.91654525002, -1.1734536802607187, 0.4431010921554571, 0.7368857110177152, 1.0931596755981445, -0.7815486788749695, -0.9333884716033936, -0.8330429196357727, -0.4287431240081787, -0.3495984375476837, -0.4295458197593689, -0.08375382423400879, -0.2175094485282898, 0.36523779189064853, -0.43795221265088413, 0.801698848580924,0.17910436244830757,-1.2769775390625,-0.5078277587890625,-0.57525634765625
20220225-1320,2022-02-25 13:20:24Z,u01, 122,40,movements,el-ex, rt, d,243398.94149025003, -1.2008959259085705, 0.4755025348748334, 0.755478786860841, 1.0948549509048462, -0.7666869759559631, -0.9449211359024048, -0.8289297223091125, -0.4577852785587311, -0.32141631841659546, -0.39056825637817383, -0.0998319685459137, -0.16778019070625305, 0.3831479446303993, -0.4387362380782708, 0.7944208404471316,0.17205797157395608,-1.2194976806640625,-0.5576171875,-0.48919677734375
20220225-1320,2022-02-25 13:20:24Z,u01, 123,40,movements,el-ex, rt, d,243398.96643525, -1.2301042384194294, 0.506256252676472, 0.7759294082120172, 1.1172288656234741, -0.8075433373451233, -0.8837743997573853, -0.8242993354797363, -0.48490649461746216, -0.2922270894050598, -0.32950955629348755, -0.17875927686691284, -0.06089150905609131, 0.40066537590896445, -0.43972003523581893, 0.7866169517439351,0.1653709669044078,-1.163055419921875,-0.658416748046875,-0.3658905029296875
20220225-1320,2022-02-25 13:20:24Z,u01, 124,40,movements,el-ex, rt, d,243398.99138125, -1.2602780894386407, 0.5365299895722483, 0.7961536533277177, 0.9926072359085083, -0.8141273260116577, -0.9774283170700073, -0.8183830380439758, -0.5111566185951233, -0.2626183331012726, -0.28476661443710327, -0.005551755428314209, -0.05668681859970093, 0.4176612012670043, -0.44073797397462466, 0.7786778635932464,0.1580195352223766,-1.1031494140625,-0.5167083740234375,-0.319305419921875
20220225-1320,2022-02-25 13:20:24Z,u01, 125,40,movements,el-ex, rt, d,243399.01632625, -1.2880636017529645, 0.5676408242940668, 0.8116350545138001, 0.7087189555168152, -0.7591244578361511, -1.0827584266662598, -0.809695303440094, -0.5376443862915039, -0.23522892594337463, -0.22976428270339966, 0.12162864208221436, -0.06819179654121399, 0.4332898647734246, -0.44118639252555847, 0.7717112067839526,0.14858224840147785,-1.0491943359375,-0.41534423828125,-0.318450927734375
20220225-1320,2022-02-25 13:20:24Z,u01, 126,40,movements,el-ex, rt, d,243399.04127125003, -1.3112765131330795, 0.5983967114673238, 0.8203947417235984, 0.5575858950614929, -0.7093925476074219, -1.1477525234222412, -0.7985720634460449, -0.5633184909820557, -0.21202683448791504, -0.18613892793655396, 0.1481572389602661, -0.050408750772476196, 0.4465844572120868, -0.4410769851871248, 0.7662710867050789,0.13726744039580663,-0.984710693359375,-0.4151611328125,-0.2624359130859375
20220225-1320,2022-02-25 13:20:24Z,u01, 127,40,movements,el-ex, rt, d,243399.066216, -1.3326773836787187, 0.6300418301189681, 0.8282168450705336, 0.6300531625747681, -0.6404414772987366, -1.175233244895935, -0.7852039337158203, -0.5891785621643066, -0.19058777391910553, -0.1969740390777588, 0.10722965002059937, 0.03641331195831299, 0.45944545990713515, -0.44001816416673917, 0.7612924312504314,0.12541089672368386,-0.9806060791015625,-0.480682373046875,-0.1666259765625
20220225-1320,2022-02-25 13:20:24Z,u01, 128,40,movements,el-ex, rt, d,243399.09116200003, -1.3551057499284733, 0.6611999431071298, 0.8416361303244205, 0.7653270959854126, -0.5270398259162903, -1.0637333393096924, -0.7709682583808899, -0.6140643358230591, -0.16891823709011078, -0.1701635718345642, 0.22177612781524658, 0.043613314628601074, 0.47306280689432173, -0.43789549042059206, 0.755755395114112,0.11529598181387542,-0.941131591796875,-0.3922882080078125,-0.12530517578125
20220225-1320,2022-02-25 13:20:24Z,u01, 129,40,movements,el-ex, rt, d,243399.116107, -1.3737067777259164, 0.689524888096957, 0.8543383192376052, 0.3286225497722626, -0.3312011957168579, -0.9496564269065857, -0.7566120624542236, -0.6361706852912903, -0.1510816365480423, -0.14998924732208252, 0.28262442350387573, 0.04721532762050629, 0.4851021089140937, -0.4348966852889319, 0.7511391463705446,0.10644790922284002,-0.9143829345703125,-0.3495025634765625,-0.113616943359375
20220225-1320,2022-02-25 13:20:24Z,u01, 130,40,movements,el-ex, rt, d,243399.14105200002, -1.3768782800623427, 0.7077479832971814, 0.8491136591350197, -0.32830145955085754, -0.20675522089004517, -0.5535475015640259, -0.745586633682251, -0.6501242518424988, -0.14642268419265747, -0.1385536789894104, 0.279121994972229, 0.10050927102565765, 0.48933770090886636, -0.43282475819524563, 0.7507681517520659,0.09776941480868104,-0.8841400146484375,-0.371002197265625,-0.0459136962890625
20220225-1320,2022-02-25 13:20:24Z,u01, 131,40,movements,el-ex, rt, d,243399.165998, -1.3719185112201953, 0.7160800873596538, 0.8352474265689286, -0.3512122929096222, -0.1072290912270546, -0.23618252575397491, -0.7395152449607849, -0.6564326286315918, -0.14904338121414185, -0.14898908138275146, 0.24348390102386475, 0.10500679910182953, 0.48848308992556794, -0.43227604365443245, 0.7524836655098981,0.0910511841487241,-0.897552490234375,-0.43963623046875,-0.0257415771484375
20220225-1320,2022-02-25 13:20:24Z,u01, 132,40,movements,el-ex, rt, d,243399.19094300002, -1.364108277769316, 0.7166990800545846, 0.8226796381369575, -0.46143439412117004, 0.05098164826631546, -0.020234178751707077, -0.7379305958747864, -0.6568994522094727, -0.15473109483718872, -0.07666009664535522, 0.34891605377197266, 0.05092586576938629, 0.4855952420905074, -0.4322403390583238, 0.7547309529181541,0.08801594750885075,-0.8145904541015625,-0.3079833984375,-0.1038055419921875
20220225-1320,2022-02-25 13:20:24Z,u01, 133,40,movements,el-ex, rt, d,243399.215888, -1.3456577585619969, 0.7101259915657835, 0.8004892029728885, -0.8046290874481201, 0.2661348581314087, 0.2802056670188904, -0.7391433715820312, -0.6519293189048767, -0.16927950084209442, 0.007926702499389648, 0.38692986965179443, 0.04751467704772949, 0.4780750494287005, -0.4322088594789798, 0.7597446315444775,0.08618586810036041,-0.75726318359375,-0.268310546875,-0.1381988525390625
20220225-1320,2022-02-25 13:20:24Z,u01, 134,40,movements,el-ex, rt, d,243399.24083400003, -1.3233614359292074, 0.6941799749082389, 0.7793549301252307, -0.7189692258834839, 0.38876935839653015, 0.6459774374961853, -0.7451707720756531, -0.6397554278373718, -0.18823860585689545, 0.11797332763671875, 0.43051159381866455, 0.15323525667190552, 0.4677567396051775, -0.4325324633658993, 0.7656935420909583,0.08850344780011472,-0.627197265625,-0.2092437744140625,-0.035003662109375
20220225-1320,2022-02-25 13:20:24Z,u01, 135,40,movements,el-ex, rt, d,243399.265779, -1.3033207350413631, 0.6716436438022245, 0.7652780925179814, -0.6417471766471863, 0.5847160816192627, 0.9159063100814819, -0.7549647688865662, -0.6222734451293945, -0.2068922519683838, 0.15753710269927979, 0.34756940603256226, 0.11857470870018005, 0.45686780703577895, -0.43338859877953384, 0.7710047658618889,0.0948583351703302,-0.6145477294921875,-0.3029937744140625,-0.0616607666015625
20220225-1320,2022-02-25 13:20:24Z,u01, 136,40,movements,el-ex, rt, d,243399.29072400002, -1.2806877058087163, 0.6416116803173044, 0.7580241233154313, -0.38733646273612976, 0.8082243204116821, 1.277686595916748, -0.7676553726196289, -0.598487377166748, -0.22916899621486664, 0.40828007459640503, 0.47014564275741577, 0.06113949418067932, 0.4447033434756297, -0.43319099644239895, 0.7766822269755004,0.10653381525622396,-0.359375,-0.1283416748046875,-0.16802978515625
20220225-1320,2022-02-25 13:20:24Z,u01, 137,40,movements,el-ex, rt, d,243399.31567, -1.2692723535462735, 0.6065156885071106, 0.7690360607236606, 0.2652572691440582, 0.6067441701889038, 1.5932527780532837, -0.7845709323883057, -0.5700080990791321, -0.2440069317817688, 0.6606846451759338, 0.2634895443916321, 0.10971464216709137, 0.43517348069176887, -0.4343047035472167, 0.7788368447685089,0.12416421112948679,-0.131927490234375,-0.287139892578125,-0.1385955810546875
20220225-1320,2022-02-25 13:20:24Z,u01, 138,40,movements,el-ex, rt, d,243399.34061500002, -1.2705690263111087, 0.5697401096846307, 0.7958300933940103, 0.4592488706111908, 0.4658041298389435, 1.7305960655212402, -0.8043763041496277, -0.5394132137298584, -0.24902309477329254, 0.7102140784263611, 0.2481381893157959, 0.14448541402816772, 0.42920707971489314, -0.4373439528546856, 0.7767337401314566,0.14559022847138858,-0.0941619873046875,-0.2912750244140625,-0.1045379638671875
20220225-1320,2022-02-25 13:20:24Z,u01, 139,40,movements,el-ex, rt, d,243399.36556, -1.2722680270205173, 0.5314036059798427, 0.8186507892403028, 0.020663708448410034, 0.40676191449165344, 1.7093491554260254, -0.8239666819572449, -0.5067439079284668, -0.25355470180511475, 0.8407816290855408, 0.328277051448822, 0.11135834455490112, 0.42191990715516386, -0.4418215079107415, 0.7741377999350929,0.16579592746377417,-0.01336669921875,-0.1987457275390625,-0.126007080078125
20220225-1320,2022-02-25 13:20:24Z,u01, 140,40,movements,el-ex, rt, d,243399.39050500002, -1.2695983581680585, 0.4900527403603319, 0.8308785508067762, -0.07176199555397034, 0.23034287989139557, 1.6091442108154297, -0.8425882458686829, -0.4706724286079407, -0.2617494761943817, 0.9659858345985413, 0.2851713299751282, 0.08207753300666809, 0.410897802430542, -0.4475357613949335, 0.7727547924391487,0.1836435031247471,0.1233978271484375,-0.1855010986328125,-0.1796722412109375
20220225-1320,2022-02-25 13:20:24Z,u01, 141,40,movements,el-ex, rt, d,243399.415451, -1.2691985738209828, 0.4573567998612733, 0.8362115310548593, -0.2342907190322876, -0.05196443945169449, 1.019676923751831, -0.8567251563072205, -0.44157811999320984, -0.26651671528816223, 0.8385517001152039, 0.17389315366744995, 0.11553126573562622, 0.40128080431638746, -0.45355855212433294, 0.7713493373599659,0.1956497693218931,0.00494384765625,-0.243560791015625,-0.1481170654296875
20220225-1320,2022-02-25 13:20:24Z,u01, 142,40,movements,el-ex, rt, d,243399.44039600002, -1.2741630169219798, 0.4397262460860286, 0.839250831703355, -0.024116380140185356, -0.19074270129203796, 0.3328704833984375, -0.8653491139411926, -0.42569178342819214, -0.26449501514434814, 0.7093125581741333, 0.16700956225395203, 0.06327769160270691, 0.39662289332370765, -0.45874041515681696, 0.769280614230415,0.20113426906677023,-0.156036376953125,-0.2586822509765625,-0.2012176513671875
20220225-1320,2022-02-25 13:20:24Z,u01, 143,40,movements,el-ex, rt, d,243399.465341, -1.278670784450238, 0.4367189863769244, 0.83698090404599, -0.22203397750854492, -0.23656557500362396, -0.11415494978427887, -0.8677546977996826, -0.42296868562698364, -0.26095905900001526, 0.48480457067489624, 0.005427181720733643, 0.10994315147399902, 0.3955554097508973, -0.4615803105232978, 0.7683553119815886,0.20027449295775504,-0.333465576171875,-0.3569488525390625,-0.1614837646484375
20220225-1320,2022-02-25 13:20:24Z,u01, 144,40,movements,el-ex, rt, d,243399.49028700002, -1.2817456978978992, 0.43916131980079054, 0.8334747035106058, 0.062462225556373596, -0.1375313401222229, -0.1144837811589241, -0.8675602674484253, -0.4251805245876312, -0.2579943537712097, 0.2914491295814514, -0.2878932058811188, 0.035201072692871094, 0.39586048932195084, -0.462922565883687, 0.7680876497580272,0.19758227528971659,-0.57611083984375,-0.71307373046875,-0.2227935791015625
20220225-1320,2022-02-25 13:20:24Z,u01, 145,40,movements,el-ex, rt, d,243399.515232, -1.2812802158427312, 0.4397413244049459, 0.8252720625705419, -0.6548409461975098, -0.15410105884075165, -0.12021870166063309, -0.8672035932540894, -0.4257054030895233, -0.2583277225494385, 0.23019468784332275, -0.2948908805847168, 0.13821077346801758, 0.3941060085871875, -0.464237651846931, 0.7690210880077337,0.19434684871748883,-0.6250762939453125,-0.712493896484375,-0.1246185302734375
20220225-1320,2022-02-25 13:20:24Z,u01, 146,40,movements,el-ex, rt, d,243399.54017700002, -1.2796037335847044, 0.43774697864546463, 0.811554600887777, -0.15016798675060272, -0.09067508578300476, 0.00030118878930807114, -0.8675807118415833, -0.42389994859695435, -0.26002439856529236, 0.0786859393119812, -0.3898512125015259, -0.00030550360679626465, 0.39008786731374506, -0.4667111089215954, 0.7706575603391485,0.18999801373613345,-0.7888946533203125,-0.813751220703125,-0.2603302001953125
20220225-1320,2022-02-25 13:20:24Z,u01, 147,40,movements,el-ex, rt, d,243399.565123, -1.2828492857611498, 0.436040989675619, 0.8196698292097147, 0.50301194190979, 0.08658791333436966, 0.2242336869239807, -0.8691123127937317, -0.42235422134399414, -0.25741228461265564, 0.04052925109863281, -0.22400808334350586, 0.0021788477897644043, 0.39172334679966, -0.4667404887853369, 0.7690618711090221,0.19300314543945368,-0.84814453125,-0.6897735595703125,-0.2749481201171875
20220225-1320,2022-02-25 13:20:24Z,u01, 148,40,movements,el-ex, rt, d,243399.59006800002, -1.2851247421737133, 0.43446673620402226, 0.828132000015294, -0.06451530009508133, 0.0002955002710223198, 0.05312971770763397, -0.8703327178955078, -0.4209267497062683, -0.2556210458278656, 0.10031282901763916, -0.12463608384132385, 0.0527709424495697, 0.39339535239657397, -0.46629343926370975, 0.7676480643490552,0.19628371928336996,-0.77001953125,-0.545562744140625,-0.202850341796875
20220225-1320,2022-02-25 13:20:24Z,u01, 149,40,movements,el-ex, rt, d,243399.615013, -1.2836336314117374, 0.43003284851993745, 0.8220404305555994, -0.2605172097682953, -0.08483017981052399, 0.12948347628116608, -0.8717319369316101, -0.4169006645679474, -0.2574446201324463, 0.043606698513031006, -0.1900634467601776, 0.033873140811920166, 0.39035228981715364, -0.4678704804085355, 0.7684218251165664,0.19557739293127302,-0.824859619140625,-0.6189117431640625,-0.2265167236328125
20220225-1320,2022-02-25 13:20:24Z,u01, 150,40,movements,el-ex, rt, d,243399.63995900002, -1.284224196803384, 0.42605509299559985, 0.8190195216063212, -0.13429714739322662, -0.03964013233780861, 0.10157188773155212, -0.8734675049781799, -0.41328176856040955, -0.2573964297771454, 0.035561442375183105, -0.10180914402008057, 0.06974413990974426, 0.3883755686838508, -0.4695382822402602, 0.7684247982013815,0.19550381755846652,-0.8379058837890625,-0.5150909423828125,-0.187652587890625
20220225-1320,2022-02-25 13:20:24Z,u01, 151,40,movements,el-ex, rt, d,243399.664904, -1.2819842827868733, 0.42414629347691596, 0.8102458415659032, -0.5461104512214661, -0.04990428686141968, -0.17814797163009644, -0.8736433982849121, -0.4115428626537323, -0.2595764994621277, 0.10048037767410278, -0.0006427764892578125, 0.11335182189941406, 0.3854568615881787, -0.47078100980327164, 0.7697307744878341,0.19313984797706332,-0.77276611328125,-0.44476318359375,-0.1598968505859375
20220225-1320,2022-02-25 13:20:24Z,u01, 152,40,movements,el-ex, rt, d,243399.68984900002, -1.2780153973325499, 0.42604847917826305, 0.8007183800751846, 0.11697722971439362, 0.08070292323827744, -0.12425445765256882, -0.8718551993370056, -0.41327574849128723, -0.2628154158592224, 0.039518535137176514, -0.09456726908683777, 0.02940201759338379, 0.3834736734166449, -0.47068060311420845, 0.7716462540829284,0.1896575788388581,-0.83233642578125,-0.507843017578125,-0.2334136962890625
20220225-1320,2022-02-25 13:20:24Z,u01, 153,40,movements,el-ex, rt, d,243399.71479400003, -1.279148320304623, 0.4300164870244181, 0.8105056583636967, 0.4833717346191406, 0.11573413759469986, -0.027420852333307266, -0.8705748915672302, -0.4168857932090759, -0.26135390996932983, 0.06179779767990112, -0.18666034936904907, 0.03254866600036621, 0.38721233550393996, -0.46839048555900015, 0.7705886842692847,0.19201617595829143,-0.8244171142578125,-0.6043853759765625,-0.23968505859375
20220225-1320,2022-02-25 13:20:24Z,u01, 154,40,movements,el-ex, rt, d,243399.73974000002, -1.2800324005227446, 0.4348425914900143, 0.8167628516451759, 0.062008850276470184, 0.06501730531454086, -0.22788670659065247, -0.8688679933547974, -0.42126765847206116, -0.26000434160232544, 0.09636104106903076, -0.09339606761932373, 0.061319947242736816, 0.39037391933848825, -0.4664826164030601, 0.7699554909303161,0.19279757917227874,-0.7725067138671875,-0.5146636962890625,-0.1986846923828125
20220225-1320,2022-02-25 13:20:24Z,u01, 155,40,movements,el-ex, rt, d,243399.764685, -1.2775199219056017, 0.4386046002540494, 0.8158532639529327, 0.1496233493089676, 0.0870508998632431, -0.03948277607560158, -0.8666887283325195, -0.4246765673160553, -0.2617265284061432, 0.10973048210144043, -0.1710723340511322, -0.0004954934120178223, 0.39117658668906496, -0.46488451868326097, 0.770762749870287,0.19180260426287468,-0.7593994140625,-0.5674591064453125,-0.2532806396484375
20220225-1320,2022-02-25 13:20:24Z,u01, 156,40,movements,el-ex, rt, d,243399.78963, -1.2785250220355853, 0.43914180457690094, 0.8243716667700507, 0.31244978308677673, 0.10497869551181793, 0.13990502059459686, -0.8667327761650085, -0.4251628518104553, -0.26078951358795166, 0.10586827993392944, -0.1909717619419098, -0.003171950578689575, 0.39342985013970183, -0.46348483610560115, 0.7697256332173457,0.19472398276782382,-0.7608642578125,-0.6161346435546875,-0.2639617919921875
20220225-1320,2022-02-25 13:20:24Z,u01, 157,40,movements,el-ex, rt, d,243399.814576, -1.2783643703669583, 0.4372315228847571, 0.8271015363729588, -0.1218624860048294, 0.010058914311230183, 0.06460127979516983, -0.8674668669700623, -0.4234330654144287, -0.2611623704433441, 0.0769699215888977, -0.09121531248092651, 0.011666208505630493, 0.3934110151363618, -0.4632996698564106, 0.7694252625760054,0.19638228493306625,-0.786895751953125,-0.5451507568359375,-0.2352752685546875
20220225-1320,2022-02-25 13:20:24Z,u01, 158,40,movements,el-ex, rt, d,243399.83952100002, -1.2756355349776642, 0.43677041522674304, 0.8226212089357486, -0.21747532486915588, 0.035631854087114334, -0.1524682492017746, -0.8669376969337463, -0.4230152666568756, -0.2635853588581085, 0.10065644979476929, 0.039943426847457886, -0.013620764017105103, 0.39195235317767974, -0.46322853736213754, 0.7704791119506821,0.19533222888811222,-0.7662811279296875,-0.3830718994140625,-0.2772064208984375
20220225-1320,2022-02-25 13:20:24Z,u01, 159,40,movements,el-ex, rt, d,243399.86446600003, -1.2708678460306544, 0.4412357784516866, 0.8118087160496369, -0.36756378412246704, -0.05049644410610199, -0.3867676556110382, -0.8638580441474915, -0.4270572066307068, -0.26715490221977234, 0.21770912408828735, 0.04316133260726929, -0.016169965267181396, 0.39048280456547513, -0.4625426705272261, 0.7727822914346004,0.19074908332249876,-0.6581878662109375,-0.358917236328125,-0.280731201171875
20220225-1320,2022-02-25 13:20:25Z,u01, 160,40,movements,el-ex, rt, d,243399.88941200002, -1.2682497101779115, 0.4508886794566826, 0.8012100266490508, -0.04951008781790733, -0.08453356474637985, -0.534002423286438, -0.8591803312301636, -0.4357655644416809, -0.2681748867034912, 0.16368448734283447, -0.03478497266769409, 0.004167616367340088, 0.3910264665427339, -0.46153099539267134, 0.7746853876980023,0.1842556732648462,-0.69549560546875,-0.470550537109375,-0.264007568359375
20220225-1320,2022-02-25 13:20:25Z,u01, 161,40,movements,el-ex, rt, d,243399.914357, -1.2671289071689573, 0.4646394363715477, 0.799005450678192, 0.07033242285251617, 0.07996935397386551, -0.5796098709106445, -0.8530803322792053, -0.4481005072593689, -0.26732054352760315, 0.16789931058883667, 0.02672898769378662, 0.040300577878952026, 0.39502696960662687, -0.45857760252667695, 0.775530565843727,0.17947942165215877,-0.7169189453125,-0.4363861083984375,-0.24700927734375
20220225-1320,2022-02-25 13:20:25Z,u01, 162,40,movements,el-ex, rt, d,243399.939302, -1.2626646246921427, 0.47910052862619185, 0.7900897473828418, -0.36580145359039307, -0.02364591881632805, -0.7429518103599548, -0.8456146121025085, -0.460981160402298, -0.26913270354270935, 0.22796916961669922, 0.042218953371047974, 0.07436981797218323, 0.397439010866277, -0.4554952081616454, 0.777686054056774,0.17254230895824674,-0.617645263671875,-0.41876220703125,-0.19476318359375
20220225-1320,2022-02-25 13:20:25Z,u01, 163,40,movements,el-ex, rt, d,243399.96424700003, -1.2546476524928762, 0.49389484126062316, 0.7716272803461743, -0.33310970664024353, -0.035170283168554306, -0.7631418704986572, -0.836855947971344, -0.4740588665008545, -0.27375277876853943, 0.1815364956855774, 0.0755297839641571, 0.021159052848815918, 0.39754296788079313, -0.45286111887522085, 0.7813293985448004,0.16248376553362015,-0.65045166015625,-0.3902130126953125,-0.229705810546875
20220225-1320,2022-02-25 13:20:25Z,u01, 164,40,movements,el-ex, rt, d,243399.98919300002, -1.24852924503208, 0.5117957942062442, 0.7601595915702699, -0.04828333482146263, 0.06939148157835007, -0.8323231339454651, -0.826982855796814, -0.48974373936653137, -0.27613565325737, 0.1613941192626953, 0.10667175054550171, 0.0033392608165740967, 0.4005037357630256, -0.44891973272450425, 0.7838390368770016,0.15383284196338026,-0.66558837890625,-0.3830718994140625,-0.272796630859375
20220225-1320,2022-02-25 13:20:25Z,u01, 165,40,movements,el-ex, rt, d,243400.01413800003, -1.2422951162071976, 0.5308733948612274, 0.7486604351149323, -0.33999159932136536, -0.028058908879756927, -0.8545607924461365, -0.8162521123886108, -0.5062867403030396, -0.27822041511535645, 0.20391666889190674, 0.044815123081207275, 0.09677845239639282, 0.40390151687681025, -0.44469467495380344, 0.7862136228869586,0.14483986142214866,-0.6114959716796875,-0.4474945068359375,-0.2011871337890625
20220225-1320,2022-02-25 13:20:25Z,u01, 166,40,movements,el-ex, rt, d,243400.039083, -1.232715370637508, 0.5461971273155773, 0.7259444592037788, -0.6642959117889404, -0.07248502969741821, -0.7931467890739441, -0.8061350584030151, -0.5194414258003235, -0.28342029452323914, 0.11021202802658081, 0.020738422870635986, 0.11211022734642029, 0.4033849409818152, -0.442233472112746, 0.7899117739791267,0.13322783220115939,-0.6959228515625,-0.4987030029296875,-0.1713104248046875
20220225-1320,2022-02-25 13:20:25Z,u01, 167,40,movements,el-ex, rt, d,243400.06402854167, -1.2213505662979305, 0.5575792469250701, 0.7023414212341342, -0.45264971256256104, -0.0772288516163826, -0.6569966077804565, -0.797255277633667, -0.529133677482605, -0.29052025079727173, 0.19671481847763062, 0.11855006217956543, 0.037484049797058105, 0.4013338890073036, -0.44008066406206325, 0.7938434810045468,0.12277173674248378,-0.6238861083984375,-0.39788818359375,-0.2386932373046875
20220225-1320,2022-02-25 13:20:25Z,u01, 168,40,movements,el-ex, rt, d,243400.0889735417, -1.2120151576327864, 0.5698855807356961, 0.6807370189537455, -0.6898407340049744, -0.11876977235078812, -0.7710061073303223, -0.7883513569831848, -0.5395357012748718, -0.2956412136554718, 0.2215328812599182, 0.10548418760299683, 0.10241943597793579, 0.4002731514137367, -0.43813331490264407, 0.7969867988280502,0.11239629165653382,-0.5668182373046875,-0.434051513671875,-0.1932220458984375
20220225-1320,2022-02-25 13:20:25Z,u01, 169,40,movements,el-ex, rt, d,243400.11391854167, -1.1978198666702995, 0.5812094220289746, 0.6484040890643937, -0.9259135723114014, -0.10968992114067078, -0.7898292541503906, -0.7783355712890625, -0.5490351915359497, -0.3045559823513031, 0.1423184871673584, 0.1556025743484497, 0.14278259873390198, 0.39638400201169105, -0.4365795843763237, 0.8015514614496108,0.09896154470450721,-0.6266632080078125,-0.4133758544921875,-0.156402587890625
20220225-1320,2022-02-25 13:20:25Z,u01, 170,40,movements,el-ex, rt, d,243400.1388645417, -1.1862291912552185, 0.5920737811250983, 0.6229979732941934, -0.2586044669151306, -0.08198099583387375, -0.6916038393974304, -0.769178569316864, -0.5580829977989197, -0.3113005459308624, 0.1411570906639099, 0.1766742467880249, 0.11574423313140869, 0.3941206372792545, -0.4347627495709073, 0.8049407190214867,0.08786916995614781,-0.628021240234375,-0.38140869140625,-0.195556640625
20220225-1320,2022-02-25 13:20:25Z,u01, 171,40,movements,el-ex, rt, d,243400.16380954167, -1.1797639545905962, 0.6046997337550724, 0.6099619873508803, -0.22708925604820251, 0.004963553510606289, -0.5391430854797363, -0.760574460029602, -0.5685150623321533, -0.31355610489845276, 0.15362530946731567, 0.09718626737594604, 0.17378592491149902, 0.3954803048822271, -0.4322236348661507, 0.8064384805417194,0.080220036233911,-0.607757568359375,-0.4254608154296875,-0.1352691650390625
20220225-1320,2022-02-25 13:20:25Z,u01, 172,40,movements,el-ex, rt, d,243400.18875454168, -1.169985725241346, 0.6134743367535063, 0.5946298396814073, -0.418491929769516, 0.10215435922145844, -0.4380633234977722, -0.7528499960899353, -0.575711727142334, -0.31901946663856506, 0.08300405740737915, 0.06799066066741943, 0.17142149806022644, 0.3949121001070694, -0.42957502271620757, 0.8087765409479016,0.07342088250994533,-0.6698455810546875,-0.507720947265625,-0.1475982666015625
20220225-1320,2022-02-25 13:20:25Z,u01, 173,40,movements,el-ex, rt, d,243400.21370054167, -1.1602103151012864, 0.6175018483059825, 0.5826875961525204, -0.16950112581253052, 0.09534019231796265, -0.22025981545448303, -0.747563362121582, -0.5790001749992371, -0.3254353404045105, 0.11649012565612793, 0.10931926965713501, 0.163845032453537, 0.39344163277738675, -0.4271838147256145, 0.8111153386820048,0.06935296544998319,-0.6386566162109375,-0.4717254638671875,-0.1744842529296875
20220225-1320,2022-02-25 13:20:25Z,u01, 174,40,movements,el-ex, rt, d,243400.23864554169, -1.1542119454892312, 0.6204019336379573, 0.5753244980364411, -0.27671536803245544, 0.07703488320112228, -0.17683063447475433, -0.744059145450592, -0.581362247467041, -0.32923275232315063, 0.07757025957107544, 0.11079633235931396, 0.167688250541687, 0.3927070330643195, -0.42563459359660066, 0.8125059016585241,0.06671370948859767,-0.6664886474609375,-0.4705657958984375,-0.1615447998046875
20220225-1320,2022-02-25 13:20:25Z,u01, 175,40,movements,el-ex, rt, d,243400.26359054167, -1.1442408469323295, 0.619811304526133, 0.5634465037475801, -0.3415576219558716, 0.17800331115722656, -0.1029103547334671, -0.7410519123077393, -0.5808815956115723, -0.33677738904953003, 0.031060218811035156, 0.20337903499603271, 0.1154184341430664, 0.38964530999726477, -0.42401396231378785, 0.8150417701622262,0.06399887291682323,-0.7008056640625,-0.3862762451171875,-0.2063140869140625
20220225-1320,2022-02-25 13:20:25Z,u01, 176,40,movements,el-ex, rt, d,243400.28853554168, -1.1342792038192286, 0.618708242376111, 0.5580063594155963, 0.03757062181830406, 0.28782907128334045, 0.06877824664115906, -0.7382404804229736, -0.5799833536148071, -0.34441331028938293, 0.0661364197731018, 0.16224348545074463, 0.09214004874229431, 0.38777693703948474, -0.4212153787374589, 0.8173784025153635,0.06402620490864182,-0.6721038818359375,-0.4177398681640625,-0.2522735595703125
20220225-1320,2022-02-25 13:20:25Z,u01, 177,40,movements,el-ex, rt, d,243400.31348154167, -1.1363762165115467, 0.6186657256502449, 0.5658484430447647, 0.4157004654407501, -0.10046033561229706, 0.14391693472862244, -0.7389835715293884, -0.5799487233161926, -0.3428748548030853, 0.12706011533737183, 0.13111132383346558, 0.0035959482192993164, 0.3894803873681225, -0.42055629202938194, 0.8166828506261763,0.06683433418654611,-0.5868988037109375,-0.4560394287109375,-0.3486328125
20220225-1320,2022-02-25 13:20:25Z,u01, 178,40,movements,el-ex, rt, d,243400.33842654168, -1.151355983684111, 0.6198557840595991, 0.5871066104744366, 0.8894197940826416, -0.026311077177524567, 0.3483770489692688, -0.743405818939209, -0.5809177756309509, -0.33148571848869324, -0.022875547409057617, 0.14656096696853638, 0.030094385147094727, 0.39490942249161887, -0.4222602130655899, 0.8127284834943588,0.07221908432628084,-0.7662811279296875,-0.434356689453125,-0.3013916015625
20220225-1320,2022-02-25 13:20:25Z,u01, 179,40,movements,el-ex, rt, d,243400.3633715417, -1.1659926316045748, 0.6214993032147138, 0.6134495584703497, 0.5549800395965576, 0.021115291863679886, 0.21221524477005005, -0.747299075126648, -0.5822547674179077, -0.3201931118965149, -0.016006767749786377, 0.18075019121170044, 0.04892268776893616, 0.4016139724056671, -0.42262235535649517, 0.8085633890635728,0.07951064441589106,-0.77935791015625,-0.40631103515625,-0.2563629150390625
20220225-1320,2022-02-25 13:20:25Z,u01, 180,40,movements,el-ex, rt, d,243400.38831754168, -1.1728909974287096, 0.6168969382278132, 0.617096288214834, -0.4998261332511902, -0.3960803151130676, 0.2556684613227844, -0.751952588558197, -0.5785068273544312, -0.3160654604434967, -0.0009315013885498047, 0.18989598751068115, 0.002451866865158081, 0.4010393013769233, -0.42559928490240573, 0.8071451846777239,0.0809294473869506,-0.7528839111328125,-0.38861083984375,-0.3136138916015625
20220225-1320,2022-02-25 13:20:25Z,u01, 181,40,movements,el-ex, rt, d,243400.41326254167, -1.1715443206168847, 0.6003449789316669, 0.5973252233031426, -1.0795873403549194, -0.34956005215644836, 0.45492395758628845, -0.7602453827857971, -0.5649271607398987, -0.3207564949989319, -0.12735873460769653, 0.10943692922592163, 0.059144824743270874, 0.3908785260115447, -0.432244988722407, 0.8088853995951862,0.07799361933892451,-0.8806304931640625,-0.444427490234375,-0.27301025390625
20220225-1320,2022-02-25 13:20:25Z,u01, 182,40,movements,el-ex, rt, d,243400.43820754168, -1.1669306851992118, 0.5798553507515368, 0.5750742401510535, -0.7830505967140198, -0.2911989986896515, 0.48244425654411316, -0.7692413330078125, -0.5479029417037964, -0.3287409245967865, -0.08012419939041138, 0.10661870241165161, -0.01888453960418701, 0.3785062127186758, -0.4385915924000038, 0.811560631305629,0.07576358699117142,-0.849365234375,-0.4412841796875,-0.347625732421875
20220225-1320,2022-02-25 13:20:25Z,u01, 183,40,movements,el-ex, rt, d,243400.46315354167, -1.1742104909998925, 0.5662395566668681, 0.5718426891591927, 0.12721198797225952, -0.4507596790790558, 0.395506888628006, -0.7784233689308167, -0.5364623069763184, -0.3259838819503784, -0.004398465156555176, 0.11333608627319336, -0.06239774823188782, 0.373150095975326, -0.44471009124618865, 0.8105943873414891,0.07699895771985557,-0.7695159912109375,-0.4088592529296875,-0.4030609130859375
20220225-1320,2022-02-25 13:20:25Z,u01, 184,40,movements,el-ex, rt, d,243400.48809854168, -1.1920314051876029, 0.5600129111649688, 0.584252829322312, 0.17070193588733673, -0.3883858025074005, 0.43739309906959534, -0.7871970534324646, -0.5311971306800842, -0.31328973174095154, -0.09363192319869995, 0.01773887872695923, 0.06943932175636292, 0.3743879889931102, -0.45076465132513305, 0.8063290462431585,0.08048843563817998,-0.880828857421875,-0.513458251953125,-0.2438507080078125
20220225-1320,2022-02-25 13:20:25Z,u01, 185,40,movements,el-ex, rt, d,243400.5130435417, -1.1966977198924618, 0.5456130178348254, 0.580275608207467, -0.8900201916694641, -0.1782732456922531, 0.5227165818214417, -0.7956886291503906, -0.5189421772956848, -0.31237611174583435, -0.08907723426818848, -0.050973594188690186, 0.08756870031356812, 0.36850644457639037, -0.4560865458425451, 0.8058714124455947,0.08221621237481075,-0.8993682861328125,-0.56573486328125,-0.2165985107421875
20220225-1320,2022-02-25 13:20:25Z,u01, 186,40,movements,el-ex, rt, d,243400.53798854168, -1.1904568819795223, 0.5232077988784405, 0.5572188001564881, -0.981234073638916, -0.28863802552223206, 0.5446346998214722, -0.8043196201324463, -0.4996613562107086, -0.32157209515571594, -0.04489320516586304, -0.02640068531036377, 0.033990055322647095, 0.35484917682109596, -0.46183980656731866, 0.8088866197650361,0.08055188752807957,-0.849212646484375,-0.52606201171875,-0.2875823974609375
20220225-1320,2022-02-25 13:20:25Z,u01, 187,40,movements,el-ex, rt, d,243400.56293454167, -1.1914846423383545, 0.5056237901757685, 0.5471642519595158, -0.18067340552806854, -0.15739679336547852, 0.5222499370574951, -0.812686562538147, -0.48435327410697937, -0.3239488899707794, -0.16698908805847168, 0.05114084482192993, -0.019877105951309204, 0.34612493917488396, -0.46714352958386307, 0.8095364474576896,0.08139707718997304,-0.96600341796875,-0.443145751953125,-0.3419647216796875
20220225-1320,2022-02-25 13:20:25Z,u01, 188,40,movements,el-ex, rt, d,243400.58787954168, -1.1986691030929133, 0.49378222641761293, 0.5566752160103848, 0.31695422530174255, -0.07783112674951553, 0.5303264856338501, -0.820278525352478, -0.47395968437194824, -0.32016488909721375, -0.0957983136177063, 0.08212924003601074, -0.03698202967643738, 0.34431867802115157, -0.4704914424692157, 0.8077358827965647,0.08743772853706533,-0.91607666015625,-0.3918304443359375,-0.357147216796875
20220225-1320,2022-02-25 13:20:25Z,u01, 189,40,movements,el-ex, rt, d,243400.6128245417, -1.2026206647378324, 0.4852109395764522, 0.562581518017847, -0.2861402928829193, -0.03623734414577484, 0.30958664417266846, -0.8252972364425659, -0.46639496088027954, -0.3183714747428894, -0.09244287014007568, 0.04969269037246704, -0.033541589975357056, 0.342752644292209, -0.47258320032861945, 0.8067146488593941,0.09163698167554984,-0.9099884033203125,-0.4135589599609375,-0.359222412109375
20220225-1320,2022-02-25 13:20:25Z,u01, 190,40,movements,el-ex, rt, d,243400.63777054168, -1.1981423628969357, 0.47314484355062514, 0.5499693409571841, -0.703350305557251, -0.06493876129388809, 0.29524049162864685, -0.8290445804595947, -0.45568788051605225, -0.3240897059440613, -0.12386715412139893, 0.08607414364814758, -0.04920104146003723, 0.3351319271061268, -0.47501761307656587, 0.8085782161166629,0.09081017754195396,-0.952911376953125,-0.3696136474609375,-0.373291015625
20220225-1320,2022-02-25 13:20:25Z,u01, 191,40,movements,el-ex, rt, d,243400.6627155417, -1.195674013511112, 0.46154808963680927, 0.5406856432169549, -0.18588867783546448, -0.10400467365980148, 0.31801745295524597, -0.8331032395362854, -0.4453347325325012, -0.32804927229881287, -0.10245907306671143, 0.08570027351379395, -0.13964760303497314, 0.328524431085213, -0.4775427335276749, 0.8098000666077576,0.09082272877579621,-0.943023681640625,-0.352203369140625,-0.458404541015625
20220225-1320,2022-02-25 13:20:25Z,u01, 192,40,movements,el-ex, rt, d,243400.68766054168, -1.2003432837538173, 0.4556994199028509, 0.543966554441981, 0.1315605342388153, -0.12712304294109344, 0.2045001983642578, -0.8370394706726074, -0.44009047746658325, -0.3250931203365326, -0.11863398551940918, 0.07874703407287598, -0.15633660554885864, 0.3273587792180749, -0.4798850580162633, 0.8086304025474931,0.09307859604611746,-0.9556732177734375,-0.3613433837890625,-0.4814300537109375
20220225-1320,2022-02-25 13:20:25Z,u01, 193,40,movements,el-ex, rt, d,243400.71260654167, -1.2053247974845793, 0.452137706212503, 0.5480329937339553, 0.006503747776150703, -0.12390580773353577, 0.17340631783008575, -0.8401072025299072, -0.4368894398212433, -0.3214775621891022, -0.09939193725585938, 0.06925937533378601, -0.15899085998535156, 0.32725401809081434, -0.48183610363886786, 0.8072950369729919,0.09494064311208816,-0.9461517333984375,-0.3632354736328125,-0.475830078125
20220225-1320,2022-02-25 13:20:25Z,u01, 194,40,movements,el-ex, rt, d,243400.73755154168, -1.209023378056484, 0.4470692814983566, 0.5481912612016268, -0.15711826086044312, -0.1851346790790558, 0.19610057771205902, -0.8433505892753601, -0.43232470750808716, -0.3191477656364441, -0.04988384246826172, 0.021115601062774658, -0.14761826395988464, 0.3255974418603381, -0.4841615616967627, 0.8064624765031719,0.0958765968142532,-0.8932342529296875,-0.4112091064453125,-0.466766357421875
20220225-1320,2022-02-25 13:20:25Z,u01, 195,40,movements,el-ex, rt, d,243400.7624965417, -1.2126647435850944, 0.4401028569789332, 0.5433014735741625, -0.32762008905410767, -0.25975966453552246, 0.20899268984794617, -0.8473073244094849, -0.42603251338005066, -0.3171227276325226, -0.08852970600128174, -0.036369889974594116, -0.09167516231536865, 0.32201054076362, -0.4875939332959419, 0.8058971852653007,0.09534804236623791,-0.9270477294921875,-0.4601287841796875,-0.40155029296875
20220225-1320,2022-02-25 13:20:25Z,u01, 196,40,movements,el-ex, rt, d,243400.78744154167, -1.2160409118556825, 0.43206976995291607, 0.5375677728429284, -0.29490387439727783, -0.20588050782680511, 0.22854900360107422, -0.8515550494194031, -0.4187512695789337, -0.3154389560222626, -0.0719224214553833, -0.014506906270980835, -0.11842915415763855, 0.31779666700868514, -0.4912085123739411, 0.8054341513825928,0.09484497632337469,-0.9234771728515625,-0.433258056640625,-0.433868408203125
20220225-1320,2022-02-25 13:20:25Z,u01, 197,40,movements,el-ex, rt, d,243400.8123875417, -1.2177826313598787, 0.42360312749764223, 0.5313666172999166, -0.42256733775138855, -0.12303341925144196, 0.23599693179130554, -0.8553992509841919, -0.4110477864742279, -0.3151697516441345, -0.058373451232910156, -0.018517673015594482, -0.03790310025215149, 0.31321310362140375, -0.49427996122681767, 0.8053853668597565,0.09454836644313731,-0.9108123779296875,-0.4292144775390625,-0.3744049072265625
20220225-1320,2022-02-25 13:20:25Z,u01, 198,40,movements,el-ex, rt, d,243400.83733254168, -1.2158440699833537, 0.4130498117227862, 0.5207750783281597, -0.5266446471214294, -0.060098934918642044, 0.2887043356895447, -0.8588066101074219, -0.4014045298099518, -0.31831738352775574, -0.05092263221740723, -0.031212717294692993, -0.009761571884155273, 0.30657051683151804, -0.49684587678143943, 0.8064652189640957,0.09366325316831672,-0.90972900390625,-0.4326171875,-0.3280792236328125
20220225-1320,2022-02-25 13:20:25Z,u01, 199,40,movements,el-ex, rt, d,243400.8622775417, -1.2130686527000836, 0.40269919128474896, 0.5138799152333196, -0.20529106259346008, 0.06841223686933517, 0.314211368560791, -0.8617655038833618, -0.3919030427932739, -0.3221372365951538, -0.06689983606338501, -0.006381869316101074, -0.04520252346992493, 0.3008538687161012, -0.49841581994490114, 0.807572159974142,0.09431821072907345,-0.9263763427734375,-0.395111083984375,-0.3587493896484375
20220225-1320,2022-02-25 13:20:26Z,u01, 200,40,movements,el-ex, rt, d,243400.88722354168, -1.2103972981271365, 0.3950937728061973, 0.5150304650179391, 0.03953373432159424, 0.1560850888490677, 0.2958931028842926, -0.8636661767959595, -0.3848947286605835, -0.3254799246788025, -0.05923151969909668, -0.03701087832450867, -0.04736831784248352, 0.2981585747470049, -0.49835881032141305, 0.8082417807577469,0.09739337772178697,-0.9228973388671875,-0.421905517578125,-0.3728485107421875
20220225-1320,2022-02-25 13:20:26Z,u01, 201,40,movements,el-ex, rt, d,243400.9121685417, -1.2084452071671241, 0.38921867989617737, 0.5208663312276078, 0.1430722028017044, 0.21250168979167938, 0.28321585059165955, -0.8651285171508789, -0.37946563959121704, -0.32796111702919006, -0.07949745655059814, -0.0020498335361480713, -0.04647400975227356, 0.297306591869291, -0.49762258483179794, 0.8084727556534628,0.10174669838421826,-0.9203338623046875,-0.387420654296875,-0.3829193115234375
20220225-1320,2022-02-25 13:20:26Z,u01, 202,40,movements,el-ex, rt, d,243400.93711354167, -1.2030962925115625, 0.38265075070124527, 0.5254752023935686, 0.01393320132046938, 0.34160202741622925, 0.3332911431789398, -0.8656691908836365, -0.3733808100223541, -0.33347269892692566, -0.12506908178329468, -0.02700987458229065, -0.013649195432662964, 0.2957008325190975, -0.49580709130215, 0.8095901451586195,0.10630358042686262,-0.9907379150390625,-0.400390625,-0.3471221923828125
20220225-1320,2022-02-25 13:20:26Z,u01, 203,40,movements,el-ex, rt, d,243400.9620595417, -1.1951415782840777, 0.37429509709885866, 0.5283727481827206, -0.037829793989658356, 0.3753361701965332, 0.35916972160339355, -0.865861177444458, -0.3656165301799774, -0.34148091077804565, -0.08369344472885132, -0.01457148790359497, -0.04484078288078308, 0.2928300280346324, -0.4934674514477983, 0.8114233890432095,0.11105266069877043,-0.9515533447265625,-0.3818817138671875,-0.38104248046875
20220225-1320,2022-02-25 13:20:26Z,u01, 204,40,movements,el-ex, rt, d,243400.98700454168, -1.1867032955595778, 0.36475726355325927, 0.5302564824012972, -0.12223149836063385, 0.34783023595809937, 0.4162692427635193, -0.8661428093910217, -0.35672253370285034, -0.3500659167766571, -0.08527356386184692, -0.021100401878356934, -0.04267975687980652, 0.28919795155307837, -0.4912551165316515, 0.8134063302205398,0.11577319711458892,-0.951416015625,-0.3778228759765625,-0.3927459716796875
20220225-1320,2022-02-25 13:20:26Z,u01, 205,40,movements,el-ex, rt, d,243401.0119495417, -1.1787615444557547, 0.3522421372460033, 0.5297042093652392, -0.3025176227092743, 0.2745473086833954, 0.5277752876281738, -0.8673932552337646, -0.3450031578540802, -0.35861116647720337, -0.11362504959106445, -0.06347465515136719, -0.06654417514801025, 0.28382355811240967, -0.49003939256674395, 0.8153819524139012,0.12024142279480907,-0.973052978515625,-0.3917236328125,-0.410247802734375
20220225-1320,2022-02-25 13:20:26Z,u01, 206,40,movements,el-ex, rt, d,243401.03689454167, -1.172618801727372, 0.33510462776459554, 0.527423555812152, -0.31971386075019836, 0.14509382843971252, 0.6717939376831055, -0.8704967498779297, -0.32886797189712524, -0.3661715090274811, -0.13958954811096191, -0.11113446950912476, -0.14684396982192993, 0.2763186663800612, -0.4904714409371915, 0.8169815315315937,0.12500882278876185,-1.0100860595703125,-0.44000244140625,-0.5130157470703125
20220225-1320,2022-02-25 13:20:26Z,u01, 207,40,movements,el-ex, rt, d,243401.06184112502, -1.172334850816096, 0.3156787554858057, 0.530822498042157, 0.05006933584809303, -0.037977054715156555, 0.8705340027809143, -0.8761160969734192, -0.31046175956726074, -0.3688281178474426, -0.14953410625457764, 0.07491180300712585, -0.105521559715271, 0.2696571205269894, -0.49281941952100017, 0.8167113814106457,0.13189650773449801,-1.012725830078125,-0.2838897705078125,-0.5167083740234375
20220225-1320,2022-02-25 13:20:26Z,u01, 208,40,movements,el-ex, rt, d,243401.086786125, -1.1778721109891634, 0.2959234307327535, 0.5478027456418122, 0.36168062686920166, 0.1003645807504654, 1.066533088684082, -0.8836390972137451, -0.2916232645511627, -0.36624839901924133, -0.24122369289398193, 0.2578860819339752, -0.01639595627784729, 0.26662567232342477, -0.49576864968685885, 0.8139384757535284,0.14362598381758404,-1.1248626708984375,-0.0337371826171875,-0.3826446533203125
20220225-1320,2022-02-25 13:20:26Z,u01, 209,40,movements,el-ex, rt, d,243401.111731125, -1.1736614082079513, 0.2745277140340592, 0.5543383352989472, -0.7771607637405396, 0.24037295579910278, 0.6941401958465576, -0.8876407742500305, -0.27109235525131226, -0.3722943365573883, -0.2730650305747986, -0.12873372435569763, -0.11853480339050293, 0.2596849990952587, -0.4964035924663596, 0.8141183419188681,0.15283559315242937,-1.182647705078125,-0.360565185546875,-0.4826202392578125
20220225-1320,2022-02-25 13:20:26Z,u01, 210,40,movements,el-ex, rt, d,243401.136677125, -1.1666830448163044, 0.24927640064007572, 0.5355956072970521, -0.9363861680030823, 0.057494938373565674, 0.5981805920600891, -0.891032338142395, -0.24670279026031494, -0.3810501992702484, -0.2832689881324768, -0.08714427053928375, -0.2054515779018402, 0.24467877539296426, -0.49960704149852553, 0.8167527927484447,0.15310168133381635,-1.1743011474609375,-0.3338470458984375,-0.5865020751953125
20220225-1320,2022-02-25 13:20:26Z,u01, 211,40,movements,el-ex, rt, d,243401.16162212502, -1.1609214275636968, 0.23132186992688897, 0.5268282420854884, -0.33618128299713135, 0.17133523523807526, 0.45832014083862305, -0.8927412629127502, -0.22926437854766846, -0.38788044452667236, -0.46820569038391113, -0.10327042639255524, -0.17599254846572876, 0.23501252835099518, -0.5008282071471922, 0.8184512274085772,0.15517117251266316,-1.357421875,-0.3243560791015625,-0.57257080078125
20220225-1320,2022-02-25 13:20:26Z,u01, 212,40,movements,el-ex, rt, d,243401.18656712503, -1.157330369453703, 0.22173703750744272, 0.5281027849448259, 0.11003167182207108, 0.159927099943161, 0.2665172219276428, -0.8933138251304626, -0.2199244648218155, -0.3919486999511719, -0.5047271251678467, -0.1735386699438095, -0.20322003960609436, 0.2312807544750157, -0.5005345711183619, 0.8190078159749115,0.15874730428191117,-1.398040771484375,-0.393463134765625,-0.5951690673828125
20220225-1320,2022-02-25 13:20:26Z,u01, 213,40,movements,el-ex, rt, d,243401.21151312502, -1.1554405511829577, 0.22056495122548558, 0.5358734897027213, 0.3578721880912781, 0.1264648735523224, 0.06322336196899414, -0.8928067684173584, -0.21878091990947723, -0.3937399387359619, -0.5576481223106384, -0.24049334228038788, -0.2150549292564392, 0.2326094754650943, -0.49902190192055695, 0.8188245940803591,0.16246961841204804,-1.44891357421875,-0.4536590576171875,-0.6141357421875
20220225-1320,2022-02-25 13:20:26Z,u01, 214,40,movements,el-ex, rt, d,243401.236458125, -1.1551127496749054, 0.22589784045739672, 0.5452865812077465, 0.448479562997818, 0.06669263541698456, -0.15308843553066254, -0.8915976881980896, -0.22398148477077484, -0.3935558795928955, -0.5512737035751343, -0.25471723079681396, -0.20280307531356812, 0.2370226453568794, -0.4970335255125534, 0.818282503346461,0.16489982777284742,-1.44287109375,-0.47869873046875,-0.5963592529296875
20220225-1320,2022-02-25 13:20:26Z,u01, 215,40,movements,el-ex, rt, d,243401.261403125, -1.156860013534084, 0.23514266827205288, 0.5540040815670859, 0.5217048525810242, -0.023116815835237503, -0.27883243560791016, -0.8903500437736511, -0.23298172652721405, -0.39114782214164734, -0.563232958316803, -0.19699570536613464, -0.19971799850463867, 0.24295264139189116, -0.4953787472037151, 0.8173806907796547,0.16571952928863956,-1.4427337646484375,-0.42767333984375,-0.585205078125
20220225-1320,2022-02-25 13:20:26Z,u01, 216,40,movements,el-ex, rt, d,243401.28634812502, -1.1605399618592787, 0.2484160318719953, 0.5635944541621771, 0.5957456827163696, -0.11250221729278564, -0.38195762038230896, -0.888869047164917, -0.24586892127990723, -0.38660117983818054, -0.5823683142662048, -0.18064473569393158, -0.20398995280265808, 0.2508074964583247, -0.4937560253637615, 0.8160273440147449,0.16552975442527074,-1.4712371826171875,-0.426513671875,-0.5905914306640625
20220225-1320,2022-02-25 13:20:26Z,u01, 217,40,movements,el-ex, rt, d,243401.31129412501, -1.1675946048064803, 0.26586869290958653, 0.5755014477091774, 0.8137210607528687, -0.21321937441825867, -0.560749888420105, -0.8874917030334473, -0.26274752616882324, -0.3785794675350189, -0.5860802531242371, -0.12166714668273926, -0.2490600347518921, 0.2610910277353181, -0.49248527150981947, 0.8137446351018446,0.1646499066395969,-1.474029541015625,-0.3905029296875,-0.6262359619140625
20220225-1320,2022-02-25 13:20:26Z,u01, 218,40,movements,el-ex, rt, d,243401.33623912503, -1.178567752303183, 0.2896602759830348, 0.5905117531851721, 0.9765532612800598, -0.33137086033821106, -0.7423154711723328, -0.8855642080307007, -0.28562667965888977, -0.36632463335990906, -0.5993908643722534, -0.06804156303405762, -0.23577159643173218, 0.2748166821297086, -0.491236671848094, 0.8103780343777853,0.16263457551388538,-1.484954833984375,-0.353668212890625,-0.6020965576171875
20220225-1320,2022-02-25 13:20:26Z,u01, 219,40,movements,el-ex, rt, d,243401.361184125, -1.192960441071902, 0.31709961187106384, 0.6080376347615772, 1.071183443069458, -0.3936821520328522, -0.785703182220459, -0.8831256628036499, -0.3118121027946472, -0.3505174517631531, -0.5849684476852417, -0.09817633032798767, -0.21971845626831055, 0.29068190247588654, -0.49014824353449926, 0.8060272579649624,0.15993424991422406,-1.4786529541015625,-0.3751068115234375,-0.57501220703125
20220225-1320,2022-02-25 13:20:26Z,u01, 220,40,movements,el-ex, rt, d,243401.38613012503, -1.2096862889389015, 0.34511854650303186, 0.624795700464255, 0.9722929000854492, -0.5351273417472839, -0.8310222625732422, -0.8803435564041138, -0.3383082449436188, -0.33247995376586914, -0.5453768968582153, -0.1934300661087036, -0.19979208707809448, 0.30657503351346627, -0.48966495574731633, 0.8011598430423513,0.15615062257434395,-1.42572021484375,-0.53173828125,-0.5322723388671875
20220225-1320,2022-02-25 13:20:26Z,u01, 221,40,movements,el-ex, rt, d,243401.411075125, -1.2307764179294247, 0.3746033060068537, 0.6433931700535208, 1.180677890777588, -0.5933035612106323, -0.8951661586761475, -0.8773713111877441, -0.365903377532959, -0.31037822365760803, -0.5262696743011475, -0.1165643036365509, -0.1631321907043457, 0.3235770592626866, -0.490008947177441, 0.7950992158221082,0.15167922904237097,-1.40692138671875,-0.48590087890625,-0.486602783203125
20220225-1320,2022-02-25 13:20:26Z,u01, 222,40,movements,el-ex, rt, d,243401.43602012502, -1.255526234431025, 0.4055626013324867, 0.6680097280638659, 1.318587303161621, -0.6497306227684021, -0.870107114315033, -0.8735915422439575, -0.39453577995300293, -0.284920334815979, -0.4808703660964966, -0.12359166145324707, -0.15526488423347473, 0.3425900887472214, -0.4900733241791353, 0.7877275458609528,0.1481406009132361,-1.354461669921875,-0.51812744140625,-0.440185546875
20220225-1320,2022-02-25 13:20:26Z,u01, 223,40,movements,el-ex, rt, d,243401.460965125, -1.2836553415522602, 0.43590628023530864, 0.6952120817196582, 1.2503361701965332, -0.7218368649482727, -0.8865349888801575, -0.8693740963935852, -0.42223212122917175, -0.25672775506973267, -0.3949541449546814, -0.11098629236221313, -0.13176071643829346, 0.36195091846601557, -0.4905381320436325, 0.7793758344858802,0.14469771296401318,-1.27679443359375,-0.54022216796875,-0.4089202880859375
20220225-1320,2022-02-25 13:20:26Z,u01, 224,40,movements,el-ex, rt, d,243401.48591112503, -1.3119715269608867, 0.4655664207195598, 0.7180400232417825, 0.9594973921775818, -0.7375980615615845, -0.9641720652580261, -0.8638041019439697, -0.4489290118217468, -0.22870385646820068, -0.3747367262840271, -0.07270795106887817, -0.07316045463085175, 0.37967797987885965, -0.49141906907417215, 0.771348699110065,0.13918794750852373,-1.2385406494140625,-0.521636962890625,-0.3018646240234375
20220225-1320,2022-02-25 13:20:26Z,u01, 225,40,movements,el-ex, rt, d,243401.510856125, -1.3363311408128642, 0.4943024841757414, 0.7323688848617825, 0.5714811682701111, -0.6950603127479553, -1.021074652671814, -0.8562139868736267, -0.4744177460670471, -0.204513818025589, -0.2988002896308899, -0.03743836283683777, -0.003615736961364746, 0.39439421692296606, -0.4921344262173719, 0.7649158417112246,0.13099980236680464,-1.1782684326171875,-0.5164794921875,-0.2180938720703125
20220225-1320,2022-02-25 13:20:26Z,u01, 226,40,movements,el-ex, rt, d,243401.53580112502, -1.3551760935555655, 0.5213822875267177, 0.7369992102728782, 0.2640796899795532, -0.6206983923912048, -1.00264310836792, -0.8470522165298462, -0.49807924032211304, -0.18552571535110474, -0.21845394372940063, 0.006364762783050537, -0.011983737349510193, 0.40552293588110194, -0.4927355210114297, 0.7604356385715414,0.12041850237477074,-1.0655059814453125,-0.4917144775390625,-0.197509765625
20220225-1320,2022-02-25 13:20:26Z,u01, 227,40,movements,el-ex, rt, d,243401.560747125, -1.365778805582809, 0.5454327355146142, 0.7333321531454573, -0.21677900850772858, -0.3722756803035736, -0.9512771964073181, -0.8369991779327393, -0.5187880992889404, -0.17404486238956451, -0.14627742767333984, 0.026936233043670654, 0.11980020999908447, 0.41292767034922795, -0.49241071356443994, 0.7583575608591332,0.10916248665128589,-0.9941864013671875,-0.48687744140625,-0.0932159423828125
20220225-1320,2022-02-25 13:20:26Z,u01, 228,40,movements,el-ex, rt, d,243401.58569212502, -1.3587650588055726, 0.5659906121523332, 0.7069444744057404, -1.2806674242019653, -0.17633120715618134, -1.0540965795516968, -0.8251556158065796, -0.5362522006034851, -0.17762871086597443, -0.14631062746047974, 0.04375952482223511, 0.18245083093643188, 0.4126461982798767, -0.49082457297211973, 0.7615648832328307,0.09398622216459712,-0.971466064453125,-0.49249267578125,0.00482177734375
20220225-1320,2022-02-25 13:20:26Z,u01, 229,40,movements,el-ex, rt, d,243401.610637125, -1.3273961490450974, 0.5822972769173708, 0.6466146621679113, -2.2288472652435303, 0.07955250144004822, -1.0904899835586548, -0.8105834722518921, -0.5499441027641296, -0.2012869417667389, -0.18361854553222656, 0.1518269181251526, 0.19516846537590027, 0.4018816800364412, -0.4876962655346832, 0.771655052338144,0.0720571258222317,-0.994415283203125,-0.429046630859375,-0.009521484375
20220225-1320,2022-02-25 13:20:26Z,u01, 230,40,movements,el-ex, rt, d,243401.63558212502, -1.2821983825920322, 0.5902373611943569, 0.5737247566039076, -2.05928897857666, 0.24368205666542053, -0.7292007207870483, -0.7964498996734619, -0.5565582513809204, -0.23645523190498352, -0.17513859272003174, 0.3559049963951111, 0.2296808660030365, 0.3854822400093638, -0.482882831278253, 0.7846760394570947,0.05011476003909264,-0.971588134765625,-0.200653076171875,-0.00677490234375
20220225-1320,2022-02-25 13:20:26Z,u01, 231,40,movements,el-ex, rt, d,243401.660528125, -1.2442374128246783, 0.5957693703006185, 0.5251950920310156, -1.0838086605072021, 0.7008920907974243, -0.6828661561012268, -0.7839738726615906, -0.5611457228660583, -0.2655198574066162, -0.2987595200538635, 0.2676886320114136, 0.12370502948760986, 0.37494978245930866, -0.47608059671684516, 0.7946249035469447,0.03648870409622183,-1.0775909423828125,-0.270965576171875,-0.1453704833984375
20220225-1320,2022-02-25 13:20:26Z,u01, 232,40,movements,el-ex, rt, d,243401.68547312502, -1.2031831477431136, 0.5962537955094533, 0.492079779971851, -0.9603208899497986, 0.980065107345581, -0.14434094727039337, -0.7721618413925171, -0.5615466237068176, -0.29737481474876404, -0.10657674074172974, 0.23381829261779785, 0.1739315390586853, 0.3666351775522958, -0.4657158316310104, 0.8048256268317958,0.030714148742854136,-0.8787384033203125,-0.327728271484375,-0.123443603515625
20220225-1320,2022-02-25 13:20:26Z,u01, 233,40,movements,el-ex, rt, d,243401.710418125, -1.1648283984286336, 0.5887161575444784, 0.46520104472291524, -0.9112270474433899, 0.9096916913986206, 0.06510055810213089, -0.7640581130981445, -0.5552937388420105, -0.32842719554901123, 0.0019423365592956543, 0.35648685693740845, 0.2586185038089752, 0.35710572901030513, -0.45635720833238036, 0.8144791116046083,0.028942838604834556,-0.7552337646484375,-0.2025146484375,-0.0894927978515625
20220225-1320,2022-02-25 13:20:26Z,u01, 234,40,movements,el-ex, rt, d,243401.73536412502, -1.1323479981417215, 0.5729070482355346, 0.4490825325885289, -0.46733763813972473, 1.0157092809677124, 0.715316116809845, -0.7608433961868286, -0.5420771837234497, -0.3567490875720978, -0.01953709125518799, 0.34020334482192993, 0.27950936555862427, 0.3470452970778542, -0.448536535910666, 0.8229936284850152,0.03250005563738638,-0.7803802490234375,-0.201873779296875,-0.077239990234375
20220225-1320,2022-02-25 13:20:26Z,u01, 235,40,movements,el-ex, rt, d,243401.760309125, -1.1105852124415132, 0.5495079808042139, 0.45708116846723934, -0.02781710773706436, 1.054683804512024, 1.1750197410583496, -0.7640572786331177, -0.5222676992416382, -0.3787521421909332, 0.2209509015083313, 0.4067280888557434, 0.192671537399292, 0.3395088888563624, -0.4419928077651475, 0.8290126630073528,0.045981097617229336,-0.5800323486328125,-0.112335205078125,-0.2079925537109375
20220225-1320,2022-02-25 13:20:26Z,u01, 236,40,movements,el-ex, rt, d,243401.78525412502, -1.0942696996026315, 0.5180785620834634, 0.4763181200478543, 0.08507788181304932, 1.0477046966552734, 1.6849206686019897, -0.7719855904579163, -0.49521175026893616, -0.39850208163261414, 0.34644824266433716, 0.2324400544166565, 0.22635269165039062, 0.33122154216260713, -0.43708266323750655, 0.8336626035574267,0.06525340652144894,-0.425537109375,-0.2627716064453125,-0.172149658203125
20220225-1320,2022-02-25 13:20:26Z,u01, 237,40,movements,el-ex, rt, d,243401.810200125, -1.0789750409348469, 0.4750683842731167, 0.5013209989587949, -0.028584297746419907, 0.9762077331542969, 2.1385128498077393, -0.7838611006736755, -0.45739924907684326, -0.4199378192424774, 0.6856858730316162, 0.37642085552215576, 0.1266031563282013, 0.3194188659454006, -0.4335927571390776, 0.8378040721382208,0.08974042138206537,-0.174346923828125,-0.1124114990234375,-0.2660675048828125
20220225-1320,2022-02-25 13:20:26Z,u01, 238,40,movements,el-ex, rt, d,243401.83514512502, -1.0740825569374612, 0.42721960736227166, 0.5306024460427193, -0.09141475707292557, 0.4972159266471863, 2.1870527267456055, -0.8001363277435303, -0.41434192657470703, -0.43370839953422546, 0.9213823080062866, 0.441426157951355, 0.10082286596298218, 0.30686551209098023, -0.4347175584506534, 0.8387561499102915,0.11551035412553409,0.121246337890625,0.0270843505859375,-0.3328857421875
20220225-1320,2022-02-25 13:20:26Z,u01, 239,40,movements,el-ex, rt, d,243401.860090125, -1.0794661195260709, 0.37466693630672443, 0.5526414343801935, -0.2325485795736313, -0.32014894485473633, 2.146714210510254, -0.8205418586730957, -0.36596259474754333, -0.43907034397125244, 1.147491693496704, 0.37754398584365845, 0.12013137340545654, 0.29145435026916444, -0.4421755265570485, 0.8369764549048195,0.13786184435399773,0.344635009765625,0.0330810546875,-0.320220947265625
20220225-1320,2022-02-25 13:20:27Z,u01, 240,40,movements,el-ex, rt, d,243401.88503512501, -1.0982699009571169, 0.3344809050386026, 0.5742567636960065, 0.2529640197753906, -0.44541239738464355, 1.5319796800613403, -0.8410750031471252, -0.32827889919281006, -0.42991405725479126, 0.9457958340644836, 0.38652166724205017, 0.18449199199676514, 0.28192862839461175, -0.45338638388836844, 0.8312486824185051,0.15486428331406688,0.1047210693359375,0.0582427978515625,-0.24542236328125
20220225-1320,2022-02-25 13:20:27Z,u01, 241,40,movements,el-ex, rt, d,243401.909981125, -1.113825650401032, 0.3102445453194054, 0.5963631289246466, 0.026422325521707535, -0.29682114720344543, 0.8809539079666138, -0.8545508980751038, -0.3052915036678314, -0.42016685009002686, 0.8305180072784424, 0.3197110593318939, 0.30568045377731323, 0.27878631241541074, -0.4606460335113961, 0.825679890471126,0.16833422680458737,-0.0244903564453125,0.0274658203125,-0.15826416015625
20220225-1320,2022-02-25 13:20:27Z,u01, 242,40,movements,el-ex, rt, d,243401.93492612502, -1.1242379852859326, 0.2923105465617072, 0.5916952695296696, -0.6418278217315674, -0.6273646354675293, 0.18062008917331696, -0.8636792302131653, -0.28816553950309753, -0.41354459524154663, 0.7460489869117737, 0.06701987981796265, 0.3493359088897705, 0.2716067308020202, -0.46846289548959075, 0.8233692890254677,0.16981041217000625,-0.1176300048828125,-0.2211456298828125,-0.064208984375
20220225-1320,2022-02-25 13:20:27Z,u01, 243,40,movements,el-ex, rt, d,243401.95987112503, -1.1319069255301697, 0.28782785376772807, 0.575990434253372, -0.49040842056274414, -0.2685852348804474, -0.2976570725440979, -0.8679858446121216, -0.2838701009750366, -0.40745383501052856, 0.30870521068573, -0.04716932773590088, 0.21420150995254517, 0.2667986038904988, -0.47443818585645714, 0.8227912212984482,0.1635291978722269,-0.50750732421875,-0.2890777587890625,-0.149383544921875
20220225-1320,2022-02-25 13:20:27Z,u01, 244,40,movements,el-ex, rt, d,243401.98481712502, -1.1332640650820842, 0.2945865371576597, 0.571467974864181, 0.1903405636548996, 0.05633479729294777, -0.28197982907295227, -0.8667803406715393, -0.2903442084789276, -0.40545326471328735, 0.1597335934638977, -0.2683258354663849, 0.11559760570526123, 0.26846722073241486, -0.47455106593519314, 0.8229453158550674,0.15964926775135294,-0.7070465087890625,-0.5586700439453125,-0.28985595703125
20220225-1320,2022-02-25 13:20:27Z,u01, 245,40,movements,el-ex, rt, d,243402.009762125, -1.1295690347197167, 0.30065390820887217, 0.5692524511286905, -0.14086763560771942, 0.12275423109531403, -0.21903981268405914, -0.8636674880981445, -0.29614484310150146, -0.40789347887039185, 0.16647785902023315, -0.3440681993961334, 0.18744999170303345, 0.27001231529236047, -0.4723839684968812, 0.8240838368468462,0.1575844373276667,-0.6928863525390625,-0.6222991943359375,-0.2073211669921875
20220225-1320,2022-02-25 13:20:27Z,u01, 246,40,movements,el-ex, rt, d,243402.034707125, -1.12405624945207, 0.3002344418646708, 0.5610033028978539, -0.30448517203330994, 0.1360063999891281, -0.0946185290813446, -0.8615175485610962, -0.2957441806793213, -0.4127020537853241, 0.13617563247680664, -0.2854173183441162, 0.03964024782180786, 0.26747168299577273, -0.47128322263707895, 0.8260236005100359,0.15503594104385937,-0.725341796875,-0.5811614990234375,-0.3730621337890625
20220225-1320,2022-02-25 13:20:27Z,u01, 247,40,movements,el-ex, rt, d,243402.05965175002, -1.1217563097675207, 0.3036100615185897, 0.5593659271671588, 0.39206618070602417, -0.00471130944788456, -0.172666996717453, -0.8596619367599487, -0.2989670932292938, -0.41424670815467834, 0.001507401466369629, -0.17176654934883118, -0.30383163690567017, 0.2682288292509555, -0.47003185412255905, 0.8267304634778975,0.15375425133735948,-0.8272552490234375,-0.4739990234375,-0.6865386962890625
20220225-1320,2022-02-25 13:20:27Z,u01, 248,40,movements,el-ex, rt, d,243402.08459775, -1.1266850852778352, 0.31613636652713606, 0.5728633890742839, 0.7721485495567322, -0.02059440314769745, -0.3552487790584564, -0.8582439422607422, -0.31089672446250916, -0.408363401889801, 0.00018101930618286133, -0.024323582649230957, -0.18057981133460999, 0.27665959053685363, -0.4682710438986181, 0.824667297680765,0.1552599841148201,-0.858062744140625,-0.3352203369140625,-0.5889434814453125
20220225-1320,2022-02-25 13:20:27Z,u01, 249,40,movements,el-ex, rt, d,243402.10954275003, -1.1299353440665525, 0.3310192888107475, 0.5786502543827031, -0.06094343587756157, -0.12522241473197937, -0.44307172298431396, -0.8552870154380798, -0.3250071406364441, -0.40355244278907776, 0.09211850166320801, -0.22426345944404602, 0.07803699374198914, 0.28403126463886474, -0.46642258022487754, 0.8236052901193036,0.15313597584818525,-0.761932373046875,-0.4942169189453125,-0.3444671630859375
20220225-1320,2022-02-25 13:20:27Z,u01, 250,40,movements,el-ex, rt, d,243402.13448775, -1.1312433404759668, 0.33571794385870096, 0.5708339742028408, -0.1323373168706894, -0.14988435804843903, -0.19939647614955902, -0.8544228076934814, -0.3294471204280853, -0.4017791450023651, 0.07822322845458984, -0.34865349531173706, 0.0217745304107666, 0.2841222148183443, -0.4673168094714699, 0.8239254386306236,0.14844739099812018,-0.7761993408203125,-0.6781005859375,-0.3800048828125
