SessionID,LoggingTime,UID,RecNo,Hertz,Activity,MoveType,Wrist,Side,TimeStamp,DMRoll,DMPitch,DMYaw,DMRotX,DMRotY,DMRotZ,DMGrvX,DMGrvY,DMGrvZ,DMUAccelX,DMUAccelY,DMUAccelZ,DMQuatX,DMQuatY,DMQuatW,DMQuatZ,AccelroX,AceelroY,AceelroZ
20220227-1538,2022-02-27 15:38:20Z,u01, 1,40,movements,el-ex, rt, d,297395.638988625, -1.1432582945349272, -0.2813641521751903, -0.18169504317307986, 0.6716747283935547, 0.09330426156520844, -0.6344948410987854, -0.8742061853408813, 0.2776664197444916, -0.3983273208141327, -0.24819964170455933, 0.12316662073135376, -0.13342633843421936, -0.16603666302962394, -0.5227505802154808, 0.83615995353385,0.0,-1.122406005859375,0.4008331298828125,-0.5317535400390625
20220227-1538,2022-02-27 15:38:20Z,u01, 2,40,movements,el-ex, rt, d,297395.66393362504, -1.1388050079719787, -0.2589208302645699, -0.1711238066332232, 0.7208234071731567, 0.18386012315750122, -0.7520481944084167, -0.877862811088562, 0.25603750348091125, -0.4047240614891052, -0.24994468688964844, 0.11073794960975647, -0.09806841611862183, -0.15401959295095347, -0.5233697850378393, 0.8380679169909414,-0.0020255805382587977,-1.1722412109375,0.3798980712890625,-0.490814208984375
20220227-1538,2022-02-27 15:38:20Z,u01, 3,40,movements,el-ex, rt, d,297395.688878625, -1.1391429890652973, -0.23985076363439062, -0.16720946249777827, 0.21514207124710083, -0.10965737700462341, -0.5523852705955505, -0.8822743892669678, 0.23755766451358795, -0.40639644861221313, -0.0392647385597229, 0.13657255470752716, -0.2408510148525238, -0.14510888919351306, -0.5251144558118477, 0.8385508417177211,-0.005527078384637396,-0.921539306640625,0.3741302490234375,-0.647247314453125
20220227-1538,2022-02-27 15:38:20Z,u01, 4,40,movements,el-ex, rt, d,297395.713823625, -1.1438491761357665, -0.229297767910505, -0.17091689081548914, -0.07443412393331528, -0.21538573503494263, -0.34793901443481445, -0.8864098787307739, 0.2272937297821045, -0.40325552225112915, -0.386646032333374, 0.14668390154838562, -0.1667671799659729, -0.14173659197156144, -0.5275253291790787, 0.8375771184222898,-0.009607998330397216,-1.27508544921875,0.366668701171875,-0.58197021484375
20220227-1538,2022-02-27 15:38:20Z,u01, 5,40,movements,el-ex, rt, d,297395.73876850004, -1.1511081167145985, -0.2250068573898969, -0.17631108449565272, -0.12483920902013779, -0.2533101439476013, -0.14378713071346283, -0.8901962041854858, 0.2231130450963974, -0.39720430970191956, -0.4109663963317871, 0.1859750747680664, -0.16485333442687988, -0.14143137973906167, -0.5304667805704537, 0.8357304279756498,-0.012521018142718443,-1.3011627197265625,0.409088134765625,-0.5620574951171875
20220227-1538,2022-02-27 15:38:21Z,u01, 6,40,movements,el-ex, rt, d,297395.7637135, -1.1581085068787902, -0.22385164713689332, -0.1797549374663445, -0.05926985293626785, -0.23980645835399628, -0.04753316938877106, -0.893190324306488, 0.2219868004322052, -0.3910659849643707, -0.42800694704055786, 0.22147934138774872, -0.17961284518241882, -0.14191731447274325, -0.5332227378836975, 0.833872210926007,-0.013779421679610049,-1.3179931640625,0.4294281005859375,-0.5730743408203125
20220227-1538,2022-02-27 15:38:21Z,u01, 7,40,movements,el-ex, rt, d,297395.7886585, -1.163862930798164, -0.22396052375049666, -0.17889842866492653, 0.07272163778543472, -0.23388272523880005, 0.08912301808595657, -0.8954038023948669, 0.22209297120571136, -0.3859102129936218, -0.481533944606781, 0.28802356123924255, -0.16485595703125, -0.1417716759022003, -0.5356731119583987, 0.832337957558797,-0.012984530632907276,-1.3769378662109375,0.5101165771484375,-0.5507659912109375
20220227-1538,2022-02-27 15:38:21Z,u01, 8,40,movements,el-ex, rt, d,297395.8136035, -1.1698948470549506, -0.22807479892070157, -0.17678606993714208, -0.11216539144515991, -0.2838231325149536, 0.24483779072761536, -0.8968663215637207, 0.22610260546207428, -0.3801423907279968, -0.57789546251297, 0.27223414182662964, -0.2187804877758026, -0.1429279253606682, -0.5380524259629362, 0.8306383002912874,-0.010538210417256,-1.4644317626953125,0.50018310546875,-0.586700439453125
20220227-1538,2022-02-27 15:38:21Z,u01, 9,40,movements,el-ex, rt, d,297395.83854850003, -1.1801753073412744, -0.2390988406333191, -0.1817618490486504, -0.5862669944763184, -0.45397287607192993, 0.4112359583377838, -0.8983674645423889, 0.23682719469070435, -0.3699307143688202, -0.6350187063217163, 0.25600114464759827, -0.23575183749198914, -0.14882644822853427, -0.5411888144555346, 0.8275797575602846,-0.008780957698658332,-1.53338623046875,0.492828369140625,-0.605682373046875
20220227-1538,2022-02-27 15:38:21Z,u01, 10,40,movements,el-ex, rt, d,297395.86349350004, -1.1970004983106874, -0.257051164049673, -0.19436766113005463, -0.8155917525291443, -0.6394798159599304, 0.545052170753479, -0.9003605842590332, 0.25422972440719604, -0.3531542718410492, -0.6994775533676147, 0.28138425946235657, -0.27741533517837524, -0.1596104087958434, -0.5458455668457747, 0.8225076132158983,-0.007632048786257006,-1.595855712890625,0.5287628173828125,-0.621673583984375
20220227-1538,2022-02-27 15:38:21Z,u01, 11,40,movements,el-ex, rt, d,297395.8884385, -1.2192655630982054, -0.2785892720219646, -0.20991205136094165, -0.8942767977714539, -0.8118048906326294, 0.6301881074905396, -0.9026488065719604, 0.27499958872795105, -0.3310592770576477, -0.708740234375, 0.27903175354003906, -0.3063310384750366, -0.17260954968779907, -0.5519749137374041, 0.8157779132270364,-0.00599894135258483,-1.61138916015625,0.5540313720703125,-0.63739013671875
20220227-1538,2022-02-27 15:38:21Z,u01, 12,40,movements,el-ex, rt, d,297395.9133835, -1.2458000928288007, -0.30087097053594963, -0.22526863717814338, -0.7913059592247009, -0.9427869319915771, 0.6730881929397583, -0.9050822257995605, 0.29635217785835266, -0.304961621761322, -0.7188801765441895, 0.26018163561820984, -0.2848213016986847, -0.1857812280764753, -0.5594680688119142, 0.8077558022414226,-0.0033778205249875293,-1.6210174560546875,0.5517578125,-0.59503173828125
20220227-1538,2022-02-27 15:38:21Z,u01, 13,40,movements,el-ex, rt, d,297395.9383285, -1.2741038158323088, -0.32197579951425015, -0.23726972524720244, -0.5862631797790527, -1.0200247764587402, 0.6597344875335693, -0.9071658849716187, 0.31644144654273987, -0.2773350775241852, -0.7026667594909668, 0.22414690256118774, -0.27102017402648926, -0.19743824971993254, -0.5677592753668594, 0.7991663486848403,0.0007656713619850208,-1.609832763671875,0.54058837890625,-0.5483551025390625
20220227-1538,2022-02-27 15:38:21Z,u01, 14,40,movements,el-ex, rt, d,297395.96327350003, -1.3030235198234401, -0.3411770984427698, -0.24500493499969977, -0.4090670347213745, -1.0931930541992188, 0.6612071990966797, -0.9087780117988586, 0.33459657430648804, -0.24933399260044098, -0.5801286697387695, 0.1787395179271698, -0.22257475554943085, -0.20700099133643865, -0.5766139039236244, 0.7903326490803546,0.00641442407065107,-1.5089111328125,0.5283050537109375,-0.4932403564453125
20220227-1538,2022-02-27 15:38:21Z,u01, 15,40,movements,el-ex, rt, d,297395.98821850005, -1.3324813008124003, -0.3593732293933797, -0.24909014575001834, -0.2824554145336151, -1.1543365716934204, 0.6834433078765869, -0.9096599817276001, 0.35168758034706116, -0.22098511457443237, -0.5112841129302979, 0.10822758078575134, -0.17874956130981445, -0.21495181904335092, -0.5859207774760598, 0.7812232882807957,0.01351448721266274,-1.4209442138671875,0.4599151611328125,-0.3997344970703125
20220227-1538,2022-02-27 15:38:21Z,u01, 16,40,movements,el-ex, rt, d,297396.0131635, -1.3629626287316596, -0.3776179888289965, -0.25201553270626764, -0.29612797498703003, -1.200858235359192, 0.6904358863830566, -0.9095417857170105, 0.3687073290348053, -0.19180305302143097, -0.3878060579299927, -9.268522262573242e-06, -0.12644962966442108, -0.22237234325389602, -0.5955241505930309, 0.7716490628117609,0.021426930471671823,-1.311920166015625,0.385589599609375,-0.33245849609375
20220227-1538,2022-02-27 15:38:21Z,u01, 17,40,movements,el-ex, rt, d,297396.0381085, -1.3948500576682847, -0.3966706605963162, -0.2567367755397851, -0.2991696298122406, -1.1939023733139038, 0.734301745891571, -0.9081125259399414, 0.3863496780395508, -0.16144844889640808, -0.3312826156616211, -0.0738801658153534, -0.08948256075382233, -0.23039240156400181, -0.6051405768346871, 0.7614889634115166,0.029304862646196195,-1.2393951416015625,0.312469482421875,-0.2509307861328125
20220227-1538,2022-02-27 15:38:21Z,u01, 18,40,movements,el-ex, rt, d,297396.0630535, -1.4238699341713112, -0.4161583849687436, -0.2572321510957033, 0.015981724485754967, -1.1110135316848755, 0.7839810252189636, -0.904793918132782, 0.40424972772598267, -0.13390302658081055, -0.24448269605636597, -0.12730273604393005, 0.02890712022781372, -0.23709636162610184, -0.6138679005355352, 0.7519597645065308,0.038832351454201885,-1.166290283203125,0.2808380126953125,-0.1316986083984375
20220227-1538,2022-02-27 15:38:21Z,u01, 19,40,movements,el-ex, rt, d,297396.08799850004, -1.448074950572838, -0.43505533711772304, -0.25187635185083407, 0.11036651581525803, -1.008716106414795, 0.7473249435424805, -0.9000263214111328, 0.4214605987071991, -0.11101032048463821, -0.20947057008743286, -0.19637829065322876, 0.06213618069887161, -0.24163776759593114, -0.6213743068607296, 0.7436464536372557,0.049949318579187496,-1.1094970703125,0.2250823974609375,-0.0488739013671875
20220227-1538,2022-02-27 15:38:21Z,u01, 20,40,movements,el-ex, rt, d,297396.1129435, -1.4694516658257333, -0.4516363470491575, -0.24730663898965163, 0.11464758217334747, -0.8480887413024902, 0.6003448963165283, -0.8951175808906555, 0.4364383816719055, -0.09102723747491837, -0.1283198595046997, -0.2567662298679352, 0.13034892082214355, -0.24545622810531276, -0.6278834451224484, 0.7361672997689964,0.05976005446977517,-1.0411224365234375,0.1734466552734375,0.0184783935546875
20220227-1538,2022-02-27 15:38:21Z,u01, 21,40,movements,el-ex, rt, d,297396.1378885, -1.4833320370676277, -0.4636330276965846, -0.2373648443507119, 0.5432940721511841, -0.6078412532806396, 0.42215895652770996, -0.8910145163536072, 0.44720056653022766, -0.0781312882900238, -0.113364577293396, -0.24685269594192505, 0.1879028081893921, -0.2460545298507239, -0.6327649823915324, 0.7309484721439291,0.06913640186740239,-1.0043792724609375,0.200347900390625,0.109771728515625
20220227-1538,2022-02-27 15:38:21Z,u01, 22,40,movements,el-ex, rt, d,297396.1628335, -1.485815214103111, -0.4692221883579629, -0.21631098097203122, 0.8379656076431274, -0.370415598154068, 0.1221727728843689, -0.8887014985084534, 0.45219266414642334, -0.07570517063140869, 0.044707417488098145, -0.30369412899017334, 0.1581786870956421, -0.24122801047743875, -0.6355756916371547, 0.7291165176075489,0.07900398306818451,-0.883636474609375,0.1488037109375,0.083740234375
20220227-1538,2022-02-27 15:38:21Z,u01, 23,40,movements,el-ex, rt, d,297396.1877785, -1.4822334687444831, -0.46671896372070454, -0.1936920123390998, 0.7894689440727234, -0.1913350522518158, -0.18037137389183044, -0.8895492553710938, 0.44995859265327454, -0.07898764312267303, 0.12197136878967285, -0.3395460844039917, 0.17350035905838013, -0.23330556345940814, -0.6372399027597713, 0.7294517852739466,0.08598666294357549,-0.767578125,0.11041259765625,0.094512939453125
20220227-1538,2022-02-27 15:38:21Z,u01, 24,40,movements,el-ex, rt, d,297396.21272350004, -1.4760405324780352, -0.458278187973756, -0.17287286488165457, 0.7601976990699768, -0.0551987960934639, -0.3406662344932556, -0.8927923440933228, 0.4424046277999878, -0.08485135436058044, 0.23777848482131958, -0.3711918890476227, 0.18626105785369873, -0.2239766964918349, -0.638285800710769, 0.7309686941629754,0.090057391881535,-0.691925048828125,0.0715484619140625,0.1106719970703125
20220227-1538,2022-02-27 15:38:21Z,u01, 25,40,movements,el-ex, rt, d,297396.2376685, -1.4677646140402927, -0.44413714779488966, -0.15515868084281534, 0.6143577694892883, 0.11816906929016113, -0.691978931427002, -0.8981931805610657, 0.42967888712882996, -0.09287124127149582, 0.3829801678657532, -0.35143178701400757, 0.1707519292831421, -0.21369230485381338, -0.6386704773811285, 0.733598768449424,0.09093114628857091,-0.5152130126953125,0.0782470703125,0.077880859375
20220227-1538,2022-02-27 15:38:21Z,u01, 26,40,movements,el-ex, rt, d,297396.2626135, -1.4565648231235395, -0.4204891550760203, -0.1446889038625174, 0.3272792100906372, 0.42810776829719543, -1.1488189697265625, -0.9069396257400513, 0.4082070589065552, -0.10405406355857849, 0.5029023289680481, -0.26890963315963745, 0.10443533211946487, -0.20239892100231666, -0.6379715076690986, 0.7380158438343751,0.08578739338951191,-0.4428253173828125,0.1402435302734375,0.0137939453125
20220227-1538,2022-02-27 15:38:21Z,u01, 27,40,movements,el-ex, rt, d,297396.2875585, -1.4426626156414484, -0.38513297431099863, -0.14320501686881498, 0.21170346438884735, 0.6191974878311157, -1.5318127870559692, -0.9191510081291199, 0.37568238377571106, -0.11842304468154907, 0.6726606488227844, -0.35277897119522095, 0.06349123269319534, -0.18971470893185471, -0.6362364403195018, 0.7442003160258207,0.07333034954684736,-0.246490478515625,0.0229034423828125,-0.054931640625
20220227-1538,2022-02-27 15:38:21Z,u01, 28,40,movements,el-ex, rt, d,297396.3125035, -1.424947785615857, -0.34718976670619134, -0.13917198919017418, 0.5141969919204712, 0.6722574234008789, -1.3858699798583984, -0.9303490519523621, 0.34025660157203674, -0.13666042685508728, 0.7807214856147766, -0.13990876078605652, 0.055163025856018066, -0.17516134504973807, -0.6332363596326909, 0.7514200315737624,0.060812295779025916,-0.1494140625,0.19287109375,-0.068145751953125
20220227-1538,2022-02-27 15:38:21Z,u01, 29,40,movements,el-ex, rt, d,297396.33744850004, -1.405188247977321, -0.3129887624901405, -0.12631684963653025, 0.7940332889556885, 0.5781453251838684, -1.1468451023101807, -0.9384005665779114, 0.30790355801582336, -0.15684321522712708, 0.8040164709091187, -0.27642470598220825, -0.029344692826271057, -0.15899492905712156, -0.629522841606879, 0.7586960275729471,0.05293368405029436,-0.1343841552734375,0.0314788818359375,-0.186187744140625
20220227-1538,2022-02-27 15:38:21Z,u01, 30,40,movements,el-ex, rt, d,297396.3623935, -1.3880385877797825, -0.286236964362053, -0.11543870889142487, 0.26126712560653687, 0.5280957221984863, -0.876120388507843, -0.9433369636535645, 0.2823443114757538, -0.17434754967689514, 0.7316670417785645, -0.2786974608898163, -0.01672317087650299, -0.14597614649550095, -0.6257133420841002, 0.7648182406190944,0.047189231967607714,-0.1975250244140625,0.0229644775390625,-0.1952056884765625
20220227-1538,2022-02-27 15:38:21Z,u01, 31,40,movements,el-ex, rt, d,297396.3873385, -1.378309067087119, -0.2680155807072333, -0.123264879990777, -0.7005529999732971, 0.41158008575439453, -0.6350869536399841, -0.9464890360832214, 0.264818400144577, -0.1844710260629654, 0.714464008808136, -0.2999136745929718, 0.011726155877113342, -0.1417351845475861, -0.6226360289700341, 0.7686449770330586,0.03768679426974153,-0.232025146484375,-0.03509521484375,-0.1727447509765625
20220227-1538,2022-02-27 15:38:21Z,u01, 32,40,movements,el-ex, rt, d,297396.4122835, -1.3767606466359819, -0.26260585286318405, -0.15004802044571078, -1.0109562873840332, 0.3180660009384155, -0.20374473929405212, -0.9475939869880676, 0.2595979571342468, -0.18620985746383667, 0.6078725457191467, -0.08168050646781921, -0.07344911992549896, -0.14803378362288744, -0.6204684290057598, 0.7697087803643257,0.025554999023837954,-0.2845458984375,0.1281585693359375,-0.228179931640625
20220227-1538,2022-02-27 15:38:21Z,u01, 33,40,movements,el-ex, rt, d,297396.4372285, -1.3723289187984495, -0.26399330128172216, -0.16683458374197474, -0.24863764643669128, 0.39041996002197266, 0.0026485100388526917, -0.9464055895805359, 0.26093757152557373, -0.19033631682395935, 0.42959052324295044, 0.1144896149635315, -0.0829945057630539, -0.15380361678648427, -0.6173947574442811, 0.7712325548852457,0.019194255603547872,-0.516815185546875,0.37542724609375,-0.2733306884765625
20220227-1538,2022-02-27 15:38:21Z,u01, 34,40,movements,el-ex, rt, d,297396.46217350004, -1.3631665352108888, -0.2630067556504438, -0.16761183852112022, -0.019620411098003387, 0.3504558205604553, -0.019776571542024612, -0.9448733329772949, 0.259985089302063, -0.19905249774456024, 0.34733933210372925, 0.13997822999954224, 0.0935073047876358, -0.15375349631900845, -0.613867749254828, 0.774084281612284,0.01787742922088864,-0.5896453857421875,0.3957366943359375,-0.1219940185546875
20220227-1538,2022-02-27 15:38:21Z,u01, 35,40,movements,el-ex, rt, d,297396.4871185, -1.3573757700436497, -0.26502746365788776, -0.17283191789482744, -0.3610093593597412, 0.25982752442359924, 0.12342732399702072, -0.9431895017623901, 0.2619357705116272, -0.20440898835659027, 0.2631969451904297, 0.16462364792823792, 0.06917017698287964, -0.1561699451087137, -0.6110699239894771, 0.7758524591784512,0.016042436656268477,-0.67999267578125,0.4265594482421875,-0.1352386474609375
20220227-1538,2022-02-27 15:38:21Z,u01, 36,40,movements,el-ex, rt, d,297396.5120635, -1.3536178214359649, -0.2710920728491135, -0.1835922714833024, -0.5025236010551453, 0.2840319871902466, 0.16349118947982788, -0.9408462643623352, 0.2677837908267975, -0.20760589838027954, 0.0803268551826477, 0.256584495306015, 0.07691416144371033, -0.1617869247815794, -0.6082943686060507, 0.776930805176387,0.013471515456996597,-0.8447113037109375,0.5102386474609375,-0.130157470703125
20220227-1538,2022-02-27 15:38:21Z,u01, 37,40,movements,el-ex, rt, d,297396.5370085, -1.3488202835986471, -0.2770380498156218, -0.19425514219412665, -0.38328152894973755, 0.31382304430007935, 0.1193917766213417, -0.9382695555686951, 0.27350783348083496, -0.211762934923172, 0.06929689645767212, 0.25075358152389526, 0.04974496364593506, -0.1673145291246271, -0.6050821281996026, 0.7783089638625627,0.010794440892286594,-0.8689727783203125,0.524261474609375,-0.162017822265625
20220227-1538,2022-02-27 15:38:21Z,u01, 38,40,movements,el-ex, rt, d,297396.56195350003, -1.343602237494884, -0.281306552106722, -0.2031672733938391, -0.40425190329551697, 0.2911929190158844, 0.06383616477251053, -0.936005711555481, 0.2776110768318176, -0.21639099717140198, 0.08900582790374756, 0.1940074861049652, 0.06041553616523743, -0.17165465479107778, -0.6019461596077755, 0.7798254903617974,0.008214796693681026,-0.8453521728515625,0.4703826904296875,-0.1558380126953125
20220227-1538,2022-02-27 15:38:21Z,u01, 39,40,movements,el-ex, rt, d,297396.58689850004, -1.339894936229829, -0.28476811226047677, -0.2149721817258586, -0.5613328218460083, 0.26759177446365356, -0.0038682459853589535, -0.9342560172080994, 0.2809349000453949, -0.21963833272457123, 0.06607687473297119, 0.14142829179763794, 0.011859193444252014, -0.17653009875882272, -0.599181074549908, 0.7808968683320153,0.004365381029829363,-0.8681793212890625,0.42236328125,-0.2077789306640625
20220227-1538,2022-02-27 15:38:21Z,u01, 40,40,movements,el-ex, rt, d,297396.6118435, -1.3377917807320414, -0.28857042258955506, -0.23005073760750225, -0.5814822316169739, 0.25429767370224, 0.02655264362692833, -0.9327460527420044, 0.2845820486545563, -0.22135449945926666, 0.049552202224731445, 0.07563215494155884, -0.07570374011993408, -0.18248780776764859, -0.5966749087959187, 0.7814582198522397,-0.0005288853461932197,-0.8789520263671875,0.3706207275390625,-0.2839508056640625
20220227-1538,2022-02-27 15:38:21Z,u01, 41,40,movements,el-ex, rt, d,297396.6367885, -1.3366533407520254, -0.29331680565218365, -0.24343219169765212, -0.5119261741638184, 0.13916130363941193, 0.11016477644443512, -0.9311689138412476, 0.28912895917892456, -0.22210031747817993, 0.07046663761138916, 0.049494028091430664, -0.0900488793849945, -0.18827602404973137, -0.5945603260788712, 0.7816845288925878,-0.004386396990294861,-0.8607025146484375,0.338623046875,-0.3121490478515625
20220227-1538,2022-02-27 15:38:21Z,u01, 42,40,movements,el-ex, rt, d,297396.6617335, -1.336944946515389, -0.29910275701648775, -0.2516416355729896, -0.22454902529716492, 0.03844180703163147, 0.15720811486244202, -0.9295907616615295, 0.2946629226207733, -0.22143742442131042, 0.07375597953796387, 0.02642771601676941, -0.0937483161687851, -0.19291054633645613, -0.5933521812464422, 0.781463569383863,-0.0057657236114939114,-0.854522705078125,0.3136138916015625,-0.3191375732421875
20220227-1538,2022-02-27 15:38:21Z,u01, 43,40,movements,el-ex, rt, d,297396.68667850003, -1.3377075454548686, -0.30434021536290606, -0.25677363434003997, -0.3386959433555603, 0.02892400324344635, 0.13483737409114838, -0.9282450675964355, 0.299663782119751, -0.22036895155906677, 0.06050843000411987, 0.019351661205291748, -0.08013783395290375, -0.19641857897945667, -0.5926510475981335, 0.7811194256508021,-0.006065085770109724,-0.86773681640625,0.3190155029296875,-0.300506591796875
20220227-1538,2022-02-27 15:38:21Z,u01, 44,40,movements,el-ex, rt, d,297396.71162350004, -1.3412376249979854, -0.31090730907017017, -0.26887992756519824, -0.684718668460846, -0.056989774107933044, 0.19078272581100464, -0.9270809888839722, 0.30592256784439087, -0.21663835644721985, 0.08438396453857422, -0.0066519975662231445, -0.11646115779876709, -0.2024983311699538, -0.5921783931278197, 0.779903044221469,-0.008388990823259501,-0.84490966796875,0.282501220703125,-0.3287353515625
20220227-1538,2022-02-27 15:38:21Z,u01, 45,40,movements,el-ex, rt, d,297396.7365685, -1.3484273887995855, -0.32111417980871004, -0.28473240959100976, -0.6112773418426514, -0.12569479644298553, 0.31308895349502563, -0.9255205988883972, 0.3156239986419678, -0.2092677354812622, 0.030852138996124268, 0.04564306139945984, -0.09438227117061615, -0.21106288296226153, -0.592299408869988, 0.7775094438045563,-0.010621980376980089,-0.8946685791015625,0.36126708984375,-0.30364990234375
20220227-1538,2022-02-27 15:38:22Z,u01, 46,40,movements,el-ex, rt, d,297396.76151425, -1.3564967727108561, -0.33180014368191924, -0.2944214055293131, -0.3051678538322449, -0.2848665416240692, 0.33500683307647705, -0.9238307476043701, 0.32574552297592163, -0.20106388628482819, 0.07989764213562012, 0.13639739155769348, -0.06746050715446472, -0.21796690664477125, -0.5932608919647407, 0.7748734469768791,-0.010154067233633934,-0.8415985107421875,0.4436187744140625,-0.27264404296875
20220227-1538,2022-02-27 15:38:22Z,u01, 47,40,movements,el-ex, rt, d,297396.78645925, -1.3645921857120682, -0.3393247577162954, -0.2963059825324103, 0.04546944051980972, -0.30832618474960327, 0.19147507846355438, -0.9230027794837952, 0.3328504264354706, -0.19307124614715576, 0.01623404026031494, 0.16486072540283203, -0.06898331642150879, -0.22135710391260494, -0.5953699749923201, 0.772319653457727,-0.0076141354119375615,-0.906768798828125,0.497711181640625,-0.262054443359375
20220227-1538,2022-02-27 15:38:22Z,u01, 48,40,movements,el-ex, rt, d,297396.81140425004, -1.3711286790584316, -0.3424090909374493, -0.2919306100852207, 0.23188328742980957, -0.3316977620124817, 0.11960628628730774, -0.9232342839241028, 0.335757315158844, -0.18682943284511566, 0.08480978012084961, 0.17126166820526123, -0.05610595643520355, -0.2212121397524447, -0.5980388585253316, 0.7703224647394482,-0.004223853888514151,-0.8469390869140625,0.5195770263671875,-0.2510223388671875
20220227-1538,2022-02-27 15:38:22Z,u01, 49,40,movements,el-ex, rt, d,297396.83634925, -1.3776499103245967, -0.34360104271041064, -0.28528725753105955, 0.21448759734630585, -0.37498146295547485, 0.09741456806659698, -0.9240396022796631, 0.33687981963157654, -0.18072792887687683, 0.10661113262176514, 0.1479528844356537, -0.023099124431610107, -0.2196682326842799, -0.601150480477624, 0.7683511780458981,-0.0005696313761137106,-0.8174285888671875,0.484832763671875,-0.203826904296875
20220227-1538,2022-02-27 15:38:22Z,u01, 50,40,movements,el-ex, rt, d,297396.86129425, -1.3852386828415104, -0.3457674592523027, -0.27973894401271887, 0.16801854968070984, -0.36726588010787964, 0.17626316845417023, -0.9246651530265808, 0.3389188051223755, -0.17357544600963593, 0.09263396263122559, 0.12201869487762451, 0.0252750962972641, -0.21878889597759907, -0.6044366790320052, 0.7660145241342866,0.0030837560784162665,-0.8368988037109375,0.4625396728515625,-0.1533050537109375
20220227-1538,2022-02-27 15:38:22Z,u01, 51,40,movements,el-ex, rt, d,297396.88623925, -1.3930326840695677, -0.3501776309485151, -0.27627095667809304, -0.008331438526511192, -0.34743866324424744, 0.19070656597614288, -0.9245097041130066, 0.34306466579437256, -0.1660974621772766, 0.12247729301452637, 0.11108264327049255, 0.048162102699279785, -0.21933799626343395, -0.6073237294764984, 0.7635470085141365,0.0066808865817052365,-0.802032470703125,0.4541473388671875,-0.1179351806640625
20220227-1538,2022-02-27 15:38:22Z,u01, 52,40,movements,el-ex, rt, d,297396.91118425, -1.40165129679442, -0.35466173525149425, -0.27853521267050835, -0.18942026793956757, -0.28187641501426697, 0.14106842875480652, -0.9243811964988708, 0.34727317094802856, -0.1578628569841385, 0.13609695434570312, 0.08258217573165894, 0.06029796600341797, -0.22163388465674078, -0.6098745737422888, 0.7608310440812542,0.008215863801383949,-0.7934112548828125,0.4330902099609375,-0.099273681640625
20220227-1538,2022-02-27 15:38:22Z,u01, 53,40,movements,el-ex, rt, d,297396.93612925004, -1.4097984806877106, -0.35926733097048624, -0.2827132412143613, -0.16226375102996826, -0.2528032064437866, 0.1894972175359726, -0.924048125743866, 0.3515884280204773, -0.15006861090660095, 0.14920693635940552, 0.07603907585144043, 0.07488834857940674, -0.2245501783040548, -0.6119991109451629, 0.7582563515585702,0.009032070541270198,-0.77484130859375,0.4276275634765625,-0.0751800537109375
20220227-1538,2022-02-27 15:38:22Z,u01, 54,40,movements,el-ex, rt, d,297396.96107425, -1.4163659631500065, -0.3655002608381865, -0.2851728986630152, -0.11913061887025833, -0.19101327657699585, 0.2697146534919739, -0.9228304624557495, 0.357416570186615, -0.1436568796634674, 0.10946083068847656, 0.10236123204231262, 0.12380504608154297, -0.22752765764870317, -0.613516689185722, 0.7561151800729755,0.010873643613810602,-0.81304931640625,0.4582672119140625,-0.025909423828125
20220227-1538,2022-02-27 15:38:22Z,u01, 55,40,movements,el-ex, rt, d,297396.98602025, -1.4209044125732175, -0.37277447808945746, -0.2883989190294188, -0.2363998293876648, -0.08964292705059052, 0.2565634548664093, -0.9208776950836182, 0.36420077085494995, -0.13907524943351746, 0.12002027034759521, 0.06277066469192505, 0.10675692558288574, -0.23111413867606298, -0.6140428597614279, 0.7545726848483196,0.012552809735983383,-0.8008575439453125,0.426971435546875,-0.032318115234375
20220227-1538,2022-02-27 15:38:22Z,u01, 56,40,movements,el-ex, rt, d,297397.01096525, -1.425418561241248, -0.3803337685226524, -0.2959553769884046, -0.39178869128227234, -0.06320779025554657, 0.25154802203178406, -0.9187458753585815, 0.3712303936481476, -0.1345141977071762, 0.16288650035858154, 0.030365675687789917, 0.08676926791667938, -0.23612018545278596, -0.6139952436318261, 0.753057510500343,0.012708770841552752,-0.7569732666015625,0.4066925048828125,-0.0504913330078125
20220227-1538,2022-02-27 15:38:22Z,u01, 57,40,movements,el-ex, rt, d,297397.03591025004, -1.4300566853637469, -0.3881367610045154, -0.30519701958017564, -0.3497137725353241, -0.04082698002457619, 0.2498871237039566, -0.9164637327194214, 0.3784644305706024, -0.12984119355678558, 0.13478660583496094, 0.019713610410690308, 0.07167452573776245, -0.2417166631422094, -0.6137201796232419, 0.7515104474866879,0.012350281681983766,-0.78167724609375,0.3981781005859375,-0.05816650390625
20220227-1538,2022-02-27 15:38:22Z,u01, 58,40,movements,el-ex, rt, d,297397.06085525, -1.433343309439084, -0.3945559164507506, -0.3148741413794042, -0.4127296209335327, 0.07942725718021393, 0.14090684056282043, -0.9144602417945862, 0.3843982517719269, -0.1264929473400116, 0.05023300647735596, 0.058137089014053345, 0.10400134325027466, -0.24694888194434605, -0.6130006334241225, 0.7504134206156163,0.011232250100935703,-0.8580474853515625,0.4478912353515625,-0.0193023681640625
20220227-1538,2022-02-27 15:38:22Z,u01, 59,40,movements,el-ex, rt, d,297397.08580025, -1.4347819748293575, -0.3987122093974105, -0.3271697858993235, -0.6413173675537109, 0.18181082606315613, 0.059640154242515564, -0.9130503535270691, 0.38823187351226807, -0.12495948374271393, 0.07943230867385864, 0.023312866687774658, 0.07217913866043091, -0.2521789038387954, -0.611494937670708, 0.7499419128217522,0.008170817438987454,-0.8336181640625,0.4115447998046875,-0.0527801513671875
20220227-1538,2022-02-27 15:38:22Z,u01, 60,40,movements,el-ex, rt, d,297397.11074525, -1.4388202223572046, -0.40464203136753557, -0.3498841983094133, -1.0431112051010132, 0.17757560312747955, 0.1957995891571045, -0.9112494587898254, 0.39368972182273865, -0.12096628546714783, 0.15854871273040771, -0.12797319889068604, 0.004327952861785889, -0.26119169598038894, -0.6093404266844473, 0.7486511522881885,0.0021390316994465697,-0.7763671875,0.28369140625,-0.110870361328125
20220227-1538,2022-02-27 15:38:22Z,u01, 61,40,movements,el-ex, rt, d,297397.13569025, -1.4473550322123938, -0.41567875827914186, -0.379027974054276, -1.1237237453460693, 0.07542265951633453, 0.39831629395484924, -0.9078811407089233, 0.403810977935791, -0.11264274269342422, 0.1810135841369629, -0.1966424286365509, -0.007718801498413086, -0.2739138689463839, -0.6071653974323323, 0.7458590468643443,-0.003945625204716863,-0.72686767578125,0.2071685791015625,-0.120361328125
20220227-1538,2022-02-27 15:38:22Z,u01, 62,40,movements,el-ex, rt, d,297397.16063525004, -1.4555900909866204, -0.4294848945631482, -0.40343664932147, -0.6597396731376648, 0.11061367392539978, 0.4206697940826416, -0.9031532406806946, 0.41640254855155945, -0.10451167076826096, 0.08191019296646118, -0.047368794679641724, 0.033954866230487823, -0.2860990602779393, -0.6048896516183241, 0.7431034213096711,-0.007273927635448707,-0.799835205078125,0.3468170166015625,-0.0811309814453125
20220227-1538,2022-02-27 15:38:22Z,u01, 63,40,movements,el-ex, rt, d,297397.18558025, -1.4560574305335536, -0.4388504462290718, -0.41386059629674044, -0.24018974602222443, 0.22159437835216522, 0.2986691892147064, -0.899288535118103, 0.4248991310596466, -0.10363857448101044, 0.06332051753997803, -0.001986473798751831, 0.06010507047176361, -0.2924532635656687, -0.6022057805673338, 0.7428029144027353,-0.007946743571913883,-0.835968017578125,0.42291259765625,-0.0435333251953125
20220227-1538,2022-02-27 15:38:22Z,u01, 64,40,movements,el-ex, rt, d,297397.21052525, -1.4504085416823151, -0.4453030428632108, -0.4164100583892164, -0.11645268648862839, 0.2916646897792816, 0.1853960156440735, -0.895948052406311, 0.4307313859462738, -0.10838532447814941, 0.10630589723587036, -0.02287927269935608, 0.06988716870546341, -0.2954022554496375, -0.5987861429273069, 0.7444026195514891,-0.007569509925827722,-0.792724609375,0.412689208984375,-0.0475616455078125
20220227-1538,2022-02-27 15:38:22Z,u01, 65,40,movements,el-ex, rt, d,297397.23547025, -1.4427935919878532, -0.45069324085495843, -0.41829204751867194, -0.026015525683760643, 0.37871769070625305, 0.20841224491596222, -0.8927810192108154, 0.43558967113494873, -0.1149066686630249, 0.07796180248260498, -0.0833863615989685, 0.07228869944810867, -0.2977800082109616, -0.5948728721225649, 0.746589153940739,-0.007605820456451806,-0.8148193359375,0.352203369140625,-0.0426177978515625
20220227-1538,2022-02-27 15:38:22Z,u01, 66,40,movements,el-ex, rt, d,297397.26041525, -1.4315734279959575, -0.4567869193598589, -0.41639660303291315, 0.09056102484464645, 0.4431653916835785, 0.30073899030685425, -0.8887904286384583, 0.4410667419433594, -0.12454571574926376, 0.12563741207122803, -0.1402396559715271, 0.04790060222148895, -0.29927153764500664, -0.5900539712649016, 0.7498199126128609,-0.006552608262652471,-0.7783203125,0.304473876953125,-0.0754852294921875
20220227-1538,2022-02-27 15:38:22Z,u01, 67,40,movements,el-ex, rt, d,297397.28536025004, -1.4206484599821594, -0.4648483866050277, -0.415651270787859, -0.15455247461795807, 0.42779043316841125, 0.34233224391937256, -0.8838321566581726, 0.4482872784137726, -0.13371184468269348, 0.11657464504241943, -0.12765443325042725, 0.06884653866291046, -0.3018001997391084, -0.5848595718615033, 0.752879827715462,-0.00525876987730195,-0.7672576904296875,0.3206329345703125,-0.0648651123046875
20220227-1538,2022-02-27 15:38:22Z,u01, 68,40,movements,el-ex, rt, d,297397.31030525, -1.4137286743703017, -0.47364491804877334, -0.42340417503523275, -0.6539726257324219, 0.42468026280403137, 0.2548485994338989, -0.8789569139480591, 0.4561329483985901, -0.1392023116350174, 0.08655285835266113, -0.15139970183372498, 0.057369232177734375, -0.30707563207058364, -0.5797442557625593, 0.7546924894904875,-0.006349681990855283,-0.7755279541015625,0.3090362548828125,-0.0860137939453125
20220227-1538,2022-02-27 15:38:22Z,u01, 69,40,movements,el-ex, rt, d,297397.33525025, -1.4171581438185104, -0.48495295657947546, -0.45304364886999426, -1.5046019554138184, 0.3747086524963379, 0.37859922647476196, -0.874275803565979, 0.46616673469543457, -0.13538910448551178, 0.06736063957214355, -0.24544841051101685, 0.04379040002822876, -0.3195305069764178, -0.5746352801978203, 0.7533379699291111,-0.01327988955852466,-0.806915283203125,0.2207183837890625,-0.0915985107421875
20220227-1538,2022-02-27 15:38:22Z,u01, 70,40,movements,el-ex, rt, d,297397.36019525, -1.4353631955027468, -0.5017656145583845, -0.5063200766067417, -2.4046804904937744, 0.17435677349567413, 0.4029611647129059, -0.8687063455581665, 0.4809742569923401, -0.11837626248598099, 0.12371128797531128, -0.2406635880470276, 0.04611051082611084, -0.34061938985052037, -0.5699037640287233, 0.7473802438595236,-0.024714823808953568,-0.724517822265625,0.22406005859375,-0.090667724609375
20220227-1538,2022-02-27 15:38:22Z,u01, 71,40,movements,el-ex, rt, d,297397.38514025003, -1.4655824263751787, -0.5197844997970985, -0.5750666137899046, -2.2497408390045166, 0.15249699354171753, 0.4318833649158478, -0.8631266951560974, 0.49669310450553894, -0.09114951640367508, -0.013261795043945312, -0.07655763626098633, 0.055047035217285156, -0.3665057596277368, -0.5657727207282901, 0.7376069262471692,-0.038868313116034836,-0.8763885498046875,0.420135498046875,-0.036102294921875
20220227-1538,2022-02-27 15:38:22Z,u01, 72,40,movements,el-ex, rt, d,297397.41008525004, -1.481840555281054, -0.5325873346720386, -0.6194824392501168, -0.877709150314331, 0.3196403980255127, 0.307820200920105, -0.8580898642539978, 0.5077640414237976, -0.07653403282165527, 0.003948688507080078, 0.06732451915740967, -0.07359737902879715, -0.38341667045320404, -0.561003245966739, 0.7321075452194509,-0.0478076178001125,-0.879791259765625,0.5884552001953125,-0.1320343017578125
20220227-1538,2022-02-27 15:38:22Z,u01, 73,40,movements,el-ex, rt, d,297397.43503025, -1.4781639329529468, -0.5395999085045159, -0.6289002927731567, 0.08999626338481903, 0.3497014343738556, 0.20712241530418396, -0.8542361855506897, 0.5137928128242493, -0.07935705035924911, 0.0331149697303772, -0.03846627473831177, -0.0683329775929451, -0.3881421662621223, -0.5564774321963142, 0.7329527667859977,-0.04958598280877208,-0.8211212158203125,0.4753265380859375,-0.1476898193359375
20220227-1538,2022-02-27 15:38:22Z,u01, 74,40,movements,el-ex, rt, d,297397.45997525, -1.4620990334231998, -0.5437489328863733, -0.6160157961414772, 0.6569398045539856, 0.3890930414199829, 0.20954854786396027, -0.8507246375083923, 0.5173478722572327, -0.0928373783826828, -0.04644632339477539, 0.0030683279037475586, -0.018689274787902832, -0.3854821669016625, -0.5522542980929865, 0.7377339869696787,-0.04655348860068875,-0.9048919677734375,0.5118560791015625,-0.1268157958984375
20220227-1538,2022-02-27 15:38:22Z,u01, 75,40,movements,el-ex, rt, d,297397.48492025, -1.4433002794408558, -0.5459810183830952, -0.5978410489559606, 0.4758438169956207, 0.34464728832244873, 0.0997171401977539, -0.8476817011833191, 0.5192567110061646, -0.10866549611091614, -0.007863283157348633, -0.030838191509246826, 0.0113295316696167, -0.3807691575053169, -0.5483448729516701, 0.7433111302317135,-0.042676763706459064,-0.8555450439453125,0.4884185791015625,-0.0973358154296875
20220227-1538,2022-02-27 15:38:22Z,u01, 76,40,movements,el-ex, rt, d,297397.50986525003, -1.429252480064771, -0.5466763764561223, -0.5866789877588422, 0.37641263008117676, 0.3243737518787384, 0.05829519033432007, -0.84571373462677, 0.5198508501052856, -0.12051144987344742, -0.010532975196838379, 0.040116071701049805, -0.03387711942195892, -0.377647330141772, -0.54509335778366, 0.7473812158513562,-0.04094910003935953,-0.8532257080078125,0.5579376220703125,-0.1469879150390625
20220227-1538,2022-02-27 15:38:22Z,u01, 77,40,movements,el-ex, rt, d,297397.53481025004, -1.4139531031289994, -0.5456544656361639, -0.572361435315134, 0.6234740018844604, 0.31866374611854553, 0.015651127323508263, -0.8442955613136292, 0.5189776420593262, -0.13351868093013763, -0.011691927909851074, 0.020145952701568604, 0.018772408366203308, -0.37311857766850265, -0.542239048623792, 0.7518341214679649,-0.03879186249235961,-0.855987548828125,0.53912353515625,-0.11474609375
20220227-1538,2022-02-27 15:38:22Z,u01, 78,40,movements,el-ex, rt, d,297397.55975525, -1.3941376194188415, -0.5434239654645959, -0.5502077203172124, 0.8401201963424683, 0.3425500988960266, 0.03513767570257187, -0.8426215052604675, 0.5170697569847107, -0.150424525141716, -0.01908785104751587, -0.05449962615966797, -0.01849047839641571, -0.3660294034801853, -0.5392682191831499, 0.7576274981548216,-0.0348232512215928,-0.867919921875,0.476348876953125,-0.162017822265625
20220227-1538,2022-02-27 15:38:22Z,u01, 79,40,movements,el-ex, rt, d,297397.58470025, -1.3757193853431355, -0.5413307091106221, -0.5295273133295398, 0.5013628602027893, 0.277626633644104, 0.07856091856956482, -0.8407682776451111, 0.5152769088745117, -0.16612718999385834, 0.01072084903717041, -0.10928630828857422, -0.026988208293914795, -0.35946461362325144, -0.5363968629784801, 0.7629572187712341,-0.030980183840481845,-0.830047607421875,0.4059906005859375,-0.193115234375
20220227-1538,2022-02-27 15:38:22Z,u01, 80,40,movements,el-ex, rt, d,297397.60964525, -1.3636857606310893, -0.54208068928447, -0.5194830540769073, 0.19274568557739258, 0.266213983297348, 0.08957501500844955, -0.8383300304412842, 0.5159195065498352, -0.17615291476249695, -0.0013763904571533203, -0.0807388424873352, -0.0073037296533584595, -0.3568512945254769, -0.5334610519638266, 0.7663108546545099,-0.02905417195739185,-0.8480072021484375,0.4323577880859375,-0.181640625
20220227-1538,2022-02-27 15:38:22Z,u01, 81,40,movements,el-ex, rt, d,297397.63459025003, -1.3548584227443494, -0.543627747612403, -0.5148240798759564, 0.14815284311771393, 0.25286370515823364, 0.1088135614991188, -0.8359615802764893, 0.5172441601753235, -0.18337489664554596, 0.00940847396850586, -0.07792842388153076, -0.014867410063743591, -0.3560123002641621, -0.5306296207125583, 0.7686896304881692,-0.02834535955823242,-0.8265533447265625,0.4393157958984375,-0.1982421875
20220227-1538,2022-02-27 15:38:22Z,u01, 82,40,movements,el-ex, rt, d,297397.65953525004, -1.3466940463817492, -0.5458809534570856, -0.5096076856232077, 0.13483047485351562, 0.184077650308609, 0.15558819472789764, -0.8332983255386353, 0.5191712379455566, -0.1899343729019165, 0.0010230541229248047, -0.08263254165649414, 0.0006031394004821777, -0.35528979780869185, -0.5280170200900106, 0.7708658661919393,-0.027073311846635584,-0.8268280029296875,0.4434051513671875,-0.19677734375
20220227-1538,2022-02-27 15:38:22Z,u01, 83,40,movements,el-ex, rt, d,297397.68448025, -1.340218781055319, -0.5490853668101401, -0.5053966123462398, 0.06820172071456909, 0.16271601617336273, 0.15285219252109528, -0.8304270505905151, 0.5219072699546814, -0.19494494795799255, -0.0037860870361328125, -0.12224912643432617, 0.03191983699798584, -0.35519634572320896, -0.5257024654522955, 0.7725398223566233,-0.025584225139578254,-0.8342132568359375,0.399658203125,-0.16302490234375
20220227-1538,2022-02-27 15:38:22Z,u01, 84,40,movements,el-ex, rt, d,297397.70942525, -1.3368835359308422, -0.5533201000224628, -0.5065654102854846, -0.2740415930747986, 0.15018245577812195, 0.15097633004188538, -0.827614963054657, 0.5255147814750671, -0.1971995234489441, 0.04012423753738403, -0.12961030006408691, 0.0005745887756347656, -0.35691803748911155, -0.5234594096166286, 0.7732787690131763,-0.025292765054220512,-0.7889404296875,0.398651123046875,-0.1960601806640625
20220227-1538,2022-02-27 15:38:22Z,u01, 85,40,movements,el-ex, rt, d,297397.73437025, -1.3396240165292022, -0.5599543723131059, -0.519118257372086, -0.6003655195236206, 0.1791561096906662, 0.1608990728855133, -0.824740469455719, 0.5311475396156311, -0.1941276341676712, -0.007153451442718506, -0.1152082085609436, 0.047170013189315796, -0.36250879579413925, -0.5210792194270915, 0.772207604867837,-0.027554887759645763,-0.8318939208984375,0.4159393310546875,-0.1469573974609375
20220227-1538,2022-02-27 15:38:23Z,u01, 86,40,movements,el-ex, rt, d,297397.759314875, -1.34348982602656, -0.5668303635743057, -0.5357609094029814, -0.6072974801063538, 0.21461530029773712, 0.11741870641708374, -0.8219069838523865, 0.5369608402252197, -0.19011035561561584, 0.033241331577301025, -0.000538170337677002, 0.029114723205566406, -0.3692326225808525, -0.518278007631898, 0.7707713807163366,-0.031090509027303315,-0.7971649169921875,0.5307159423828125,-0.1477203369140625
20220227-1538,2022-02-27 15:38:23Z,u01, 87,40,movements,el-ex, rt, d,297397.784259875, -1.3483386704349924, -0.5705609245145058, -0.553394160220671, -0.6022891402244568, 0.13042819499969482, -0.08013278990983963, -0.820859432220459, 0.5401042103767395, -0.18567954003810883, 0.06391692161560059, -0.030094563961029053, 0.004389718174934387, -0.37513472127761066, -0.5161726137484994, 0.7691284036720943,-0.0357916431260038,-0.7569427490234375,0.510009765625,-0.1812896728515625
20220227-1538,2022-02-27 15:38:23Z,u01, 88,40,movements,el-ex, rt, d,297397.809204875, -1.351981662649251, -0.5708385881724729, -0.5651674361311155, -0.098177969455719, 0.10606013238430023, -0.054919980466365814, -0.8213840126991272, 0.540337860584259, -0.18265537917613983, 0.00030875205993652344, 0.020895540714263916, 0.003608599305152893, -0.3783325123554474, -0.5153026467158508, 0.7679609359262005,-0.03954114510247264,-0.810272216796875,0.5577545166015625,-0.1866455078125
20220227-1538,2022-02-27 15:38:23Z,u01, 89,40,movements,el-ex, rt, d,297397.83414987504, -1.345203705244791, -0.5687636985786113, -0.5593207265118482, 0.4538636803627014, 0.18101121485233307, -0.053683072328567505, -0.8212182521820068, 0.5385907888412476, -0.18846885859966278, -0.027689099311828613, -0.004594206809997559, 0.0047223567962646484, -0.37599750962248996, -0.514190081405281, 0.7698670444048923,-0.039231979673833295,-0.848907470703125,0.53399658203125,-0.183746337890625
20220227-1538,2022-02-27 15:38:23Z,u01, 90,40,movements,el-ex, rt, d,297397.859094875, -1.3356737174764315, -0.5632488074239282, -0.548473928813018, 0.2960965633392334, 0.1138249859213829, -0.1857532262802124, -0.8222607374191284, 0.5339359641075134, -0.19697530567646027, 0.02402794361114502, -0.02290397882461548, -0.02261403203010559, -0.3711600038428375, -0.5135684916266657, 0.7726572939349465,-0.03857616901252647,-0.77880859375,0.5243072509765625,-0.21685791015625
20220227-1538,2022-02-27 15:38:23Z,u01, 91,40,movements,el-ex, rt, d,297397.884039875, -1.329586918408268, -0.5573417303183847, -0.5417822738130624, 0.30730563402175903, 0.08660474419593811, -0.18335777521133423, -0.8240950107574463, 0.5289320945739746, -0.20272648334503174, -0.04126119613647461, -0.017381250858306885, -0.0263538658618927, -0.3673106832580277, -0.5135363865570961, 0.7744960461369585,-0.03897411518288957,-0.8653564453125,0.5115509033203125,-0.2290802001953125
20220227-1538,2022-02-27 15:38:23Z,u01, 92,40,movements,el-ex, rt, d,297397.908984875, -1.322952925226895, -0.5507708755952276, -0.5327488642104238, 0.39947807788848877, 0.058758802711963654, -0.20913605391979218, -0.8260836005210876, 0.5233442783355713, -0.20903712511062622, -0.03704488277435303, -0.01873612403869629, -0.020806193351745605, -0.3626073675374234, -0.5138067065781028, 0.7765418651375098,-0.038745445105860365,-0.873382568359375,0.503692626953125,-0.2265625
20220227-1538,2022-02-27 15:38:23Z,u01, 93,40,movements,el-ex, rt, d,297397.933929875, -1.3176748804014957, -0.5423018156289786, -0.5245274160463766, 0.3401815593242645, 0.03141206130385399, -0.28965625166893005, -0.8292302489280701, 0.5161089301109314, -0.21449661254882812, -0.023049354553222656, -0.023555219173431396, -0.01601812243461609, -0.3574647042636522, -0.5147530250948392, 0.7782773695454492,-0.03914932248456632,-0.8522796630859375,0.4925537109375,-0.2305145263671875
20220227-1538,2022-02-27 15:38:23Z,u01, 94,40,movements,el-ex, rt, d,297397.95887387503, -1.3106507633225462, -0.5327137292437578, -0.5141023636309969, 0.54190993309021, 0.09870748221874237, -0.27804645895957947, -0.8324468731880188, 0.5078728795051575, -0.22157855331897736, -0.06806564331054688, 0.011047899723052979, -0.01767943799495697, -0.35130441956014175, -0.5155540007425288, 0.7805403015014014,-0.039318493708943913,-0.89935302734375,0.524566650390625,-0.232421875
20220227-1538,2022-02-27 15:38:23Z,u01, 95,40,movements,el-ex, rt, d,297397.98381887504, -1.3002578551335426, -0.5225857198320039, -0.4999988145271564, 0.5802930593490601, 0.1648331582546234, -0.25797510147094727, -0.8350130915641785, 0.49912241101264954, -0.23158080875873566, -0.09566605091094971, -0.014716923236846924, -0.027696669101715088, -0.3439069710903694, -0.5156913685787459, 0.7837658712398274,-0.03874670445211842,-0.9306793212890625,0.484405517578125,-0.25927734375
20220227-1538,2022-02-27 15:38:23Z,u01, 96,40,movements,el-ex, rt, d,297398.008763875, -1.2920077049348395, -0.5122223299123708, -0.49050879292403793, 0.25584450364112854, 0.0994516983628273, -0.3560929298400879, -0.8380022644996643, 0.49011555314064026, -0.23987247049808502, -0.04915887117385864, 0.021847277879714966, -0.019786521792411804, -0.337622326332908, -0.5158245118286788, 0.7863628621705263,-0.039617884356982935,-0.8839874267578125,0.5129852294921875,-0.2738494873046875
20220227-1538,2022-02-27 15:38:23Z,u01, 97,40,movements,el-ex, rt, d,297398.033708875, -1.2866837024621534, -0.5019464254788696, -0.4844757942630246, 0.5062432885169983, 0.10772234946489334, -0.31664013862609863, -0.841503381729126, 0.48113277554512024, -0.24572934210300446, -0.10635709762573242, 0.029121041297912598, 0.0011613667011260986, -0.3322867056374657, -0.5164502601081205, 0.7881370809393136,-0.041283907968319045,-0.9478607177734375,0.51025390625,-0.24456787109375
20220227-1538,2022-02-27 15:38:23Z,u01, 98,40,movements,el-ex, rt, d,297398.058653875, -1.2752278827751864, -0.48989368911158626, -0.46738178999017, 0.8528910875320435, 0.15016667544841766, -0.2679895758628845, -0.8441197276115417, 0.470532089471817, -0.25702372193336487, -0.10734188556671143, 0.03212288022041321, -0.04661107063293457, -0.3232945317920224, -0.5166902268507346, 0.791773420689889,-0.04008199553658848,-0.9481353759765625,0.5002288818359375,-0.2866668701171875
20220227-1538,2022-02-27 15:38:23Z,u01, 99,40,movements,el-ex, rt, d,297398.08359887503, -1.263364986254472, -0.47704689058347344, -0.4483001632482283, 0.6460641622543335, 0.0515717938542366, -0.329927921295166, -0.846703290939331, 0.4591577649116516, -0.2688262462615967, -0.0977545976638794, 0.0429936945438385, -0.07272660732269287, -0.3134462825450071, -0.5170476762858759, 0.7955800708762562,-0.03828027901975761,-0.9444580078125,0.5021514892578125,-0.341552734375
20220227-1538,2022-02-27 15:38:23Z,u01, 100,40,movements,el-ex, rt, d,297398.10854387505, -1.2565426901569474, -0.4647292097129355, -0.4334247318877946, 0.8202328085899353, -0.018930869176983833, -0.29588234424591064, -0.8501641154289246, 0.4481807351112366, -0.27632376551628113, -0.1415349841117859, -0.017120003700256348, 0.02539283037185669, -0.30492941150711794, -0.518513426520219, 0.7979880426225348,-0.037105405256356916,-0.999298095703125,0.412384033203125,-0.2742156982421875
20220227-1538,2022-02-27 15:38:23Z,u01, 101,40,movements,el-ex, rt, d,297398.133488875, -1.2434375958055532, -0.45079299008647405, -0.4058991710963509, 1.3146005868911743, 0.12726955115795135, -0.12727274000644684, -0.8523018956184387, 0.43567943572998047, -0.28942158818244934, -0.1525808572769165, 0.008412301540374756, 0.0630267858505249, -0.2923693277747175, -0.5194317876871105, 0.80229288072197,-0.03220078008475519,-1.0048828125,0.444091796875,-0.2263946533203125
20220227-1538,2022-02-27 15:38:23Z,u01, 102,40,movements,el-ex, rt, d,297398.158433875, -1.2283677947552096, -0.4400180778230453, -0.3804073654300584, 0.47580966353416443, 0.15727032721042633, -0.11509330570697784, -0.8522161841392517, 0.4259558320045471, -0.3037908971309662, -0.1293204426765442, 0.04212266206741333, -0.05079299211502075, -0.2814644526014273, -0.5185386328502165, 0.8069392076470536,-0.027282040330948165,-0.97723388671875,0.47064208984375,-0.3384246826171875
20220227-1538,2022-02-27 15:38:23Z,u01, 103,40,movements,el-ex, rt, d,297398.183378875, -1.229931242335322, -0.437984160130923, -0.3879982430809248, -0.764672040939331, -0.042149707674980164, -0.22050242125988007, -0.8535049557685852, 0.42411476373672485, -0.3027471899986267, -0.15865623950958252, 0.06836268305778503, -0.03926345705986023, -0.2826832283095341, -0.5183788214526567, 0.8064922972028169,-0.030719740700158704,-1.0121612548828125,0.4924774169921875,-0.342010498046875
20220227-1538,2022-02-27 15:38:23Z,u01, 104,40,movements,el-ex, rt, d,297398.20832387503, -1.2406080515993856, -0.4380532651842616, -0.4070451799862853, -0.28187108039855957, -0.13575562834739685, -0.21630188822746277, -0.8566608428955078, 0.424177348613739, -0.2936078608036041, -0.22286778688430786, 0.2078416645526886, -0.030488938093185425, -0.28783399745680893, -0.5199496686937638, 0.8033968011618812,-0.036842487305008886,-1.073089599609375,0.615386962890625,-0.3114013671875
20220227-1538,2022-02-27 15:38:23Z,u01, 105,40,movements,el-ex, rt, d,297398.23326887505, -1.2412221592767991, -0.43038380484799493, -0.40171052985564354, 0.8181080222129822, -0.08102533221244812, -0.24852672219276428, -0.8598938584327698, 0.4172196388244629, -0.2941259443759918, -0.2018582820892334, 0.25102370977401733, -0.10649368166923523, -0.28356742729776385, -0.5220407444597335, 0.8035562683824184,-0.03687943006251676,-1.0617523193359375,0.668243408203125,-0.4006195068359375
20220227-1538,2022-02-27 15:38:23Z,u01, 106,40,movements,el-ex, rt, d,297398.258213875, -1.233048980248418, -0.4142787118578287, -0.3773673578031718, 1.1150022745132446, -0.09179095923900604, -0.3952192962169647, -0.8636894822120667, 0.402529776096344, -0.30333152413368225, -0.21695303916931152, 0.21964731812477112, -0.1533184051513672, -0.27095245943479107, -0.5243271912626352, 0.8065849655032307,-0.03295899760428772,-1.0699005126953125,0.639862060546875,-0.4623870849609375
20220227-1538,2022-02-27 15:38:23Z,u01, 107,40,movements,el-ex, rt, d,297398.283158875, -1.2264244956844916, -0.3962974402866458, -0.3526862879943674, 1.0684173107147217, -0.15485388040542603, -0.33295732736587524, -0.8683345913887024, 0.3860054016113281, -0.3114398419857025, -0.30460840463638306, 0.209926575422287, -0.13590222597122192, -0.2574761292537099, -0.5272438914135158, 0.809241258548252,-0.02912809114657766,-1.172943115234375,0.5959320068359375,-0.4473419189453125
20220227-1538,2022-02-27 15:38:23Z,u01, 108,40,movements,el-ex, rt, d,297398.308103875, -1.2235472188018157, -0.38174460207094735, -0.33193747711010135, 0.7130299210548401, -0.25421416759490967, -0.25206926465034485, -0.8726249933242798, 0.37254005670547485, -0.31581535935401917, -0.28519654273986816, 0.17866840958595276, -0.18455100059509277, -0.2463318496200781, -0.5304836860029782, 0.8107194613703976,-0.02532782367258729,-1.155120849609375,0.5500640869140625,-0.4915771484375
20220227-1538,2022-02-27 15:38:23Z,u01, 109,40,movements,el-ex, rt, d,297398.33304887504, -1.228052475007422, -0.3729604449372968, -0.3219284168493821, 0.21818958222866058, -0.3977183401584625, -0.13556155562400818, -0.8770872354507446, 0.36437395215034485, -0.3129684627056122, -0.34198296070098877, 0.196508526802063, -0.18869486451148987, -0.24031682565403223, -0.5345685995310001, 0.809902400289126,-0.023282700117922883,-1.2190704345703125,0.560882568359375,-0.5016632080078125
20220227-1538,2022-02-27 15:38:23Z,u01, 110,40,movements,el-ex, rt, d,297398.357993875, -1.2392385886703345, -0.37146465807430185, -0.3216493493487682, -0.11880834400653839, -0.4936133027076721, 0.007341664284467697, -0.8810476064682007, 0.36298057436943054, -0.3033149838447571, -0.4281715750694275, 0.2781784236431122, -0.17802366614341736, -0.23979030072678148, -0.5392987284680952, 0.8069458250613413,-0.02226500682938931,-1.3003692626953125,0.629852294921875,-0.4775848388671875
20220227-1538,2022-02-27 15:38:23Z,u01, 111,40,movements,el-ex, rt, d,297398.382938875, -1.2542351628805546, -0.37425003119633427, -0.3268875501436071, -0.2755957245826721, -0.5385497212409973, 0.05851823091506958, -0.8845328092575073, 0.36557456851005554, -0.2897528111934662, -0.48898690938949585, 0.3015853762626648, -0.19361522793769836, -0.24244669902216612, -0.5443741245688931, 0.8027474580611184,-0.021742738297461095,-1.3735198974609375,0.6671600341796875,-0.483367919921875
20220227-1538,2022-02-27 15:38:23Z,u01, 112,40,movements,el-ex, rt, d,297398.407883875, -1.2716146894842735, -0.378712329976435, -0.3345279007566515, -0.3556651473045349, -0.6220160722732544, 0.08688010275363922, -0.8878671526908875, 0.3697243630886078, -0.2738535702228546, -0.5973317623138428, 0.37377533316612244, -0.22373569011688232, -0.2464284306097516, -0.5498602057453077, 0.7977914196601561,-0.021344176334736564,-1.4694671630859375,0.7385101318359375,-0.5032806396484375
20220227-1538,2022-02-27 15:38:23Z,u01, 113,40,movements,el-ex, rt, d,297398.432828875, -1.292210351989183, -0.3839599861458349, -0.34359347390040373, -0.39440441131591797, -0.756394624710083, 0.1254943460226059, -0.8914409875869751, 0.374595046043396, -0.25497353076934814, -0.6494219303131104, 0.3938833177089691, -0.20233255624771118, -0.25113764283464524, -0.556276122786985, 0.7918675030639172,-0.020799405872601873,-1.540863037109375,0.7684783935546875,-0.457305908203125
20220227-1538,2022-02-27 15:38:23Z,u01, 114,40,movements,el-ex, rt, d,297398.45777387504, -1.316148722990929, -0.390214346824567, -0.3529762719569126, -0.4107401967048645, -0.8761404156684875, 0.17497406899929047, -0.8950037956237793, 0.3803866505622864, -0.23296810686588287, -0.7118991613388062, 0.38316312432289124, -0.18231528997421265, -0.25634546110778234, -0.5637401442322031, 0.784921668210085,-0.01954407226380661,-1.5983734130859375,0.767181396484375,-0.42138671875
20220227-1538,2022-02-27 15:38:23Z,u01, 115,40,movements,el-ex, rt, d,297398.482718875, -1.343171876369853, -0.39750234081650504, -0.3628024315900716, -0.38853952288627625, -0.9900000691413879, 0.22302260994911194, -0.8982470631599426, 0.3871166408061981, -0.20806902647018433, -0.722815990447998, 0.3560321033000946, -0.1775512546300888, -0.2620761543664956, -0.5720852889998245, 0.7769969754546262,-0.017609371674193075,-1.621063232421875,0.7431488037109375,-0.3856201171875
20220227-1538,2022-02-27 15:38:23Z,u01, 116,40,movements,el-ex, rt, d,297398.507663875, -1.3710822393078275, -0.40537345240322087, -0.36891353104955893, -0.20118224620819092, -1.0596259832382202, 0.29794833064079285, -0.900689423084259, 0.3943619728088379, -0.18231070041656494, -0.7222048044204712, 0.3471541106700897, -0.14622646570205688, -0.26691962934714814, -0.5810323252354921, 0.7687426139802807,-0.01378840091372896,-1.6241455078125,0.748382568359375,-0.333984375
20220227-1538,2022-02-27 15:38:23Z,u01, 117,40,movements,el-ex, rt, d,297398.532608875, -1.3985382173561711, -0.41375567052620876, -0.36970644990782564, 0.017946437001228333, -1.1183044910430908, 0.3585928976535797, -0.9020663499832153, 0.4020509123802185, -0.1569436490535736, -0.6924769878387451, 0.2710294723510742, -0.1602257490158081, -0.2703044086195708, -0.5903081416649161, 0.7605342823119812,-0.0077083694590351914,-1.59454345703125,0.6730804443359375,-0.317169189453125
20220227-1538,2022-02-27 15:38:23Z,u01, 118,40,movements,el-ex, rt, d,297398.557553875, -1.4241992975886462, -0.4237167111031524, -0.36362853539600637, 0.3059175908565521, -1.138706922531128, 0.4858388602733612, -0.9017894864082336, 0.41115131974220276, -0.13315488398075104, -0.6304980516433716, 0.18565040826797485, -0.13408774137496948, -0.2720611813558057, -0.5995041852421392, 0.7527121869083113,0.0013209107785909224,-1.5473480224609375,0.6129913330078125,-0.2851104736328125
20220227-1538,2022-02-27 15:38:23Z,u01, 119,40,movements,el-ex, rt, d,297398.58249887504, -1.4476568066868465, -0.4359164737782252, -0.3505563474079847, 0.4985593855381012, -1.1764147281646729, 0.6097151637077332, -0.8996194005012512, 0.42224135994911194, -0.11134204268455505, -0.5602956414222717, 0.15000897645950317, -0.10186921805143356, -0.2722920484976878, -0.6084291407507139, 0.745312194821782,0.013441317316838342,-1.4599151611328125,0.5722503662109375,-0.2132110595703125
20220227-1538,2022-02-27 15:38:23Z,u01, 120,40,movements,el-ex, rt, d,297398.607443875, -1.4693368178384743, -0.45108367135080263, -0.332150082327397, 0.6632776260375977, -1.1813751459121704, 0.760890543460846, -0.8953468799591064, 0.43594107031822205, -0.09115444868803024, -0.5255972146987915, 0.022005677223205566, -0.03541731834411621, -0.2716746983667131, -0.6169405424505752, 0.7380901417089472,0.028284925057310895,-1.4283905029296875,0.47869873046875,-0.138214111328125
20220227-1538,2022-02-27 15:38:23Z,u01, 121,40,movements,el-ex, rt, d,297398.632388875, -1.4889697717333696, -0.4701493439777882, -0.3115261550184171, 0.6317354440689087, -1.1299325227737427, 0.8501079678535461, -0.8885177373886108, 0.4530194401741028, -0.07286705076694489, -0.45338594913482666, -0.0842602550983429, -0.010232515633106232, -0.27144762635220177, -0.6244058473348759, 0.7310350931930462,0.0449578981903439,-1.3419036865234375,0.3687591552734375,-0.083099365234375
20220227-1538,2022-02-27 15:38:23Z,u01, 122,40,movements,el-ex, rt, d,297398.657333875, -1.5081819378124217, -0.49021829086238283, -0.29511910894461324, 0.38345053791999817, -0.99940025806427, 0.83842933177948, -0.8805010318756104, 0.47081848978996277, -0.05520419776439667, -0.34064435958862305, -0.21366220712661743, 0.05178607255220413, -0.2726013660994354, -0.6309408823709927, 0.7238493776573662,0.06036526233002204,-1.2439117431640625,0.262359619140625,-0.0143280029296875
20220227-1538,2022-02-27 15:38:23Z,u01, 123,40,movements,el-ex, rt, d,297398.682278875, -1.5275996936430567, -0.5087196831243681, -0.28841479296564787, -0.025484858080744743, -0.8139062523841858, 0.633456826210022, -0.8725541234016418, 0.48705944418907166, -0.03771486133337021, -0.24210035800933838, -0.24801531434059143, 0.09685778617858887, -0.27604167359262244, -0.6363517612941182, 0.7167314798259785,0.07178729493337804,-1.114654541015625,0.239044189453125,0.05914306640625
20220227-1538,2022-02-27 15:38:23Z,u01, 124,40,movements,el-ex, rt, d,297398.70722387504, -1.5478027983208082, -0.5208329356471403, -0.29375891006056787, -0.2878556549549103, -0.5877482295036316, 0.31497013568878174, -0.8671756386756897, 0.49760279059410095, -0.01994294300675392, -0.08877217769622803, -0.2975754141807556, 0.1003260612487793, -0.28100721840710774, -0.6411423181384794, 0.7099718988962957,0.07688491558404609,-0.98004150390625,0.2024688720703125,0.075653076171875
20220227-1538,2022-02-27 15:38:23Z,u01, 125,40,movements,el-ex, rt, d,297398.732168875, -1.5617409931376753, -0.5255180571695103, -0.2998946618659988, -0.06816986948251724, -0.27946731448173523, 0.057905636727809906, -0.8650286197662354, 0.5016612410545349, -0.007833336479961872, -0.004401862621307373, -0.3390483856201172, 0.10957872867584229, -0.2839709132822234, -0.6445493403029159, 0.7055375184792672,0.07831592664788295,-0.8694305419921875,0.1626129150390625,0.10174560546875
20220227-1538,2022-02-27 15:38:24Z,u01, 126,40,movements,el-ex, rt, d,297398.757114375, -1.5627336572207833, -0.5224874797895476, -0.29562732805378583, 0.3793918788433075, 0.0268174447119236, -0.32783573865890503, -0.8665522336959839, 0.4990372955799103, -0.006986876018345356, 0.21227073669433594, -0.31036239862442017, 0.10616880655288696, -0.28156833090681255, -0.6459302107217108, 0.7051723196165065,0.07890085746719883,-0.6741485595703125,0.1956024169921875,0.1088714599609375
20220227-1538,2022-02-27 15:38:24Z,u01, 127,40,movements,el-ex, rt, d,297398.782059375, -1.5502923846280987, -0.5082398376083953, -0.27972334109814084, 0.6576319336891174, 0.32670196890830994, -0.8275080919265747, -0.8734186291694641, 0.4866403341293335, -0.01791103556752205, 0.27084916830062866, -0.38103434443473816, 0.07786262035369873, -0.2722478865550798, -0.6456977393862986, 0.7091528986442275,0.07783019627958088,-0.602569580078125,0.1056060791015625,0.0599517822265625
20220227-1538,2022-02-27 15:38:24Z,u01, 128,40,movements,el-ex, rt, d,297398.80700437503, -1.532071428214093, -0.4809316851562109, -0.26466557029366194, 0.5451433658599854, 0.5582537055015564, -1.2204679250717163, -0.8858994841575623, 0.46260538697242737, -0.03432352840900421, 0.4838915467262268, -0.37866684794425964, 0.08406698703765869, -0.25897397518659526, -0.644802850945186, 0.7155950175583065,0.07131203144338688,-0.432220458984375,0.0608673095703125,0.0571746826171875
20220227-1538,2022-02-27 15:38:24Z,u01, 129,40,movements,el-ex, rt, d,297398.83194937505, -1.5079049047777606, -0.4474962122736078, -0.24716888806208204, 0.8349104523658752, 0.7255308032035828, -1.401578426361084, -0.8997507691383362, 0.43270963430404663, -0.05666133016347885, 0.6503155827522278, -0.2662973999977112, 0.06180334463715553, -0.24279680964891184, -0.6424321313914947, 0.724118883585669,0.06310560386921132,-0.2494354248046875,0.166412353515625,0.0051422119140625
20220227-1538,2022-02-27 15:38:24Z,u01, 130,40,movements,el-ex, rt, d,297398.856894375, -1.482107545466199, -0.4085744613185389, -0.22948040595880473, 0.6399276256561279, 0.7609630823135376, -1.6393243074417114, -0.9140812158584595, 0.3973015248775482, -0.08128197491168976, 0.844348669052124, -0.3911675810813904, 0.07293522357940674, -0.22436442389231936, -0.6395464156504677, 0.733345469414903,0.053341136007851675,-0.085784912109375,0.04351806640625,-0.0017852783203125
20220227-1538,2022-02-27 15:38:24Z,u01, 131,40,movements,el-ex, rt, d,297398.881839375, -1.4609739499184162, -0.36415253542231485, -0.2255561269998789, -0.048190537840127945, 0.7949230074882507, -1.7856084108352661, -0.9287964105606079, 0.3561575412750244, -0.10241469740867615, 0.9455812573432922, -0.4221213459968567, 0.008542485535144806, -0.20786307457122372, -0.6368560223176887, 0.7414800256555726,0.03761045839444849,0.01678466796875,-0.0659637451171875,-0.0938720703125
20220227-1538,2022-02-27 15:38:24Z,u01, 132,40,movements,el-ex, rt, d,297398.906784375, -1.4479583719858224, -0.3249851160767206, -0.24026262368031776, -0.6925804615020752, 0.6101307272911072, -1.4073221683502197, -0.9405148029327393, 0.31929469108581543, -0.1161155253648758, 0.9714291095733643, -0.36862635612487793, -0.10651041567325592, -0.19866159184343357, -0.6344098104565449, 0.7468208933710649,0.017784581583491443,0.050079345703125,-0.062530517578125,-0.228302001953125
20220227-1538,2022-02-27 15:38:24Z,u01, 133,40,movements,el-ex, rt, d,297398.93172937504, -1.4446810335825253, -0.2986995847515825, -0.2670130575039461, -0.826888918876648, 0.2868692874908447, -0.898615837097168, -0.9481294751167297, 0.2942776083946228, -0.1202116310596466, 0.7658023834228516, -0.35947850346565247, -0.07665746659040451, -0.19766693327916407, -0.633105021707915, 0.7484009998089929,-0.001256219692233329,-0.1823272705078125,-0.0652008056640625,-0.196868896484375
20220227-1538,2022-02-27 15:38:24Z,u01, 134,40,movements,el-ex, rt, d,297398.956674375, -1.4451807405511792, -0.28248912122962716, -0.28094324420965433, -0.11801721900701523, 0.0312686562538147, -0.5328922271728516, -0.9527974724769592, 0.27874696254730225, -0.12031973153352737, 0.6314780116081238, -0.09506174921989441, -0.042537443339824677, -0.19622564347058072, -0.6335105609579204, 0.7483452644179547,-0.011793085657167968,-0.294158935546875,0.130401611328125,-0.178436279296875
20220227-1538,2022-02-27 15:38:24Z,u01, 135,40,movements,el-ex, rt, d,297398.981619375, -1.4445243658105849, -0.27314263760517743, -0.2790026739786092, 0.20182394981384277, -0.04338281601667404, -0.2022630274295807, -0.9552611112594604, 0.2697589099407196, -0.1212679073214531, 0.566757321357727, 0.011002779006958008, -0.04215388000011444, -0.19222783267521557, -0.6343614959532673, 0.7486195769244138,-0.014228590821241505,-0.3885040283203125,0.28076171875,-0.163421630859375
20220227-1538,2022-02-27 15:38:24Z,u01, 136,40,movements,el-ex, rt, d,297399.006564375, -1.4456601239960671, -0.27037855690852414, -0.27398091321352896, 0.2444033920764923, -0.10978234559297562, 0.10283535718917847, -0.956134557723999, 0.26709625124931335, -0.12027550488710403, 0.3610266447067261, 0.03331872820854187, -0.008401989936828613, -0.18964102956867368, -0.6355301149001853, 0.7483078208665274,-0.013157103869351483,-0.553436279296875,0.2754364013671875,-0.151123046875
20220227-1538,2022-02-27 15:38:24Z,u01, 137,40,movements,el-ex, rt, d,297399.031509375, -1.446488240218611, -0.2729972439294262, -0.2686363867146344, 0.12518104910850525, -0.04419654607772827, 0.12110158801078796, -0.9555364847183228, 0.2696188986301422, -0.11939653754234314, 0.2350928783416748, 0.2303047776222229, 0.16416561603546143, -0.18889470529689745, -0.6360978862632883, 0.7480601099490829,-0.010210926306167212,-0.7204437255859375,0.4999237060546875,0.044769287109375
20220227-1538,2022-02-27 15:38:24Z,u01, 138,40,movements,el-ex, rt, d,297399.05645437504, -1.446168716683776, -0.27481938927997573, -0.2678154203129834, -0.24477046728134155, 0.05971314013004303, 0.08067886531352997, -0.9550091028213501, 0.27137312293052673, -0.11964056640863419, 0.2166823148727417, 0.2895704209804535, 0.14257436990737915, -0.18929165933256856, -0.6358839387728846, 0.7481530923787807,-0.009329668229282662,-0.7389373779296875,0.5517730712890625,0.0357208251953125
20220227-1538,2022-02-27 15:38:24Z,u01, 139,40,movements,el-ex, rt, d,297399.081399375, -1.445966005388928, -0.2774392768864128, -0.2758840909645287, -0.31729722023010254, 0.11108937859535217, 0.07448235899209976, -0.9542763233184814, 0.2738937437534332, -0.11974524706602097, 0.21370625495910645, 0.23706203699111938, 0.08431409299373627, -0.1928014624897259, -0.6347873444295984, 0.7481580055395562,-0.011498470397149851,-0.740570068359375,0.510955810546875,-0.035430908203125
20220227-1538,2022-02-27 15:38:24Z,u01, 140,40,movements,el-ex, rt, d,297399.106344375, -1.444682447081971, -0.2814189331885745, -0.28373309689920073, -0.282680481672287, 0.16509969532489777, 0.13884596526622772, -0.9530327320098877, 0.27771905064582825, -0.1208319365978241, 0.1306910514831543, 0.285818487405777, 0.10751082003116608, -0.1967195008289304, -0.6331551713354369, 0.748492099422231,-0.013240783415975454,-0.8151397705078125,0.5540618896484375,-0.0117340087890625
20220227-1538,2022-02-27 15:38:24Z,u01, 141,40,movements,el-ex, rt, d,297399.131289375, -1.442317267155565, -0.28373136308501806, -0.2900394348454668, -0.27242588996887207, 0.17340275645256042, -0.009779597632586956, -0.9521048665046692, 0.27993977069854736, -0.12300308793783188, 0.12069940567016602, 0.24679362773895264, 0.09803950786590576, -0.1995315203971584, -0.631415575840125, 0.7491824148652887,-0.015070304046568783,-0.8314056396484375,0.5267333984375,-0.02496337890625
20220227-1538,2022-02-27 15:38:24Z,u01, 142,40,movements,el-ex, rt, d,297399.156234375, -1.4403658956082483, -0.2844063038244104, -0.2976113797763961, -0.2698175609111786, 0.15637563169002533, 0.001728520728647709, -0.9516755938529968, 0.28058764338493347, -0.12483616918325424, 0.11389189958572388, 0.20455026626586914, 0.020359039306640625, -0.20214669792669326, -0.6298560363199561, 0.7497321887685763,-0.017880370238431975,-0.8347625732421875,0.477294921875,-0.0992584228515625
20220227-1538,2022-02-27 15:38:24Z,u01, 143,40,movements,el-ex, rt, d,297399.18117937504, -1.4386628384225963, -0.2857467370887941, -0.3027669512137519, -0.18375489115715027, 0.12032675743103027, 0.04373955354094505, -0.9510878324508667, 0.28187400102615356, -0.12640707194805145, 0.06446075439453125, 0.18087926506996155, 0.03581547737121582, -0.20423661635964074, -0.6285569757231237, 0.7502142484907427,-0.019543535807847956,-0.886627197265625,0.4627532958984375,-0.0905914306640625
20220227-1538,2022-02-27 15:38:24Z,u01, 144,40,movements,el-ex, rt, d,297399.206124375, -1.4363677906800016, -0.28722100174339, -0.3060497650351873, -0.13378974795341492, 0.1268751323223114, 0.024827048182487488, -0.9503822922706604, 0.2832881808280945, -0.12853367626667023, 0.055836021900177, 0.12993502616882324, 0.004143863916397095, -0.20577649693500424, -0.627207457218609, 0.7508963691165653,-0.020523897002856284,-0.9048919677734375,0.4200439453125,-0.115020751953125
20220227-1538,2022-02-27 15:38:24Z,u01, 145,40,movements,el-ex, rt, d,297399.231068375, -1.4350293705269592, -0.28866597846676334, -0.30969803351434183, -0.2314208447933197, 0.049054104834795, 0.061875347048044205, -0.9498029351234436, 0.28467366099357605, -0.129750058054924, 0.09125202894210815, 0.08637428283691406, -0.03365647792816162, -0.20742731377723622, -0.6261779971452497, 0.7512724406060709,-0.021555528607565544,-0.858551025390625,0.3710479736328125,-0.1634063720703125
20220227-1538,2022-02-27 15:38:24Z,u01, 146,40,movements,el-ex, rt, d,297399.256013375, -1.4360207091709563, -0.29334345180381155, -0.31510765616866615, -0.16477175056934357, 0.023507270961999893, 0.07110273838043213, -0.9486013054847717, 0.2891544699668884, -0.12862809002399445, 0.02219456434249878, 0.11985734105110168, -0.02156434953212738, -0.2108180472378413, -0.625493170185327, 0.7508878829093573,-0.0219402645614592,-0.923187255859375,0.39691162109375,-0.1518707275390625
20220227-1538,2022-02-27 15:38:24Z,u01, 147,40,movements,el-ex, rt, d,297399.280958375, -1.4364273395260867, -0.3000215360836756, -0.31578634469983263, 0.13157109916210175, -0.009263461455702782, 0.05179348587989807, -0.9467188119888306, 0.29554077982902527, -0.1279807984828949, 0.04605364799499512, 0.09743404388427734, -0.033075928688049316, -0.21343943355821615, -0.6248625493560758, 0.7507279359149928,-0.0199476749105581,-0.900665283203125,0.392974853515625,-0.1610565185546875
20220227-1538,2022-02-27 15:38:24Z,u01, 148,40,movements,el-ex, rt, d,297399.30590337503, -1.4340363570488712, -0.3104637094073279, -0.30916135737069855, 0.2648245692253113, -0.09562484920024872, 0.07711681723594666, -0.9433012008666992, 0.30550020933151245, -0.1298161894083023, 0.06943053007125854, 0.07084247469902039, -0.033636078238487244, -0.2151104420753432, -0.6235538498854727, 0.7514681235579194,-0.0142706767557913,-0.8639068603515625,0.3814849853515625,-0.16900634765625
20220227-1538,2022-02-27 15:38:24Z,u01, 149,40,movements,el-ex, rt, d,297399.33084837504, -1.4328789290354094, -0.32056615970174424, -0.3032242350376772, 0.14717410504817963, -0.05517915263772011, 0.061058755964040756, -0.9400451183319092, 0.3151039183139801, -0.1304769068956375, 0.02114582061767578, 0.08310461044311523, 0.009413495659828186, -0.21689165663058368, -0.622671307286204, 0.7517713383485991,-0.008834462758588124,-0.9188995361328125,0.3982086181640625,-0.121063232421875
20220227-1538,2022-02-27 15:38:24Z,u01, 150,40,movements,el-ex, rt, d,297399.355793375, -1.4303656873274162, -0.3346665456153687, -0.2999474290388751, -0.01178792119026184, -0.03526923060417175, 0.06724434345960617, -0.935221791267395, 0.32845422625541687, -0.13220399618148804, 0.10784459114074707, 0.028113096952438354, 0.006349325180053711, -0.2209412848041839, -0.6205505239384537, 0.7523904920118919,-0.0032342331215548525,-0.8367767333984375,0.361175537109375,-0.127197265625
20220227-1538,2022-02-27 15:38:24Z,u01, 151,40,movements,el-ex, rt, d,297399.380738375, -1.4300556427490563, -0.34133326973220207, -0.30097644111744903, -0.16514313220977783, -0.07926332205533981, 0.16401296854019165, -0.9329919219017029, 0.3347437381744385, -0.13218383491039276, 0.10714060068130493, -0.009792625904083252, 0.016445770859718323, -0.22365789876994127, -0.6195847204712681, 0.7523893182524597,-0.0014621780286915298,-0.8258514404296875,0.324951171875,-0.1157379150390625
20220227-1538,2022-02-27 15:38:24Z,u01, 152,40,movements,el-ex, rt, d,297399.405683375, -1.4326705795837804, -0.3497973235395936, -0.30573889585277103, -0.174940288066864, -0.010402095504105091, 0.20338128507137299, -0.9304945468902588, 0.34270742535591125, -0.12934890389442444, 0.04760599136352539, 0.05971258878707886, 0.07322688400745392, -0.22817163077877597, -0.6190825894713539, 0.7514480803330776,-0.00017029730472656324,-0.8876495361328125,0.4028778076171875,-0.0508880615234375
20220227-1538,2022-02-27 15:38:24Z,u01, 153,40,movements,el-ex, rt, d,297399.43062837503, -1.4330328094032443, -0.35656815197497504, -0.3072393572131199, 0.002286951057612896, 0.018623698502779007, 0.2735113799571991, -0.9282217025756836, 0.3490602970123291, -0.12869024276733398, 0.13279640674591064, 0.006377875804901123, 0.004864990711212158, -0.23106000669017177, -0.6182767587320547, 0.7512274198952347,0.001539022845453153,-0.7954254150390625,0.355438232421875,-0.1238250732421875
20220227-1538,2022-02-27 15:38:24Z,u01, 154,40,movements,el-ex, rt, d,297399.45557337505, -1.4320888254960205, -0.365904971873188, -0.3041070019259633, 0.03222540766000748, -0.04176348075270653, 0.4649457633495331, -0.9248315095901489, 0.35779449343681335, -0.1291101574897766, 0.14454299211502075, -0.03986245393753052, 0.009801521897315979, -0.2334338935777757, -0.6172143403416974, 0.7513471946134991,0.005682549263788472,-0.7647247314453125,0.3069305419921875,-0.13946533203125
20220227-1538,2022-02-27 15:38:24Z,u01, 155,40,movements,el-ex, rt, d,297399.480518375, -1.4347740049271736, -0.3784622091461315, -0.30733207396015993, -0.4364089369773865, -0.0588655024766922, 0.4591267704963684, -0.9206506013870239, 0.36949193477630615, -0.12600712478160858, 0.07064467668533325, 0.032332926988601685, 0.07353200018405914, -0.23890039171098232, -0.6163789740932621, 0.7502823807367798,0.008928297829264464,-0.850006103515625,0.401824951171875,-0.0524749755859375
20220227-1538,2022-02-27 15:38:24Z,u01, 156,40,movements,el-ex, rt, d,297399.505463375, -1.44077634998023, -0.38986499098116556, -0.32118628062651533, -0.5704396963119507, -0.02016664296388626, 0.3676668405532837, -0.9171528816223145, 0.380063533782959, -0.11992473900318146, 0.09093540906906128, 0.01877063512802124, 0.0020504072308540344, -0.24718919555141633, -0.6155770715588588, 0.7482608683835649,0.008235797616354013,-0.8495635986328125,0.39862060546875,-0.100982666015625
20220227-1538,2022-02-27 15:38:24Z,u01, 157,40,movements,el-ex, rt, d,297399.530408375, -1.4449996996766938, -0.3998775211906477, -0.33085341487961395, -0.14883947372436523, 0.02659260854125023, 0.37596631050109863, -0.9138298630714417, 0.3893055319786072, -0.11556696891784668, 0.08134114742279053, 0.06151527166366577, -0.004016317427158356, -0.2536767302668033, -0.6147069485856899, 0.7468008352614727,0.008470329527643872,-0.832489013671875,0.4508209228515625,-0.1195831298828125
20220227-1538,2022-02-27 15:38:24Z,u01, 158,40,movements,el-ex, rt, d,297399.55535337504, -1.4434817212594175, -0.4084995437797679, -0.32892764069104186, 0.10428265482187271, 0.017662493512034416, 0.3699837625026703, -0.9102900624275208, 0.3972327709197998, -0.11652348190546036, 0.09019142389297485, 0.009108692407608032, 0.012412555515766144, -0.25612546246891155, -0.6133009104032853, 0.7470749424244804,0.011856292439602678,-0.825439453125,0.4091339111328125,-0.1085662841796875
20220227-1538,2022-02-27 15:38:24Z,u01, 159,40,movements,el-ex, rt, d,297399.580298375, -1.4420752772780252, -0.41691151849884345, -0.32639400690146325, -0.054977502673864365, 0.025625215843319893, 0.3212571144104004, -0.9067793488502502, 0.4049384593963623, -0.11737055331468582, 0.0650436282157898, 0.005324602127075195, 0.0223538875579834, -0.2583159060009008, -0.6120356339166901, 0.7472935901538115,0.015409897613435308,-0.84173583984375,0.4102630615234375,-0.0950164794921875
20220227-1538,2022-02-27 15:38:24Z,u01, 160,40,movements,el-ex, rt, d,297399.605243375, -1.4420525668497186, -0.4241703511498636, -0.32867918893298553, -0.09379643946886063, 0.05408448725938797, 0.28192001581192017, -0.9038377404212952, 0.41156479716300964, -0.11701066792011261, 0.09229922294616699, -0.03883841633796692, -0.010873429477214813, -0.26156358536620317, -0.6108020594187499, 0.7471396429422412,0.016957826038185186,-0.82611083984375,0.384307861328125,-0.11822509765625
20220227-1538,2022-02-27 15:38:24Z,u01, 161,40,movements,el-ex, rt, d,297399.630188375, -1.4405203371928033, -0.43170823494977134, -0.3264376334278792, 0.23405973613262177, 0.0006926339119672775, 0.3925320506095886, -0.9005557298660278, 0.4184229075908661, -0.11798904091119766, 0.13140606880187988, -0.07941845059394836, -0.01631903648376465, -0.26353809838987496, -0.609551596311064, 0.7473893255073899,0.020090011619648462,-0.7691497802734375,0.3390045166015625,-0.134307861328125
20220227-1538,2022-02-27 15:38:24Z,u01, 162,40,movements,el-ex, rt, d,297399.655133375, -1.437848372788356, -0.44113815693839, -0.31685064531590507, 0.2223178595304489, -0.08164244890213013, 0.47304633259773254, -0.8962864875793457, 0.42696893215179443, -0.1198665052652359, 0.10580503940582275, -0.08337154984474182, 0.02025693655014038, -0.2639590915545442, -0.6085986728899608, 0.747819618637187,0.026438904170115407,-0.7680816650390625,0.3272552490234375,-0.1117706298828125
20220227-1538,2022-02-27 15:38:24Z,u01, 163,40,movements,el-ex, rt, d,297399.68007837504, -1.4373255541503898, -0.4516308748696055, -0.31265471224459773, -0.05497976765036583, 0.010650260373950005, 0.40634486079216003, -0.8917341828346252, 0.43643346428871155, -0.11973228305578232, 0.00893700122833252, -0.04023906588554382, 0.03637337684631348, -0.26637393237993723, -0.6076008456738962, 0.7475827116130473,0.031402505846608364,-0.8827972412109375,0.3961944580078125,-0.0833587646484375
20220227-1538,2022-02-27 15:38:24Z,u01, 164,40,movements,el-ex, rt, d,297399.705023375, -1.4375783224235983, -0.4606222848003641, -0.31639623535666855, -0.24654832482337952, 0.06780955195426941, 0.3146211802959442, -0.8878389596939087, 0.44450563192367554, -0.11898081749677658, 0.06174355745315552, -0.0792103111743927, 0.0024645403027534485, -0.2706556296065252, -0.6060157760891631, 0.7472622256831851,0.033005877118787164,-0.8457489013671875,0.3736572265625,-0.1055908203125
20220227-1538,2022-02-27 15:38:24Z,u01, 165,40,movements,el-ex, rt, d,297399.729968375, -1.4378281159116832, -0.46934353377553295, -0.3191924857450784, 0.02260490506887436, 0.005656033754348755, 0.3901546895503998, -0.8839925527572632, 0.45230090618133545, -0.11824057996273041, 0.08720922470092773, -0.11308279633522034, -0.013305604457855225, -0.27454609251056256, -0.6045693935599052, 0.7469296855121902,0.03487411928395712,-0.796783447265625,0.3392181396484375,-0.1315460205078125
20220227-1538,2022-02-27 15:38:25Z,u01, 166,40,movements,el-ex, rt, d,297399.75491354166, -1.4365337084444296, -0.47953453163409593, -0.3152052303699091, 0.13198049366474152, 0.011981774121522903, 0.47570735216140747, -0.8792251944541931, 0.4613662660121918, -0.11876154690980911, -0.00743257999420166, -0.05793914198875427, 0.072679802775383, -0.276923016156599, -0.6032684882122337, 0.7468713737029662,0.039546662400768984,-0.86444091796875,0.395172119140625,-0.0467071533203125
20220227-1538,2022-02-27 15:38:25Z,u01, 167,40,movements,el-ex, rt, d,297399.7798585417, -1.433853081678501, -0.48855672720564347, -0.31283564464960323, -0.13692757487297058, 0.12409066408872604, 0.2709120810031891, -0.874744176864624, 0.46935194730758667, -0.12054479122161865, -0.01188284158706665, -0.04770594835281372, 0.054336681962013245, -0.27941255502984197, -0.6013786069285126, 0.7472754053903113,0.04303087121749638,-0.886627197265625,0.4216461181640625,-0.0662078857421875
20220227-1538,2022-02-27 15:38:25Z,u01, 168,40,movements,el-ex, rt, d,297399.8048035417, -1.432677369231239, -0.4941244825927283, -0.3182010472714895, -0.18693147599697113, 0.17549766600131989, 0.16341222822666168, -0.8720000386238098, 0.4742610454559326, -0.12121149897575378, 0.04306638240814209, -0.06323504447937012, 0.014308258891105652, -0.28298936086725024, -0.599425784895365, 0.7475179225220494,0.04269236026372186,-0.830657958984375,0.4235992431640625,-0.1002349853515625
20220227-1538,2022-02-27 15:38:25Z,u01, 169,40,movements,el-ex, rt, d,297399.8297485417, -1.4278663877126498, -0.49820755652565896, -0.31827597263002333, 0.1473657190799713, 0.206721693277359, 0.1925070583820343, -0.8694828152656555, 0.4778517484664917, -0.1251283586025238, 0.05928701162338257, -0.09598538279533386, 0.040365591645240784, -0.2845384607668392, -0.5970541697323815, 0.748790450139962,0.04332302706482294,-0.8101959228515625,0.381866455078125,-0.0847625732421875
20220227-1538,2022-02-27 15:38:25Z,u01, 170,40,movements,el-ex, rt, d,297399.8546935417, -1.4195131735106725, -0.5027862171036339, -0.31244027411289416, 0.11719925701618195, 0.24364182353019714, 0.24015013873577118, -0.8662351965904236, 0.48186880350112915, -0.13205577433109283, 0.06270754337310791, -0.07502380013465881, 0.05876763164997101, -0.2845871833086298, -0.5941230931053074, 0.7509515128528542,0.045820856854023095,-0.812957763671875,0.4047698974609375,-0.07012939453125
20220227-1538,2022-02-27 15:38:25Z,u01, 171,40,movements,el-ex, rt, d,297399.87963854166, -1.4139752508237373, -0.5071330108495313, -0.3129180668466727, -0.16390934586524963, 0.21361927688121796, 0.1171254888176918, -0.8634135127067566, 0.48567309975624084, -0.13652242720127106, 0.0953626036643982, -0.11113101243972778, 0.0539417564868927, -0.28638000113772605, -0.5913757513922502, 0.7524096630364469,0.04626748266095626,-0.7680511474609375,0.374542236328125,-0.08258056640625
20220227-1538,2022-02-27 15:38:25Z,u01, 172,40,movements,el-ex, rt, d,297399.9045835417, -1.408754444706149, -0.5089472050660288, -0.3128632795886604, 0.2246718555688858, 0.20235764980316162, 0.06705120205879211, -0.8618180751800537, 0.4872581660747528, -0.14088588953018188, 0.11302369832992554, -0.09976127743721008, 0.010362043976783752, -0.2871215177406262, -0.5891674518324777, 0.753866642768538,0.04612906403228789,-0.762451171875,0.38726806640625,-0.1316375732421875
20220227-1538,2022-02-27 15:38:25Z,u01, 173,40,movements,el-ex, rt, d,297399.9295285417, -1.3994680374926445, -0.5088196953645164, -0.3037293118148645, 0.27454641461372375, 0.17533767223358154, -0.0037886835634708405, -0.8605338931083679, 0.48714679479599, -0.14889349043369293, 0.1149742603302002, -0.08919763565063477, 0.05811876058578491, -0.28460981688123765, -0.5869842448315644, 0.7563878109579212,0.04820913887562789,-0.7455596923828125,0.39794921875,-0.0907745361328125
20220227-1538,2022-02-27 15:38:25Z,u01, 174,40,movements,el-ex, rt, d,297399.9544725417, -1.3954498911866635, -0.5064764302685411, -0.30282136701891327, -0.19277481734752655, 0.1294247806072235, -0.11989371478557587, -0.8610502481460571, 0.48509904742240906, -0.15254874527454376, 0.044735729694366455, -0.09261253476142883, 0.01694376766681671, -0.28360967855506336, -0.5859105517994769, 0.7576568299280761,0.047226856108074255,-0.798248291015625,0.3907623291015625,-0.1313323974609375
20220227-1538,2022-02-27 15:38:25Z,u01, 175,40,movements,el-ex, rt, d,297399.9794175417, -1.3956680461254494, -0.5046472908832021, -0.3102127668698, -0.15463502705097198, 0.12281028181314468, -0.1109984964132309, -0.8619558215141296, 0.4834987223148346, -0.15251524746418, 0.047914862632751465, -0.06081509590148926, -0.043423041701316833, -0.2851205856791308, -0.5851911033020192, 0.7578476404795731,0.04386840616069154,-0.8140411376953125,0.4226837158203125,-0.1959381103515625
20220227-1538,2022-02-27 15:38:25Z,u01, 176,40,movements,el-ex, rt, d,297400.00436254166, -1.3928045383157879, -0.5016494148049958, -0.3095972248178633, 0.2248428612947464, 0.084120012819767, -0.09568171948194504, -0.8629382252693176, 0.48087239265441895, -0.1552387773990631, 0.04708147048950195, -0.05551847815513611, -0.05015997588634491, -0.2839398192184118, -0.5846013967461592, 0.758810537954431,0.04272939630787875,-0.8036041259765625,0.417236328125,-0.2115631103515625
20220227-1538,2022-02-27 15:38:25Z,u01, 177,40,movements,el-ex, rt, d,297400.02930754167, -1.3857445169513034, -0.49824235254619736, -0.2999120221552435, 0.42523646354675293, 0.11266224086284637, -0.07775192707777023, -0.8634262084960938, 0.4778823256492615, -0.16162775456905365, -0.0135573148727417, -0.06299588084220886, -0.013817965984344482, -0.280052033465655, -0.5837439371475754, 0.760821630622743,0.04431997086288414,-0.876983642578125,0.414886474609375,-0.175445556640625
20220227-1538,2022-02-27 15:38:25Z,u01, 178,40,movements,el-ex, rt, d,297400.0542525417, -1.3799502315158327, -0.49402919401414225, -0.2940713074580921, 0.0024679461494088173, 0.15685273706912994, -0.1078559011220932, -0.8644443154335022, 0.47417715191841125, -0.16700837016105652, -0.04139357805252075, -0.14405333995819092, 0.067429319024086, -0.2769700237941666, -0.5829094467333102, 0.7625834150032698,0.044390818983239655,-0.8927459716796875,0.339935302734375,-0.1041717529296875
20220227-1538,2022-02-27 15:38:25Z,u01, 179,40,movements,el-ex, rt, d,297400.0791975417, -1.3771209820925705, -0.4926433767789734, -0.29908391831724224, -0.28561335802078247, 0.2668021321296692, -0.05423368141055107, -0.864612340927124, 0.4729565680027008, -0.16957972943782806, -0.05204397439956665, -0.11568737030029297, 0.050164297223091125, -0.27799288474607275, -0.5813175481337947, 0.7635806770272494,0.041643839309126685,-0.916656494140625,0.357269287109375,-0.119415283203125
20220227-1538,2022-02-27 15:38:25Z,u01, 180,40,movements,el-ex, rt, d,297400.1041425417, -1.3740515856497353, -0.49254257819990477, -0.30862014526357967, -0.3062995970249176, 0.3373921513557434, -0.07218898087739944, -0.864134669303894, 0.4728677570819855, -0.17224211990833282, -0.06477463245391846, -0.027845144271850586, 0.05497811734676361, -0.28078332819265306, -0.5788261095363989, 0.7646645152374869,0.03753948640471594,-0.925933837890625,0.4311981201171875,-0.11334228515625
20220227-1538,2022-02-27 15:38:25Z,u01, 181,40,movements,el-ex, rt, d,297400.12908754166, -1.3669541298062131, -0.4897960666507848, -0.31195973138915006, 0.13330958783626556, 0.3454999029636383, -0.1848263144493103, -0.8641588687896729, 0.4704459309577942, -0.17863309383392334, -0.030372202396392822, -0.02766650915145874, 0.05544872581958771, -0.2808888287626983, -0.5760077423777494, 0.7668987076071253,0.03439136217918515,-0.89453125,0.442779541015625,-0.1231842041015625
20220227-1538,2022-02-27 15:38:25Z,u01, 182,40,movements,el-ex, rt, d,297400.1540325417, -1.3531834807563219, -0.48362136944835704, -0.3026100252193068, 0.625343918800354, 0.4350409507751465, -0.11025381088256836, -0.8644371628761292, 0.4649882912635803, -0.191139355301857, -0.0543859601020813, -0.09902149438858032, 0.05912017822265625, -0.2762084717186165, -0.5728343574660011, 0.7709770748997186,0.034117609386789205,-0.9236297607421875,0.3734283447265625,-0.113250732421875
20220227-1538,2022-02-27 15:38:25Z,u01, 183,40,movements,el-ex, rt, d,297400.1789775417, -1.33404223828781, -0.47716664137726356, -0.28645142359695575, 0.4296279549598694, 0.48870211839675903, -0.08217203617095947, -0.8635199666023254, 0.4592641592025757, -0.208349347114563, -0.007771968841552734, -0.19415801763534546, 0.007497742772102356, -0.26957528605585757, -0.5684667929263288, 0.776464571989507,0.035738967449054915,-0.8712921142578125,0.265106201171875,-0.2008514404296875
20220227-1538,2022-02-27 15:38:25Z,u01, 184,40,movements,el-ex, rt, d,297400.2039225417, -1.3215132716799518, -0.4742617481756047, -0.28408812797968347, -0.195373997092247, 0.4189169108867645, -0.0826554000377655, -0.8621311187744141, 0.4566817879676819, -0.21947994828224182, 0.018289685249328613, -0.15319982171058655, 0.04276776313781738, -0.26805421687099545, -0.5642756117554601, 0.7801145558288081,0.03407537661583515,-0.83355712890625,0.3018951416015625,-0.1894378662109375
20220227-1538,2022-02-27 15:38:25Z,u01, 185,40,movements,el-ex, rt, d,297400.2288675417, -1.3157491541841406, -0.4740709673500354, -0.2925086984551287, -0.2065037041902542, 0.3737284541130066, -0.04777112230658531, -0.8609360456466675, 0.45651206374168396, -0.2244676798582077, -0.007472038269042969, -0.09977689385414124, 0.06025242805480957, -0.2704446198843889, -0.5609152080798787, 0.7818801619933592,0.029952389473814067,-0.868408203125,0.3567352294921875,-0.164215087890625
20220227-1538,2022-02-27 15:38:25Z,u01, 186,40,movements,el-ex, rt, d,297400.25381254166, -1.305932201486222, -0.4723146884799926, -0.2915847144396778, 0.20892281830310822, 0.36635875701904297, -0.0745677798986435, -0.8594634532928467, 0.4549487829208374, -0.23311801254749298, 0.04943549633026123, -0.10802498459815979, -0.01701951026916504, -0.2696782878345706, -0.5574178075235983, 0.7846970797126769,0.028450152533652073,-0.8181304931640625,0.35906982421875,-0.244415283203125
20220227-1538,2022-02-27 15:38:25Z,u01, 187,40,movements,el-ex, rt, d,297400.2787575417, -1.2961797421640975, -0.4679485901083411, -0.2871636279214408, 0.10993262380361557, 0.2506583333015442, -0.16280117630958557, -0.8590529561042786, 0.4510563611984253, -0.24202504754066467, 0.05627286434173584, -0.10141649842262268, -0.023813724517822266, -0.2669582111058669, -0.5547258707707791, 0.7875617650073337,0.027548924150632648,-0.8027801513671875,0.349639892578125,-0.265838623046875
20220227-1538,2022-02-27 15:38:25Z,u01, 188,40,movements,el-ex, rt, d,297400.3037025417, -1.2899344249036149, -0.46429926031646324, -0.28627646640182736, 0.0708470344543457, 0.24461781978607178, -0.11062152683734894, -0.8591005206108093, 0.4477963447570801, -0.24783995747566223, -0.06436127424240112, -0.06921055912971497, 0.04358565807342529, -0.26542987915009203, -0.5528354170102139, 0.789459298833528,0.0259608752534517,-0.918182373046875,0.3802642822265625,-0.2126312255859375
20220227-1538,2022-02-27 15:38:25Z,u01, 189,40,movements,el-ex, rt, d,297400.3286475417, -1.2818867348177734, -0.4603296455092997, -0.2830899420802984, 0.2766115665435791, 0.2981436848640442, -0.15624433755874634, -0.8587751984596252, 0.444243460893631, -0.2552500367164612, -0.008976638317108154, -0.06300273537635803, 0.03463831543922424, -0.2631614068125191, -0.5505643075601616, 0.791834503091841,0.024958845452693224,-0.8677520751953125,0.3812408447265625,-0.220611572265625
20220227-1538,2022-02-27 15:38:25Z,u01, 190,40,movements,el-ex, rt, d,297400.3535925417, -1.2711424816310914, -0.45191890248156674, -0.2743196607880787, 0.47262394428253174, 0.22791160643100739, -0.2908620536327362, -0.8595229387283325, 0.43669259548187256, -0.26555562019348145, 0.05611729621887207, -0.037614256143569946, 0.0012579560279846191, -0.2577051067313227, -0.5484617237553383, 0.7950953902732868,0.024516129776657625,-0.79443359375,0.39007568359375,-0.26654052734375
20220227-1538,2022-02-27 15:38:25Z,u01, 191,40,movements,el-ex, rt, d,297400.37853754166, -1.2633331780576889, -0.44142662145967504, -0.2657078819421448, 0.3932023048400879, 0.10699257254600525, -0.27841877937316895, -0.8617425560951233, 0.42722976207733154, -0.27363136410713196, -0.03951758146286011, -0.053999871015548706, 0.005000263452529907, -0.25144682874304924, -0.5476849519958029, 0.7976514782683417,0.023823824189093956,-0.9012603759765625,0.37322998046875,-0.2686309814453125
20220227-1538,2022-02-27 15:38:25Z,u01, 192,40,movements,el-ex, rt, d,297400.4034825417, -1.2563240278968537, -0.43209089280572843, -0.25528584654522707, 0.6028627157211304, 0.10632019490003586, -0.17313703894615173, -0.8635590076446533, 0.418770432472229, -0.2808862328529358, -0.04443037509918213, -0.09307166934013367, 0.010240912437438965, -0.2451044798609217, -0.5472482811528725, 0.7999063829577236,0.024348330364747872,-0.9262237548828125,0.33306884765625,-0.2614898681640625
20220227-1538,2022-02-27 15:38:25Z,u01, 193,40,movements,el-ex, rt, d,297400.4284275417, -1.246603820322893, -0.4235137778792188, -0.23928548982170617, 0.6295526027679443, 0.1249719113111496, -0.1115248054265976, -0.8641610145568848, 0.41096630692481995, -0.29040029644966125, -0.0021718740463256836, -0.14248794317245483, -0.004170775413513184, -0.23755018538732098, -0.5462323361611534, 0.8027875331866199,0.027059608447064176,-0.8663330078125,0.2684783935546875,-0.2945709228515625
20220227-1538,2022-02-27 15:38:25Z,u01, 194,40,movements,el-ex, rt, d,297400.4533725417, -1.2422352277609208, -0.41730531517214625, -0.23184447280015325, -0.016910046339035034, -0.025740839540958405, -0.13689588010311127, -0.8652824759483337, 0.40529850125312805, -0.29499030113220215, 0.02247864007949829, -0.16543039679527283, -0.039345115423202515, -0.23317263750366024, -0.546017733124216, 0.8041933205152614,0.02771588872716768,-0.8286590576171875,0.2370452880859375,-0.349853515625
20220227-1538,2022-02-27 15:38:25Z,u01, 195,40,movements,el-ex, rt, d,297400.4783165417, -1.2466518739325878, -0.41654314918523944, -0.23806114237135523, -0.28604838252067566, -0.09237965196371078, -0.061057962477207184, -0.8668695092201233, 0.4046016037464142, -0.2912641167640686, -0.039151549339294434, -0.10584980249404907, 0.013340413570404053, -0.2345173397161579, -0.5471467426685808, 0.8031072338135539,0.025510950382314046,-0.9060211181640625,0.2987518310546875,-0.277923583984375
20220227-1538,2022-02-27 15:38:25Z,u01, 196,40,movements,el-ex, rt, d,297400.50326154166, -1.2501175263241282, -0.416691541627523, -0.24261757968475603, -0.013410352170467377, -0.012534953653812408, -0.04689427465200424, -0.867816686630249, 0.40473732352256775, -0.28823915123939514, -0.013576626777648926, -0.08430278301239014, 0.010788440704345703, -0.2357792167116847, -0.5479859308142851, 0.8022076197721939,0.024133413126162906,-0.8913421630859375,0.3140716552734375,-0.272552490234375
20220227-1538,2022-02-27 15:38:25Z,u01, 197,40,movements,el-ex, rt, d,297400.52820654167, -1.2486908357333266, -0.4141099647540233, -0.2402425577824762, 0.17168192565441132, 0.027997957542538643, -0.11377011239528656, -0.8683928847312927, 0.4023752808570862, -0.2898068130016327, 0.0426177978515625, -0.07072558999061584, -0.008289039134979248, -0.23414739736679227, -0.5479704341914651, 0.8026952920019215,0.024159385583599702,-0.825775146484375,0.3316497802734375,-0.298095703125
20220227-1538,2022-02-27 15:38:25Z,u01, 198,40,movements,el-ex, rt, d,297400.5531515417, -1.2461049153244974, -0.40919812691555896, -0.2362909809777122, 0.30924156308174133, 0.05466931685805321, -0.1357472538948059, -0.8695032000541687, 0.39787378907203674, -0.2926783859729767, -0.03735709190368652, -0.04028409719467163, 0.019576430320739746, -0.23119314066171687, -0.547914714721082, 0.8035938272421291,0.024002844993579908,-0.903594970703125,0.3423919677734375,-0.27703857421875
20220227-1538,2022-02-27 15:38:25Z,u01, 199,40,movements,el-ex, rt, d,297400.5780965417, -1.2386655056169054, -0.40131261327416706, -0.22417596056659167, 0.6988193988800049, 0.16717049479484558, -0.16937904059886932, -0.8702406883239746, 0.3906269967556, -0.3001524806022644, -0.07691800594329834, -0.010271221399307251, 0.05569124221801758, -0.22490222389151038, -0.5471222409957861, 0.8058625950051259,0.025722244253131465,-0.9471588134765625,0.3803558349609375,-0.2444610595703125
20220227-1538,2022-02-27 15:38:25Z,u01, 200,40,movements,el-ex, rt, d,297400.6030415417, -1.2272266599307131, -0.3898575816791702, -0.20878016099317814, 0.597474217414856, 0.25575941801071167, -0.2978798449039459, -0.87090665102005, 0.3800566792488098, -0.3115741014480591, -0.07214736938476562, -0.00945127010345459, -0.01864147186279297, -0.21636405579757653, -0.5453435111155672, 0.8093447806314507,0.027350145470367848,-0.953857421875,0.3696136474609375,-0.3068084716796875
20220227-1538,2022-02-27 15:38:25Z,u01, 201,40,movements,el-ex, rt, d,297400.62798654166, -1.220179726026606, -0.3779241064376941, -0.2038016761754666, 0.04875461757183075, 0.14131267368793488, -0.41815251111984253, -0.8728869557380676, 0.3689918518066406, -0.31923869252204895, -0.06261402368545532, 0.0252646803855896, -0.03671848773956299, -0.21039876549254022, -0.5441626731541258, 0.8117792905726504,0.025173668484670952,-0.9355010986328125,0.394256591796875,-0.35595703125
20220227-1538,2022-02-27 15:38:25Z,u01, 202,40,movements,el-ex, rt, d,297400.65293154167, -1.2192932855077938, -0.3685761077660839, -0.20725277367265246, 0.12490660697221756, 0.06406628340482712, -0.3499085307121277, -0.8758037686347961, 0.36028751730918884, -0.3211859166622162, -0.15765857696533203, 0.063235342502594, 0.004138678312301636, -0.2076540884522661, -0.5443223472330557, 0.812497508315921,0.020990019390786485,-1.0345916748046875,0.4084930419921875,-0.31829833984375
20220227-1538,2022-02-27 15:38:25Z,u01, 203,40,movements,el-ex, rt, d,297400.6778765417, -1.2152101973477374, -0.3568656612631536, -0.20051592316809674, 0.6395678520202637, 0.09617447853088379, -0.37977316975593567, -0.8783801794052124, 0.349339097738266, -0.3262057602405548, -0.12529700994491577, 0.06777510046958923, -0.0006223618984222412, -0.20122311567195156, -0.5444321606966971, 0.8140667914663544,0.01994828677159932,-1.0036773681640625,0.4171142578125,-0.3268280029296875
20220227-1538,2022-02-27 15:38:25Z,u01, 204,40,movements,el-ex, rt, d,297400.7028215417, -1.2071839119334142, -0.33963909947544063, -0.18610935745076213, 0.7542210221290588, 0.15968148410320282, -0.4892592430114746, -0.8812280297279358, 0.3331468403339386, -0.3353360891342163, -0.14069879055023193, 0.0735304057598114, -0.03772619366645813, -0.1905230516512943, -0.5440890758151711, 0.8168620133363245,0.020111360098681585,-1.019866943359375,0.403717041015625,-0.367950439453125
20220227-1538,2022-02-27 15:38:25Z,u01, 205,40,movements,el-ex, rt, d,297400.7277665417, -1.1997939542543974, -0.32182545278378305, -0.17479892483406287, 0.5169728994369507, 0.1353507786989212, -0.5169678926467896, -0.8841169476509094, 0.31629881262779236, -0.34393632411956787, -0.12227636575698853, 0.06927546858787537, -0.024471968412399292, -0.18038179128287687, -0.5435938280020567, 0.8195165642289827,0.018991282858547398,-1.0063934326171875,0.3855743408203125,-0.368408203125
20220227-1538,2022-02-27 15:38:25Z,u01, 206,40,movements,el-ex, rt, d,297400.75271150004, -1.1957938609123, -0.30568509619851225, -0.16922854334334791, 0.36090734601020813, 0.054564185440540314, -0.5245476365089417, -0.8873693346977234, 0.30094659328460693, -0.34929466247558594, -0.09831786155700684, 0.04497012495994568, -0.030557751655578613, -0.17240457526871428, -0.5437180567685089, 0.8212062649705272,0.016356958119252696,-0.9847259521484375,0.36053466796875,-0.37353515625
20220227-1538,2022-02-27 15:38:26Z,u01, 207,40,movements,el-ex, rt, d,297400.7776565, -1.1943741509290133, -0.29084070900418485, -0.16638515057391567, 0.29283827543258667, 0.009270209819078445, -0.4655333459377289, -0.8909292817115784, 0.2867577373981476, -0.3521576225757599, -0.07846146821975708, 0.02946537733078003, -0.05256664752960205, -0.16564688916026601, -0.5445018760526412, 0.8221339015052873,0.01321380359531893,-0.969390869140625,0.31622314453125,-0.40472412109375
20220227-1538,2022-02-27 15:38:26Z,u01, 208,40,movements,el-ex, rt, d,297400.8026015, -1.1929378550382561, -0.2775453729265582, -0.16173520313847994, 0.41399088501930237, 0.021537993103265762, -0.39824146032333374, -0.8938872814178467, 0.2739957869052887, -0.3548121750354767, -0.07008659839630127, -0.006616085767745972, -0.024429917335510254, -0.15900749197260217, -0.5452618965997102, 0.8229697036588819,0.011259808055000875,-0.9583740234375,0.2746734619140625,-0.385162353515625
20220227-1538,2022-02-27 15:38:26Z,u01, 209,40,movements,el-ex, rt, d,297400.8275465, -1.1901956534952451, -0.2641783092027187, -0.15640568303721114, 0.29105067253112793, 0.0889558494091034, -0.4506107270717621, -0.8962314128875732, 0.2611161768436432, -0.35859060287475586, -0.07708072662353516, -0.015144556760787964, -0.044470399618148804, -0.1521446201186896, -0.5454875888896615, 0.8241390793478428,0.009477317266951002,-0.9733123779296875,0.2459716796875,-0.4030609130859375
20220227-1538,2022-02-27 15:38:26Z,u01, 210,40,movements,el-ex, rt, d,297400.85249150003, -1.1871417793618, -0.2517006570532115, -0.15654215604146374, 0.1491682380437851, 0.16483862698078156, -0.4327118694782257, -0.8980838060379028, 0.24905139207839966, -0.3625173568725586, -0.10614275932312012, -0.006696075201034546, -0.016846776008605957, -0.1471181183120793, -0.5450665794458504, 0.8253643630240939,0.005686722175768488,-0.9971466064453125,0.2309417724609375,-0.3868255615234375
20220227-1538,2022-02-27 15:38:26Z,u01, 211,40,movements,el-ex, rt, d,297400.87743650004, -1.181945796903049, -0.2396863713185651, -0.15567183829101797, 0.2587006688117981, 0.22872567176818848, -0.411338746547699, -0.8988920450210571, 0.2373979687690735, -0.36828672885894775, -0.12904661893844604, -0.0013293027877807617, 0.005173206329345703, -0.14199228745931858, -0.5437782840567977, 0.8271263153410732,0.002305038929126757,-1.0279388427734375,0.2360687255859375,-0.3631134033203125
20220227-1538,2022-02-27 15:38:26Z,u01, 212,40,movements,el-ex, rt, d,297400.9023815, -1.1753752709084655, -0.2274290139677263, -0.15375684372730686, 0.19172395765781403, 0.263004869222641, -0.39818134903907776, -0.8990707993507385, 0.22547349333763123, -0.37527769804000854, -0.20522290468215942, 0.0195368230342865, -0.06301593780517578, -0.1364606381635993, -0.5419775341083412, 0.829239534603695,-0.0007782813699859226,-1.0882568359375,0.2465362548828125,-0.427276611328125
20220227-1538,2022-02-27 15:38:26Z,u01, 213,40,movements,el-ex, rt, d,297400.9273255, -1.1689277980504638, -0.21715149689884913, -0.15439915270347054, 0.09211228042840958, 0.2721776068210602, -0.36458635330200195, -0.8987178206443787, 0.21544890105724335, -0.38195282220840454, -0.2650851011276245, 0.03813686966896057, -0.07169115543365479, -0.1324082366401654, -0.5398996607471632, 0.8312385945010197,-0.004331155226303118,-1.1638031005859375,0.2535858154296875,-0.453643798828125
20220227-1538,2022-02-27 15:38:26Z,u01, 214,40,movements,el-ex, rt, d,297400.9522705, -1.1623071842544974, -0.2075610908555253, -0.15543596477598157, 0.11039897054433823, 0.27745193243026733, -0.3321014642715454, -0.8980242609977722, 0.20607395470142365, -0.3886973559856415, -0.3605661988258362, 0.10467125475406647, -0.13745638728141785, -0.12871991872367697, -0.5376639373779081, 0.8332388118973095,-0.007844036043993752,-1.246612548828125,0.3050384521484375,-0.5054168701171875
20220227-1538,2022-02-27 15:38:26Z,u01, 215,40,movements,el-ex, rt, d,297400.9772155, -1.1567130716144194, -0.1991582838958498, -0.15745668088406584, -0.035275205969810486, 0.19267752766609192, -0.3114847242832184, -0.8973895907402039, 0.19784432649612427, -0.3943977653980255, -0.44626879692077637, 0.10859790444374084, -0.19025814533233643, -0.1257675211797473, -0.5357085543849971, 0.8349071776239252,-0.011353271752677085,-1.343658447265625,0.3064422607421875,-0.58465576171875
20220227-1538,2022-02-27 15:38:26Z,u01, 216,40,movements,el-ex, rt, d,297401.00216050004, -1.1548058717250063, -0.19292482941645758, -0.1624491052853667, -0.11915279179811478, 0.053141191601753235, -0.2158476859331131, -0.8977463841438293, 0.19173027575016022, -0.3965991735458374, -0.6034284830093384, 0.1472742259502411, -0.29567694664001465, -0.12451466488764337, -0.5349733779408743, 0.8355037030682393,-0.015266787027324424,-1.48040771484375,0.332550048828125,-0.6706085205078125
20220227-1538,2022-02-27 15:38:26Z,u01, 217,40,movements,el-ex, rt, d,297401.0271055, -1.1569271092669402, -0.18770407469930836, -0.16616395295329578, -0.07301835715770721, -0.11687400937080383, -0.08672863990068436, -0.8994898200035095, 0.18660378456115723, -0.39509111642837524, -0.6851658225059509, 0.1970478892326355, -0.3427783250808716, -0.12336885838362116, -0.5359426940604256, 0.8349953241312584,-0.018118587283114884,-1.58465576171875,0.3836517333984375,-0.7378692626953125
20220227-1538,2022-02-27 15:38:26Z,u01, 218,40,movements,el-ex, rt, d,297401.0520505, -1.163399343719062, -0.18658476575743316, -0.16853840165691952, -0.1216275691986084, -0.3215813636779785, 0.08188167959451675, -0.902219295501709, 0.1855040192604065, -0.3893436789512634, -0.7816795110702515, 0.2563141882419586, -0.3355404734611511, -0.12360475400746934, -0.5385629238721833, 0.8332527433047553,-0.019017253340282814,-1.6673583984375,0.436798095703125,-0.7258148193359375
20220227-1538,2022-02-27 15:38:26Z,u01, 219,40,movements,el-ex, rt, d,297401.0769955, -1.1743309249490508, -0.19240268689060405, -0.17016029742146876, -0.17755421996116638, -0.525062620639801, 0.32086604833602905, -0.9054105281829834, 0.1912177950143814, -0.37903472781181335, -0.8193970322608948, 0.24002601206302643, -0.3652280867099762, -0.12653646375943908, -0.5426519699204383, 0.8301894747429759,-0.01739667921471255,-1.7248077392578125,0.431243896484375,-0.7442626953125
20220227-1538,2022-02-27 15:38:26Z,u01, 220,40,movements,el-ex, rt, d,297401.1019405, -1.1904580990230633, -0.20427835330857114, -0.1724856363017209, -0.3799436688423157, -0.7147517800331116, 0.49791669845581055, -0.909232497215271, 0.20286056399345398, -0.3635156750679016, -0.7961658835411072, 0.20786018669605255, -0.3612922132015228, -0.13215713416020528, -0.5484310877784031, 0.8255676066421207,-0.013993305085181595,-1.7028350830078125,0.4075927734375,-0.7369537353515625
20220227-1538,2022-02-27 15:38:26Z,u01, 221,40,movements,el-ex, rt, d,297401.12688550004, -1.2115209923143568, -0.2215018465588016, -0.17879103538642555, -0.563418447971344, -0.8534215688705444, 0.6113255023956299, -0.9132803082466125, 0.21969503164291382, -0.3430059254169464, -0.7673530578613281, 0.2027597427368164, -0.3170284032821655, -0.14101760468642832, -0.5555277419122562, 0.8193885316142255,-0.010261766036637754,-1.680633544921875,0.422454833984375,-0.6600341796875
20220227-1538,2022-02-27 15:38:26Z,u01, 222,40,movements,el-ex, rt, d,297401.1518305, -1.2356750122101112, -0.24162995244476623, -0.18780766008193311, -0.5988935828208923, -0.9229907393455505, 0.6598909497261047, -0.9169356822967529, 0.23928554356098175, -0.3193294107913971, -0.7230788469314575, 0.18136873841285706, -0.23464107513427734, -0.15172825830862974, -0.5633061650127404, 0.8121724505329153,-0.006367299438060858,-1.6463775634765625,0.4269866943359375,-0.5797576904296875
20220227-1538,2022-02-27 15:38:26Z,u01, 223,40,movements,el-ex, rt, d,297401.1767755, -1.260578532450372, -0.2611659853469365, -0.19377542322521057, -0.3200168013572693, -0.9620070457458496, 0.6823886036872864, -0.919975221157074, 0.25820717215538025, -0.2949143052101135, -0.6817244291305542, 0.1782551407814026, -0.2201462686061859, -0.16122832586021077, -0.5714440263814771, 0.8046463711995989,-0.0010993213512864863,-1.6016998291015625,0.43646240234375,-0.5150604248046875
20220227-1538,2022-02-27 15:38:26Z,u01, 224,40,movements,el-ex, rt, d,297401.2017205, -1.285009011279918, -0.2790892600227478, -0.1913312822813642, 0.07317420840263367, -1.048161268234253, 0.7558746337890625, -0.9223160147666931, 0.2754802703857422, -0.27100473642349243, -0.6003278493881226, 0.11795228719711304, -0.180182546377182, -0.1675270285053434, -0.5800278616738774, 0.7971510945471079,0.007233750947011397,-1.5273895263671875,0.4100799560546875,-0.46832275390625
20220227-1538,2022-02-27 15:38:26Z,u01, 225,40,movements,el-ex, rt, d,297401.2266655, -1.308776950311784, -0.296764465571713, -0.1801160789013156, 0.34138208627700806, -1.1039379835128784, 0.827212393283844, -0.9236483573913574, 0.2924276292324066, -0.24770861864089966, -0.5170863270759583, 0.05017790198326111, -0.14473234117031097, -0.17096300562419245, -0.5889968922612997, 0.7896146824160699,0.019047504846045615,-1.44073486328125,0.3426055908203125,-0.3924407958984375
20220227-1538,2022-02-27 15:38:26Z,u01, 226,40,movements,el-ex, rt, d,297401.25161050004, -1.3313364262506597, -0.3149247314252453, -0.16357356243752993, 0.5073448419570923, -1.080260992050171, 0.907618522644043, -0.923689067363739, 0.3097448945045471, -0.22551344335079193, -0.35959017276763916, -0.057044148445129395, -0.10320678353309631, -0.17275121957860237, -0.5978296519930891, 0.782089123457097,0.033062265594553275,-1.306488037109375,0.268585205078125,-0.3451080322265625
20220227-1538,2022-02-27 15:38:26Z,u01, 227,40,movements,el-ex, rt, d,297401.2765555, -1.3508893959533144, -0.33468688956615733, -0.1434827430712316, 0.5740418434143066, -0.9897674918174744, 0.9709435105323792, -0.9217671155929565, 0.32847344875335693, -0.20603494346141815, -0.2722940444946289, -0.1491522192955017, -0.05576026439666748, -0.17384797030686427, -0.6056066459717209, 0.7750123452369667,0.04871545174500713,-1.194061279296875,0.1793212890625,-0.2617950439453125
20220227-1538,2022-02-27 15:38:26Z,u01, 228,40,movements,el-ex, rt, d,297401.3014995, -1.367141042283225, -0.3558438331178832, -0.12400230593663839, 0.4648197293281555, -0.8371571898460388, 0.9965053200721741, -0.9179811477661133, 0.3483814597129822, -0.18957996368408203, -0.17906451225280762, -0.24610188603401184, 0.0028122365474700928, -0.17547151422859888, -0.6118984934471781, 0.7685425845565066,0.06428092017734477,-1.1195526123046875,0.1022491455078125,-0.200408935546875
20220227-1538,2022-02-27 15:38:26Z,u01, 229,40,movements,el-ex, rt, d,297401.3264445, -1.3798824386971207, -0.3780991890123939, -0.1076848823892865, 0.4170812666416168, -0.6436784863471985, 0.9936498999595642, -0.9124823808670044, 0.36915457248687744, -0.1763533651828766, -0.10674351453781128, -0.273848295211792, 0.09143806993961334, -0.1783772239791116, -0.6164453613319657, 0.7628809138807724,0.07867155083377575,-1.01922607421875,0.095306396484375,-0.0849151611328125
20220227-1538,2022-02-27 15:38:26Z,u01, 230,40,movements,el-ex, rt, d,297401.3513895, -1.3859313228623176, -0.39937891507164414, -0.0897289561950241, 0.6535807251930237, -0.3878757953643799, 0.9037149548530579, -0.9056045413017273, 0.388846218585968, -0.16934815049171448, -0.054310500621795654, -0.2779606282711029, 0.22878098487854004, -0.18054094086422312, -0.6186524796484753, 0.758990849155901,0.09277289745360784,-0.9670257568359375,0.107666015625,0.052520751953125
20220227-1538,2022-02-27 15:38:26Z,u01, 231,40,movements,el-ex, rt, d,297401.37633450003, -1.3828684843790082, -0.41419328141153106, -0.0653640452952809, 0.8032709360122681, -0.15709446370601654, 0.5980097055435181, -0.8993234038352966, 0.4024515450000763, -0.17102603614330292, -0.0009908080101013184, -0.34925949573516846, 0.18378221988677979, -0.17870124569467963, -0.6185085688561244, 0.7577533723551508,0.10640807695469556,-0.9003143310546875,0.053192138671875,0.01275634765625
20220227-1538,2022-02-27 15:38:26Z,u01, 232,40,movements,el-ex, rt, d,297401.40127950005, -1.3750224903122468, -0.42237977290795004, -0.04198026316865615, 0.7270897030830383, 0.0031015295535326004, 0.3774828314781189, -0.894692063331604, 0.4099322259426117, -0.1774299293756485, 0.03794175386428833, -0.29109689593315125, 0.24134887754917145, -0.17499094304345175, -0.6169790987452635, 0.7582828016124668,0.11714091765134083,-0.8551025390625,0.1033782958984375,0.0461883544921875
20220227-1538,2022-02-27 15:38:26Z,u01, 233,40,movements,el-ex, rt, d,297401.4262245, -1.3662014363235289, -0.4256307169987309, -0.023128899165445267, 0.5331366658210754, 0.05052516981959343, 0.12953022122383118, -0.8917827010154724, 0.4128953218460083, -0.1850433349609375, 0.04076957702636719, -0.30640432238578796, 0.2529905438423157, -0.1709442509302134, -0.6150255263588338, 0.7596124081032166,0.1245416267640519,-0.85101318359375,0.1064910888671875,0.0679473876953125
20220227-1538,2022-02-27 15:38:26Z,u01, 234,40,movements,el-ex, rt, d,297401.4511695, -1.360674807169936, -0.4222785717538054, -0.013360009481744282, 0.2409183233976364, 0.08683903515338898, -0.23403434455394745, -0.8920950293540955, 0.409839928150177, -0.19025665521621704, 0.14102703332901, -0.3417094945907593, 0.18462598323822021, -0.16701968101351733, -0.6139837940923989, 0.7609611587912357,0.12675330594382134,-0.7641143798828125,0.074005126953125,0.002197265625
20220227-1538,2022-02-27 15:38:26Z,u01, 235,40,movements,el-ex, rt, d,297401.4761145, -1.3559814017254677, -0.4108513695895791, -0.012724366174029052, 0.052246253937482834, 0.26279109716415405, -0.6259118914604187, -0.8957096934318542, 0.39938998222351074, -0.19542711973190308, 0.13141226768493652, -0.31799960136413574, 0.15651699900627136, -0.16277312765657692, -0.6130182268545163, 0.7632575610773469,0.12309124325125587,-0.7642974853515625,0.081390380859375,-0.038909912109375
20220227-1538,2022-02-27 15:38:26Z,u01, 236,40,movements,el-ex, rt, d,297401.50105950003, -1.3523445479012501, -0.390053364124034, -0.02112642906942722, -0.4101705253124237, 0.2783205211162567, -1.1245269775390625, -0.9029079079627991, 0.38023775815963745, -0.2004404515028, 0.4481198191642761, -0.3048136532306671, 0.18141259253025055, -0.15762996643108448, -0.6123173775667434, 0.7664257937906682,0.11318838263266645,-0.49957275390625,0.0875244140625,-0.0238189697265625
20220227-1538,2022-02-27 15:38:26Z,u01, 237,40,movements,el-ex, rt, d,297401.52600450005, -1.3548573958775203, -0.36104869167411624, -0.047378604417814704, -0.9413511753082275, 0.3101556897163391, -1.5576049089431763, -0.9137998223304749, 0.3532555103302002, -0.20045031607151031, 0.6269499659538269, -0.27165159583091736, 0.11025549471378326, -0.15446580293221476, -0.613119200715903, 0.7689754872708718,0.09434925077084039,-0.2868499755859375,0.08160400390625,-0.0901947021484375
20220227-1538,2022-02-27 15:38:26Z,u01, 238,40,movements,el-ex, rt, d,297401.5509495, -1.357112722883544, -0.3250897194342037, -0.08076003060583084, -0.7627987861633301, 0.4019767940044403, -1.6890450716018677, -0.9260696768760681, 0.3193938136100769, -0.20095381140708923, 0.8600144386291504, -0.21439814567565918, -0.048252880573272705, -0.1508831411054393, -0.6138056456449297, 0.7716924647049895,0.07048081244320303,-0.0991363525390625,0.1080322265625,-0.215179443359375
20220227-1538,2022-02-27 15:38:26Z,u01, 239,40,movements,el-ex, rt, d,297401.5758945, -1.3546688631569284, -0.2879924801722059, -0.10314542951173672, -0.36668771505355835, 0.317883163690567, -1.567112922668457, -0.9365091919898987, 0.28402796387672424, -0.20561690628528595, 0.9184888005256653, -0.264740914106369, -0.06641694903373718, -0.14364532909636704, -0.6136428679192315, 0.7747917555283865,0.05005967347450169,-0.0180206298828125,0.019287109375,-0.27203369140625
20220227-1538,2022-02-27 15:38:26Z,u01, 240,40,movements,el-ex, rt, d,297401.6008395, -1.3550541065293067, -0.25427244286968925, -0.12146180504532769, -0.49953147768974304, 0.0313100628554821, -1.3109127283096313, -0.9454095363616943, 0.2515413165092468, -0.20718929171562195, 0.8045253753662109, -0.347793847322464, -0.021311193704605103, -0.1363461067391185, -0.6146666512202221, 0.7762362324291916,0.03243037109788921,-0.13592529296875,-0.1118011474609375,-0.2199554443359375
20220227-1538,2022-02-27 15:38:26Z,u01, 241,40,movements,el-ex, rt, d,297401.62578450004, -1.3634980065184836, -0.23199804488857761, -0.1463757334070605, -0.930321216583252, -0.18487808108329773, -0.7705897688865662, -0.9523730874061584, 0.22992250323295593, -0.20030276477336884, 0.733729898929596, -0.12738344073295593, -0.016875773668289185, -0.13539618664073058, -0.6176702100805398, 0.7745220081471249,0.016341927509412046,-0.2186431884765625,0.1025390625,-0.2171783447265625
20220227-1538,2022-02-27 15:38:26Z,u01, 242,40,movements,el-ex, rt, d,297401.6507295, -1.3738467085436554, -0.22179397018356586, -0.1706161249453626, -0.7333706617355347, -0.19426299631595612, -0.40056025981903076, -0.9566458463668823, 0.21998000144958496, -0.190885528922081, 0.5869103074073792, -0.022134587168693542, -0.030382320284843445, -0.1389603871722259, -0.6206828846758623, 0.7716364401616163,0.00445171364892577,-0.3597259521484375,0.1797943115234375,-0.2275238037109375
20220227-1538,2022-02-27 15:38:26Z,u01, 243,40,movements,el-ex, rt, d,297401.6756735, -1.3817553411107288, -0.2165071981280287, -0.18867276337042743, -0.7270212769508362, -0.09432841837406158, -0.32501357793807983, -0.9592544436454773, 0.21481968462467194, -0.18352986872196198, 0.5074875950813293, 0.01506921648979187, 0.05601203441619873, -0.14256853244521991, -0.6228236319401513, 0.7692539592182874,-0.003631151295506674,-0.4517669677734375,0.229888916015625,-0.1275177001953125
20220227-1538,2022-02-27 15:38:26Z,u01, 244,40,movements,el-ex, rt, d,297401.7006185, -1.3938535424826086, -0.21044969002222721, -0.2256307056493811, -2.228515386581421, -0.18389631807804108, -0.18985968828201294, -0.9626680016517639, 0.20889969170093536, -0.17213737964630127, 0.4232546091079712, 0.034569501876831055, 0.16485881805419922, -0.15188650567777626, -0.6251894103183135, 0.7653188493039665,-0.01886110162251753,-0.5141754150390625,0.2144622802734375,-0.0106964111328125
20220227-1538,2022-02-27 15:38:26Z,u01, 245,40,movements,el-ex, rt, d,297401.7255635, -1.4134162950567593, -0.22260120014667273, -0.2948339063049885, -2.9337079524993896, -0.14417314529418945, 0.33691704273223877, -0.963272750377655, 0.22076739370822906, -0.15286405384540558, 0.3088996410369873, 0.18154579401016235, 0.12315499782562256, -0.1783400091647335, -0.6259095907103847, 0.7581938833377567,-0.03967443735775167,-0.6543731689453125,0.402313232421875,-0.0297088623046875
20220227-1538,2022-02-27 15:38:26Z,u01, 246,40,movements,el-ex, rt, d,297401.7505086667, -1.4273660804959434, -0.2394310607989885, -0.35072855989935076, -1.468457818031311, 0.04407339543104172, 0.30584481358528137, -0.96149742603302, 0.23714995384216309, -0.13886134326457977, 0.15351414680480957, 0.3175070285797119, 0.05956125259399414, -0.2022914614135572, -0.6242175030116759, 0.7526742834388911,-0.053962925960138186,-0.7978515625,0.5364990234375,-0.066009521484375
20220227-1538,2022-02-27 15:38:27Z,u01, 247,40,movements,el-ex, rt, d,297401.7754536667, -1.4319059707721498, -0.24845590119547326, -0.377623671221138, -1.0082343816757202, 0.09590263664722443, 0.1567814201116562, -0.959959089756012, 0.24590757489204407, -0.1341930478811264, 0.1256849765777588, 0.35707396268844604, 0.01932479441165924, -0.21406353374438022, -0.6221577590458591, 0.750612852133971,-0.060635835288393725,-0.8342742919921875,0.6029815673828125,-0.1148681640625
20220227-1538,2022-02-27 15:38:27Z,u01, 248,40,movements,el-ex, rt, d,297401.8003986667, -1.4362954952529534, -0.25438573060295816, -0.4056767892126039, -1.0546685457229614, 0.14531472325325012, 0.04317476227879524, -0.9590770602226257, 0.25165095925331116, -0.12978020310401917, 0.023820161819458008, 0.28672489523887634, 0.13309121131896973, -0.2250448989763658, -0.620052169288551, 0.7484437514978901,-0.06871675157217533,-0.914642333984375,0.5464019775390625,-0.01251220703125
20220227-1538,2022-02-27 15:38:27Z,u01, 249,40,movements,el-ex, rt, d,297401.82534366666, -1.4358027669116007, -0.2560180290015515, -0.4217675811335865, -0.21732106804847717, 0.21863102912902832, -0.06805109232664108, -0.958604633808136, 0.25323039293289185, -0.13019728660583496, 0.05000489950180054, 0.26582780480384827, 0.0856110006570816, -0.23058962607395847, -0.6178428454433413, 0.7480538906082419,-0.07425557118789766,-0.908599853515625,0.5190582275390625,-0.044586181640625
