SessionID,LoggingTime,UID,RecNo,Hertz,Activity,MoveType,Wrist,Side,TimeStamp,DMRoll,DMPitch,DMYaw,DMRotX,DMRotY,DMRotZ,DMGrvX,DMGrvY,DMGrvZ,DMUAccelX,DMUAccelY,DMUAccelZ,DMQuatX,DMQuatY,DMQuatW,DMQuatZ,AccelroX,AceelroY,AceelroZ
20220113-1758,2022-01-13 17:58:54Z,u01, 1,40,movements,el-ex, rt, d,115652.95927166667, 3.061632391150896, -1.04147182374644, 3.0957158775958655, 0.02974029630422592, 0.08974754810333252, 0.10044694691896439, 0.04033292457461357, 0.8631483316421509, 0.5033366084098816, -0.05400482565164566, 0.09574425220489502, 0.021184086799621582, -0.8669880683486787, 0.0, 0.4977856047753516,0.02326036803791262,-0.0189666748046875,0.944183349609375,0.5260467529296875
20220113-1758,2022-01-13 17:58:54Z,u01, 2,40,movements,el-ex, rt, d,115652.98421766667, 3.0624196124408116, -1.0472084071774157, 3.0932560894811147, 0.44440269470214844, 0.0937853753566742, -0.0167218167334795, 0.03954442963004112, 0.8660308122634888, 0.49842432141304016, -0.013680785894393921, 0.13795173168182373, 0.009372711181640625, -0.8655696891847176, 0.0011293484404045762, 0.5002953335780717,0.02219024964435748,0.029815673828125,1.006439208984375,0.506622314453125
20220113-1758,2022-01-13 17:58:54Z,u01, 3,40,movements,el-ex, rt, d,115653.00916366668, 3.065780464390745, -1.0620879362029871, 3.095495532293739, 0.6885396242141724, -0.027131926268339157, -0.1271662414073944, 0.03688891604542732, 0.873374342918396, 0.48565033078193665, 0.03487315773963928, 0.073616623878479, -0.0010466575622558594, -0.8618727976880334, 0.0006710140844969903, 0.5066887519500379,0.021005956382519564,0.0692901611328125,0.9564208984375,0.4814605712890625
20220113-1758,2022-01-13 17:58:54Z,u01, 4,40,movements,el-ex, rt, d,115653.03410966667, 3.0672989297502684, -1.0772364067147076, 3.1007864424221734, 0.4291626513004303, -0.2307974398136139, -0.1289265900850296, 0.03516530245542526, 0.8806518912315369, 0.47245684266090393, 0.03859567269682884, -0.02638864517211914, 0.02912995219230652, -0.8580361517847969, -0.0015450479926438776, 0.5131402110348788,0.0214157375232234,0.0731048583984375,0.8477783203125,0.5042266845703125
20220113-1758,2022-01-13 17:58:54Z,u01, 5,40,movements,el-ex, rt, d,115653.05905566667, 3.063601636279951, -1.0807759035423523, 3.10479224077215, -0.17436583340168, -0.3335011899471283, -0.02558474987745285, 0.03666875511407852, 0.8823232650756836, 0.46921274065971375, -0.01919744163751602, -0.15951460599899292, 0.09278348088264465, -0.8570810821885346, -0.004288033599524843, 0.5146057524913724,0.02396625614839548,0.02593994140625,0.7338409423828125,0.5573883056640625
20220113-1758,2022-01-13 17:58:55Z,u01, 6,40,movements,el-ex, rt, d,115653.08400166668, 3.059006186895222, -1.069651333488826, 3.1068590767492434, -0.6588461995124817, -0.745627224445343, 0.40344515442848206, 0.039631932973861694, 0.8770330548286438, 0.47879260778427124, 0.1246136724948883, -0.17601370811462402, 0.06586986780166626, -0.8598598576672507, -0.006109478737341356, 0.509796560082321,0.026667785341245226,0.327362060546875,0.689483642578125,0.508941650390625
20220113-1758,2022-01-13 17:58:55Z,u01, 7,40,movements,el-ex, rt, d,115653.10894766667, 3.053712141945067, -1.0518073254811922, 3.1059708199604614, -0.6500078439712524, -0.0767127275466919, 0.0779489055275917, 0.04353285953402519, 0.8683210611343384, 0.4940883219242096, -0.0827784538269043, -0.0024306178092956543, 0.029684782028198242, -0.8642915120193062, -0.006658727089468186, 0.502107312119098,0.029052495457351113,-0.0212860107421875,0.842926025390625,0.5302276611328125
20220113-1758,2022-01-13 17:58:55Z,u01, 8,40,movements,el-ex, rt, d,115653.13389366667, 3.0529736226948594, -1.0418030590440963, 3.105130206241815, -0.08674244582653046, 0.044216953217983246, 0.030560411512851715, 0.044664327055215836, 0.8633155822753906, 0.502683699131012, -0.062440816313028336, 0.07685458660125732, -0.038389503955841064, -0.8667772967246656, -0.006243463893464474, 0.4977916928862183,0.0293502242646852,-0.0150146484375,0.942779541015625,0.4626922607421875
20220113-1758,2022-01-13 17:58:55Z,u01, 9,40,movements,el-ex, rt, d,115653.15883966668, 3.054011649520499, -1.046413264023576, 3.104301312236226, 0.3736560046672821, 0.05325612425804138, 0.01244758628308773, 0.04379391297698021, 0.8656330108642578, 0.49875977635383606, 0.0007770024240016937, 0.04426378011703491, -0.04668787121772766, -0.8656483160247737, -0.005734725121520179, 0.4998016381885083,0.02860651502108305,0.0374603271484375,0.9266357421875,0.4471435546875
20220113-1758,2022-01-13 17:58:55Z,u01, 10,40,movements,el-ex, rt, d,115653.18378566667, 3.052693429096761, -1.0536755421714605, 3.102090979877934, 0.16170412302017212, -0.011872946284711361, 0.05455389618873596, 0.04389207810163498, 0.8692461848258972, 0.49242714047431946, 0.005378548055887222, -0.05532705783843994, 0.011997759342193604, -0.8638203872617621, -0.005282978211724576, 0.502966403916236,0.02848184722168723,0.0479736328125,0.808624267578125,0.5083160400390625
20220113-1758,2022-01-13 17:58:55Z,u01, 11,40,movements,el-ex, rt, d,115653.20873166667, 3.0487783999678544, -1.0531436142862565, 3.0973633773211775, -0.16344188153743744, 0.02144000492990017, 0.13865412771701813, 0.04586244747042656, 0.8689830899238586, 0.4927118122577667, -0.05800845846533775, -0.08278918266296387, 0.08347517251968384, -0.8639086532754185, -0.004212135764406266, 0.5027955461539343,0.02899504136664305,-0.005462646484375,0.7750091552734375,0.5703582763671875
20220113-1758,2022-01-13 17:58:55Z,u01, 12,40,movements,el-ex, rt, d,115653.23367766668, 3.0452406191910746, -1.0478201037385448, 3.0914250378307675, -0.1748030185699463, 0.10733713209629059, 0.1557048112154007, 0.048049621284008026, 0.8663365244865417, 0.49714401364326477, -0.08438077569007874, -0.018909215927124023, 0.07325994968414307, -0.8651972481809314, -0.002392260280995484, 0.5005777787532792,0.02915210716056682,-0.0373992919921875,0.8510284423828125,0.567535400390625
20220113-1758,2022-01-13 17:58:55Z,u01, 13,40,movements,el-ex, rt, d,115653.25862366667, 3.0437092858148542, -1.045093818941832, 3.085360802526063, 0.03576117008924484, 0.16986609995365143, 0.12301483750343323, 0.0490415059030056, 0.8649716377258301, 0.4994186460971832, -0.0797116756439209, 0.06470060348510742, 0.006425261497497559, -0.8658575626505232, -7.534578387413671e-05, 0.49948593468959757,0.028363078749997578,-0.03265380859375,0.9238739013671875,0.5129241943359375
20220113-1758,2022-01-13 17:58:55Z,u01, 14,40,movements,el-ex, rt, d,115653.28356966667, 3.043903653069993, -1.0483817518119296, 3.080408562076944, 0.25543802976608276, 0.17011170089244843, 0.0688512772321701, 0.04866676405072212, 0.8666169047355652, 0.4965948164463043, -0.06999856978654861, 0.07239359617233276, -0.02024608850479126, -0.8650394923850173, 0.0020225717246981634, 0.5009747850548693,0.026958449772502058,-0.020782470703125,0.9376678466796875,0.4757232666015625
20220113-1758,2022-01-13 17:58:55Z,u01, 15,40,movements,el-ex, rt, d,115653.30851566668, 3.046166607556371, -1.0539304057334973, 3.0775254961405802, 0.2612399458885193, 0.18186382949352264, 0.07100138068199158, 0.04708398878574371, 0.8693721890449524, 0.49190956354141235, -0.07445827126502991, 0.03381079435348511, 0.02200627326965332, -0.8636789120398811, 0.003677504925855557, 0.5034028738981564,0.025114343111272197,-0.026519775390625,0.9087371826171875,0.5055694580078125
20220113-1758,2022-01-13 17:58:55Z,u01, 16,40,movements,el-ex, rt, d,115653.33346066668, 3.0478772542572923, -1.0585186665409185, 3.073980293649133, 0.12832888960838318, 0.17181280255317688, 0.08368228375911713, 0.04586867615580559, 0.8716303706169128, 0.48801282048225403, -0.08696058392524719, 0.016705811023712158, 0.04398465156555176, -0.862540482058052, 0.005507268669328436, 0.5054184036191743,0.02336222372707039,-0.0431060791015625,0.886871337890625,0.5322418212890625
20220113-1758,2022-01-13 17:58:55Z,u01, 17,40,movements,el-ex, rt, d,115653.35840666668, 3.0512435580416875, -1.0599854124899364, 3.071574413161129, -0.022389117628335953, 0.23571401834487915, 0.07547255605459213, 0.04411018267273903, 0.8723483681678772, 0.4868902564048767, -0.14092719554901123, 0.018123865127563477, 0.0628531277179718, -0.8622012819330998, 0.0073540531230466, 0.5060657619154032,0.021263546838340863,-0.0900115966796875,0.8878936767578125,0.546966552734375
20220113-1758,2022-01-13 17:58:55Z,u01, 18,40,movements,el-ex, rt, d,115653.38335291667, 3.056139382474438, -1.0576264291823418, 3.0686903988224183, -0.1517738401889801, 0.3395281136035919, 0.05769602954387665, 0.04190147668123245, 0.8711926341056824, 0.4891496002674103, -0.15985190868377686, 0.028511226177215576, 0.06807062029838562, -0.862830669251472, 0.009901344374463661, 0.5050577999940192,0.018485650608633192,-0.118438720703125,0.8995361328125,0.5551910400390625
20220113-1758,2022-01-13 17:58:55Z,u01, 19,40,movements,el-ex, rt, d,115653.40829891668, 3.064439114178689, -1.0526214277846548, 3.06792755150761, -0.19591011106967926, 0.36830148100852966, 0.01681550405919552, 0.03817589208483696, 0.8687245845794678, 0.4938219487667084, -0.18070825934410095, 0.03631997108459473, 0.04243278503417969, -0.8641503497895549, 0.012456003569719265, 0.5028605808685327,0.014840371869050767,-0.13751220703125,0.9082794189453125,0.534149169921875
20220113-1758,2022-01-13 17:58:55Z,u01, 20,40,movements,el-ex, rt, d,115653.43324491667, 3.076139432238026, -1.046635587813011, 3.069879743708226, -0.3055763840675354, 0.4331524670124054, -0.06201399862766266, 0.03273504599928856, 0.8657442927360535, 0.49941450357437134, -0.21028628945350647, 0.03951376676559448, 0.06728145480155945, -0.8657317010293615, 0.014692434301087687, 0.5001840615567426,0.010417317903865908,-0.1789093017578125,0.90447998046875,0.5676116943359375
20220113-1758,2022-01-13 17:58:55Z,u01, 21,40,movements,el-ex, rt, d,115653.45819091667, 3.093671683844441, -1.0371915231366298, 3.0764762596150326, -0.48270484805107117, 0.4907248318195343, -0.1419041007757187, 0.024365203455090523, 0.8609791398048401, 0.5080562829971313, -0.20332029461860657, 0.027647018432617188, 0.07917815446853638, -0.8681931381210426, 0.01639535467559311, 0.4959335121696219,0.004666698387286422,-0.1836090087890625,0.8903961181640625,0.5852203369140625
20220113-1758,2022-01-13 17:58:55Z,u01, 22,40,movements,el-ex, rt, d,115653.48313691668, 3.1115104670096567, -1.0211487669512032, 3.083585753842978, -0.8096259832382202, 0.44681328535079956, -0.11863266676664352, 0.015712160617113113, 0.8527086973190308, 0.5221502184867859, -0.17669236660003662, -0.013475298881530762, 0.08200609683990479, -0.8722114804131526, 0.017951161718648023, 0.4887982444636356,-0.0010529742650057516,-0.1616058349609375,0.83636474609375,0.607452392578125
20220113-1758,2022-01-13 17:58:55Z,u01, 23,40,movements,el-ex, rt, d,115653.50808291667, 3.1301270643623433, -0.9973589936727991, 3.091612725170528, -1.0747748613357544, 0.5024067163467407, -0.1533733308315277, 0.0062202028930187225, 0.8400411009788513, 0.5424867868423462, -0.20989450812339783, -0.003493368625640869, 0.11039084196090698, -0.8779946662467843, 0.019202976009806083, 0.4782349331741109,-0.006917390989288091,-0.2035369873046875,0.8397064208984375,0.6590423583984375
20220113-1758,2022-01-13 17:58:55Z,u01, 24,40,movements,el-ex, rt, d,115653.53302891667, -3.135056955924064, -0.9679563282087508, 3.098323798745073, -1.317046046257019, 0.48892322182655334, -0.14163538813591003, -0.003705608658492565, 0.8237286806106567, 0.5669717788696289, -0.17169415950775146, -0.01734757423400879, 0.10415536165237427, -0.8849060392426888, 0.02066831606106767, 0.4651302198095655,-0.012957604823074481,-0.173248291015625,0.805267333984375,0.673492431640625
20220113-1758,2022-01-13 17:58:55Z,u01, 25,40,movements,el-ex, rt, d,115653.55797491668, -3.11913013195466, -0.9317641310517337, 3.103765190265499, -1.5568666458129883, 0.4305129945278168, -0.13790610432624817, -0.013395942747592926, 0.80267333984375, 0.5962682962417603, -0.11665469408035278, -0.040374755859375, 0.0928642749786377, -0.8931140896841365, 0.021940135892196178, 0.4489126125033722,-0.018527504148780655,-0.1310882568359375,0.7701568603515625,0.6868896484375
20220113-1758,2022-01-13 17:58:55Z,u01, 26,40,movements,el-ex, rt, d,115653.58292091667, -3.1043655822214973, -0.889148377160651, 3.1082356912164544, -1.846604347229004, 0.48115912079811096, -0.17353147268295288, -0.02345036342740059, 0.7765354514122009, 0.6296367049217224, -0.10074090957641602, -0.02453666925430298, 0.12281978130340576, -0.9023783516109201, 0.023057531635633177, 0.429659000572725,-0.023972270288830533,-0.1218109130859375,0.750885009765625,0.7545623779296875
20220113-1758,2022-01-13 17:58:55Z,u01, 27,40,movements,el-ex, rt, d,115653.60786691667, -3.089464863703146, -0.8408535140478439, 3.1106789049854693, -1.9703608751296997, 0.5307920575141907, -0.10726016759872437, -0.03474444895982742, 0.7452125549316406, 0.6659206748008728, 0.02980063110589981, -0.02466219663619995, 0.10470885038375854, -0.9123312100899716, 0.024740952998675625, 0.40759505779667315,-0.030094898855860308,-0.0224151611328125,0.719390869140625,0.773406982421875
20220113-1758,2022-01-13 17:58:55Z,u01, 28,40,movements,el-ex, rt, d,115653.63281291668, -3.0763204295763726, -0.7922700697455894, 3.111043042287975, -1.950402021408081, 0.5309728384017944, -0.17885160446166992, -0.04580361768603325, 0.7119492292404175, 0.7007352709770203, 0.09852272272109985, 0.007243216037750244, 0.08834224939346313, -0.9217679760916035, 0.026672977931664843, 0.38514533795594497,-0.03599038262573964,0.054473876953125,0.7218475341796875,0.7961883544921875
20220113-1758,2022-01-13 17:58:55Z,u01, 29,40,movements,el-ex, rt, d,115653.65775891667, -3.062731223128101, -0.743684586971354, 3.1121311782066936, -1.9203542470932007, 0.4763038754463196, -0.14504316449165344, -0.05798022076487541, 0.6770042777061462, 0.7336916923522949, 0.21299424767494202, 0.025174736976623535, 0.017177879810333252, -0.9306234165374808, 0.02803406113089174, 0.36246964411100313,-0.042070301214024025,0.14630126953125,0.715118408203125,0.7634124755859375
20220113-1758,2022-01-13 17:58:55Z,u01, 30,40,movements,el-ex, rt, d,115653.68270491667, -3.0512930317598763, -0.6949905464453596, 3.1124352438769503, -1.9908934831619263, 0.4300589859485626, -0.22135645151138306, -0.06926129013299942, 0.6403781771659851, 0.7649304866790771, 0.2439286708831787, 0.05302703380584717, 0.0033494234085083008, -0.938946583626968, 0.029061496451515734, 0.3395420166597649,-0.04739166801846692,0.17535400390625,0.6979827880859375,0.7756195068359375
20220113-1758,2022-01-13 17:58:55Z,u01, 31,40,movements,el-ex, rt, d,115653.70765091668, -3.0392496496335175, -0.646902089678623, 3.115595560935209, -1.798759937286377, 0.37396034598350525, -0.3351577818393707, -0.0815226137638092, 0.6027172803878784, 0.7937795519828796, 0.2649179995059967, 0.08861273527145386, 0.013379812240600586, -0.9466117952637376, 0.02856392501236721, 0.3167672972468125,-0.05261863712108181,0.18243408203125,0.691436767578125,0.7985076904296875
20220113-1758,2022-01-13 17:58:55Z,u01, 32,40,movements,el-ex, rt, d,115653.73259691667, -3.026573389260285, -0.6048790880394139, 3.121382817533536, -1.5089993476867676, 0.35807541012763977, -0.38218092918395996, -0.09440304338932037, 0.5686626434326172, 0.8171359896659851, 0.2545440196990967, 0.14084064960479736, 0.05951207876205444, -0.9528129257330537, 0.026749098444196706, 0.29678786206413243,-0.05787109827376519,0.1572723388671875,0.7047882080078125,0.8797760009765625
20220113-1758,2022-01-13 17:58:55Z,u01, 33,40,movements,el-ex, rt, d,115653.75754291668, -3.0140938145883838, -0.5670999983451668, 3.128051941101363, -1.5350425243377686, 0.34034621715545654, -0.4585433602333069, -0.10724931210279465, 0.5371882915496826, 0.8366157412528992, 0.23900896310806274, 0.012417972087860107, 0.06089073419570923, -0.9579754382155422, 0.02430916028027924, 0.2787768895805129,-0.06305118781070633,0.13262939453125,0.5437469482421875,0.8966827392578125
20220113-1758,2022-01-13 17:58:55Z,u01, 34,40,movements,el-ex, rt, d,115653.78248791667, -3.002548201803284, -0.5274316318525814, 3.135705748327879, -1.6477795839309692, 0.20784816145896912, -0.49030494689941406, -0.11976192146539688, 0.5033156871795654, 0.8557631969451904, 0.2568163275718689, 0.12017381191253662, -0.051106154918670654, -0.9630384201670188, 0.020942487750369054, 0.25984146159177834,-0.06782978147295021,0.1357574462890625,0.6244354248046875,0.8013763427734375
20220113-1758,2022-01-13 17:58:55Z,u01, 35,40,movements,el-ex, rt, d,115653.80743391668, -2.9991301441710965, -0.48063521770103806, 3.13781788380987, -1.6060864925384521, 0.028308961540460587, -0.2457842379808426, -0.12589482963085175, 0.4623425304889679, 0.8777183890342712, 0.34461432695388794, -0.2548077702522278, -0.43466436862945557, -0.968765691972295, 0.01876796253866808, 0.23727667480328385,-0.06957369773666723,0.204376220703125,0.2828216552734375,0.6648406982421875
20220113-1758,2022-01-13 17:58:55Z,u01, 36,40,movements,el-ex, rt, d,115653.83237991667, -2.99659454764045, -0.4528096319018857, 3.1376782745354643, -0.3433200418949127, 0.08093288540840149, -0.07086607813835144, -0.12992900609970093, 0.4374937415122986, 0.8897851705551147, 0.3223423361778259, 0.1760164499282837, -0.3641200065612793, -0.9718861728885781, 0.01816221088095088, 0.22374729039964966,-0.07102503567006388,0.19122314453125,0.6214599609375,0.5110931396484375
20220113-1758,2022-01-13 17:58:55Z,u01, 37,40,movements,el-ex, rt, d,115653.85732591667, -2.9945908666577115, -0.44320703172739767, -3.138552396873648, -0.3104453682899475, -0.15591759979724884, -0.41049888730049133, -0.132320836186409, 0.428838849067688, 0.8936376571655273, 0.103664830327034, 0.22620582580566406, -0.1784735918045044, -0.9729356974313056, 0.014661558726394852, 0.21930942270122245,-0.07130567627371115,-0.000244140625,0.701629638671875,0.691192626953125
20220113-1758,2022-01-13 17:58:55Z,u01, 38,40,movements,el-ex, rt, d,115653.88227191668, -2.9942636710027766, -0.42695960892014034, -3.128463679872882, -0.9108216762542725, -0.21210944652557373, -0.44997963309288025, -0.13361845910549164, 0.41410526633262634, 0.9003679156303406, 0.03251373767852783, 0.18522942066192627, -0.06847429275512695, -0.9747304367618086, 0.009194233191192336, 0.21175504307750226,-0.07053863444397253,-0.0933380126953125,0.6068115234375,0.8351898193359375
20220113-1758,2022-01-13 17:58:55Z,u01, 39,40,movements,el-ex, rt, d,115653.90721791667, -2.9955459277562944, -0.40818021071495275, -3.1210906051193734, -0.3229704797267914, -0.1510288417339325, -0.3508850634098053, -0.13357214629650116, 0.3969396948814392, 0.9080731868743896, 0.11881694197654724, 0.0944543182849884, -0.01165008544921875, -0.9767362999046871, 0.004774829359468491, 0.20285785283290464,-0.0693684549010169,-0.0070953369140625,0.504608154296875,0.8785858154296875
20220113-1758,2022-01-13 17:58:55Z,u01, 40,40,movements,el-ex, rt, d,115653.93216391667, -2.9937930588099118, -0.4100781296947311, -3.1105729707110505, 0.3909546434879303, -0.021207526326179504, -0.3747475743293762, -0.13505251705646515, 0.39868098497390747, 0.9070910215377808, 0.0008362084627151489, -0.023970842361450195, 0.11462211608886719, -0.9764965456799476, -0.0001120056667601732, 0.20414637839172392,-0.06912814308816675,-0.1429901123046875,0.3744659423828125,1.0223846435546875
20220113-1758,2022-01-13 17:58:55Z,u01, 41,40,movements,el-ex, rt, d,115653.95710991668, -2.9886616187920922, -0.41596011817901996, -3.1009367413784106, 0.15202462673187256, 0.02564706653356552, -0.354393869638443, -0.13934578001499176, 0.40406835079193115, 0.9040529131889343, -0.00761161744594574, 0.03713959455490112, 0.09306323528289795, -0.9757099819034336, -0.004060145684400496, 0.2073573160888465,-0.07054451631820467,-0.1615753173828125,0.4274444580078125,1.0196990966796875
20220113-1758,2022-01-13 17:58:55Z,u01, 42,40,movements,el-ex, rt, d,115653.98205591667, -2.9839071494821137, -0.4172076559941642, -3.0902652249583014, 0.03516165912151337, 0.1039770245552063, -0.2606290280818939, -0.1435631960630417, 0.4052092134952545, 0.9028815031051636, 0.04186336696147919, 0.08311784267425537, -0.030063629150390625, -0.975379261514816, -0.008721012911999892, 0.2083601478265878,-0.07173054278344242,-0.10089111328125,0.4838714599609375,0.875152587890625
20220113-1758,2022-01-13 17:58:55Z,u01, 43,40,movements,el-ex, rt, d,115654.00700191667, -2.979330573405124, -0.41596536937179823, -3.080540926461036, -0.1264129877090454, 0.14134888350963593, -0.25016066431999207, -0.14777497947216034, 0.40407317876815796, 0.9027110934257507, 0.04625828564167023, -0.01888027787208557, 0.07589596509933472, -0.9752874131762537, -0.013038850153634873, 0.20813159198018388,-0.07297714986155901,-0.094482421875,0.42364501953125,0.900848388671875
20220113-1758,2022-01-13 17:58:55Z,u01, 44,40,movements,el-ex, rt, d,115654.03194791668, -2.9733323579633204, -0.4095227346533282, -3.073449771599455, -0.3050764501094818, 0.16841280460357666, -0.318993479013443, -0.15361973643302917, 0.3981715738773346, 0.9043563008308411, 0.03196142613887787, -0.11341196298599243, 0.12629854679107666, -0.9756623660895023, -0.01615886312810727, 0.2052994675069354,-0.07532571489160748,-0.125335693359375,0.3025665283203125,1.027099609375
20220113-1758,2022-01-13 17:58:55Z,u01, 45,40,movements,el-ex, rt, d,115654.05689391667, -2.9666158598686225, -0.3991014603819133, -3.0652827555197772, -0.3744240403175354, 0.15062567591667175, -0.4291674792766571, -0.1604039967060089, 0.38859057426452637, 0.9073410034179688, 0.01752069592475891, 0.10623672604560852, 0.0716322660446167, -0.9763569988706685, -0.019937701041083222, 0.20059402823848368,-0.0780478996793408,-0.13153076171875,0.4901885986328125,0.9750823974609375
20220113-1758,2022-01-13 17:58:56Z,u01, 46,40,movements,el-ex, rt, d,115654.08183991667, -2.9580852810685063, -0.389702524226906, -3.0558934798295447, -0.2493325173854828, 0.22952988743782043, -0.4190269112586975, -0.16879718005657196, 0.3799132704734802, 0.9094902873039246, 0.008045896887779236, 0.07464599609375, 0.005288958549499512, -0.9768127416448988, -0.024124862882568043, 0.19647982801510536,-0.08154945199166867,-0.1607818603515625,0.4548492431640625,0.9120635986328125
20220113-1758,2022-01-13 17:58:56Z,u01, 47,40,movements,el-ex, rt, d,115654.10678591668, -2.948104506664735, -0.3835956789958542, -3.0442765339149713, -0.051641546189785004, 0.22145704925060272, -0.5232552886009216, -0.17830893397331238, 0.37425723671913147, 0.910020649433136, 0.00789874792098999, 0.06444832682609558, 0.03300309181213379, -0.9768119677694413, -0.02913250835217912, 0.1941201748598244,-0.08548140741202492,-0.162872314453125,0.438079833984375,0.93212890625
20220113-1758,2022-01-13 17:58:56Z,u01, 48,40,movements,el-ex, rt, d,115654.13173191667, -2.936585345670013, -0.3809560455102335, -3.0296281205151323, 0.007377199828624725, 0.24227319657802582, -0.573820173740387, -0.18897993862628937, 0.37180814146995544, 0.9088701009750366, -0.00961315631866455, 0.058810144662857056, 0.03235280513763428, -0.9763136014958358, -0.03531014027551599, 0.19366129531115647,-0.08977828923251246,-0.1984710693359375,0.42962646484375,0.9388885498046875
20220113-1758,2022-01-13 17:58:56Z,u01, 49,40,movements,el-ex, rt, d,115654.15667791668, -2.924880991243657, -0.3768120259973025, -3.0142213993518636, -0.03658723086118698, 0.23042283952236176, -0.6188702583312988, -0.19993411004543304, 0.36795803904533386, 0.9080930948257446, 0.011457562446594238, 0.11185461282730103, -0.03120112419128418, -0.9758524027388127, -0.041936145122271784, 0.19257823081386388,-0.09416492191016962,-0.1910400390625,0.4740447998046875,0.885772705078125
20220113-1758,2022-01-13 17:58:56Z,u01, 50,40,movements,el-ex, rt, d,115654.18162391668, -2.9125385614281427, -0.37532165673362244, -2.9957791557362734, 0.2747422158718109, 0.21781450510025024, -0.7817373871803284, -0.21125099062919617, 0.3665718138217926, 0.9060895442962646, 0.03807899355888367, 0.14398729801177979, 0.0062944889068603516, -0.9749674788011976, -0.04983149748056859, 0.19302480043038253,-0.0984717735196624,-0.17333984375,0.5117645263671875,0.9151153564453125
20220113-1758,2022-01-13 17:58:56Z,u01, 51,40,movements,el-ex, rt, d,115654.20656991667, -2.8985469172715743, -0.38116929811487543, -2.9699184328726846, 0.590161144733429, 0.11109938472509384, -0.9595567584037781, -0.22338782250881195, 0.3720060884952545, 0.9009490013122559, 0.07226479053497314, 0.14020097255706787, -0.10555434226989746, -0.9730326367627105, -0.060679360921048975, 0.19754822967223007,-0.10247016466143241,-0.1612701416015625,0.520050048828125,0.806854248046875
20220113-1758,2022-01-13 17:58:56Z,u01, 52,40,movements,el-ex, rt, d,115654.23151491667, -2.8862710366829507, -0.38979556237022944, -2.939423568436041, 0.43107736110687256, 0.010424770414829254, -1.055066704750061, -0.23361144959926605, 0.3799993097782135, 0.8950003385543823, 0.08406011760234833, 0.10753417015075684, -0.06559395790100098, -0.9706047329064966, -0.07366566895560789, 0.2037140951117459,-0.10488202310476671,-0.1521148681640625,0.482757568359375,0.840606689453125
20220113-1758,2022-01-13 17:58:56Z,u01, 53,40,movements,el-ex, rt, d,115654.25646091667, -2.8750826695091614, -0.3890071530573701, -2.9087985003615127, 0.3290482759475708, -0.039690662175416946, -1.1140453815460205, -0.24368910491466522, 0.37926992774009705, 0.8926196694374084, 0.10605481266975403, 0.10997271537780762, -0.05132639408111572, -0.9688477810717812, -0.08742886159963159, 0.20540856913684027,-0.10722625081889424,-0.14886474609375,0.475494384765625,0.8630218505859375
20220113-1758,2022-01-13 17:58:56Z,u01, 54,40,movements,el-ex, rt, d,115654.28140691668, -2.8644405338358574, -0.3961610853716107, -2.8726540183147944, 1.0182551145553589, -0.17898064851760864, -1.3345497846603394, -0.25242558121681213, 0.38587960600852966, 0.8873431086540222, 0.11430308222770691, 0.15008535981178284, -0.11889547109603882, -0.9659254393252681, -0.10324539499908114, 0.21129846578055256,-0.10807997675402048,-0.140869140625,0.534515380859375,0.768035888671875
20220113-1758,2022-01-13 17:58:56Z,u01, 55,40,movements,el-ex, rt, d,115654.30635291667, -2.851407914796499, -0.42053658866036037, -2.824399490814428, 1.8281430006027222, -0.33114609122276306, -1.4701862335205078, -0.2611987590789795, 0.4082503616809845, 0.8747037053108215, 0.135420560836792, 0.1903519630432129, -0.12769460678100586, -0.9603202458028808, -0.1230320159658389, 0.22626876102656934,-0.10700709364860551,-0.1314697265625,0.599700927734375,0.755523681640625
20220113-1758,2022-01-13 17:58:56Z,u01, 56,40,movements,el-ex, rt, d,115654.33129891667, -2.8389836458689253, -0.45833897445427535, -2.7690186273210218, 2.009861946105957, -0.6112901568412781, -1.5028178691864014, -0.26725345849990845, 0.4424591362476349, 0.8560404777526855, 0.13131293654441833, 0.05368039011955261, -0.11969727277755737, -0.952414644058765, -0.1446602123637734, 0.24787471244167267,-0.10265394479816047,-0.1383514404296875,0.4867401123046875,0.739532470703125
20220113-1758,2022-01-13 17:58:56Z,u01, 57,40,movements,el-ex, rt, d,115654.35624491668, -2.8280666813072504, -0.48909274732638963, -2.7135915963380928, 1.6065597534179688, -0.6545175313949585, -1.5091114044189453, -0.27225595712661743, 0.46982520818710327, 0.8397267460823059, 0.14405158162117004, -0.04862150549888611, 0.047022461891174316, -0.9445166653449976, -0.16658824256760446, 0.26586142056811973,-0.09723341980887919,-0.142730712890625,0.40557861328125,0.8702392578125
20220113-1758,2022-01-13 17:58:56Z,u01, 58,40,movements,el-ex, rt, d,115654.38119100001, -2.8191603823303173, -0.5154347419458511, -2.6594178872461574, 1.6428747177124023, -0.6939073204994202, -1.4425175189971924, -0.2757056653499603, 0.492913156747818, 0.8252412676811218, 0.12269052863121033, -0.01787644624710083, 0.0980832576751709, -0.9366001610737743, -0.18815093894756468, 0.28135284131732413,-0.09066411773577569,-0.1566162109375,0.473785400390625,0.9185333251953125
20220113-1758,2022-01-13 17:58:56Z,u01, 59,40,movements,el-ex, rt, d,115654.40613700001, -2.809428935988999, -0.5462905112463595, -2.6042887934221164, 1.9241271018981934, -0.745583176612854, -1.3682814836502075, -0.2786294221878052, 0.5195212364196777, 0.8077520132064819, 0.09987267851829529, -0.09007781744003296, 0.046740174293518066, -0.9274494899551919, -0.20907764294039044, 0.29876047759331004,-0.08286226768613394,-0.178924560546875,0.425750732421875,0.8515625
20220113-1758,2022-01-13 17:58:56Z,u01, 60,40,movements,el-ex, rt, d,115654.431083, -2.7965138187087093, -0.5864088324605837, -2.5456398130909057, 2.5425286293029785, -0.7240199446678162, -1.2672455310821533, -0.28175702691078186, 0.553373396396637, 0.7838307619094849, 0.11629071831703186, -0.11541557312011719, 0.06579375267028809, -0.9161157936458353, -0.22944988123847598, 0.32043578836241793,-0.07352189150893211,-0.16387939453125,0.432220458984375,0.85186767578125
20220113-1758,2022-01-13 17:58:56Z,u01, 61,40,movements,el-ex, rt, d,115654.45602900001, -2.7774695617669747, -0.6390736679915241, -2.483141959657077, 2.6758811473846436, -0.6392706036567688, -1.1286561489105225, -0.2858473062515259, 0.5964521765708923, 0.7500241994857788, 0.09322026371955872, -0.21754586696624756, 0.19475430250167847, -0.9019327991807988, -0.24805102700279147, 0.3479177644116359,-0.0627788330229479,-0.1883697509765625,0.3847808837890625,0.9385528564453125
20220113-1758,2022-01-13 17:58:56Z,u01, 62,40,movements,el-ex, rt, d,115654.48097500001, -2.757873293300117, -0.6847117366819253, -2.4250186419300728, 2.0989129543304443, -0.66888028383255, -0.9561902284622192, -0.2899888753890991, 0.632449746131897, 0.7182709574699402, 0.09464594721794128, -0.2872503399848938, 0.20932579040527344, -0.8884120299094176, -0.2643095573080813, 0.3716077459825467,-0.052650073518202445,-0.1969451904296875,0.344818115234375,0.9196624755859375
20220113-1758,2022-01-13 17:58:56Z,u01, 63,40,movements,el-ex, rt, d,115654.505921, -2.7403236730308187, -0.7225223885777073, -2.3729953497545133, 1.9752657413482666, -0.5984504818916321, -0.8525425791740417, -0.2929948568344116, 0.6612789034843445, 0.6905535459518433, 0.023555129766464233, -0.18331259489059448, 0.18083006143569946, -0.8762339707173643, -0.2783717147421238, 0.39099413805626326,-0.042974505793833245,-0.2620849609375,0.4544219970703125,0.869415283203125
20220113-1758,2022-01-13 17:58:56Z,u01, 64,40,movements,el-ex, rt, d,115654.53086700001, -2.7201553302078327, -0.7596819650821426, -2.322485340008466, 1.8586448431015015, -0.5441054105758667, -0.6982812285423279, -0.2965999245643616, 0.6886909008026123, 0.6616138815879822, 0.03482019901275635, -0.14431846141815186, 0.250357985496521, -0.8639543222639248, -0.2904993512132744, 0.40993853086027254,-0.03381323229132294,-0.2623748779296875,0.5483245849609375,0.9069061279296875
20220113-1758,2022-01-13 17:58:56Z,u01, 65,40,movements,el-ex, rt, d,115654.55581300001, -2.7003080340749404, -0.7950371607462786, -2.2747074335958457, 1.8913297653198242, -0.49925941228866577, -0.5798488855361938, -0.29908114671707153, 0.7138895988464355, 0.6331759095191956, -0.013601928949356079, -0.1271129846572876, 0.16209667921066284, -0.8520597299123556, -0.3009687256076455, 0.4275661134169396,-0.02447780356418927,-0.29742431640625,0.58447265625,0.7993927001953125
20220113-1758,2022-01-13 17:58:56Z,u01, 66,40,movements,el-ex, rt, d,115654.580759, -2.674409476030071, -0.8340461716840997, -2.2238218624476467, 2.276710271835327, -0.38434332609176636, -0.5857399106025696, -0.3025985360145569, 0.7406559586524963, 0.5998853445053101, -0.07835239171981812, -0.08056086301803589, 0.08807212114334106, -0.8389783750274753, -0.30993217821399927, 0.44701914885204624,-0.015201409450341125,-0.38275146484375,0.667144775390625,0.68280029296875
20220113-1758,2022-01-13 17:58:56Z,u01, 67,40,movements,el-ex, rt, d,115654.60570500001, -2.6324578167882624, -0.8832275962836792, -2.1567077523858096, 2.841013193130493, -0.35172605514526367, -0.6655789017677307, -0.30934739112854004, 0.77279132604599, 0.5541641712188721, -0.09179094433784485, 0.045598626136779785, 0.10152119398117065, -0.8218545736250732, -0.31880579972429246, 0.4721147572278489,-0.005062670678992909,-0.399566650390625,0.7964630126953125,0.65570068359375
20220113-1758,2022-01-13 17:58:56Z,u01, 68,40,movements,el-ex, rt, d,115654.63065100001, -2.567660643419893, -0.9398782037789583, -2.0660961598205385, 3.509247064590454, -0.17888243496418, -0.8101007342338562, -0.3202718496322632, 0.8074862360954285, 0.49537038803100586, -0.1306406557559967, 0.1772855520248413, 0.07973319292068481, -0.8000953090234505, -0.327921777876532, 0.5022769499883797,0.005713858735593463,-0.4530487060546875,0.992584228515625,0.5600738525390625
20220113-1758,2022-01-13 17:58:56Z,u01, 69,40,movements,el-ex, rt, d,115654.655597, -2.446396417736029, -1.0166985370598427, -1.9173831149259462, 5.130732536315918, -0.056691817939281464, -0.9351891279220581, -0.3370349705219269, 0.8503755331039429, 0.4040655791759491, -0.05522271990776062, 0.15699458122253418, -0.04708617925643921, -0.7674579102158439, -0.3362159160961843, 0.5455186351538635,0.019407654270206187,-0.398651123046875,1.00836181640625,0.3888397216796875
20220113-1758,2022-01-13 17:58:56Z,u01, 70,40,movements,el-ex, rt, d,115654.680542, -2.2286571863265334, -1.1013350682781382, -1.6634252028828325, 7.035825252532959, -0.1535523235797882, -0.9711040258407593, -0.3579895496368408, 0.8918121457099915, 0.27661243081092834, -0.02294611930847168, -0.09127509593963623, -0.160569429397583, -0.7207080804743954, -0.34479859632099696, 0.6001590624003261,0.038766363942226156,-0.3837432861328125,0.80303955078125,0.1032562255859375
20220113-1758,2022-01-13 17:58:56Z,u01, 71,40,movements,el-ex, rt, d,115654.705488, -1.8960163585472918, -1.1645482359810653, -1.2874527440055563, 6.349246978759766, -0.6009599566459656, -0.8683838248252869, -0.37445083260536194, 0.9186099171638489, 0.1262621283531189, 0.053589046001434326, 0.5052638649940491, -0.036891475319862366, -0.6637410070091745, -0.3501127477316779, 0.6577679068929607,0.06488601848505754,-0.3448333740234375,1.475067138671875,0.079010009765625
20220113-1758,2022-01-13 17:58:56Z,u01, 72,40,movements,el-ex, rt, d,115654.73043400001, -1.5616754300662874, -1.169582247147241, -0.9069261629877349, 5.263859272003174, -0.6289674639701843, -0.4649488031864166, -0.39051976799964905, 0.9205875396728516, -0.003561989404261112, 0.14068764448165894, -0.06958973407745361, 0.030630946159362793, -0.6096020206635618, -0.35581509483708723, 0.7026476755827787,0.08981721917652036,-0.252471923828125,0.8327178955078125,0.0228729248046875
20220113-1758,2022-01-13 17:58:56Z,u01, 73,40,movements,el-ex, rt, d,115654.75538, -1.3073815109525746, -1.1445801566347844, -0.6137925480132995, 4.395346641540527, -0.4710802733898163, -0.2883918285369873, -0.39916762709617615, 0.9105365872383118, -0.10764806717634201, 0.018644005060195923, 0.09681802988052368, 0.30058008432388306, -0.5642677685345099, -0.3574602792003562, 0.7356660645097737,0.11233599166078412,-0.357940673828125,0.933380126953125,0.1610107421875
20220113-1758,2022-01-13 17:58:56Z,u01, 74,40,movements,el-ex, rt, d,115654.78032600001, -1.1359738033749491, -1.1027878107227025, -0.4145070052273706, 3.2104079723358154, -0.2725240886211395, -0.45024630427360535, -0.4091314673423767, 0.8924684524536133, -0.19002963602542877, -0.031893253326416016, 0.1975887417793274, 0.3225063979625702, -0.5264559542371936, -0.3575322466155132, 0.760673528042445,0.12802512235483388,-0.4400482177734375,1.081695556640625,0.1214447021484375
20220113-1758,2022-01-13 17:58:56Z,u01, 75,40,movements,el-ex, rt, d,115654.80527200001, -1.0356202803119252, -1.059632604333374, -0.29011279810592894, 2.7114133834838867, -0.46379944682121277, -0.42360129952430725, -0.42079296708106995, 0.8721758127212524, -0.24948444962501526, 0.07609692215919495, -0.002180814743041992, -0.011395156383514404, -0.49625007764664575, -0.35915683514933017, 0.7780624873695118,0.139143494799214,-0.3514556884765625,0.8957061767578125,-0.21826171875
20220113-1758,2022-01-13 17:58:56Z,u01, 76,40,movements,el-ex, rt, d,115654.830218, -0.9645323631094288, -1.0169436340050844, -0.19306721739958943, 2.385488986968994, -0.5112079381942749, -0.2908884584903717, -0.43223121762275696, 0.850504457950592, -0.2996971309185028, 0.09186863899230957, -0.1306559443473816, 0.13645851612091064, -0.4683549618839109, -0.3616559950132519, 0.79202445300441,0.15015274614360835,-0.343536376953125,0.711334228515625,-0.1556243896484375
20220113-1758,2022-01-13 17:58:56Z,u01, 77,40,movements,el-ex, rt, d,115654.85516400001, -0.9182307717921416, -0.9832699824813341, -0.12104801008691217, 1.6841949224472046, -0.6901434063911438, -0.030256399884819984, -0.44041022658348083, 0.8323143720626831, -0.33658814430236816, 0.04302561283111572, -0.09471988677978516, -0.04865056276321411, -0.44603837945195807, -0.36435653702597015, 0.8014787611409226,0.16101509587725454,-0.40570068359375,0.7285919189453125,-0.3530426025390625
20220113-1758,2022-01-13 17:58:56Z,u01, 78,40,movements,el-ex, rt, d,115654.88011000001, -0.8897530182482598, -0.9599651371979222, -0.06400708653884825, 1.5206533670425415, -0.7299148440361023, 0.12154397368431091, -0.44559919834136963, 0.8191715478897095, -0.3611084222793579, 0.03879988193511963, -0.21043753623962402, -0.08904117345809937, -0.428818214144717, -0.36818572193118254, 0.8066141089014317,0.17299683601953114,-0.4095611572265625,0.603790283203125,-0.43511962890625
20220113-1758,2022-01-13 17:58:56Z,u01, 79,40,movements,el-ex, rt, d,115654.905056, -0.8720618426242627, -0.9430099862310207, -0.019697421525037468, 0.8569583892822266, -0.7677956819534302, 0.15575407445430756, -0.44971203804016113, 0.8093296885490417, -0.3778153955936432, 0.06007885932922363, -0.1239050030708313, -0.008796632289886475, -0.4154134955639948, -0.372188031650606, 0.8093802311923125,0.18387849623978003,-0.392669677734375,0.678070068359375,-0.3653411865234375
20220113-1758,2022-01-13 17:58:56Z,u01, 80,40,movements,el-ex, rt, d,115654.93000200001, -0.8795251378252974, -0.9424982463721029, -0.00333336869971352, -0.22641240060329437, -0.855696439743042, 0.27059099078178406, -0.4528382420539856, 0.8090290427207947, -0.3747125267982483, 0.08954176306724548, -0.07964378595352173, -0.05567696690559387, -0.4114344635348319, -0.378636266400563, 0.8065464488558385,0.1919348679506349,-0.3645782470703125,0.7296905517578125,-0.421905517578125
20220113-1758,2022-01-13 17:58:56Z,u01, 81,40,movements,el-ex, rt, d,115654.95494800001, -0.90441199533362, -0.957626909997847, -0.01031265668175818, -0.650994598865509, -0.6321859359741211, 0.4373527467250824, -0.4523489773273468, 0.8178282380104065, -0.3557208478450775, 0.09590363502502441, -0.08395683765411377, 0.10559868812561035, -0.4164108315290824, -0.3856703285705193, 0.7993586400775661,0.19719569421808752,-0.358795166015625,0.7665252685546875,-0.2754974365234375
20220113-1758,2022-01-13 17:58:56Z,u01, 82,40,movements,el-ex, rt, d,115654.979894, -0.9153424671865849, -0.9679795052237082, -0.0051644060571659585, 0.16119229793548584, -0.5592337250709534, 0.3502101004123688, -0.4494735598564148, 0.8237418532371521, -0.3455759584903717, 0.14924165606498718, -0.00588613748550415, 0.06638583540916443, -0.4184346073554972, -0.39003140881767284, 0.7945779347092727,0.20355288032385777,-0.2994537353515625,0.84576416015625,-0.295806884765625
20220113-1758,2022-01-13 17:58:56Z,u01, 83,40,movements,el-ex, rt, d,115655.00484000001, -0.9224370269584801, -0.9727046217203872, 0.004527501363512958, -0.26557469367980957, -0.6320780515670776, 0.20193788409233093, -0.4488065838813782, 0.8264116048812866, -0.34002426266670227, 0.010513097047805786, 0.08771181106567383, 0.03489416837692261, -0.4176739132204014, -0.39438099059570514, 0.7911978176149286,0.2098050395086158,-0.3997039794921875,0.9122161865234375,-0.351043701171875
20220113-1758,2022-01-13 17:58:56Z,u01, 84,40,movements,el-ex, rt, d,115655.02978600001, -0.9576394740492596, -0.9861032525998146, -0.017696178481255466, -0.8363361954689026, -0.7250721454620361, 0.13282965123653412, -0.4513988196849823, 0.8338815569877625, -0.31761693954467773, -0.0711536705493927, 0.08291220664978027, 0.04234832525253296, -0.4236613602627605, -0.4021225910473419, 0.7837255745289051,0.2111458653161637,-0.51788330078125,0.9148406982421875,-0.285675048828125
20220113-1758,2022-01-13 17:58:56Z,u01, 85,40,movements,el-ex, rt, d,115655.054732, -0.9871960152912855, -0.991101424237821, -0.030515725773357646, 0.16817782819271088, -0.767988920211792, -0.13841749727725983, -0.45710429549217224, 0.8366298079490662, -0.3018380105495453, -0.14374104142189026, 0.2132052779197693, -0.1612815260887146, -0.4250661827053421, -0.4103653623917099, 0.7780469655483804,0.21345235309366173,-0.5714874267578125,1.0621490478515625,-0.41998291015625
20220113-1758,2022-01-13 17:58:57Z,u01, 86,40,movements,el-ex, rt, d,115655.07967800001, -1.003068311235756, -0.9826938610156825, -0.019934856798238386, 0.6619048714637756, -1.3011837005615234, -0.18758530914783478, -0.46775156259536743, 0.831994891166687, -0.2983168661594391, -0.036642998456954956, -0.027399003505706787, -0.2878648638725281, -0.4179126679305841, -0.41975059759934147, 0.7753360170160518,0.21911750788920864,-0.49249267578125,0.7949676513671875,-0.600738525390625
20220113-1758,2022-01-13 17:58:57Z,u01, 87,40,movements,el-ex, rt, d,115655.104623, -1.0114794969957905, -0.9655034091199561, 0.005228288329227599, 0.821165919303894, -0.9883268475532532, -0.38509780168533325, -0.482296884059906, 0.8223354816436768, -0.30191701650619507, -0.2683592140674591, 0.035055696964263916, -0.1654292643070221, -0.40498257829203615, -0.43015184525183514, 0.7742523928804135,0.2269175448205597,-0.7078704833984375,0.7907562255859375,-0.4874725341796875
20220113-1758,2022-01-13 17:58:57Z,u01, 88,40,movements,el-ex, rt, d,115655.12956900001, -1.026089449186867, -0.9507974724443881, 0.013515928700012064, 0.20147350430488586, -0.8486306667327881, -0.33961018919944763, -0.4969463646411896, 0.813879132270813, -0.3010729253292084, -0.20460695028305054, -0.02553391456604004, -0.11582770943641663, -0.39580864008816563, -0.4390888932156659, 0.77310501388194,0.2298803694011627,-0.670318603515625,0.7708587646484375,-0.442138671875
20220113-1758,2022-01-13 17:58:57Z,u01, 89,40,movements,el-ex, rt, d,115655.154515, -1.072583542176621, -0.9441581213415691, -0.013315671062048588, -0.7163121104240417, -1.0595279932022095, -0.6441640257835388, -0.5151378512382507, 0.8100035190582275, -0.28022682666778564, -0.002852141857147217, 0.10759890079498291, -0.06477442383766174, -0.39391891149395586, -0.452453833753656, 0.7671192024339197,0.22724749403641065,-0.493499755859375,0.90643310546875,-0.3027801513671875
20220113-1758,2022-01-13 17:58:57Z,u01, 90,40,movements,el-ex, rt, d,115655.179461, -1.1240188862709686, -0.935926854984891, -0.04238157597454437, -0.32632216811180115, -1.321170687675476, -0.6473917961120605, -0.5348588228225708, 0.8051491379737854, -0.2562437653541565, 0.0780106782913208, 0.13686740398406982, -0.3190736770629883, -0.3916806037994068, -0.46740177725743043, 0.7601351663155944,0.22431313313501788,-0.456756591796875,0.93792724609375,-0.5728302001953125
20220113-1758,2022-01-13 17:58:57Z,u01, 91,40,movements,el-ex, rt, d,115655.20440700001, -1.181070369141855, -0.9220726746744535, -0.07101201735007621, -0.5752906203269958, -1.1106019020080566, -0.9014414548873901, -0.5588650703430176, 0.7968555688858032, -0.2295452207326889, -0.16087675094604492, 0.18837380409240723, 0.11788135766983032, -0.3870026268648768, -0.4852384518855502, 0.7522414556004446,0.22114564370095025,-0.6927337646484375,0.9457244873046875,-0.1229248046875
20220113-1758,2022-01-13 17:58:57Z,u01, 92,40,movements,el-ex, rt, d,115655.229353, -1.2420771086345854, -0.8999827298048955, -0.11136463234040105, -0.5328850746154785, -1.3793801069259644, -1.4555543661117554, -0.588339626789093, 0.7833161950111389, -0.20067939162254333, -0.05774796009063721, 0.4411100149154663, -0.13324403762817383, -0.382351765421981, -0.5034554934334196, 0.7452643419112313,0.21194515036296657,-0.6400146484375,1.218841552734375,-0.3566436767578125
20220113-1758,2022-01-13 17:58:57Z,u01, 93,40,movements,el-ex, rt, d,115655.25429900001, -1.3047676394364303, -0.8705691348256317, -0.1440919042336337, -0.4897725582122803, -1.492720603942871, -1.2602035999298096, -0.6217235326766968, 0.7646958231925964, -0.1694117784500122, 0.089008629322052, -0.11302345991134644, 0.11501412093639374, -0.37382986637873, -0.5249241307627649, 0.7370966764531044,0.20345635665282696,-0.516571044921875,0.7003021240234375,-0.1040802001953125
20220113-1758,2022-01-13 17:58:57Z,u01, 94,40,movements,el-ex, rt, d,115655.27924500001, -1.358313169575542, -0.8400525831590867, -0.17381035157592098, -0.5178866982460022, -0.9359241127967834, -1.6048376560211182, -0.6524134874343872, 0.7446781992912292, -0.14075154066085815, -0.008734583854675293, -0.15632987022399902, 0.2812391519546509, -0.36588149859740277, -0.5438335750705862, 0.7300197293341381,0.19351213380777915,-0.669830322265625,0.598175048828125,0.1488037109375
20220113-1758,2022-01-13 17:58:57Z,u01, 95,40,movements,el-ex, rt, d,115655.304191, -1.4029215984070378, -0.8077407759132552, -0.20798603508653002, -0.7374913692474365, -0.6817941665649414, -1.1055163145065308, -0.6814170479774475, 0.7227275967597961, -0.11547955870628357, 0.15286791324615479, -0.3881024122238159, 0.3016977310180664, -0.36017583101570166, -0.559047037762693, 0.7249727381208912,0.17931610887643246,-0.5691986083984375,0.4179534912109375,0.161712646484375
20220113-1758,2022-01-13 17:58:57Z,u01, 96,40,movements,el-ex, rt, d,115655.32913700001, -1.4545496278587036, -0.7924020789452534, -0.25319371861585604, -1.6666276454925537, -0.9607506990432739, -0.5549436807632446, -0.6973981261253357, 0.7120419144630432, -0.08143739402294159, 0.22788524627685547, -0.47652262449264526, 0.3264172077178955, -0.36340730149752076, -0.5720283539435064, 0.716002078278978,0.16751018184133676,-0.477142333984375,0.24688720703125,0.2454071044921875
20220113-1758,2022-01-13 17:58:57Z,u01, 97,40,movements,el-ex, rt, d,115655.35408300001, -1.5198876104205614, -0.7868741325655271, -0.3142567697777993, -1.497368335723877, -0.6610503196716309, -0.15643684566020966, -0.7051473259925842, 0.7081496715545654, -0.03592919185757637, 0.14690464735031128, -0.33635419607162476, 0.3341163396835327, -0.3740300579282632, -0.584924713417839, 0.7025701515089836,0.15607561561430638,-0.579437255859375,0.37054443359375,0.2851104736328125
20220113-1758,2022-01-13 17:58:57Z,u01, 98,40,movements,el-ex, rt, d,115655.37902975001, -1.5532350177862722, -0.7896386761755912, -0.33948361860545306, 0.35466960072517395, -0.46743375062942505, 0.4198214113712311, -0.7039932608604431, 0.710098922252655, -0.012364314869046211, 0.2622513771057129, -0.3224189877510071, 0.4469650387763977, -0.37970514184137794, -0.5913052071869629, 0.694489986101187,0.15448542511663044,-0.441497802734375,0.3935699462890625,0.44061279296875
20220113-1758,2022-01-13 17:58:57Z,u01, 99,40,movements,el-ex, rt, d,115655.40397575001, -1.510655419971893, -0.8006694815526529, -0.27390341201651025, 2.705923557281494, -0.2315172255039215, 0.42186659574508667, -0.6949675679206848, 0.7178223729133606, -0.041846442967653275, 0.15274649858474731, 0.12652266025543213, 0.07526308298110962, -0.36727331382151973, -0.5866746042218836, 0.7006776863536679,0.1731299849652853,-0.5391998291015625,0.7624969482421875,0.069610595703125
20220113-1758,2022-01-13 17:58:57Z,u01, 100,40,movements,el-ex, rt, d,115655.42892175, -1.4513223632241117, -0.8044149598513239, -0.17910326570283558, 2.3356943130493164, -0.6461701989173889, 0.18670959770679474, -0.6885889172554016, 0.720425009727478, -0.08266212791204453, 0.049718618392944336, 0.4521822929382324, -0.31077057123184204, -0.34626908646319177, -0.5820366455481802, 0.7088390229173601,0.1971756775863282,-0.6395416259765625,1.1818695068359375,-0.4111785888671875
20220113-1758,2022-01-13 17:58:57Z,u01, 101,40,movements,el-ex, rt, d,115655.45386775001, -1.40377358358844, -0.8018109753673158, -0.08773834773180329, 2.9144535064697266, -0.5455290675163269, 0.3752366304397583, -0.6857292056083679, 0.7186166048049927, -0.11560940742492676, -0.07421952486038208, -0.022464990615844727, 0.04598343372344971, -0.32379002854940764, -0.5808229613098894, 0.7134496467666542,0.22089421964152645,-0.6946868896484375,0.7385711669921875,-0.04949951171875
20220113-1758,2022-01-13 17:58:57Z,u01, 102,40,movements,el-ex, rt, d,115655.47881375, -1.3318854724811666, -0.7910406587067168, 0.0240631307914962, 3.5241894721984863, -0.14238043129444122, 0.107208251953125, -0.6831349730491638, 0.7110853791236877, -0.16638615727424622, -0.19313156604766846, -0.025111258029937744, -0.23334844410419464, -0.2960846317214282, -0.5737079526875464, 0.7227104009243316,0.24674441348720208,-0.8635101318359375,0.680206298828125,-0.4062347412109375
20220113-1758,2022-01-13 17:58:57Z,u01, 103,40,movements,el-ex, rt, d,115655.50375875001, -1.2470535868355141, -0.7703228819014282, 0.14794513640951582, 3.2545571327209473, -0.14194458723068237, 0.2938145101070404, -0.680402934551239, 0.6963670253753662, -0.2283080816268921, 0.09676963090896606, -0.17938411235809326, -0.09366767108440399, -0.26418351152770936, -0.5621859397657367, 0.7340774673918156,0.27437957332148094,-0.5968780517578125,0.5344696044921875,-0.3752899169921875
20220113-1758,2022-01-13 17:58:57Z,u01, 104,40,movements,el-ex, rt, d,115655.52870475, -1.1916918404817962, -0.7598927030259716, 0.23083362198553542, 1.3184510469436646, 0.007764006033539772, 0.4086335599422455, -0.6734386682510376, 0.6888436675071716, -0.268280953168869, 0.0549236536026001, -0.1564493179321289, 0.19329923391342163, -0.24489757936890055, -0.5530684431440538, 0.7395650405951308,0.2952693251874243,-0.621917724609375,0.5353546142578125,-0.0697174072265625
20220113-1758,2022-01-13 17:58:57Z,u01, 105,40,movements,el-ex, rt, d,115655.55365075001, -1.1638707946786424, -0.7574103821527329, 0.2739676299001407, 1.6509732007980347, -0.028360243886709213, 0.6017307639122009, -0.6672834753990173, 0.6870421171188354, -0.28758639097213745, 0.18402236700057983, -0.035095155239105225, -0.14742648601531982, -0.23623046996284117, -0.548089384579856, 0.7411863764520705,0.30730432511884864,-0.5058746337890625,0.6138916015625,-0.4181671142578125
20220113-1758,2022-01-13 17:58:57Z,u01, 106,40,movements,el-ex, rt, d,115655.57859675001, -1.1167252209241292, -0.7502972429085468, 0.3404212101932317, 1.8672157526016235, 0.23084069788455963, 0.442761093378067, -0.6573638916015625, 0.6818562150001526, -0.320850133895874, 0.1603851318359375, 0.34460246562957764, -0.26650649309158325, -0.22276975988856246, -0.5384687245631963, 0.7448530165300885,0.3249908007467752,-0.4985809326171875,1.039581298828125,-0.589141845703125
20220113-1758,2022-01-13 17:58:57Z,u01, 107,40,movements,el-ex, rt, d,115655.60354275, -1.0666197178116597, -0.7426114728773208, 0.39786832382156884, 1.093474268913269, 0.6523098945617676, 0.5470814108848572, -0.6450387239456177, 0.6762140989303589, -0.3558923900127411, 0.13084805011749268, 0.15749549865722656, 0.2015802264213562, -0.21266039788231414, -0.5261457622709829, 0.7501671004213515,0.3394044562375186,-0.5028839111328125,0.8697052001953125,-0.198822021484375
20220113-1758,2022-01-13 17:58:57Z,u01, 108,40,movements,el-ex, rt, d,115655.62848875001, -1.041716386504902, -0.7552121213811706, 0.4049984636346785, -1.0990601778030396, 0.8211066722869873, 0.5452781915664673, -0.6285708546638489, 0.6854431629180908, -0.36751389503479004, 0.0580751895904541, 0.011852920055389404, 0.43817734718322754, -0.22023916427935, -0.5174338176042195, 0.7529102103311178,0.34188189113844075,-0.5665130615234375,0.6934814453125,0.0335235595703125
20220113-1758,2022-01-13 17:58:57Z,u01, 109,40,movements,el-ex, rt, d,115655.65343475001, -1.048812729086456, -0.7895456823867304, 0.37004888566508753, -1.5634485483169556, 0.4756276607513428, 0.9027376174926758, -0.6103951334953308, 0.7100334167480469, -0.35109850764274597, 0.11951994895935059, -0.0622827410697937, -0.2080293595790863, -0.24220548703750755, -0.5155455875463655, 0.7499759477746324,0.33628146450687196,-0.502349853515625,0.6230926513671875,-0.53631591796875
20220113-1758,2022-01-13 17:58:57Z,u01, 110,40,movements,el-ex, rt, d,115655.67838075, -1.0404752234953927, -0.8193603619786629, 0.3634784989305146, -0.19944341480731964, 0.8330761194229126, 0.774431049823761, -0.5889178514480591, 0.7307093143463135, -0.3453110456466675, 0.04677307605743408, 0.27052658796310425, 0.057591259479522705, -0.2575182697356622, -0.5109097888976868, 0.7470034353428135,0.3385874069847892,-0.555908203125,1.016143798828125,-0.24713134765625
20220113-1758,2022-01-13 17:58:57Z,u01, 111,40,movements,el-ex, rt, d,115655.70332675001, -1.0184478663206868, -0.8426231303709572, 0.3643097864874214, -0.8213988542556763, 0.8268067836761475, 0.8940501809120178, -0.5665425062179565, 0.7463914155960083, -0.34918347001075745, -0.10481363534927368, -0.05454283952713013, 0.18228277564048767, -0.27057509879818503, -0.5021925780735114, 0.7474739089958153,0.340403024134435,-0.66827392578125,0.6910858154296875,-0.129425048828125
20220113-1758,2022-01-13 17:58:57Z,u01, 112,40,movements,el-ex, rt, d,115655.72827275001, -1.0104380757687612, -0.8767249042515342, 0.34842675614009877, -0.9650779366493225, 0.7220831513404846, 1.0707758665084839, -0.5418435335159302, 0.7686480283737183, -0.33997905254364014, -0.08025729656219482, -0.11352723836898804, -0.07640278339385986, -0.2898459977840208, -0.495983644380483, 0.7447264972083909,0.3396644552277298,-0.6171112060546875,0.6289520263671875,-0.4373931884765625
20220113-1758,2022-01-13 17:58:57Z,u01, 113,40,movements,el-ex, rt, d,115655.75321875, -0.9987472368858744, -0.9112012950994939, 0.34704740193940464, -1.0019768476486206, 0.4612441956996918, 1.2409359216690063, -0.5152356624603271, 0.790240466594696, -0.3317413330078125, 0.04320502281188965, -0.2588074207305908, 0.18661493062973022, -0.30622283232438685, -0.49026208191078335, 0.7401178760263725,0.343651372944088,-0.4505767822265625,0.5324859619140625,-0.2014617919921875
20220113-1758,2022-01-13 17:58:57Z,u01, 114,40,movements,el-ex, rt, d,115655.77816475001, -1.01053671916567, -0.9633356784425237, 0.3181945243609461, -2.473090171813965, 0.4420486092567444, 1.533651351928711, -0.4835210144519806, 0.8211000561714172, -0.30331817269325256, -0.1314539611339569, -0.5285434722900391, 0.2652932107448578, -0.33229142621625485, -0.48777384677032953, 0.7301660452881771,0.34426225866552634,-0.62017822265625,0.2830657958984375,-0.0453948974609375
20220113-1758,2022-01-13 17:58:57Z,u01, 115,40,movements,el-ex, rt, d,115655.80311075001, -1.0696822747274937, -1.0364836530401131, 0.2379873569908092, -3.196871757507324, 0.343001127243042, 1.728298306465149, -0.44663625955581665, 0.8606188297271729, -0.24464496970176697, -0.18021002411842346, -0.3959430456161499, 0.3657081127166748, -0.37060033323494374, -0.4902376020277159, 0.7121201370527348,0.33942207982917055,-0.6078948974609375,0.4715576171875,-0.10614013671875
20220113-1758,2022-01-13 17:58:57Z,u01, 116,40,movements,el-ex, rt, d,115655.82805675, -1.1392446095962636, -1.117872692959824, 0.1335434492751651, -3.8008193969726562, 1.2754031419754028, 2.471676826477051, -0.3974763751029968, 0.8991715908050537, -0.18303805589675903, -0.42010483145713806, -0.6992815732955933, 0.6311581134796143, -0.41505207470626543, -0.48601722774438133, 0.6932800327720758,0.3329891673399984,-0.8024444580078125,0.1739044189453125,0.4030303955078125
20220113-1758,2022-01-13 17:58:57Z,u01, 117,40,movements,el-ex, rt, d,115655.85300275001, -1.3514150182840141, -1.225809275554954, -0.11417273331267881, -6.0281291007995605, -0.05366140604019165, 2.7497975826263428, -0.33007895946502686, 0.94107985496521, -0.07359766215085983, 0.7000893354415894, -1.0119569301605225, -0.3110154867172241, -0.4773026556245286, -0.4851632119347118, 0.6577294182534595,0.3227860522201822,0.257720947265625,-0.124969482421875,-0.49652099609375
20220113-1758,2022-01-13 17:58:57Z,u01, 118,40,movements,el-ex, rt, d,115655.87794875001, -1.8263151049686672, -1.2893580607093573, -0.5892380252609523, -4.839736461639404, -1.2327704429626465, 2.8613669872283936, -0.26872023940086365, 0.960657000541687, 0.07019748538732529, 0.4362006187438965, -0.38152486085891724, 0.19165849685668945, -0.5351872266189989, -0.49867160950203115, 0.6056213915054591,0.31324753576513076,0.1291656494140625,0.616485595703125,0.286773681640625
20220113-1758,2022-01-13 17:58:57Z,u01, 119,40,movements,el-ex, rt, d,115655.90289475, -2.2701192681100895, -1.311816292577719, -1.0243294421121345, -2.5406579971313477, -0.7538667917251587, 2.661679267883301, -0.19598330557346344, 0.9666516780853271, 0.16484776139259338, -0.27919065952301025, 0.693489134311676, 0.13578079640865326, -0.5764706897104329, -0.5001054103516227, 0.5625273102135158,0.3180236298083474,-0.45318603515625,1.5894622802734375,0.38604736328125
20220113-1758,2022-01-13 17:58:57Z,u01, 120,40,movements,el-ex, rt, d,115655.92783975, -2.613728480431651, -1.309310569473782, -1.3608883153912095, -2.3263423442840576, -0.6972677707672119, 2.5613038539886475, -0.1302117109298706, 0.9660069346427917, 0.22332794964313507, -0.07041089236736298, -0.06821036338806152, 0.2211756706237793, -0.6052563179833282, -0.4953067370962024, 0.5306643622024264,0.3266975917958238,-0.181793212890625,0.852325439453125,0.4269866943359375
20220113-1758,2022-01-13 17:58:57Z,u01, 121,40,movements,el-ex, rt, d,115655.95278575, -2.930812763323847, -1.2598528324406546, -1.6720994649686391, -3.562612295150757, -0.8324171900749207, 2.292598247528076, -0.06401317566633224, 0.9520453214645386, 0.2991858422756195, 0.10621893405914307, -0.2012975811958313, 0.5511863231658936, -0.6378062074341841, -0.49274351336150535, 0.491663677641835,0.3296573420076979,0.0727691650390625,0.7492218017578125,0.830108642578125
20220113-1758,2022-01-13 17:58:57Z,u01, 122,40,movements,el-ex, rt, d,115655.97773175001, -3.117312526043635, -1.1688377029326424, -1.8469953011683113, -4.331287384033203, -1.1144160032272339, 1.7226308584213257, -0.00949797872453928, 0.9202964901924133, 0.39110636711120605, -0.06218786537647247, -0.049782514572143555, 0.47240370512008667, -0.6693110095626416, -0.4975700543667465, 0.44618478071303713,0.3246012585031892,-0.0674591064453125,0.8869476318359375,0.850494384765625
20220113-1758,2022-01-13 17:58:57Z,u01, 123,40,movements,el-ex, rt, d,115656.00267775, 3.0610370692643505, -1.0578998944705253, -1.922571611900309, -3.9426543712615967, -1.8158003091812134, 1.260488748550415, 0.039486125111579895, 0.8713268637657166, 0.48911166191101074, 0.02414296567440033, 0.7231249809265137, -0.08394515514373779, -0.695668311864335, -0.5104913635278276, 0.3935213092112217,0.317151562016596,0.0634918212890625,1.50958251953125,0.4518890380859375
20220113-1758,2022-01-13 17:58:57Z,u01, 124,40,movements,el-ex, rt, d,115656.02762375001, 2.982821117064853, -0.9907052620050563, -1.9552325058942193, -1.561529517173767, -2.110593318939209, 0.5831635594367981, 0.08665753155946732, 0.8364127278327942, 0.5412061810493469, -0.1452513337135315, 0.8565651178359985, -0.1218184232711792, -0.7061328105236446, -0.5215165816034603, 0.35389498636002187,0.3227308871273919,-0.0678863525390625,1.6868438720703125,0.4395294189453125
20220113-1758,2022-01-13 17:58:57Z,u01, 125,40,movements,el-ex, rt, d,115656.05256975001, 2.9367280411628696, -0.9490571437885519, -1.9506695522246071, -1.877943992614746, -1.921976089477539, -0.0724734291434288, 0.11849047243595123, 0.8128666877746582, 0.5702700614929199, -0.14215688407421112, 0.46189844608306885, 0.3818783760070801, -0.7063490661784766, -0.5349822595920949, 0.32527993332059896,0.33023931090415504,-0.0516815185546875,1.36163330078125,0.901763916015625
20220113-1758,2022-01-13 17:58:58Z,u01, 126,40,movements,el-ex, rt, d,115656.07751575, 2.9098077066418444, -0.8974072733815603, -1.9244106918436552, -2.5604705810546875, -1.9787826538085938, -0.20782965421676636, 0.14325915277004242, 0.7817125916481018, 0.6069609522819519, -0.03396053612232208, 0.1392161250114441, 0.5167571306228638, -0.7056010400756865, -0.5528179260642317, 0.2939592276940582,0.33182420736758395,0.1149444580078125,0.9076080322265625,1.120361328125
20220113-1758,2022-01-13 17:58:58Z,u01, 127,40,movements,el-ex, rt, d,115656.10246175001, 2.888802962799932, -0.8299762692949202, -1.8893443173390183, -2.667994499206543, -1.5392569303512573, -0.2703566253185272, 0.16879479587078094, 0.7379153370857239, 0.6534439921379089, -0.15997527539730072, 0.3244625926017761, 0.08907902240753174, -0.7058283580053657, -0.5731739032576879, 0.25649058387215035,0.3278574776100284,0.0391693115234375,0.973358154296875,0.81878662109375
20220113-1758,2022-01-13 17:58:58Z,u01, 128,40,movements,el-ex, rt, d,115656.12740775001, 2.8790434579470783, -0.790317173277037, -1.8613517316836266, -0.3613719642162323, -0.9698159098625183, -0.4140654504299164, 0.18261969089508057, 0.7105764746665955, 0.6795075535774231, -0.04136918485164642, 0.61013263463974, -0.19639933109283447, -0.7037499400501169, -0.5869325270309246, 0.23392733302082275,0.32484465152986514,0.1652069091796875,1.2984619140625,0.5323486328125
20220113-1758,2022-01-13 17:58:58Z,u01, 129,40,movements,el-ex, rt, d,115656.15235375, 2.8671904126033194, -0.7972193246830651, -1.8512375072816127, 0.2955825924873352, -0.5060216188430786, -0.1494670808315277, 0.18932752311229706, 0.7154160141944885, 0.672558605670929, 0.18773238360881805, 0.15123742818832397, -0.065243661403656, -0.6975106888533837, -0.5914035307614203, 0.23140674995345623,0.33192111759764786,0.3665618896484375,0.8912200927734375,0.6373748779296875
20220113-1758,2022-01-13 17:58:58Z,u01, 130,40,movements,el-ex, rt, d,115656.17729975001, 2.8560639989251695, -0.8111909448736877, -1.8612768501830845, 1.1054226160049438, -0.03969205915927887, 0.16497521102428436, 0.19396431744098663, 0.7251077890396118, 0.6607545614242554, 0.22351610660552979, 0.24142968654632568, -0.27212852239608765, -0.6959030019475498, -0.5882994858619593, 0.2351314345218989,0.338136002531957,0.4220428466796875,0.988555908203125,0.3524322509765625
20220113-1758,2022-01-13 17:58:58Z,u01, 131,40,movements,el-ex, rt, d,115656.20224575001, 2.841702738941879, -0.834694318095278, -1.8750830276991022, 0.3671970069408417, -0.2463895082473755, -0.04097256064414978, 0.19834287464618683, 0.7410913109779358, 0.6414387226104736, 0.3040069341659546, 0.4719671607017517, -0.3840078115463257, -0.6928146702378168, -0.5837184110063511, 0.2422646326005249,0.34725847214120703,0.512237548828125,1.2421112060546875,0.2708892822265625
20220113-1758,2022-01-13 17:58:58Z,u01, 132,40,movements,el-ex, rt, d,115656.22719175, 2.8405874740240926, -0.8260935910622655, -1.8651695313388612, -0.5594512820243835, -0.4098820984363556, -0.13868799805641174, 0.2009405493736267, 0.7352893948554993, 0.6472808718681335, 0.3154626190662384, 0.17416507005691528, -0.26170653104782104, -0.6914473560677297, -0.5878273432555865, 0.23693322495112412,0.3467308108889296,0.514984130859375,0.88995361328125,0.4067840576171875
20220113-1758,2022-01-13 17:58:58Z,u01, 133,40,movements,el-ex, rt, d,115656.25213775001, 2.837835088399164, -0.8285893909045188, -1.8626914295835628, 0.12018181383609772, 0.045375898480415344, -0.13543900847434998, 0.20217181742191315, 0.7369786500930786, 0.6449722051620483, 0.010459363460540771, 0.28905290365219116, 0.16128689050674438, -0.6897392069478497, -0.5888513740939164, 0.23664467285837984,0.3485874801819946,0.241302490234375,0.910430908203125,0.776397705078125
20220113-1758,2022-01-13 17:58:58Z,u01, 134,40,movements,el-ex, rt, d,115656.27708375001, 2.841200850794663, -0.8415693968145974, -1.8637551791847875, 1.0774805545806885, 0.2310606688261032, -0.21591562032699585, 0.19715248048305511, 0.7456896901130676, 0.6364569664001465, 0.033011019229888916, 0.3879925012588501, 0.14682221412658691, -0.6880195405082213, -0.587245780840513, 0.2427635661176759,0.35048149816368107,0.2317962646484375,1.1243896484375,0.779937744140625
20220113-1758,2022-01-13 17:58:58Z,u01, 135,40,movements,el-ex, rt, d,115656.30202875001, 2.846499243306625, -0.863949445463719, -1.8685655217151074, 0.4245317280292511, 0.4750891923904419, -0.10797969251871109, 0.18887585401535034, 0.760413408279419, 0.6213670372962952, -0.009478345513343811, -0.12718898057937622, 0.26379507780075073, -0.6857830179208949, -0.5834253722164254, 0.25366473704304765,0.3535117718292875,0.1923828125,0.6969146728515625,0.8459930419921875
20220113-1758,2022-01-13 17:58:58Z,u01, 136,40,movements,el-ex, rt, d,115656.32697475, 2.8658611597322827, -0.8580146946606808, -1.8586206525185955, -0.9872964024543762, 0.436535120010376, -0.23769454658031464, 0.17803601920604706, 0.7565457820892334, 0.6292392611503601, -0.08585768938064575, -0.28359949588775635, 0.29291051626205444, -0.6874804829767893, -0.5847992910077625, 0.2553309011158821,0.34667942186474876,0.0875396728515625,0.4741668701171875,0.9150238037109375
20220113-1758,2022-01-13 17:58:58Z,u01, 137,40,movements,el-ex, rt, d,115656.35192075, 2.8956582308274808, -0.8298828324745684, -1.8359172257336398, -1.2604464292526245, 0.6240028738975525, -0.37370043992996216, 0.1643281877040863, 0.7378522753715515, 0.6546529531478882, -0.13638941943645477, -0.03698563575744629, 0.17159539461135864, -0.6914276870523188, -0.5909773530898437, 0.24963377412378562,0.3321996049122077,0.035247802734375,0.6552581787109375,0.8302764892578125
20220113-1758,2022-01-13 17:58:58Z,u01, 138,40,movements,el-ex, rt, d,115656.37686637501, 2.9282691979141364, -0.8141973362255016, -1.81729028247851, -0.15744131803512573, 0.9219810962677002, -0.38658130168914795, 0.14532826840877533, 0.7271748185157776, 0.6708923578262329, -0.1738012284040451, -0.021486341953277588, 0.053900063037872314, -0.6941845062881234, -0.5946041143282836, 0.25039357931136913,0.3191502942124814,-0.03179931640625,0.7073822021484375,0.7273101806640625
20220113-1758,2022-01-13 17:58:58Z,u01, 139,40,movements,el-ex, rt, d,115656.40181237501, 2.9600891140647936, -0.8193781035109957, -1.8039408651273727, 0.22575801610946655, 0.8304821252822876, -0.44977515935897827, 0.12322881072759628, 0.7307214140892029, 0.6714614629745483, -0.11564526706933975, -0.06601816415786743, 0.035706937313079834, -0.6942794619749744, -0.5947325048212413, 0.2596749661892856,0.31118815834371794,0.011566162109375,0.6836090087890625,0.719024658203125
20220113-1758,2022-01-13 17:58:58Z,u01, 140,40,movements,el-ex, rt, d,115656.426758375, 2.994150479623511, -0.8277201896433098, -1.7827941228170694, 0.5008463859558105, 0.6417267918586731, -0.7642223834991455, 0.0993918627500534, 0.7363908886909485, 0.6692155003547668, -0.06693649291992188, 0.009412884712219238, 0.029865801334381104, -0.6917265481863547, -0.5967596850894189, 0.26962849326345706,0.3044546248579675,0.03607177734375,0.7611846923828125,0.7005157470703125
20220113-1758,2022-01-13 17:58:58Z,u01, 141,40,movements,el-ex, rt, d,115656.45170437501, 3.0265483631475227, -0.8671261810811489, -1.7593342676543908, 2.653167963027954, 0.5839827656745911, -0.7574337124824524, 0.07427191734313965, 0.7624726891517639, 0.6427434086799622, -0.09465771168470383, 0.28634023666381836, 0.1490655541419983, -0.6826822399750887, -0.5960844539230779, 0.2899139348001576,0.307535683393977,-0.00048828125,1.02655029296875,0.836700439453125
20220113-1758,2022-01-13 17:58:58Z,u01, 142,40,movements,el-ex, rt, d,115656.47665037501, 3.0543519506482832, -0.9530624232588707, -1.7443526618980272, 3.536386251449585, 0.6072386503219604, -0.7067031264305115, 0.050464823842048645, 0.8151930570602417, 0.5769867300987244, -0.21565651893615723, -0.005805790424346924, -0.24838870763778687, -0.6669095864344206, -0.5862806313706627, 0.32598467286605215,0.3244081592191497,-0.172027587890625,0.773895263671875,0.2869720458984375
20220113-1758,2022-01-13 17:58:58Z,u01, 143,40,movements,el-ex, rt, d,115656.501596375, 3.0811651299628524, -1.0276976899652357, -1.719706928471059, 1.6091722249984741, 0.05239645764231682, -0.8986536264419556, 0.031209375709295273, 0.856111466884613, 0.515847384929657, -0.11107394099235535, -0.5679036974906921, -0.3145536780357361, -0.6499001010891023, -0.5792698412494368, 0.35512035816077125,0.3405372626899786,-0.09136962890625,0.1888427734375,0.0221405029296875
20220113-1758,2022-01-13 17:58:58Z,u01, 144,40,movements,el-ex, rt, d,115656.52654237501, 3.1322437386300646, -1.0213960956412549, -1.6655098422346322, -1.2436060905456543, 0.0659753754734993, -1.463042974472046, 0.004881708417087793, 0.852837860584259, 0.5221531987190247, -0.002272512298077345, -0.17122769355773926, -0.023541748523712158, -0.6438491277982649, -0.5886721580808411, 0.35885033136933453,0.3318883941871681,0.0124664306640625,0.6878662109375,0.464813232421875
20220113-1758,2022-01-13 17:58:58Z,u01, 145,40,movements,el-ex, rt, d,115656.551488375, -3.099171901482077, -0.9932719536962888, -1.5967110083224136, -0.6819928288459778, -0.5556069016456604, -1.3963630199432373, -0.02315271645784378, 0.8378167748451233, 0.5454601049423218, 0.0505727082490921, 0.5479405522346497, -0.7520185112953186, -0.6365951622321554, -0.6061985238923716, 0.35418918713091424,0.31909228311538956,0.023773193359375,1.310760498046875,-0.248016357421875
20220113-1758,2022-01-13 17:58:58Z,u01, 146,40,movements,el-ex, rt, d,115656.576434375, -3.0568042831981264, -0.9952722784628637, -1.527601195017171, 0.8823933601379395, -0.6698219776153564, -1.5848091840744019, -0.04609288275241852, 0.8389071822166443, 0.5423193573951721, 0.12426359951496124, 0.422643780708313, -0.2897558808326721, -0.6218456578978854, -0.6200545611605494, 0.35676845547062,0.31867950533908507,0.0808563232421875,1.237701416015625,0.283935546875
20220113-1758,2022-01-13 17:58:58Z,u01, 147,40,movements,el-ex, rt, d,115656.60138037501, -3.0072451043938746, -1.0164999008901099, -1.4538607925436253, 0.8687742352485657, -0.2602141797542572, -1.3223234415054321, -0.07050060480833054, 0.8502709865570068, 0.5216018557548523, -0.005747601389884949, 0.10918617248535156, 0.07968580722808838, -0.6036735104588038, -0.6295865510866836, 0.3665034256888899,0.3238428089610078,-0.057647705078125,0.9727630615234375,0.60858154296875
20220113-1758,2022-01-13 17:58:58Z,u01, 148,40,movements,el-ex, rt, d,115656.626326375, -2.9570151932570394, -1.0347243229789242, -1.3934759733303592, 1.0112709999084473, 0.06257252395153046, -0.8973383903503418, -0.09374097734689713, 0.8597216010093689, 0.5020872950553894, 0.07759711891412735, -0.08330857753753662, 0.042620956897735596, -0.5903193073935284, -0.6344814963878548, 0.37746618362984635,0.326306152126042,-0.0092620849609375,0.7650909423828125,0.5449676513671875
20220113-1758,2022-01-13 17:58:58Z,u01, 149,40,movements,el-ex, rt, d,115656.651272375, -2.913142027819422, -1.053547583305113, -1.3456227817800366, 0.8977982401847839, 0.12940189242362976, -0.6675869822502136, -0.11198670417070389, 0.8691829442977905, 0.4816432595252991, 0.09573603421449661, -0.19596517086029053, -0.03236326575279236, -0.5800074030513885, -0.6359347828596229, 0.38831801780661873,0.32922266510840387,-0.0046234130859375,0.6702728271484375,0.4726104736328125
20220113-1758,2022-01-13 17:58:58Z,u01, 150,40,movements,el-ex, rt, d,115656.676217375, -2.875637638203617, -1.0715191941884052, -1.305280632372691, 0.9065871834754944, -0.02325855940580368, -0.5261881351470947, -0.12584106624126434, 0.8779289126396179, 0.461957722902298, 0.09031853079795837, 0.017807841300964355, -0.12746983766555786, -0.5713578481466952, -0.6360260014767025, 0.39785674921360226,0.3327629220184754,-0.0316619873046875,0.9097900390625,0.32965087890625
20220113-1758,2022-01-13 17:58:58Z,u01, 151,40,movements,el-ex, rt, d,115656.70116337501, -2.8481105040977956, -1.0833762237077262, -1.2695950050138307, 0.24886281788349152, -0.3333791196346283, -0.5646072030067444, -0.13548709452152252, 0.8835440874099731, 0.44832250475883484, 0.23395200073719025, 0.19636625051498413, -0.014683067798614502, -0.563357610333402, -0.6378004820462336, 0.40333904483364313,0.33638720757576707,0.0778656005859375,1.0822601318359375,0.4178619384765625
20220113-1758,2022-01-13 17:58:58Z,u01, 152,40,movements,el-ex, rt, d,115656.72610937501, -2.835022118007016, -1.0742387596281373, -1.2385034600701978, -0.5463278889656067, -0.7021887898445129, -0.7370802760124207, -0.1437736451625824, 0.8792277574539185, 0.4541890025138855, 0.243047297000885, 0.03323251008987427, 0.16934609413146973, -0.5564637903010601, -0.6460979380859689, 0.4003264151650405,0.33562515431297035,0.088897705078125,0.904510498046875,0.6193695068359375
20220113-1758,2022-01-13 17:58:58Z,u01, 153,40,movements,el-ex, rt, d,115656.751055375, -2.8278816701687277, -1.0537508541810283, -1.214105528462087, -0.4677070081233978, -0.49383360147476196, -0.7386178970336914, -0.15254056453704834, 0.8692834377288818, 0.4701886773109436, 0.08930811285972595, 0.1330357789993286, -0.0022627413272857666, -0.5515481120005107, -0.6564213695382259, 0.394223228673498,0.33089818599624155,-0.0695343017578125,0.965667724609375,0.50311279296875
20220113-1758,2022-01-13 17:58:58Z,u01, 154,40,movements,el-ex, rt, d,115656.77600137501, -2.811687936400109, -1.0484775850137513, -1.180093561520271, 0.6499963402748108, -0.601557731628418, -0.6746929883956909, -0.16161707043647766, 0.866664707660675, 0.4719870686531067, 0.24372456967830658, 0.24255752563476562, -0.07043689489364624, -0.5434360115715611, -0.663830432268179, 0.3928452549059732,0.33117809358985306,0.0904083251953125,1.103912353515625,0.4081268310546875
20220113-1758,2022-01-13 17:58:58Z,u01, 155,40,movements,el-ex, rt, d,115656.80094737501, -2.7837950594684084, -1.0721375316667343, -1.1289551390241919, 1.7194758653640747, -0.6496360898017883, -0.5322930812835693, -0.16748817265033722, 0.878224790096283, 0.4479605257511139, 0.19463354349136353, 0.029581427574157715, 0.05460280179977417, -0.5293778299983687, -0.6661376549739372, 0.3981344118071959,0.34279530282082493,0.050933837890625,0.927276611328125,0.4782257080078125
20220113-1758,2022-01-13 17:58:58Z,u01, 156,40,movements,el-ex, rt, d,115656.825893375, -2.7426239212480783, -1.113261595898124, -1.0680217966983772, 1.8853795528411865, -0.4091665744781494, -0.3519822359085083, -0.17160099744796753, 0.8971441984176636, 0.40704435110092163, 0.12788453698158264, -0.036212921142578125, 0.1513204276561737, -0.5137018738954134, -0.6630479316254849, 0.4084052907921755,0.3601150655269565,-0.04364013671875,0.861114501953125,0.55682373046875
20220113-1758,2022-01-13 17:58:58Z,u01, 157,40,movements,el-ex, rt, d,115656.85083937501, -2.7076691408866047, -1.1439197393521365, -1.0170935266195624, 1.0045515298843384, -0.5298222303390503, -0.27440813183784485, -0.1740720570087433, 0.9102633595466614, 0.3756585717201233, 0.1102597564458847, 0.017821848392486572, 0.12070977687835693, -0.5015877474645668, -0.6604839296644023, 0.4154728222156256,0.37356792273062767,-0.0462188720703125,0.9123992919921875,0.5215911865234375
20220113-1758,2022-01-13 17:58:58Z,u01, 158,40,movements,el-ex, rt, d,115656.87578537501, -2.684581165932621, -1.1565367712184245, -0.9769330411381538, 0.5463781952857971, -0.48622041940689087, -0.4656079411506653, -0.1776156723499298, 0.9154146313667297, 0.3612040877342224, -0.04705478250980377, 0.09424400329589844, -0.057401686906814575, -0.4920906173076056, -0.6621547153858618, 0.41733344507650194,0.3810913464743173,-0.23284912109375,1.0187530517578125,0.2880401611328125
20220113-1758,2022-01-13 17:58:58Z,u01, 159,40,movements,el-ex, rt, d,115656.900731375, -2.6563396491913873, -1.1668171912628185, -0.9305900760434124, 1.1035367250442505, -0.7458910942077637, -0.5423245429992676, -0.18334518373012543, 0.9195041656494141, 0.34770169854164124, 0.07778485119342804, -0.04638111591339111, -0.1817014515399933, -0.48177964619467967, -0.66463465549079, 0.4191253522890992,0.38792141350601844,-0.107757568359375,0.886505126953125,0.150970458984375
20220113-1758,2022-01-13 17:58:58Z,u01, 160,40,movements,el-ex, rt, d,115656.92567737501, -2.58512250902335, -1.1945522594504452, -0.833481465758698, 2.3548946380615234, -0.7108142375946045, -0.9226879477500916, -0.19407358765602112, 0.9300512075424194, 0.311993807554245, -0.12504880130290985, 0.37500250339508057, -0.23508962988853455, -0.46307630356919677, -0.6644977371560775, 0.4265615732410043,0.4025522520135334,-0.326629638671875,1.33612060546875,0.073944091796875
20220113-1758,2022-01-13 17:58:58Z,u01, 161,40,movements,el-ex, rt, d,115656.950623375, -2.4059543773644303, -1.2444530809627146, -0.6245668272053096, 4.136211395263672, -0.6042494177818298, -1.169897198677063, -0.21512959897518158, 0.9472209811210632, 0.23767997324466705, -0.047840431332588196, 0.36418044567108154, -0.06148681044578552, -0.4323974910482605, -0.6571699887893562, 0.4451495526926359,0.42778723280204634,-0.2826995849609375,1.3856353759765625,0.1410369873046875
20220113-1758,2022-01-13 17:58:58Z,u01, 162,40,movements,el-ex, rt, d,115656.975569375, -2.1076824922484776, -1.2901209756239773, -0.2995968555342322, 3.991204023361206, -0.3714447617530823, -1.0651713609695435, -0.23803116381168365, 0.9608685970306396, 0.14167729020118713, 0.04656386375427246, 0.030815184116363525, 0.11045895516872406, -0.39749811331155693, -0.6425215151562026, 0.4685068155887796,0.45788928279115354,-0.19024658203125,0.9825592041015625,0.2503509521484375
20220113-1758,2022-01-13 17:58:58Z,u01, 163,40,movements,el-ex, rt, d,115657.00051537501, -1.7823620357691288, -1.3005185558488235, 0.04306160643821497, 3.2590765953063965, -0.12412458658218384, -0.9387952089309692, -0.26104599237442017, 0.9636967778205872, 0.05606741085648537, 0.09963846206665039, 0.035997986793518066, 0.28400516510009766, -0.3670691263899337, -0.6271315347680211, 0.4899815014675848,0.481543800683045,-0.174041748046875,1.0579071044921875,0.3596038818359375
20220113-1758,2022-01-13 17:58:58Z,u01, 164,40,movements,el-ex, rt, d,115657.025461375, -1.5259090537991729, -1.2834635400802612, 0.30858846031126913, 2.4976093769073486, 0.25148046016693115, -0.8661921620368958, -0.2831098735332489, 0.9590031504631042, -0.012716572731733322, 0.09553351998329163, -0.03451889753341675, 0.33511948585510254, -0.34243902164582796, -0.6134959088370737, 0.5085539236721622,0.4977260131226315,-0.192108154296875,0.931793212890625,0.322998046875
20220113-1758,2022-01-13 17:58:58Z,u01, 165,40,movements,el-ex, rt, d,115657.05040637501, -1.347314149641848, -1.2551571024426054, 0.48413197115763634, 2.04105281829834, 0.6414788365364075, -0.7769206166267395, -0.30270418524742126, 0.9505981206893921, -0.06879818439483643, 0.03283721208572388, 0.00974416732788086, 0.38077932596206665, -0.324486141163842, -0.6002579887166414, 0.52636981933873,0.5072808116559865,-0.2644500732421875,0.9660797119140625,0.31634521484375
20220113-1758,2022-01-13 17:58:59Z,u01, 166,40,movements,el-ex, rt, d,115657.075352375, -1.2026529416630665, -1.2220364395429886, 0.6155464286442972, 2.1017303466796875, 0.9616960287094116, -0.7706618905067444, -0.3188350200653076, 0.9397972226142883, -0.12298384308815002, 0.03160357475280762, 0.043707847595214844, 0.37399089336395264, -0.31046367836560707, -0.5849105758703337, 0.5453296157095208,0.513913724876152,-0.2888641357421875,0.9864959716796875,0.244537353515625
20220113-1758,2022-01-13 17:58:59Z,u01, 167,40,movements,el-ex, rt, d,115657.10029837501, -1.0637058987000276, -1.180813396328439, 0.734973642415459, 2.4422447681427, 1.2153528928756714, -0.6913595795631409, -0.3323317766189575, 0.9249155521392822, -0.18462525308132172, -0.03810587525367737, 0.09458494186401367, 0.35088497400283813, -0.2964124073712871, -0.5655325466790071, 0.56673434279787,0.520696263232353,-0.35614013671875,1.037811279296875,0.1707611083984375
20220113-1758,2022-01-13 17:58:59Z,u01, 168,40,movements,el-ex, rt, d,115657.12524437501, -0.927800705695129, -1.1310813766087346, 0.8447707994497421, 2.6879148483276367, 1.6160943508148193, -0.7084799408912659, -0.34067419171333313, 0.9048730134963989, -0.2552366852760315, -0.06635403633117676, 0.06659293174743652, 0.4000730514526367, -0.28225654341579365, -0.5410294847240459, 0.5904172685192781,0.5282288505473153,-0.4041900634765625,0.9665069580078125,0.1427001953125
20220113-1758,2022-01-13 17:58:59Z,u01, 169,40,movements,el-ex, rt, d,115657.150190375, -0.8071930149384174, -1.074387209217974, 0.9320975035737558, 2.197486639022827, 1.8114758729934692, -0.8804585933685303, -0.34403371810913086, 0.8792984485626221, -0.32935500144958496, 0.01799917221069336, -0.13682126998901367, 0.3398072421550751, -0.26880210159487294, -0.512901486104876, 0.6155457457729417,0.5345846089777863,-0.3300628662109375,0.7532958984375,0.03369140625
20220113-1758,2022-01-13 17:58:59Z,u01, 170,40,movements,el-ex, rt, d,115657.17513637501, -0.7425038895429181, -1.029084241771368, 0.9628727924017976, 1.5625027418136597, 1.456201434135437, -0.7252978682518005, -0.3486174941062927, 0.8568271994590759, -0.3798852562904358, 0.09764090180397034, -0.07150322198867798, 0.18341311812400818, -0.26024311645768966, -0.4922711570040471, 0.6363301483839195,0.5338786265338095,-0.2597808837890625,0.7881622314453125,-0.194061279296875
20220113-1758,2022-01-13 17:58:59Z,u01, 171,40,movements,el-ex, rt, d,115657.20008237501, -0.6810192083922022, -0.9817253235645921, 0.993017917063391, 2.2431640625, 1.4623095989227295, -0.7883617281913757, -0.3497905731201172, 0.8314571976661682, -0.43165451288223267, -0.03309828042984009, 0.13910865783691406, 0.1668534278869629, -0.25036625812967594, -0.47062668871091734, 0.6559207572882082,0.5344111786006099,-0.381378173828125,0.9593658447265625,-0.2528533935546875
20220113-1758,2022-01-13 17:58:59Z,u01, 172,40,movements,el-ex, rt, d,115657.225028375, -0.6126256524075911, -0.9210264409755491, 1.0325759903044032, 2.6215298175811768, 1.384877324104309, -0.7197065949440002, -0.34788748621940613, 0.7962230443954468, -0.4949779510498047, 0.0016655325889587402, 0.07532840967178345, 0.07673448324203491, -0.23514080633392692, -0.44409439228971653, 0.6766425398203777,0.5381856908318654,-0.343353271484375,0.863677978515625,-0.43048095703125
20220113-1758,2022-01-13 17:58:59Z,u01, 173,40,movements,el-ex, rt, d,115657.24997437501, -0.556913375355891, -0.8581745510992034, 1.0660811656891966, 2.627410888671875, 1.0236226320266724, -0.7328969836235046, -0.3455885648727417, 0.7566503286361694, -0.5550215244293213, 0.04080948233604431, -0.25639086961746216, 0.053648173809051514, -0.21750454275699305, -0.41854629864154197, 0.6949093649506352,0.5427815557618862,-0.2706451416015625,0.545562744140625,-0.495147705078125
20220113-1758,2022-01-13 17:58:59Z,u01, 174,40,movements,el-ex, rt, d,115657.27492037501, -0.51439182927424, -0.7964807091465612, 1.0925516841871252, 2.7460744380950928, 0.8547854423522949, -0.48432236909866333, -0.3440234363079071, 0.7148997187614441, -0.6087414026260376, 0.043287962675094604, -0.04438292980194092, -0.0330585241317749, -0.19865357303325556, -0.39517852107334833, 0.7104458667294464,0.5473912386756411,-0.2913665771484375,0.6798095703125,-0.647125244140625
20220113-1758,2022-01-13 17:58:59Z,u01, 175,40,movements,el-ex, rt, d,115657.299866375, -0.46426208506168, -0.7244053126880646, 1.1323424728636313, 3.1235296726226807, 0.882038950920105, -0.06596153229475021, -0.3353269100189209, 0.6626902222633362, -0.6696248650550842, 0.2084500789642334, 0.04203683137893677, 0.08356529474258423, -0.17562935636342497, -0.36652681823221456, 0.7243103921954713,0.5569440570710358,-0.1891326904296875,0.724517822265625,-0.6222381591796875
20220113-1758,2022-01-13 17:58:59Z,u01, 176,40,movements,el-ex, rt, d,115657.32481237501, -0.41528399970431823, -0.6615779699437926, 1.1778419539784277, 2.4676671028137207, 0.7429097294807434, 0.3534553050994873, -0.3183314800262451, 0.6143626570701599, -0.7219581604003906, 0.19142410159111023, -0.4629192352294922, 0.17285537719726562, -0.15597158618730764, -0.338664710835787, 0.7323745203033615,0.5697426223477897,-0.1312103271484375,0.130401611328125,-0.5693206787109375
20220113-1758,2022-01-13 17:58:59Z,u01, 177,40,movements,el-ex, rt, d,115657.34975837501, -0.37940728149927766, -0.6173650746306206, 1.2165920622361854, 2.25718092918396, 0.37456971406936646, 0.5376216173171997, -0.30200210213661194, 0.5788886547088623, -0.7574183940887451, 0.23515331745147705, -0.12913590669631958, 0.10977435111999512, -0.14216822815508395, -0.3179292328341159, 0.7350716956908664,0.5817032813063012,-0.01654052734375,0.43194580078125,-0.632171630859375
20220113-1758,2022-01-13 17:58:59Z,u01, 178,40,movements,el-ex, rt, d,115657.374703875, -0.34113317914955127, -0.5637571474977516, 1.2596290536541914, 2.6751902103424072, 0.7634720802307129, 0.5927274227142334, -0.2827838957309723, 0.534365713596344, -0.7965466380119324, -0.05860099196434021, -0.018771350383758545, 0.08977478742599487, -0.12549894681862506, -0.29321784697676273, 0.7371694507795774,0.5956965578747252,-0.3432464599609375,0.5231170654296875,-0.7053680419921875
20220113-1758,2022-01-13 17:58:59Z,u01, 179,40,movements,el-ex, rt, d,115657.39964887501, -0.3002560513724388, -0.5079406364752305, 1.2947479643165543, 2.263265609741211, 1.0960798263549805, 0.376268208026886, -0.25842389464378357, 0.48637890815734863, -0.8346571922302246, -0.10266011953353882, 0.11934918165206909, 0.3123030662536621, -0.11085138731806662, -0.26529865586131207, 0.7407355058602222,0.607156860269497,-0.3616485595703125,0.6034393310546875,-0.55059814453125
20220113-1758,2022-01-13 17:58:59Z,u01, 180,40,movements,el-ex, rt, d,115657.424594875, -0.25578071921998646, -0.468670133618329, 1.3221798513454124, 1.1968741416931152, 1.3235061168670654, 0.5698941946029663, -0.22571967542171478, 0.45170021057128906, -0.8631439805030823, -0.1073949933052063, 0.07358357310295105, 0.5130005478858948, -0.1056134837646088, -0.23931945536942367, 0.7432975382918835,0.6156953121929617,-0.327606201171875,0.523712158203125,-0.347015380859375
20220113-1758,2022-01-13 17:58:59Z,u01, 181,40,movements,el-ex, rt, d,115657.44954087501, -0.2102047029692316, -0.4477813600437124, 1.3492997696731082, 1.156984806060791, 1.4679360389709473, 0.7284400463104248, -0.1880882829427719, 0.4329667091369629, -0.8815682530403137, -0.06085890531539917, -0.24502423405647278, 0.2743752598762512, -0.10853503392850582, -0.21779809432361552, 0.7426837974672376,0.62386283918844,-0.232391357421875,0.238677978515625,-0.589630126953125
20220113-1758,2022-01-13 17:58:59Z,u01, 182,40,movements,el-ex, rt, d,115657.47448687501, -0.16924696659875943, -0.44570414565389155, 1.3657079800441283, -0.9174193143844604, 0.9792904853820801, 0.5481227040290833, -0.15198476612567902, 0.43109333515167236, -0.8894150853157043, -0.07718703150749207, -0.28244227170944214, -0.005177199840545654, -0.11882646892168497, -0.20291065759828114, 0.7420959403116826,0.6276951283607312,-0.2120513916015625,0.1466827392578125,-0.937408447265625
20220113-1758,2022-01-13 17:58:59Z,u01, 183,40,movements,el-ex, rt, d,115657.499432875, -0.1473331873547175, -0.48276670063021354, 1.3695664814055675, -1.592719316482544, 0.6353985071182251, 0.2450636476278305, -0.13002346456050873, 0.4642314612865448, -0.8761181831359863, -0.08848245441913605, 0.09141731262207031, -0.36895322799682617, -0.13944973321994167, -0.20614237644704067, 0.7389324836067751,0.6261293371235357,-0.1744537353515625,0.5329742431640625,-1.2822265625
20220113-1758,2022-01-13 17:58:59Z,u01, 184,40,movements,el-ex, rt, d,115657.52437887501, -0.12927263280754003, -0.5128311814915734, 1.3754092700117375, -0.7450464367866516, 0.618642270565033, 0.4718436002731323, -0.1123293787240982, 0.4906461834907532, -0.8640881776809692, -0.2610532343387604, 0.09492507576942444, -0.14502131938934326, -0.1559005173618845, -0.20892806804109806, 0.73548243302835,0.625387493353426,-0.3793487548828125,0.576171875,-1.00799560546875
20220113-1758,2022-01-13 17:58:59Z,u01, 185,40,movements,el-ex, rt, d,115657.54932487501, -0.1072533447739271, -0.5304662369660723, 1.3852832656493501, -0.9739115834236145, 0.6951006054878235, 0.3484205901622772, -0.09233638644218445, 0.505935549736023, -0.8576148748397827, -0.09589608013629913, -0.19427478313446045, -0.10825127363204956, -0.16840732139583128, -0.206957849056089, 0.7326114390836216,0.6261692895861626,-0.211151123046875,0.350982666015625,-0.9876251220703125
20220113-1758,2022-01-13 17:58:59Z,u01, 186,40,movements,el-ex, rt, d,115657.574270875, -0.09115632815377359, -0.5702206269782658, 1.3904397973133582, -1.975754737854004, 0.3886205852031708, 0.35909590125083923, -0.07662752270698547, 0.5398178100585938, -0.8382869362831116, -0.024294160306453705, -0.13011932373046875, -0.12255901098251343, -0.1877544195355161, -0.21355281579960364, 0.7279387423847129,0.6238980005988746,-0.1063385009765625,0.42279052734375,-0.9737396240234375
20220113-1758,2022-01-13 17:58:59Z,u01, 187,40,movements,el-ex, rt, d,115657.59921687501, -0.07537250901277139, -0.6144539143774196, 1.4014586006791694, -1.6115498542785645, 0.41327935457229614, 0.6041452884674072, -0.06152770668268204, 0.5765123963356018, -0.8147685527801514, -0.13146550953388214, 0.04685485363006592, -0.49286389350891113, -0.20783880304596508, -0.2223033048012189, 0.7207170164363041,0.6228573260071734,-0.2029266357421875,0.6073150634765625,-1.323028564453125
20220113-1758,2022-01-13 17:58:59Z,u01, 188,40,movements,el-ex, rt, d,115657.62416287501, -0.05891032516333609, -0.6711314550105448, 1.4131848786635532, -3.172697067260742, 0.3151920437812805, 0.41031792759895325, -0.04610708728432655, 0.6218724250793457, -0.781760036945343, -0.06665541231632233, -0.0060582756996154785, -0.18251913785934448, -0.2322980901337943, -0.23485647666762735, 0.7115486485403919,0.6201439880541519,-0.11285400390625,0.6099700927734375,-0.9386138916015625
20220113-1758,2022-01-13 17:58:59Z,u01, 189,40,movements,el-ex, rt, d,115657.649108875, -0.04768728682973639, -0.7720708066076861, 1.4185148700538708, -4.761114597320557, 0.32353121042251587, 0.3854125738143921, -0.034153446555137634, 0.6976203918457031, -0.7156530618667603, -0.043910570442676544, -0.0050850510597229, 0.10168516635894775, -0.2712537334645806, -0.26190621905595673, 0.6969554806999991,0.6099833136475075,-0.0845184326171875,0.6587677001953125,-0.6396026611328125
20220113-1758,2022-01-13 17:58:59Z,u01, 190,40,movements,el-ex, rt, d,115657.67405487501, -0.03472781321878075, -0.9035228278037676, 1.4254411581168485, -5.700690746307373, 0.2923271059989929, 0.40287238359451294, -0.02148687094449997, 0.78551185131073, -0.618473470211029, -0.031369633972644806, -0.028233468532562256, 0.08328670263290405, -0.32002379762305977, -0.2972339500407193, 0.6756257195278836,0.5939416614365148,-0.0524444580078125,0.756866455078125,-0.5358123779296875
20220113-1758,2022-01-13 17:58:59Z,u01, 191,40,movements,el-ex, rt, d,115657.699000875, -0.024075000092657575, -1.0444666817231532, 1.4324938786603205, -5.4532952308654785, 0.057959798723459244, 0.2576749324798584, -0.012093222700059414, 0.8646567463874817, -0.5022174715995789, 0.10909329354763031, 0.22703325748443604, -0.20720946788787842, -0.36936832896261335, -0.3353480235425212, 0.6497461076709311,0.5735317437483122,0.0792083740234375,1.0330047607421875,-0.706939697265625
20220113-1758,2022-01-13 17:58:59Z,u01, 192,40,movements,el-ex, rt, d,115657.72394587501, -0.01927332981138228, -1.1790110143331634, 1.442659691345016, -5.531794548034668, -0.40929901599884033, 0.29369232058525085, -0.007358850911259651, 0.924228847026825, -0.38176795840263367, 0.11233926564455032, 0.0931050181388855, -0.18686610460281372, -0.41216950192293283, -0.37313848308543285, 0.6206161688136298,0.552919003851335,0.100341796875,0.9965972900390625,-0.5518951416015625
20220113-1758,2022-01-13 17:58:59Z,u01, 193,40,movements,el-ex, rt, d,115657.748891875, -0.03532965358956996, -1.3427799959869282, 1.4426250479358687, -7.813837051391602, -0.8880540728569031, 0.14720387756824493, -0.007984433323144913, 0.9741166830062866, -0.22590401768684387, 0.046528078615665436, -0.38816410303115845, 0.12357857823371887, -0.4579348301845372, -0.42112193155090694, 0.5806055091605572,0.5252133733878636,0.0372467041015625,0.6633758544921875,-0.1707916259765625
20220113-1758,2022-01-13 17:58:59Z,u01, 194,40,movements,el-ex, rt, d,115657.77383787501, -0.21956037142190726, -1.5294062378468898, 1.2816708381604165, -6.102287292480469, -0.8472812175750732, 0.010807279497385025, -0.00901191309094429, 0.9991435408592224, -0.040383581072092056, 0.04966127127408981, -0.4610271453857422, 0.05703085660934448, -0.5043573823318673, -0.47479663124506094, 0.5295910344097171,0.48961726590699595,0.043365478515625,0.5854339599609375,0.02606201171875
20220113-1758,2022-01-13 17:58:59Z,u01, 195,40,movements,el-ex, rt, d,115657.79878387501, -2.9405348188572926, -1.527605728934494, -1.4237369563851783, -0.9925733804702759, -0.5707473158836365, -0.10477044433355331, -0.008622772060334682, 0.9990674257278442, 0.04230756685137749, 0.05647427588701248, 0.797258198261261, 0.10683178901672363, -0.5219599270401551, -0.4987099536540321, 0.5044321296345935,0.4737029133751257,0.0540924072265625,1.7091827392578125,0.1443939208984375
20220113-1758,2022-01-13 17:58:59Z,u01, 196,40,movements,el-ex, rt, d,115657.823729875, -2.9206487068583527, -1.5041976857392645, -1.391182422859577, -1.6204512119293213, -0.516857922077179, -0.3428260385990143, -0.01458358857780695, 0.9977831244468689, 0.06492826342582703, 0.0996818020939827, 0.077228844165802, 0.26788103580474854, -0.5229442696737893, -0.508913965517065, 0.4969412294063548,0.4696648411127925,0.0961456298828125,1.01849365234375,0.33648681640625
20220113-1758,2022-01-13 17:58:59Z,u01, 197,40,movements,el-ex, rt, d,115657.84867587501, -2.9976646413197443, -1.4284612714958622, -1.4517718650668998, -4.466577529907227, -0.8311148285865784, -0.2695118188858032, -0.020346377044916153, 0.9898874759674072, 0.14038746058940887, 0.22997157275676727, -0.5013316869735718, 0.11147402226924896, -0.5354915036465345, -0.532393260202285, 0.4743200110199338,0.4525778407188144,0.2177734375,0.496612548828125,0.2652130126953125
20220113-1758,2022-01-13 17:58:59Z,u01, 198,40,movements,el-ex, rt, d,115657.87362187501, -3.063544731816584, -1.3007346064574363, -1.4946734298109976, -5.048163414001465, -1.0423612594604492, -0.25285178422927856, -0.020801367238163948, 0.963754415512085, 0.2659790813922882, 0.23337149620056152, -0.4994599223136902, -0.05652174353599548, -0.5578522766112582, -0.5672656991690502, 0.4339980956958043,0.4226773988103458,0.218109130859375,0.4773406982421875,0.1963043212890625
20220113-1758,2022-01-13 17:58:59Z,u01, 199,40,movements,el-ex, rt, d,115657.898567875, -3.092520600531351, -1.1917952073161937, -1.4983147872741303, -4.708892822265625, -1.1008552312850952, -0.1799779087305069, -0.018148984760046005, 0.9290346503257751, 0.36954668164253235, 0.25350049138069153, 0.04200392961502075, 0.2779904305934906, -0.5735577345181911, -0.5964938135692303, 0.3969786401587039,0.3970320627604074,0.246978759765625,1.0691070556640625,0.5772552490234375
20220113-1758,2022-01-13 17:58:59Z,u01, 200,40,movements,el-ex, rt, d,115657.92351387501, -3.1219493170004182, -1.055278792746304, -1.5012374700349538, -6.324465274810791, -0.9805637001991272, -0.06859946250915527, -0.009683243930339813, 0.8700376749038696, 0.4928897023200989, 0.18125301599502563, -0.5936859250068665, 0.22924751043319702, -0.5929133389344494, -0.628409600572925, 0.3496185953656445,0.3623835825597125,0.16693115234375,0.2718658447265625,0.743896484375
20220113-1758,2022-01-13 17:58:59Z,u01, 201,40,movements,el-ex, rt, d,115657.94845987501, 3.1368352712859013, -0.88016783539922, -1.5015675687161552, -7.292446136474609, -0.925042986869812, -0.10414687544107437, 0.0030305455438792706, 0.7708458304405212, 0.6370147466659546, 0.12152688950300217, -0.2658103108406067, 0.18074959516525269, -0.6164654180873829, -0.662176537975117, 0.28905849663202815,0.3129502835234704,0.1209259033203125,0.4941864013671875,0.817840576171875
20220113-1758,2022-01-13 17:58:59Z,u01, 202,40,movements,el-ex, rt, d,115657.973405875, 3.1232492609072136, -0.7177442785903293, -1.4880745500462682, -5.340167045593262, -0.8691766262054443, -0.5508006811141968, 0.013817144557833672, 0.6576871275901794, 0.7531646490097046, 0.1018444150686264, 0.3345920443534851, 0.09597176313400269, -0.6317210743023792, -0.6910215744324775, 0.23153950359553807,0.2642105378221146,0.1110076904296875,1.03155517578125,0.8595733642578125
20220113-1758,2022-01-13 17:58:59Z,u01, 203,40,movements,el-ex, rt, d,115657.99835187501, 3.125087942451592, -0.6216010728068893, -1.459589142544301, -2.498018503189087, -0.37262967228889465, -1.1157760620117188, 0.01341684814542532, 0.582337498664856, 0.8128363490104675, -0.0007521100342273712, 0.48812758922576904, 0.3906548023223877, -0.6328709540823307, -0.7112612337382455, 0.19803309703575003,0.23316236571625584,0.01812744140625,1.1253204345703125,1.20269775390625
20220113-1758,2022-01-13 17:58:59Z,u01, 204,40,movements,el-ex, rt, d,115658.02329787501, -3.139210338909489, -0.5716193966014776, -1.4156210109464273, -1.8708065748214722, -0.13737595081329346, -1.8091500997543335, -0.002003585686907172, 0.5409947037696838, 0.8410232067108154, 0.002003528643399477, 0.35834288597106934, 0.3642682433128357, -0.6240514331513106, -0.7287464719270119, 0.18417401107838016,0.21346696896543793,-0.0017852783203125,0.8863983154296875,1.20458984375
20220113-1758,2022-01-13 17:58:59Z,u01, 205,40,movements,el-ex, rt, d,115658.048243875, -3.110021405204226, -0.5239994537788564, -1.3533871527858932, -1.994615077972412, -0.11165852844715118, -2.5025582313537598, -0.02733062580227852, 0.5003469586372375, 0.8653932809829712, 0.03309839591383934, 0.15800869464874268, 0.1967097520828247, -0.6079604863755463, -0.750387016067775, 0.1740650268581264,0.19236582881700362,0.0055999755859375,0.676666259765625,1.0721282958984375
20220113-1758,2022-01-13 17:59:00Z,u01, 206,40,movements,el-ex, rt, d,115658.073188875, -3.0752171583623347, -0.4663957667069966, -1.2790153316228512, -2.1693899631500244, 0.0861627385020256, -2.929715633392334, -0.05924272537231445, 0.4496699273586273, 0.8912279605865479, 0.025062981992959976, 0.22811022400856018, 0.10388922691345215, -0.5864794388720778, -0.7756647827827983, 0.1637426416679747,0.16605533158875221,-0.039459228515625,0.6858062744140625,0.9898681640625
20220113-1758,2022-01-13 17:59:00Z,u01, 207,40,movements,el-ex, rt, d,115658.098134875, -3.038842026700341, -0.4093037919342611, -1.199110656723532, -1.8796442747116089, 0.11004696041345596, -3.1103596687316895, -0.09409742802381516, 0.3979707360267639, 0.9125593304634094, 0.02318979799747467, 0.4012082517147064, -0.23238378763198853, -0.5603870352665662, -0.8014025345942267, 0.15603570998094646,0.13918719810818259,-0.0773468017578125,0.8245086669921875,0.71954345703125
20220113-1758,2022-01-13 17:59:00Z,u01, 208,40,movements,el-ex, rt, d,115658.12308087501, -3.008068009569444, -0.3709352934352828, -1.123854125333166, -0.4652884006500244, 0.09845656156539917, -2.8301806449890137, -0.12407398968935013, 0.3624872863292694, 0.9236927628517151, 0.03863997757434845, 0.1180577278137207, -0.3248617649078369, -0.5329240533939326, -0.8233093757310275, 0.15352215930568494,0.12076624919724063,-0.0912322998046875,0.4622650146484375,0.598724365234375
20220113-1758,2022-01-13 17:59:00Z,u01, 209,40,movements,el-ex, rt, d,115658.148026875, -2.9816567076603615, -0.36213018479727, -1.0556080327236284, 0.5622103214263916, -0.08355878293514252, -2.320486545562744, -0.14892637729644775, 0.35426706075668335, 0.9232094883918762, 0.10624749958515167, -0.14049148559570312, -0.406119704246521, -0.506248484317935, -0.8398316554145339, 0.15828761813135983,0.11550013083976561,-0.06414794921875,0.2251129150390625,0.56134033203125
20220113-1758,2022-01-13 17:59:00Z,u01, 210,40,movements,el-ex, rt, d,115658.172972875, -2.9667738201826337, -0.362856815001936, -0.996237940194993, 0.02512766793370247, -0.29107868671417236, -1.9966739416122437, -0.16260458528995514, 0.35494646430015564, 0.9206371903419495, 0.12341995537281036, 0.13421976566314697, -0.12182426452636719, -0.48197563930962617, -0.8532397546261488, 0.1613090998628133,0.11687943632153583,-0.0455780029296875,0.50262451171875,0.8219757080078125
20220113-1758,2022-01-13 17:59:00Z,u01, 211,40,movements,el-ex, rt, d,115658.19791887501, -2.9581911349971626, -0.35061263480088317, -0.9496287653382133, -0.4870034456253052, -0.23678036034107208, -1.6005381345748901, -0.17127978801727295, 0.3434732258319855, 0.92341148853302, 0.08045947551727295, 0.10414323210716248, -0.021953046321868896, -0.46247930385837643, -0.8647650794085243, 0.15959457537447497,0.11324165597802631,-0.0988616943359375,0.417327880859375,0.9093170166015625
20220113-1758,2022-01-13 17:59:00Z,u01, 212,40,movements,el-ex, rt, d,115658.222864875, -2.9520572053488077, -0.3327349096698067, -0.9143893226483241, -0.18867525458335876, -0.23218999803066254, -1.353739619255066, -0.17806924879550934, 0.3266291618347168, 0.9282264709472656, 0.15975868701934814, 0.29229772090911865, -0.19964998960494995, -0.44744504728626955, -0.8740172518716303, 0.1565086851604317,0.10673192158510486,-0.017578125,0.634857177734375,0.709716796875
20220113-1758,2022-01-13 17:59:00Z,u01, 213,40,movements,el-ex, rt, d,115658.24781087501, -2.9479911135777503, -0.33503333005434305, -0.87750633896229, 0.7866238355636597, -0.440405011177063, -1.3929094076156616, -0.18169711530208588, 0.32880064845085144, 0.9267556667327881, 0.0984145998954773, 0.5514788627624512, -0.25759685039520264, -0.4314920271644307, -0.8815852050394599, 0.15676940810912632,0.10975181209218145,-0.0661773681640625,0.890838623046875,0.620086669921875
20220113-1758,2022-01-13 17:59:00Z,u01, 214,40,movements,el-ex, rt, d,115658.27275687501, -2.9452476161096643, -0.3384881418564126, -0.8393745421847832, 0.011370543390512466, -0.36758124828338623, -1.2609118223190308, -0.18401633203029633, 0.33206140995025635, 0.9251343607902527, 0.032252341508865356, 0.05238384008407593, -0.03762197494506836, -0.41479566350238095, -0.8891072654645831, 0.15653343208446915,0.11371103940306104,-0.1507568359375,0.3438873291015625,0.886688232421875
20220113-1758,2022-01-13 17:59:00Z,u01, 215,40,movements,el-ex, rt, d,115658.297702875, -2.9461881120944624, -0.3247700376598624, -0.8127600634508086, -0.3004874885082245, -0.43311232328414917, -1.0388716459274292, -0.1840132772922516, 0.3190908432006836, 0.9296879172325134, 0.10964193940162659, 0.07173240184783936, -0.26718205213546753, -0.4027124850648475, -0.8959166304696944, 0.15202584100879762,0.10974539276090023,-0.0880126953125,0.36102294921875,0.71441650390625
20220113-1758,2022-01-13 17:59:00Z,u01, 216,40,movements,el-ex, rt, d,115658.32264887501, -2.9480709771807643, -0.3307455483315493, -0.7784533485847998, 1.2920513153076172, -0.5231019854545593, -1.3448736667633057, -0.18189257383346558, 0.3247482478618622, 0.9281452298164368, 0.01642623543739319, 0.30682823061943054, -0.41540420055389404, -0.38725944436427945, -0.9022764116862743, 0.150340962151273,0.11543377446652861,-0.1787567138671875,0.65093994140625,0.53265380859375
20220113-1758,2022-01-13 17:59:00Z,u01, 217,40,movements,el-ex, rt, d,115658.34759487501, -2.946289509311005, -0.3765020889632012, -0.7272606902150875, 2.797461986541748, -0.6997443437576294, -1.7606532573699951, -0.18047098815441132, 0.36766982078552246, 0.9122769236564636, -0.12174463272094727, 0.36775800585746765, -0.29229700565338135, -0.36477396175944454, -0.9072366862370609, 0.15575478661109984,0.14000714658481575,-0.2784271240234375,0.7321624755859375,0.5980682373046875
20220113-1758,2022-01-13 17:59:00Z,u01, 218,40,movements,el-ex, rt, d,115658.37254125, -2.9380175087512566, -0.4414998870176188, -0.6623816577738016, 2.9465012550354004, -0.5223045349121094, -1.758892297744751, -0.1827860325574875, 0.4272960126399994, 0.8854419589042664, -0.1701192855834961, 0.2424580156803131, 0.08808410167694092, -0.33667643353741245, -0.910697508171473, 0.164589147459718,0.173751126773924,-0.35308837890625,0.6589202880859375,1.0082550048828125
20220113-1758,2022-01-13 17:59:00Z,u01, 219,40,movements,el-ex, rt, d,115658.39748725001, -2.922620054801005, -0.5004010179490042, -0.6070676916888725, 2.7631750106811523, -0.322805255651474, -1.0608139038085938, -0.1905927211046219, 0.47977742552757263, 0.8564391136169434, -0.0515642911195755, -0.4360457956790924, 0.39040231704711914, -0.3136714125220001, -0.9109499368899932, 0.17458848496905208,0.20322225076809733,-0.2662353515625,0.1233062744140625,1.2815093994140625
20220113-1758,2022-01-13 17:59:00Z,u01, 220,40,movements,el-ex, rt, d,115658.42243225001, -2.905380118822377, -0.5761876257101124, -0.5645125445671054, 3.915862560272217, -0.007966688834130764, -0.4059898257255554, -0.19623814523220062, 0.5448310375213623, 0.8152602910995483, -0.04051724076271057, -0.5453041791915894, 0.23733657598495483, -0.29733849773269555, -0.9051077101975644, 0.1870893681091159,0.2395147588959295,-0.24072265625,0.0083160400390625,1.033111572265625
20220113-1758,2022-01-13 17:59:00Z,u01, 221,40,movements,el-ex, rt, d,115658.44737825001, -2.8805596581428548, -0.6946357653487863, -0.5297838917851732, 5.7433857917785645, 0.35314151644706726, 0.47710010409355164, -0.1982785165309906, 0.640105664730072, 0.7422604560852051, -0.09824559092521667, -0.575530469417572, -0.0313991904258728, -0.28683230089917405, -0.8881764799372197, 0.20646125699572035,0.2936725652439115,-0.28887939453125,0.015228271484375,0.69439697265625
20220113-1758,2022-01-13 17:59:00Z,u01, 222,40,movements,el-ex, rt, d,115658.47232425, -2.8446548383442516, -0.8407104404690272, -0.49591264415685166, 5.540338516235352, 0.671687126159668, 0.6944770216941833, -0.19514025747776031, 0.7451171278953552, 0.6377461552619934, -0.1759687215089798, -0.3838045001029968, 0.3598427176475525, -0.2801121708044806, -0.8604709540126989, 0.22996781057212262,0.3581082873691427,-0.37274169921875,0.373748779296875,1.0422210693359375
20220113-1758,2022-01-13 17:59:00Z,u01, 223,40,movements,el-ex, rt, d,115658.49727025001, -2.8125849652824204, -0.9223542440614565, -0.4795185109573319, 1.0522212982177734, 0.8408527970314026, 0.7611865997314453, -0.1951371431350708, 0.7970256805419922, 0.5715515613555908, -0.1744002103805542, -0.47009098529815674, 0.5987516045570374, -0.2805796192347687, -0.8408631688044229, 0.24670701304667425,0.3916117195375056,-0.3905792236328125,0.378631591796875,1.1903839111328125
20220113-1758,2022-01-13 17:59:00Z,u01, 224,40,movements,el-ex, rt, d,115658.52221625001, -2.8068454923579655, -0.9360891424758975, -0.5025930411276458, 0.23822470009326935, 1.111682415008545, 0.5251849889755249, -0.1947992742061615, 0.8052453398704529, 0.5600292682647705, -0.2018682211637497, -0.019097447395324707, 0.27932602167129517, -0.29161257783686967, -0.8336526523829875, 0.2546199678063814,0.39389581583897626,-0.3993072509765625,0.838592529296875,0.8179473876953125
20220113-1758,2022-01-13 17:59:00Z,u01, 225,40,movements,el-ex, rt, d,115658.54716225, -2.7661406314360035, -0.9698711313284429, -0.48711145710781123, 2.463809013366699, 0.9945263266563416, -0.26496899127960205, -0.2073303610086441, 0.8248128294944763, 0.5260206460952759, -0.24263609945774078, 0.46296781301498413, 0.02509629726409912, -0.29403076644972015, -0.8225303824560555, 0.27067516084023796,0.40462894823438006,-0.4539794921875,1.305511474609375,0.53887939453125
20220113-1758,2022-01-13 17:59:00Z,u01, 226,40,movements,el-ex, rt, d,115658.57210825001, -2.691487166013371, -1.010598752871114, -0.4284406522895784, 0.9325438737869263, 1.0081151723861694, -0.6861249208450317, -0.2311709225177765, 0.8471501469612122, 0.4784313142299652, -0.1857602745294571, 0.15770214796066284, 0.3068774342536926, -0.2868824665429437, -0.8105023839280023, 0.2911174166961721,0.4195651945706195,-0.4074554443359375,0.990081787109375,0.7921905517578125
20220113-1758,2022-01-13 17:59:00Z,u01, 227,40,movements,el-ex, rt, d,115658.59705425, -2.6498747582404563, -0.9900347726162239, -0.40143372975993863, -1.707865595817566, 0.49096471071243286, -1.1175806522369385, -0.2590450346469879, 0.8360450863838196, 0.48365676403045654, -0.013461649417877197, 0.22199910879135132, 0.003205329179763794, -0.2834638826927888, -0.8133121233635254, 0.30173625466427983,0.40881131473505045,-0.27288818359375,0.9962921142578125,0.6093292236328125
20220113-1758,2022-01-13 17:59:00Z,u01, 228,40,movements,el-ex, rt, d,115658.62200025, -2.6433133541619256, -0.9437663530775334, -0.3999337834820644, -0.9737028479576111, -0.3982420265674591, -0.9003401398658752, -0.28041282296180725, 0.8097737431526184, 0.5153980851173401, 0.22081196308135986, 0.5773721933364868, -0.3939228057861328, -0.28131457212429695, -0.8237482321431522, 0.30275259772338625,0.38812604227986547,-0.039093017578125,1.368865966796875,0.0657806396484375
20220113-1758,2022-01-13 17:59:00Z,u01, 229,40,movements,el-ex, rt, d,115658.64694625001, -2.6426088115699375, -0.9090155673755016, -0.38430692621730844, -1.2457847595214844, -0.500228762626648, -0.9799254536628723, -0.29406967759132385, 0.7888991832733154, 0.5395934581756592, 0.39932477474212646, 0.15673381090164185, -0.39480286836624146, -0.2726765452768345, -0.8339329897211583, 0.29900667154858,0.3752309605089896,0.100921630859375,0.956878662109375,0.1438140869140625
20220113-1758,2022-01-13 17:59:00Z,u01, 230,40,movements,el-ex, rt, d,115658.67189225, -2.6469638548084387, -0.879496888759618, -0.3778172249643708, 0.09864093363285065, -0.1262851357460022, -0.35208964347839355, -0.30264270305633545, 0.7704182267189026, 0.5611262917518616, 0.35859668254852295, 0.021878957748413086, -0.4038084149360657, -0.2671113050769495, -0.842148864641953, 0.2950803008423244,0.3638190827488102,0.058135986328125,0.7714996337890625,0.1650390625
20220113-1758,2022-01-13 17:59:00Z,u01, 231,40,movements,el-ex, rt, d,115658.69683825, -2.6442857209575625, -0.8780617625500697, -0.36895440795661977, 0.2044571191072464, -0.3117660582065582, -0.06417208909988403, -0.3046715259552002, 0.7695024609565735, 0.5612848997116089, 0.3921807110309601, 0.04717826843261719, -0.1947079300880432, -0.263762640273062, -0.8432506914210398, 0.2945525662640084,0.36413759443979904,0.10491943359375,0.908843994140625,0.3876190185546875
20220113-1758,2022-01-13 17:59:00Z,u01, 232,40,movements,el-ex, rt, d,115658.72178425001, -2.6453605894901244, -0.8848355341359359, -0.36204414924306216, 0.34642231464385986, -0.22085565328598022, -0.1056668683886528, -0.30157941579818726, 0.7738108038902283, 0.557015597820282, 0.06332868337631226, 0.0912097692489624, -0.06389743089675903, -0.26113906532219183, -0.8428013870768989, 0.293024541144905,0.3682780558356719,-0.2544708251953125,0.87310791015625,0.485198974609375
20220113-1758,2022-01-13 17:59:00Z,u01, 233,40,movements,el-ex, rt, d,115658.74672925001, -2.639548691673044, -0.8944437399872848, -0.3474002567934405, 0.6133996844291687, -0.19690224528312683, -0.20976783335208893, -0.3012198507785797, 0.7798610329627991, 0.5487105846405029, 0.014049410820007324, -0.0017238855361938477, -0.0011794567108154297, -0.25675140266008145, -0.8416852112461342, 0.2929938640105231,0.3738974083508676,-0.287689208984375,0.7772979736328125,0.509857177734375
20220113-1758,2022-01-13 17:59:00Z,u01, 234,40,movements,el-ex, rt, d,115658.77167525001, -2.630878443224302, -0.8993795514548134, -0.32841939767262496, 0.11952270567417145, -0.3356805741786957, -0.40927767753601074, -0.3040805757045746, 0.7829411029815674, 0.5427134037017822, 0.052188485860824585, 0.03109985589981079, 0.15658146142959595, -0.2507674658410116, -0.8417080185649581, 0.29317383395191937,0.3777462903231718,-0.2504425048828125,0.8134613037109375,0.6999053955078125
20220113-1758,2022-01-13 17:59:00Z,u01, 235,40,movements,el-ex, rt, d,115658.79662125, -2.63291296805531, -0.888454988067154, -0.31900270442006184, -0.6964892745018005, -0.3269502520561218, -0.319161981344223, -0.3071233928203583, 0.776098370552063, 0.5507689118385315, 0.012613475322723389, -0.14676499366760254, 0.12649238109588623, -0.24555515797065475, -0.8456282386094064, 0.2903638053973633,0.37457223058097194,-0.3063507080078125,0.6416015625,0.6851959228515625
20220113-1758,2022-01-13 17:59:00Z,u01, 236,40,movements,el-ex, rt, d,115658.82156725001, -2.647143096312086, -0.8603838026054983, -0.3283903931212259, -1.3618955612182617, -0.10262821614742279, -0.2685698866844177, -0.3094743490219116, 0.7580929398536682, 0.5740390419960022, 0.07181867957115173, -0.09607505798339844, 0.1857113242149353, -0.2447321266026508, -0.8527166597739448, 0.28552253877524514,0.3625705156397223,-0.2346649169921875,0.6634521484375,0.768157958984375
20220113-1758,2022-01-13 17:59:00Z,u01, 237,40,movements,el-ex, rt, d,115658.84651325001, -2.6585226058282165, -0.8292414067947473, -0.3414335264441896, -1.1740244626998901, -0.0819079577922821, -0.35663869976997375, -0.3137398064136505, 0.7374191880226135, 0.5981473326683044, 0.10693737864494324, 0.1610792875289917, 0.29420191049575806, -0.24593684587040698, -0.8594118582671784, 0.2821956643674629,0.34826990905621097,-0.18487548828125,0.8575286865234375,0.8865814208984375
20220113-1758,2022-01-13 17:59:00Z,u01, 238,40,movements,el-ex, rt, d,115658.87145925, -2.6612612945043543, -0.8024359411615253, -0.34343683310012346, -0.8317397832870483, 0.06948669254779816, -0.39837411046028137, -0.3211210072040558, 0.7190511226654053, 0.6163171529769897, -0.07429525256156921, 0.10998934507369995, 0.24461424350738525, -0.2443198733158683, -0.8651395153510538, 0.2805717618735997,0.3363345289896713,-0.4055328369140625,0.8130340576171875,0.8561553955078125
20220113-1758,2022-01-13 17:59:00Z,u01, 239,40,movements,el-ex, rt, d,115658.89640525001, -2.661437579049716, -0.7812344517307414, -0.3455447361335452, -1.126718521118164, -0.003672606311738491, -0.3353571891784668, -0.32798171043395996, 0.7041564583778381, 0.6297555565834045, -0.00356137752532959, -0.060388028621673584, -0.03188556432723999, -0.24359358961600913, -0.8692180027946953, 0.2801742911707883,0.3265343947878778,-0.3584747314453125,0.6371917724609375,0.6090087890625
20220113-1758,2022-01-13 17:59:00Z,u01, 240,40,movements,el-ex, rt, d,115658.92135125001, -2.674405869165732, -0.7464175880271566, -0.3580879250632095, -1.2949825525283813, -0.257127970457077, -0.21426771581172943, -0.3306329548358917, 0.679013192653656, 0.6554561853408813, 0.09776857495307922, -0.09248065948486328, -0.0691525936126709, -0.24437365734193678, -0.876361566021321, 0.2752636736706943,0.3106473517776501,-0.2344512939453125,0.578094482421875,0.59716796875
20220113-1758,2022-01-13 17:59:00Z,u01, 241,40,movements,el-ex, rt, d,115658.94629725, -2.683616117513821, -0.7236188321909081, -0.3678541635312078, -0.6891504526138306, 0.07931488752365112, -0.15413713455200195, -0.33134159445762634, 0.6621010303497314, 0.6721863746643066, -0.06801143288612366, -0.074729323387146, 0.18290072679519653, -0.2455785862405534, -0.8807862146454943, 0.2717633285640591,0.30008558850450673,-0.38616943359375,0.5715484619140625,0.8179168701171875
20220113-1758,2022-01-13 17:59:00Z,u01, 242,40,movements,el-ex, rt, d,115658.97124325001, -2.68580826205302, -0.6988219619803929, -0.3765693467470997, -1.4169303178787231, 0.073775514960289, -0.1632041335105896, -0.3369917571544647, 0.6433162093162537, 0.6874446868896484, -0.03986978530883789, -0.042135417461395264, 0.02073073387145996, -0.2472942262243748, -0.8846286911311092, 0.27094278932069504,0.2878671342509208,-0.3667449951171875,0.5882720947265625,0.6951904296875
20220113-1758,2022-01-13 17:59:00Z,u01, 243,40,movements,el-ex, rt, d,115658.99618925001, -2.7026338061260007, -0.6560923470543215, -0.40074741721964596, -2.2747061252593994, -0.23095263540744781, 0.015187779441475868, -0.3367602229118347, 0.61002516746521, 0.7172600626945496, 0.11897146701812744, -0.23063063621520996, -0.20561760663986206, -0.25264674086429556, -0.8915153642159963, 0.2645771561559901,0.2671496588806531,-0.2220611572265625,0.3617095947265625,0.510772705078125
20220113-1758,2022-01-13 17:59:00Z,u01, 244,40,movements,el-ex, rt, d,115659.02113525, -2.7255381156592096, -0.6068111751554331, -0.4281079654634856, -1.8433778285980225, -0.35733306407928467, -0.041302260011434555, -0.3320011496543884, 0.5702508091926575, 0.7513912916183472, 0.04351848363876343, 0.0683598518371582, -0.16321086883544922, -0.25864712728757344, -0.8993315836961142, 0.2546962880772658,0.24379101068161763,-0.2938385009765625,0.6540069580078125,0.5858001708984375
20220113-1758,2022-01-13 17:59:00Z,u01, 245,40,movements,el-ex, rt, d,115659.04608125001, -2.7439867176853086, -0.5733724356564049, -0.44176510245717204, -1.247352957725525, -0.4935513436794281, -0.2191644012928009, -0.32528772950172424, 0.542468249797821, 0.7745424509048462, -0.021407276391983032, 0.15173035860061646, -0.12493002414703369, -0.2604998865197691, -0.9052132502625381, 0.24556621738732892,0.22896720075237495,-0.3485870361328125,0.7131500244140625,0.638763427734375
20220113-1758,2022-01-13 17:59:00Z,u01, 246,40,movements,el-ex, rt, d,115659.07102625, -2.7611598998110254, -0.5412760058260127, -0.4495581752282819, -1.316853404045105, -0.5624972581863403, -0.2659226953983307, -0.31824249029159546, 0.5152300000190735, 0.7957761287689209, 0.03241485357284546, -0.01576411724090576, -0.11477649211883545, -0.2601799452639762, -0.9111500814215264, 0.2361202964225557,0.2153116651566579,-0.2831573486328125,0.4881134033203125,0.6840667724609375
20220113-1758,2022-01-13 17:59:01Z,u01, 247,40,movements,el-ex, rt, d,115659.09597225001, -2.778932068128147, -0.5095135225072651, -0.45435394732868534, -1.0498580932617188, -0.6262286305427551, -0.3490343987941742, -0.3097016215324402, 0.48775261640548706, 0.8161997199058533, -0.0016539394855499268, -0.038961201906204224, -0.06621509790420532, -0.25866444587028625, -0.9171655032211542, 0.22586277550871067,0.20220302547994495,-0.3023529052734375,0.439117431640625,0.7366180419921875
20220113-1758,2022-01-13 17:59:01Z,u01, 248,40,movements,el-ex, rt, d,115659.12091825, -2.792803014700487, -0.48478346985616855, -0.45265486668206806, -0.8089052438735962, -0.5412357449531555, -0.4326228201389313, -0.3023814260959625, 0.4660167992115021, 0.8315006494522095, -0.037035077810287476, 0.004228442907333374, -0.0028723478317260742, -0.2551210832809853, -0.9223142428101343, 0.21718878289556814,0.19255796891264268,-0.33740234375,0.4662017822265625,0.83380126953125
20220113-1758,2022-01-13 17:59:01Z,u01, 249,40,movements,el-ex, rt, d,115659.14586425001, -2.804115966018755, -0.4603044749519253, -0.4487855827489838, -0.8987889885902405, -0.5396921038627625, -0.4708652198314667, -0.29664453864097595, 0.4442209005355835, 0.8453811407089233, 0.00367581844329834, -0.035728007555007935, 0.013505339622497559, -0.25092082191091364, -0.9272158959922623, 0.20945147885001134,0.18286433555714995,-0.294219970703125,0.423309326171875,0.8722686767578125
20220113-1758,2022-01-13 17:59:01Z,u01, 250,40,movements,el-ex, rt, d,115659.17081025001, -2.815239602059428, -0.43794409938777873, -0.4426496384489064, -0.5501803755760193, -0.5510610342025757, -0.542802095413208, -0.2903349995613098, 0.42407849431037903, 0.8578242659568787, -0.028741508722305298, 0.009545654058456421, 0.009530782699584961, -0.24586231848718293, -0.931914080837004, 0.20175869688698667,0.1743018865206919,-0.3220977783203125,0.440643310546875,0.8686676025390625
20220113-1758,2022-01-13 17:59:01Z,u01, 251,40,movements,el-ex, rt, d,115659.19575625, -2.824529607667485, -0.4283937285320849, -0.42857140469278865, 0.11623138189315796, -0.6206468939781189, -0.6735403537750244, -0.2836032807826996, 0.41541022062301636, 0.8642935156822205, -0.025783896446228027, 0.24058029055595398, -0.02870708703994751, -0.23797371125995914, -0.9356897288057484, 0.19536698221300614,0.1722931213021078,-0.314544677734375,0.630157470703125,0.8406219482421875
