SessionID,LoggingTime,UID,RecNo,Hertz,Activity,MoveType,Wrist,Side,TimeStamp,DMRoll,DMPitch,DMYaw,DMRotX,DMRotY,DMRotZ,DMGrvX,DMGrvY,DMGrvZ,DMUAccelX,DMUAccelY,DMUAccelZ,DMQuatX,DMQuatY,DMQuatW,DMQuatZ,AccelroX,AceelroY,AceelroZ
20220112-1805,2022-01-12 18:05:55Z,u01, 1,40,movements,el-ex, rt, d,101095.21411225, -2.522240924076884, -0.43072752478913884, -3.0018296142386864, -2.265822410583496, 0.16425085067749023, -0.6843574047088623, -0.5274852514266968, 0.4175319969654083, 0.7398828268051147, 0.22244679927825928, -0.04268461465835571, 0.1106574535369873, -0.9327065046244345, 0.0, 0.22382817375714203,-0.2827712996434218,-0.3020782470703125,0.380706787109375,0.8373260498046875
20220112-1805,2022-01-12 18:05:55Z,u01, 2,40,movements,el-ex, rt, d,101095.23905825001, -2.5258218501641925, -0.37684894358086907, -3.0200391894006566, -1.9676897525787354, 0.11278585344552994, -0.7516090869903564, -0.5370579361915588, 0.3679923713207245, 0.7590458393096924, 0.2317143678665161, 0.08653640747070312, 0.008425593376159668, -0.9378288123806751, -0.0001998074972767716, 0.1962547740695868,-0.2862886747929035,-0.320953369140625,0.48614501953125,0.7230987548828125
20220112-1805,2022-01-12 18:05:55Z,u01, 3,40,movements,el-ex, rt, d,101095.26400425001, -2.526677394632563, -0.3313853669979989, -3.028764112271001, -1.3647395372390747, 0.7934897541999817, -1.373066782951355, -0.5455023050308228, 0.32535332441329956, 0.7723811864852905, 0.33873045444488525, 0.07078003883361816, -0.21163582801818848, -0.9413716410256752, -0.003168154866874051, 0.17378125841048453,-0.28915315650370776,-0.071014404296875,0.3784942626953125,0.5599517822265625
20220112-1805,2022-01-12 18:05:55Z,u01, 4,40,movements,el-ex, rt, d,101095.28895025, -2.524477808966496, -0.29976255888878367, -3.0270934812105255, -0.810613214969635, 0.06805112957954407, -0.7568061947822571, -0.5528790354728699, 0.2952933609485626, 0.7791832089424133, 0.17113476991653442, 0.0510658323764801, -0.1811302900314331, -0.9431421263763464, -0.00863275202568664, 0.15921715017333804,-0.29164749257817546,-0.4263916015625,0.3311767578125,0.634918212890625
20220112-1805,2022-01-12 18:05:55Z,u01, 5,40,movements,el-ex, rt, d,101095.31389625001, -2.5219619316296016, -0.27651627904967385, -3.0225999230676486, -0.5093313455581665, 0.040066707879304886, -0.6450178027153015, -0.5586737990379333, 0.2730059325695038, 0.7831674218177795, 0.1090126633644104, 0.04132506251335144, -0.09380590915679932, -0.9441311416645296, -0.014145902476001004, 0.14898003358659923,-0.293634464142784,-0.45550537109375,0.3263702392578125,0.693511962890625
20220112-1805,2022-01-12 18:05:55Z,u01, 6,40,movements,el-ex, rt, d,101095.33884225, -2.518460865537993, -0.26042503754606144, -3.014280723819415, -0.19960333406925201, 0.04387842118740082, -0.6325446963310242, -0.5639033913612366, 0.2574912905693054, 0.7846730947494507, 0.0817255973815918, 0.07637101411819458, -0.0733996033668518, -0.9444172078624078, -0.020314468288417487, 0.14267856503643728,-0.2954766812911375,-0.501953125,0.3135528564453125,0.718902587890625
20220112-1805,2022-01-12 18:05:55Z,u01, 7,40,movements,el-ex, rt, d,101095.36378825, -2.516384858860586, -0.247571584591972, -3.004780210485614, -0.15491048991680145, -0.08585067838430405, -0.566609263420105, -0.5674213171005249, 0.245050311088562, 0.7861194014549255, 0.1165546178817749, 0.0259762704372406, -0.11848616600036621, -0.9446422344597387, -0.026659765315562356, 0.13807150497048581,-0.29643996366613634,-0.440826416015625,0.275634765625,0.6601409912109375
20220112-1805,2022-01-12 18:05:55Z,u01, 8,40,movements,el-ex, rt, d,101095.38873425001, -2.51600335248466, -0.23834333131887706, -2.992568782250622, 0.04767017066478729, -0.11356459558010101, -0.5999512076377869, -0.5690212845802307, 0.23609311878681183, 0.7877026200294495, 0.11394309997558594, 0.06279605627059937, -0.10093480348587036, -0.9448310971156249, -0.03384535604002975, 0.13555210115848115,-0.29626760486740467,-0.4706268310546875,0.2639923095703125,0.70025634765625
20220112-1805,2022-01-12 18:05:55Z,u01, 9,40,movements,el-ex, rt, d,101095.41368025, -2.516765642194514, -0.23006612082443406, -2.9813625965850807, -0.060088448226451874, -0.19360284507274628, -0.5182269215583801, -0.5695443749427795, 0.2280419021844864, 0.7896941900253296, 0.10845410823822021, -0.0156853049993515, -0.10376542806625366, -0.9450967537029189, -0.04048715721860313, 0.13330819220778228,-0.29560456176721805,-0.454864501953125,0.2122039794921875,0.67486572265625
20220112-1805,2022-01-12 18:05:55Z,u01, 10,40,movements,el-ex, rt, d,101095.43862625, -2.5206910838215904, -0.22003291397504599, -2.9722033501955214, -0.12487892806529999, -0.2765137553215027, -0.5457640886306763, -0.5677422881126404, 0.2182617485523224, 0.7937443852424622, 0.11397665739059448, 0.029678210616111755, -0.09794366359710693, -0.9458841006184608, -0.04664182198754835, 0.12985732563225627,-0.29370867747334206,-0.4711761474609375,0.260162353515625,0.7123870849609375
20220112-1805,2022-01-12 18:05:55Z,u01, 11,40,movements,el-ex, rt, d,101095.463570875, -2.525995924627047, -0.2097016242440174, -2.962885104256344, -0.15788564085960388, -0.30520302057266235, -0.5169410109519958, -0.564795732498169, 0.20816807448863983, 0.7985435128211975, 0.05997401475906372, 0.05715169012546539, -0.04747539758682251, -0.9468175651172144, -0.05299304188501425, 0.1262284870753998,-0.29119509474286465,-0.500885009765625,0.2676239013671875,0.7433013916015625
20220112-1805,2022-01-12 18:05:55Z,u01, 12,40,movements,el-ex, rt, d,101095.488516875, -2.5323408929243603, -0.20041786887030166, -2.954944848042631, -0.06423535943031311, -0.36877113580703735, -0.43065014481544495, -0.5607995986938477, 0.19907885789871216, 0.8036615252494812, 0.08728879690170288, -0.008908569812774658, -0.09305942058563232, -0.9478394017788263, -0.058576614798154736, 0.12283043196137167,-0.28823954461843465,-0.4799346923828125,0.1774749755859375,0.6845703125
20220112-1805,2022-01-12 18:05:56Z,u01, 13,40,movements,el-ex, rt, d,101095.51346287501, -2.5393246389380018, -0.1955073508623155, -2.9468828329740413, -0.0038035386241972446, -0.3803179860115051, -0.28044965863227844, -0.5557204484939575, 0.1942642480134964, 0.8083541393280029, 0.05424034595489502, 0.007716327905654907, -0.11305677890777588, -0.948754725240717, -0.06357321973234259, 0.12145743619692598,-0.2847298578188482,-0.498779296875,0.1942901611328125,0.6998443603515625
20220112-1805,2022-01-12 18:05:56Z,u01, 14,40,movements,el-ex, rt, d,101095.538408875, -2.547413539402485, -0.19428105713835514, -2.9416855857710726, 0.141899973154068, -0.3709743618965149, -0.12534749507904053, -0.5492966771125793, 0.19306117296218872, 0.8130197525024414, 0.04542088508605957, -0.00792628526687622, -0.11465519666671753, -0.9497678131550696, -0.06671558664913224, 0.12134999426963583,-0.28065008134702246,-0.4924468994140625,0.1462554931640625,0.703704833984375
20220112-1805,2022-01-12 18:05:56Z,u01, 15,40,movements,el-ex, rt, d,101095.563354875, -2.554882393347325, -0.19776778311468754, -2.9372895548766236, 0.2306472212076187, -0.2762778103351593, -0.05451259762048721, -0.5428330898284912, 0.1964811235666275, 0.8165340423583984, -0.017088234424591064, -0.12224709987640381, 0.021631479263305664, -0.950548005615838, -0.06874227782114734, 0.12335596992322022,-0.2766159858514468,-0.5599517822265625,0.0614166259765625,0.838043212890625
20220112-1805,2022-01-12 18:05:56Z,u01, 16,40,movements,el-ex, rt, d,101095.58830087501, -2.5593651101357477, -0.2021474225775481, -2.9322629758305223, 0.3303057849407196, -0.18954132497310638, -0.10641653835773468, -0.5386888384819031, 0.20077349245548248, 0.8182322978973389, -0.03131836652755737, -0.10516199469566345, -0.007014095783233643, -0.9508461811015186, -0.07076506697100216, 0.12596028213088112,-0.27389374396343413,-0.59344482421875,0.15484619140625,0.807159423828125
20220112-1805,2022-01-12 18:05:56Z,u01, 17,40,movements,el-ex, rt, d,101095.613246875, -2.5614042867422375, -0.20888550420506374, -2.92429350242635, 0.43862128257751465, -0.11394622921943665, -0.1131775751709938, -0.5362653732299805, 0.20736975967884064, 0.8181790113449097, -0.0775039792060852, -0.034564048051834106, -0.009676873683929443, -0.9506096460565923, -0.07369400317348057, 0.13015618052504735,-0.27197384054268514,-0.6171875,0.157958984375,0.817230224609375
20220112-1805,2022-01-12 18:05:56Z,u01, 18,40,movements,el-ex, rt, d,101095.638192875, -2.5613296251232374, -0.2168816840033436, -2.9157194209469077, 0.5172064304351807, -0.017880883067846298, -0.12071718275547028, -0.5354002714157104, 0.21518540382385254, 0.8167261481285095, -0.10586541891098022, -0.0603850781917572, -0.02648872137069702, -0.9499986229080447, -0.07658780416446481, 0.1350951964554368,-0.2708988152595911,-0.659210205078125,0.1962127685546875,0.79962158203125
20220112-1805,2022-01-12 18:05:56Z,u01, 19,40,movements,el-ex, rt, d,101095.66313887501, -2.5580622436936653, -0.2280172393886174, -2.9042935239134757, 0.7308540940284729, 0.06400492787361145, -0.1380133479833603, -0.5367125868797302, 0.22604653239250183, 0.8129225373268127, -0.10476696491241455, 0.03396323323249817, -0.008875727653503418, -0.9487037686178088, -0.08013999772353464, 0.14201563280861149,-0.2708697531476383,-0.6391448974609375,0.2590179443359375,0.8082733154296875
20220112-1805,2022-01-12 18:05:56Z,u01, 20,40,movements,el-ex, rt, d,101095.688084875, -2.5521910186894274, -0.2453795648339415, -2.886311638558746, 1.1934902667999268, 0.03400056064128876, -0.309645414352417, -0.5392131209373474, 0.2429245412349701, 0.806373119354248, -0.10824787616729736, 0.03347320854663849, -0.03057008981704712, -0.9464953448385531, -0.08563367035683106, 0.15284867799046098,-0.27101832055123143,-0.6571502685546875,0.3187713623046875,0.73980712890625
20220112-1805,2022-01-12 18:05:56Z,u01, 21,40,movements,el-ex, rt, d,101095.713030875, -2.543660527202792, -0.26852267035186783, -2.8591844481531883, 1.6178500652313232, 0.058136120438575745, -0.40795212984085083, -0.5427613258361816, 0.26530733704566956, 0.7968830466270447, -0.11876821517944336, 0.20966824889183044, -0.0813828706741333, -0.9431641769176632, -0.09424897755642375, 0.16772548186654024,-0.27097372625845356,-0.6585540771484375,0.4744873046875,0.706298828125
20220112-1805,2022-01-12 18:05:56Z,u01, 22,40,movements,el-ex, rt, d,101095.73797687501, -2.5318697595692554, -0.29771588381970115, -2.823205679247857, 1.933247447013855, 0.06690084934234619, -0.4659701883792877, -0.5474494099617004, 0.293337345123291, 0.7837427854537964, -0.10834282636642456, 0.12609624862670898, -0.10016405582427979, -0.9384683734651351, -0.10558641535240154, 0.1867371467909448,-0.27066206624917827,-0.64141845703125,0.367218017578125,0.6843109130859375
20220112-1805,2022-01-12 18:05:56Z,u01, 23,40,movements,el-ex, rt, d,101095.762922875, -2.518034133767184, -0.33707357341573024, -2.7782342492875407, 2.6522490978240967, -0.0935453474521637, -0.4483973979949951, -0.5510682463645935, 0.3307267725467682, 0.7661228775978088, -0.13879692554473877, 0.053138673305511475, 0.0039885640144348145, -0.9321577031757112, -0.1189262097209911, 0.21166475489125242,-0.26858292170556675,-0.6937255859375,0.3911895751953125,0.7926483154296875
20220112-1805,2022-01-12 18:05:56Z,u01, 24,40,movements,el-ex, rt, d,101095.787868875, -2.5018381415511, -0.38433796199226034, -2.7278662000535836, 2.389376401901245, -0.05153977498412132, -0.33198416233062744, -0.5534456372261047, 0.3749454915523529, 0.743716299533844, -0.11926853656768799, 0.0840846598148346, 0.23518085479736328, -0.924269128524587, -0.13260746869667078, 0.24083135167070543,-0.2648436360668678,-0.6074676513671875,0.4229583740234375,0.9839935302734375
20220112-1805,2022-01-12 18:05:56Z,u01, 25,40,movements,el-ex, rt, d,101095.81281487501, -2.4868849207649557, -0.4224608147728335, -2.687149977654969, 1.8758959770202637, -0.03461964428424835, -0.23684537410736084, -0.5553925633430481, 0.41000616550445557, 0.7234880924224854, -0.0039795637130737305, -0.030840367078781128, 0.31777215003967285, -0.9172392174584936, -0.14288553562309275, 0.2642497411294095,-0.2615880336720539,-0.564117431640625,0.38568115234375,1.023712158203125
20220112-1805,2022-01-12 18:05:56Z,u01, 26,40,movements,el-ex, rt, d,101095.837760875, -2.4723236061420653, -0.4551246534684631, -2.6541155907350005, 1.6704870462417603, 0.08727449923753738, -0.0846916064620018, -0.5572588443756104, 0.439574271440506, 0.7044411897659302, -0.023826420307159424, -0.055907219648361206, 0.23710256814956665, -0.9108627149801243, -0.1501656049336093, 0.2840068283342477,-0.2590745722005811,-0.5849761962890625,0.3889312744140625,0.9230499267578125
20220112-1805,2022-01-12 18:05:56Z,u01, 27,40,movements,el-ex, rt, d,101095.862706875, -2.4572452174480683, -0.4852654208871666, -2.6254615018112113, 1.4375048875808716, 0.03641318529844284, -0.03149150311946869, -0.5591846704483032, 0.46644315123558044, 0.6853784918785095, 0.0030322670936584473, -0.06588464975357056, 0.04534977674484253, -0.9047273285286095, -0.15542753834546885, 0.3019598039021534,-0.2571597672838813,-0.558135986328125,0.405670166015625,0.7135772705078125
20220112-1805,2022-01-12 18:05:56Z,u01, 28,40,movements,el-ex, rt, d,101095.88765287501, -2.447103370789747, -0.5085895888975593, -2.5987773097867315, 1.3044445514678955, -0.2806946039199829, -0.25885209441185, -0.5589905977249146, 0.48694583773612976, 0.6711283922195435, -0.0042722225189208984, 0.02228569984436035, -0.0024729371070861816, -0.899711308799927, -0.1615047031860425, 0.3161877186626213,-0.2538919844397417,-0.591033935546875,0.567169189453125,0.574127197265625
20220112-1805,2022-01-12 18:05:56Z,u01, 29,40,movements,el-ex, rt, d,101095.912598875, -2.444777159267155, -0.5184570025201369, -2.577562224694411, 0.2826973795890808, -0.40759003162384033, -0.30945515632629395, -0.5574392676353455, 0.4955404996871948, 0.6661088466644287, -0.039499640464782715, 0.2386970818042755, -0.13173067569732666, -0.8969778126810416, -0.16877563501811066, 0.3232507974380576,-0.24990894682787698,-0.572601318359375,0.724517822265625,0.522552490234375
20220112-1805,2022-01-12 18:05:56Z,u01, 30,40,movements,el-ex, rt, d,101095.937544875, -2.4498633551858986, -0.522415656179831, -2.561694938521441, 0.8986841440200806, -0.49287211894989014, -0.28268498182296753, -0.5527885556221008, 0.4989750385284424, 0.6674195528030396, 0.026238322257995605, 0.18980669975280762, -0.2265625, -0.8959629966026874, -0.17595474523828314, 0.32644990320345346,-0.2443782578557345,-0.5199127197265625,0.60382080078125,0.3664703369140625
20220112-1805,2022-01-12 18:05:56Z,u01, 31,40,movements,el-ex, rt, d,101095.96249087501, -2.4402024371115134, -0.5541638993351966, -2.5267310856070466, 2.5103421211242676, -0.16470122337341309, 0.03997635841369629, -0.5487082600593567, 0.5262325406074524, 0.6496143937110901, 0.10238867998123169, -0.20378375053405762, -0.10826289653778076, -0.8893997593762147, -0.18378044515961767, 0.3448520635168755,-0.2372128622539941,-0.4485321044921875,0.3262939453125,0.5880279541015625
20220112-1805,2022-01-12 18:05:56Z,u01, 32,40,movements,el-ex, rt, d,101095.987436875, -2.419081826707451, -0.6005438852239542, -2.4859581162238773, 1.6647881269454956, 0.07077155262231827, 0.33239471912384033, -0.5455669164657593, 0.5650912523269653, 0.6188933849334717, 0.145832359790802, -0.18119531869888306, 0.30324119329452515, -0.8796721034943725, -0.18874240604754805, 0.37066470260263623,-0.2305669440611427,-0.36492919921875,0.38812255859375,1.0703887939453125
20220112-1805,2022-01-12 18:05:56Z,u01, 33,40,movements,el-ex, rt, d,101096.01238287501, -2.402447216254103, -0.6337846646564976, -2.470070957335197, 1.3652502298355103, 0.5491843819618225, 0.5880874395370483, -0.5428271293640137, 0.5921986699104309, 0.5955162048339844, 0.23089182376861572, -0.08362323045730591, 0.5620155930519104, -0.8736621355314165, -0.18566788742251866, 0.38744019286190307,-0.2283243734642963,-0.3182373046875,0.538909912109375,1.1785430908203125
20220112-1805,2022-01-12 18:05:56Z,u01, 34,40,movements,el-ex, rt, d,101096.03732887501, -2.3742636639019317, -0.6694785179783532, -2.4488535824285673, 1.542101502418518, 0.5882232189178467, 0.4319303631782532, -0.5443657636642456, 0.6205771565437317, 0.5644024610519409, 0.2084740400314331, 0.048185110092163086, 0.46355175971984863, -0.8655635690185315, -0.18166162839892297, 0.4065701488553722,-0.22912781642827662,-0.32257080078125,0.701751708984375,0.8742218017578125
20220112-1805,2022-01-12 18:05:56Z,u01, 35,40,movements,el-ex, rt, d,101096.06227387501, -2.3475078903743154, -0.6989670472749392, -2.424791059357189, 1.0686485767364502, 0.3667083978652954, 0.1539117842912674, -0.5459769368171692, 0.643427312374115, 0.536573052406311, 0.09791791439056396, 0.021810173988342285, 0.22189569473266602, -0.8578509438708849, -0.1799396404002998, 0.4231543810240592,-0.2294643700415141,-0.4695281982421875,0.631622314453125,0.7659149169921875
20220112-1805,2022-01-12 18:05:56Z,u01, 36,40,movements,el-ex, rt, d,101096.087219875, -2.33219986039576, -0.7150331991332446, -2.412820703890597, 0.5080657601356506, 0.2636030614376068, 0.2757023870944977, -0.5465722680091858, 0.6556425094604492, 0.5209525227546692, 0.04179638624191284, -0.14619731903076172, 0.2097298502922058, -0.853665658101644, -0.17813254041536158, 0.43200677074835747,-0.22998662552757698,-0.4805145263671875,0.5664520263671875,0.661407470703125
20220112-1805,2022-01-12 18:05:56Z,u01, 37,40,movements,el-ex, rt, d,101096.112165875, -2.32005599867964, -0.7321563290493845, -2.404877936176358, 0.8109033107757568, 0.30480262637138367, 0.3948708176612854, -0.5445576310157776, 0.6684749126434326, 0.506555438041687, 0.09884846210479736, -0.03750872611999512, 0.09573960304260254, -0.8501091658083888, -0.1749060755985249, 0.44042394691973036,-0.22967167773193353,-0.4473724365234375,0.6282806396484375,0.5997161865234375
20220112-1805,2022-01-12 18:05:56Z,u01, 38,40,movements,el-ex, rt, d,101096.13711187501, -2.3084616681380656, -0.7507888035016925, -2.399046866812026, 0.3116609454154968, 0.2977374494075775, 0.5250508189201355, -0.5410817265510559, 0.682215690612793, 0.4917445480823517, 0.10544323921203613, -0.17240411043167114, 0.10115110874176025, -0.846655718744284, -0.17042994340654632, 0.4490167980962493,-0.2291544890403891,-0.405487060546875,0.4548797607421875,0.5522003173828125
20220112-1805,2022-01-12 18:05:56Z,u01, 39,40,movements,el-ex, rt, d,101096.162057875, -2.306752117860961, -0.7652607751041468, -2.407769916679719, 0.18475453555583954, 0.3033362030982971, 0.6023589372634888, -0.5345473289489746, 0.6927251219749451, 0.48413994908332825, 0.1295180320739746, 0.025658786296844482, 0.03456753492355347, -0.8458862506693072, -0.16293072326375885, 0.4535022597215208,-0.228617283549572,-0.4178619384765625,0.73388671875,0.52252197265625
20220112-1805,2022-01-12 18:05:56Z,u01, 40,40,movements,el-ex, rt, d,101096.187003875, -2.306172425242718, -0.7795437039097477, -2.418136874226443, 0.24226395785808563, 0.3111758828163147, 0.6425687670707703, -0.5274361968040466, 0.7029549479484558, 0.47714313864707947, 0.10394376516342163, 0.015261054039001465, -0.07360905408859253, -0.8453025742009104, -0.15503266183419184, 0.45762625276523344,-0.22804981609016134,-0.4088287353515625,0.71697998046875,0.3666229248046875
20220112-1805,2022-01-12 18:05:56Z,u01, 41,40,movements,el-ex, rt, d,101096.21194987501, -2.2994479533111174, -0.7992223595119313, -2.4188162918081573, 0.8475184440612793, 0.2603348195552826, 0.5359683632850647, -0.5202102065086365, 0.7168141007423401, 0.4642835557460785, 0.07918542623519897, 0.06069755554199219, -0.26224184036254883, -0.8426658641279144, -0.1485126852548354, 0.46527366609872733,-0.22666880265281503,-0.444091796875,0.7805328369140625,0.180267333984375
20220112-1805,2022-01-12 18:05:56Z,u01, 42,40,movements,el-ex, rt, d,101096.236895875, -2.278318161733785, -0.8283250578131955, -2.394788327725259, 1.6592297554016113, 0.016986755654215813, 0.3045176565647125, -0.5138273239135742, 0.736799955368042, 0.43943992257118225, 0.036425650119781494, 0.15649527311325073, -0.3089466392993927, -0.8356077548568825, -0.14655933761438117, 0.4800352835598001,-0.2232626508510936,-0.5300445556640625,0.9430999755859375,0.180633544921875
20220112-1805,2022-01-12 18:05:56Z,u01, 43,40,movements,el-ex, rt, d,101096.261841875, -2.249179716955467, -0.8573138813994168, -2.3550211425691883, 1.4302411079406738, -0.0923617035150528, 0.20743173360824585, -0.5095632076263428, 0.7560873031616211, 0.4107033908367157, -0.037479519844055176, 0.16046231985092163, -0.12057262659072876, -0.8265746188510008, -0.14874842385436654, 0.49674460494097405,-0.21884486814608395,-0.5396270751953125,0.8889007568359375,0.2876434326171875
20220112-1805,2022-01-12 18:05:56Z,u01, 44,40,movements,el-ex, rt, d,101096.28678787501, -2.224903407541592, -0.884073809304639, -2.3195225981745122, 1.5152733325958252, -0.06245793402194977, 0.3528306782245636, -0.5031419396400452, 0.7733281254768372, 0.3857615888118744, 0.006071686744689941, 0.06863665580749512, -0.20802712440490723, -0.8187008900456088, -0.15036506670203958, 0.5114728097937811,-0.2133420421544819,-0.438385009765625,0.8459014892578125,0.1038055419921875
20220112-1805,2022-01-12 18:05:56Z,u01, 45,40,movements,el-ex, rt, d,101096.311733875, -2.187575819882839, -0.9195169248909386, -2.268311255087705, 2.204319953918457, -0.17185287177562714, 0.4621598422527313, -0.4945085942745209, 0.7953088879585266, 0.3506354093551636, 0.16963374614715576, 0.013300180435180664, -0.2859838008880615, -0.807585164763786, -0.15206545531781096, 0.5312146558818496,-0.20613912634347456,-0.3178558349609375,0.794647216796875,0.0724639892578125
20220112-1805,2022-01-12 18:05:56Z,u01, 46,40,movements,el-ex, rt, d,101096.336679875, -2.138970555696686, -0.9647971511506294, -2.1990813809151013, 2.4103164672851562, -0.3811776041984558, 0.752657413482666, -0.48009324073791504, 0.821933388710022, 0.3064894378185272, 0.15239554643630981, -0.13388419151306152, -0.17006054520606995, -0.7934155126440621, -0.15406670066567185, 0.5557649824740848,-0.19462908843952398,-0.3325347900390625,0.6446533203125,0.1529083251953125
20220112-1805,2022-01-12 18:05:56Z,u01, 47,40,movements,el-ex, rt, d,101096.36162587501, -2.089833760721773, -1.0164259626909768, -2.126499565036862, 2.4602510929107666, -0.5720319747924805, 1.1560842990875244, -0.4570789337158203, 0.8502320647239685, 0.26112207770347595, 0.1685504913330078, -0.24772334098815918, -0.2305433452129364, -0.7790501162864512, -0.15375940175268782, 0.5809537237008594,-0.17869501698410437,-0.2873382568359375,0.621368408203125,0.012725830078125
20220112-1805,2022-01-12 18:05:56Z,u01, 48,40,movements,el-ex, rt, d,101096.386571875, -2.035503901820477, -1.0765181128981407, -2.0439037180913284, 2.8054027557373047, -0.7819335460662842, 1.4317378997802734, -0.4240879416465759, 0.8803113698959351, 0.21260617673397064, 0.1325078010559082, -0.08920419216156006, -0.21390308439731598, -0.7637880223487821, -0.15142966364888294, 0.6074443451823134,-0.15718874760192328,-0.295501708984375,0.8448333740234375,0.0096588134765625
20220112-1805,2022-01-12 18:05:56Z,u01, 49,40,movements,el-ex, rt, d,101096.411517875, -1.9559893580900118, -1.140312026169638, -1.931901487729347, 2.8527534008026123, -0.9009937047958374, 1.5919432640075684, -0.3867330849170685, 0.9087637662887573, 0.15679967403411865, 0.11033540964126587, 0.02991122007369995, -0.0782778263092041, -0.7457967176966995, -0.14895333105623132, 0.6356832718180877,-0.1323140699804306,-0.2741546630859375,0.9317169189453125,0.100067138671875
20220112-1805,2022-01-12 18:05:56Z,u01, 50,40,movements,el-ex, rt, d,101096.43646387501, -1.855500884253186, -1.203305513138056, -1.7992414176203537, 2.5534985065460205, -0.7778795957565308, 1.7624061107635498, -0.344812273979187, 0.933231770992279, 0.100910983979702, 0.04505342245101929, -0.20961415767669678, 0.16376805305480957, -0.727714878205372, -0.14452178528055043, 0.6621421204530082,-0.10541516227552616,-0.2964019775390625,0.66937255859375,0.2501068115234375
20220112-1805,2022-01-12 18:05:56Z,u01, 51,40,movements,el-ex, rt, d,101096.46141029167, -1.739283924492294, -1.2584192157970346, -1.6583571358270526, 2.1777889728546143, -0.6539589166641235, 1.717291235923767, -0.3029702603816986, 0.9516057372093201, 0.05153531953692436, 0.1770547330379486, -0.17645907402038574, 0.08713675290346146, -0.7119710593991511, -0.13734944757957795, 0.6838843341080485,-0.08083755136587711,-0.1048431396484375,0.8208465576171875,0.117156982421875
20220112-1805,2022-01-12 18:05:56Z,u01, 52,40,movements,el-ex, rt, d,101096.48635629167, -1.632474796644112, -1.304526748259522, -1.5290481488200325, 0.8070878982543945, -0.8138922452926636, 1.620477557182312, -0.2626347541809082, 0.9647592306137085, 0.016219481825828552, 0.2780003845691681, 0.08998948335647583, 0.006500961259007454, -0.7008477291135654, -0.1300853623257977, 0.6989771884037179,-0.057631163562291476,0.052581787109375,1.0413665771484375,0.13909912109375
20220112-1805,2022-01-12 18:05:57Z,u01, 53,40,movements,el-ex, rt, d,101096.51130229168, -1.7313493811207001, -1.3439633498684882, -1.6016224158575403, -1.502918004989624, -1.5006743669509888, 1.6259617805480957, -0.22200097143650055, 0.974383533000946, 0.035952385514974594, 0.23318573832511902, 0.03425300121307373, -0.035311341285705566, -0.7087323158896992, -0.12519862896087547, 0.6934404682852793,-0.034121049024789074,0.016082763671875,1.03192138671875,-0.034942626953125
20220112-1805,2022-01-12 18:05:57Z,u01, 54,40,movements,el-ex, rt, d,101096.53624829167, -1.865000424669565, -1.384976371762019, -1.6974298303416644, 1.1173814535140991, -1.5339939594268799, 1.9186605215072632, -0.17681504786014557, 0.9827851057052612, 0.05357443541288376, 0.14362721145153046, 0.2133362889289856, -0.2384955883026123, -0.7152896802714472, -0.12307676539491408, 0.6878848181627064,-0.005235476232882008,-0.107421875,1.212188720703125,-0.0890045166015625
20220112-1805,2022-01-12 18:05:57Z,u01, 55,40,movements,el-ex, rt, d,101096.56119429167, -1.6706335716447596, -1.4393129337345199, -1.4681552694820008, 1.8076393604278564, -1.0479652881622314, 1.8774317502975464, -0.13045236468315125, 0.9913685321807861, 0.013067450374364853, -0.003489181399345398, 0.16521722078323364, 0.273034930229187, -0.7019013707106031, -0.11776328352818216, 0.7020316476002,0.02485729343350368,-0.120819091796875,1.1308746337890625,0.3334197998046875
20220112-1805,2022-01-12 18:05:57Z,u01, 56,40,movements,el-ex, rt, d,101096.58614029168, -1.3824189581447097, -1.4867076859991804, -1.1534081303443167, 0.898700475692749, -0.9434880614280701, 1.7998685836791992, -0.08250448852777481, 0.9964666366577148, -0.01572846621274948, 0.08409148454666138, -0.25453853607177734, 0.5364805459976196, -0.6929903525201513, -0.10908775303975499, 0.7107205368946081,0.05235089117567432,0.0442962646484375,0.6690826416015625,0.5029144287109375
20220112-1805,2022-01-12 18:05:57Z,u01, 57,40,movements,el-ex, rt, d,101096.61108629167, -1.7513069630753408, -1.5240340174058824, -1.495124699181993, -3.07757830619812, -1.4050610065460205, 1.3380768299102783, -0.04598545655608177, 0.9989068508148193, 0.008392213843762875, 0.06426557898521423, 0.07843995094299316, 0.6212160587310791, -0.7019883219435804, -0.10681059289785677, 0.7002559742884976,0.07379328848747896,-0.0013427734375,1.1204376220703125,0.6173858642578125
20220112-1805,2022-01-12 18:05:57Z,u01, 58,40,movements,el-ex, rt, d,101096.63603129167, -3.0562777501993312, -1.4342782736322484, -2.7621749845838925, -6.359847545623779, -1.8509870767593384, 1.1601908206939697, -0.011596820317208767, 0.9906958937644958, 0.13559964299201965, -0.1795957386493683, 0.47271353006362915, 0.3936058282852173, -0.7447792011919687, -0.11447165530205083, 0.6509135483062113,0.09225921087771793,-0.218841552734375,1.57586669921875,0.467315673828125
20220112-1805,2022-01-12 18:05:57Z,u01, 59,40,movements,el-ex, rt, d,101096.66097729167, 3.064109831368685, -1.3056268074220196, -2.884868949857463, -3.285313367843628, -1.4436109066009521, 0.5131100416183472, 0.020285863429307938, 0.96504807472229, 0.26128697395324707, -0.26152724027633667, 0.9807069301605225, 0.4663132429122925, -0.7842399365832767, -0.12494480662850121, 0.5980357038401883,0.10821227444804588,-0.23516845703125,2.01031494140625,0.7242889404296875
20220112-1805,2022-01-12 18:05:57Z,u01, 60,40,movements,el-ex, rt, d,101096.68592329168, 3.006457667267351, -1.2916172901040035, -2.9085902465634184, 1.8504215478897095, -1.203806757926941, 0.14671991765499115, 0.037125494331121445, 0.9612820148468018, 0.2730545997619629, -0.18740922212600708, 0.8126896023750305, 0.1627974510192871, -0.7866668126261978, -0.1329760621931897, 0.5901332355630398,0.12335125899810823,-0.17547607421875,1.517608642578125,0.3523406982421875
20220112-1805,2022-01-12 18:05:57Z,u01, 61,40,movements,el-ex, rt, d,101096.71086929167, 2.9974050544632056, -1.32788073896995, -2.894661155333337, 0.26647645235061646, -0.71052485704422, -0.6323103904724121, 0.034561943262815475, 0.9706407785415649, 0.23803777992725372, -0.2614753246307373, 0.05050790309906006, 0.36708009243011475, -0.7740784245211416, -0.14078879979209752, 0.6029591163311445,0.13199032474309946,-0.228363037109375,0.9498138427734375,0.6595001220703125
20220112-1805,2022-01-12 18:05:57Z,u01, 62,40,movements,el-ex, rt, d,101096.73581529167, 3.040333017825213, -1.3193539998227242, -2.8401204930235084, -0.5741115808486938, -0.08439232409000397, -0.3566272556781769, 0.025150546804070473, 0.9685545563697815, 0.2475273311138153, -0.34534090757369995, -0.2688932418823242, 0.5587471723556519, -0.7755716858746651, -0.14917179488653215, 0.5991305653433084,0.13144968657956604,-0.38043212890625,0.766021728515625,0.733428955078125
20220112-1805,2022-01-12 18:05:57Z,u01, 63,40,movements,el-ex, rt, d,101096.76076129168, 3.0801534223948015, -1.326438028621722, -2.803480299509015, 1.2951992750167847, 0.3575909435749054, -0.5054596066474915, 0.01485490333288908, 0.9702927470207214, 0.24147775769233704, -0.3817829191684723, 0.23522788286209106, 0.16828179359436035, -0.7732326250498194, -0.15116277247129772, 0.6025210833464164,0.1273953089746493,-0.348876953125,1.2438201904296875,0.3625946044921875
20220112-1805,2022-01-12 18:05:57Z,u01, 64,40,movements,el-ex, rt, d,101096.78570729167, -3.12290965842777, -1.3824422925575237, -2.7318756626810883, 2.8781988620758057, 0.4474705457687378, -0.7642040252685547, -0.0034980440977960825, 0.9823137521743774, 0.18720965087413788, -0.2083548903465271, 0.13995486497879028, -0.07112075388431549, -0.7555359761165538, -0.15089803710300997, 0.6255855726621294,0.12262898897439001,-0.180816650390625,0.9620208740234375,0.073211669921875
20220112-1805,2022-01-12 18:05:57Z,u01, 65,40,movements,el-ex, rt, d,101096.81065329167, -2.911043498953321, -1.459020478520977, -2.5307248045187962, 3.592582941055298, 0.5829140543937683, -0.8150951862335205, -0.02548878639936447, 0.9937595725059509, 0.10859105736017227, -0.12885376811027527, -0.299439013004303, 0.023672200739383698, -0.7293301061339107, -0.1495764834168936, 0.6572227871140383,0.11731406637059227,-0.1497650146484375,0.726898193359375,0.1381988525390625
20220112-1805,2022-01-12 18:05:57Z,u01, 66,40,movements,el-ex, rt, d,101096.83559929168, -1.6111108508385596, -1.5263320961020055, -1.244203373419441, 5.0289530754089355, 0.680027425289154, -0.5892683267593384, -0.0444183312356472, 0.9990116357803345, 0.0017916745273396373, -0.051544103771448135, -0.08800071477890015, 0.05773293972015381, -0.6928267480272191, -0.1445231279041465, 0.6973120976893258,0.11340289758927286,-0.056488037109375,0.847442626953125,0.0232391357421875
20220112-1805,2022-01-12 18:05:57Z,u01, 67,40,movements,el-ex, rt, d,101096.86054529167, -0.5898385309369047, -1.4696785400945866, -0.22274421302794886, 1.8608067035675049, -0.7411438822746277, -0.2043650895357132, -0.056149184703826904, 0.9948919415473938, -0.0838896706700325, 0.44576719403266907, -0.8679540157318115, -0.8627655506134033, -0.6615142273748726, -0.1430178029586051, 0.7271673420721498,0.11477195715530036,0.4102783203125,0.0101776123046875,-1.220489501953125
20220112-1805,2022-01-12 18:05:57Z,u01, 68,40,movements,el-ex, rt, d,101096.88549129167, -0.5211001955919544, -1.4435905753621416, -0.14089988495443506, 1.060996413230896, -0.8381467461585999, -0.2093125730752945, -0.06315676867961884, 0.9919202327728271, -0.11002468317747116, 0.6228950023651123, -0.6326520442962646, -0.7135835886001587, -0.6504604163891203, -0.14794899671554734, 0.7354685320454002,0.11873658450410218,0.695648193359375,0.8105621337890625,-0.8697357177734375
20220112-1805,2022-01-12 18:05:57Z,u01, 69,40,movements,el-ex, rt, d,101096.91043729168, -0.391774925587869, -1.3813622234720444, 0.01425454591231623, 4.258362293243408, -1.0473530292510986, -0.33190545439720154, -0.07189963757991791, 0.9821109771728516, -0.17403583228588104, 0.4944155812263489, 1.138418197631836, -0.5280057191848755, -0.6237936154356567, -0.15447851382830136, 0.7551677334337927,0.12938152402551484,0.3687286376953125,2.1419677734375,-0.679412841796875
20220112-1805,2022-01-12 18:05:57Z,u01, 70,40,movements,el-ex, rt, d,101096.93538329167, -0.31519469236563247, -1.2700364977910361, 0.11755760640611762, 3.681864023208618, -0.848285973072052, -0.7567107677459717, -0.09183667600154877, 0.9551116824150085, -0.2816515862941742, 0.10538656264543533, 0.5392120480537415, -0.24459341168403625, -0.5774067585383758, -0.1605479339500934, 0.7882416318551004,0.1396454512176104,-0.044403076171875,1.2850799560546875,-0.453643798828125
20220112-1805,2022-01-12 18:05:57Z,u01, 71,40,movements,el-ex, rt, d,101096.96032929167, -0.3334212891357525, -1.230982963038383, 0.12295392341285045, -0.24969054758548737, -0.9650930166244507, -0.03743327781558037, -0.1090853214263916, 0.9428169131278992, -0.3149550259113312, 0.15542635321617126, 0.1324700117111206, 0.03443756699562073, -0.5599556288157828, -0.17021215526859496, 0.7977626253284809,0.14509405860458097,0.0770721435546875,1.077850341796875,-0.28436279296875
20220112-1805,2022-01-12 18:05:57Z,u01, 72,40,movements,el-ex, rt, d,101096.98527529168, -0.4019634592325129, -1.2475569558806585, 0.07975621108805046, -1.2551237344741821, -1.2976410388946533, -0.5720028281211853, -0.1242690160870552, 0.9482114315032959, -0.2923223078250885, 0.3489242494106293, 0.4010470509529114, -0.1428278088569641, -0.5654337403225271, -0.18472555632618798, 0.7900579760304546,0.1482214206349986,0.2190704345703125,1.36016845703125,-0.3945465087890625
20220112-1805,2022-01-12 18:05:57Z,u01, 73,40,movements,el-ex, rt, d,101097.01022129167, -0.5496888171496486, -1.2809459033721495, -0.03732252172426992, -3.0074281692504883, -1.568285346031189, -0.7220383882522583, -0.14931295812129974, 0.9582866430282593, -0.24370577931404114, 0.2181454300880432, -0.048908531665802, 0.0768052339553833, -0.5791066290619227, -0.2068396090340734, 0.7746112022466163,0.1477513724288837,0.0500030517578125,0.8642425537109375,-0.15185546875
20220112-1805,2022-01-12 18:05:57Z,u01, 74,40,movements,el-ex, rt, d,101097.03516729167, -0.8479643264749123, -1.3418874073403795, -0.30283497963259154, -2.61910343170166, -1.5998857021331787, -0.46903905272483826, -0.17017145454883575, 0.9739145636558533, -0.15010668337345123, 0.21184326708316803, -0.37212324142456055, -0.3708435893058777, -0.6087960250487112, -0.2330537597857623, 0.7442986083855565,0.14516498003790645,0.0458831787109375,0.6845550537109375,-0.6603240966796875
20220112-1805,2022-01-12 18:05:57Z,u01, 75,40,movements,el-ex, rt, d,101097.06011329168, -1.0264025448864522, -1.3407209509906335, -0.4512281879777292, 0.1795426458120346, -0.899941086769104, -1.0859657526016235, -0.19508446753025055, 0.9736492037773132, -0.11810764670372009, 0.0070199668407440186, 0.6108235120773315, 0.14229291677474976, -0.6135825286083433, -0.2538949727165223, 0.7335873910463686,0.14458024662301194,-0.2325286865234375,1.5262451171875,0.1721343994140625
20220112-1805,2022-01-12 18:05:57Z,u01, 76,40,movements,el-ex, rt, d,101097.08505929167, -1.0946724318313348, -1.312967918031695, -0.5069416044344257, -0.4223345220088959, -0.2305125892162323, -1.1850630044937134, -0.22662211954593658, 0.9669459462165833, -0.11686768382787704, -0.25152722001075745, 0.06686758995056152, 0.8168646693229675, -0.6078973744249629, -0.2683783544904592, 0.7344588975374069,0.13785519734560536,-0.4845733642578125,0.9028778076171875,0.6963653564453125
20220112-1805,2022-01-12 18:05:57Z,u01, 77,40,movements,el-ex, rt, d,101097.11000529167, -1.2278435842728403, -1.302019957618893, -0.6437758253015764, -1.8715412616729736, -0.07779261469841003, -0.8856257200241089, -0.2500879764556885, 0.9640965461730957, -0.08929706364870071, -0.04120221734046936, -0.4795994162559509, 0.4381130337715149, -0.6148651260883062, -0.2780150111509878, 0.7272597189085042,0.12546674684641695,-0.26995849609375,0.4603118896484375,0.2293701171875
20220112-1805,2022-01-12 18:05:57Z,u01, 78,40,movements,el-ex, rt, d,101097.13495129168, -1.3720383427663905, -1.2913543819070117, -0.7917726477339782, -0.4616132378578186, -0.14375831186771393, -0.6410788297653198, -0.270389199256897, 0.9612095355987549, -0.05446106567978859, 0.15985462069511414, -0.3315555453300476, -0.059399962425231934, -0.6247018338159223, -0.2872578738072721, 0.7172002619252378,0.11337700129399114,-0.04986572265625,0.70635986328125,-0.066497802734375
20220112-1805,2022-01-12 18:05:57Z,u01, 79,40,movements,el-ex, rt, d,101097.15989629168, -1.392993983786725, -1.2799954769747817, -0.8117031872319267, -0.003954540006816387, -0.08979428559541702, -0.2649385929107666, -0.2821994423866272, 0.9580145478248596, -0.050711240619421005, 0.08584943413734436, -0.39110469818115234, 0.6552950143814087, -0.624044467621938, -0.29191245784934683, 0.7165588014827907,0.10908313462573294,-0.23004150390625,0.5153656005859375,0.51080322265625
20220112-1805,2022-01-12 18:05:57Z,u01, 80,40,movements,el-ex, rt, d,101097.18484229167, -1.3767074930010217, -1.2672782888145324, -0.7943990827647598, 0.5160219073295593, 0.08094722777605057, -0.5992532968521118, -0.2932680547237396, 0.9542909264564514, -0.05764572322368622, -0.219335675239563, -0.2538055181503296, 0.12151908129453659, -0.6197019361557757, -0.2952061107883214, 0.7194220617145838,0.10608933327628578,-0.498443603515625,0.800262451171875,-0.0356903076171875
20220112-1805,2022-01-12 18:05:57Z,u01, 81,40,movements,el-ex, rt, d,101097.20978829167, -1.2904285734569951, -1.2470866727343373, -0.6985121138970773, 2.4464073181152344, -0.5163228511810303, -0.3464905917644501, -0.30566561222076416, 0.9480619430541992, -0.08801718801259995, 0.09109660983085632, -0.11577129364013672, -0.5012161731719971, -0.605427463057212, -0.299080246898636, 0.7296204279253206,0.10799353602063477,-0.1905059814453125,0.8140411376953125,-0.6101837158203125
20220112-1805,2022-01-12 18:05:57Z,u01, 82,40,movements,el-ex, rt, d,101097.23473429168, -1.096946626300704, -1.2146874864640695, -0.4737728915856742, 3.3868770599365234, -0.9651332497596741, 0.023259362205863, -0.3102174997329712, 0.9372605085372925, -0.1590852588415146, 0.18047207593917847, -0.3403518795967102, -0.4647092819213867, -0.5738563909106484, -0.3019043092296728, 0.7509785430061001,0.12479586290546874,-0.1550445556640625,0.5457305908203125,-0.6400604248046875
20220112-1805,2022-01-12 18:05:57Z,u01, 83,40,movements,el-ex, rt, d,101097.25968029167, -0.9953371713514344, -1.184151801762456, -0.3368161789069512, 1.162506341934204, -1.1492533683776855, -0.038417115807533264, -0.31635093688964844, 0.9261795878410339, -0.20521612465381622, 0.1402035355567932, -0.3681960105895996, -0.2709496319293976, -0.5498453377740675, -0.30832132926675465, 0.7634695157147342,0.14043669313062945,-0.1643218994140625,0.5753631591796875,-0.4630279541015625
20220112-1805,2022-01-12 18:05:57Z,u01, 84,40,movements,el-ex, rt, d,101097.28462629167, -1.0019966135044582, -1.1805075654402484, -0.3070806139842221, -0.017734698951244354, -1.4483500719070435, 0.18147051334381104, -0.320552259683609, 0.9247992634773254, -0.20492151379585266, 0.20811033248901367, -0.1295110583305359, -0.22926729917526245, -0.5434555356856143, -0.3196800370793411, 0.7610084178866929,0.15273203115929934,-0.16162109375,0.9473876953125,-0.2551727294921875
20220112-1805,2022-01-12 18:05:57Z,u01, 85,40,movements,el-ex, rt, d,101097.30957229168, -1.0355249722314084, -1.1837465422496467, -0.30569709795661343, 0.34828969836235046, -1.2534797191619873, 0.04929422587156296, -0.3246632218360901, 0.9260266423225403, -0.1925317943096161, 0.008653789758682251, 0.2593218684196472, 0.02598215639591217, -0.541675691284536, -0.3321468803261716, 0.7547566659758156,0.1631205946872068,-0.32586669921875,1.1905059814453125,-0.1832275390625
20220112-1805,2022-01-12 18:05:57Z,u01, 86,40,movements,el-ex, rt, d,101097.33451829167, -1.0180292905502708, -1.1721212550328097, -0.2604974919910106, 1.0895754098892212, -0.7956467270851135, -0.10883449018001556, -0.33038532733917236, 0.9215761423110962, -0.20382092893123627, 0.018327921628952026, 0.2631620764732361, -0.10829758644104004, -0.5316064801669417, -0.3398294902616482, 0.7563506123080648,0.1727548176087575,-0.234771728515625,1.11993408203125,-0.388519287109375
20220112-1805,2022-01-12 18:05:57Z,u01, 87,40,movements,el-ex, rt, d,101097.35946429167, -0.9955674442745536, -1.158708676092265, -0.21222639268367846, 0.6046566367149353, -0.9722874760627747, -0.028528135269880295, -0.33606600761413574, 0.9162866473197937, -0.2178952991962433, 0.1964481770992279, -0.0446435809135437, -0.16706864535808563, -0.5206563410182482, -0.34636587785830264, 0.7588143494475663,0.18206710087873051,-0.1544036865234375,0.8598785400390625,-0.377288818359375
20220112-1805,2022-01-12 18:05:57Z,u01, 88,40,movements,el-ex, rt, d,101097.38441029168, -1.007734907944381, -1.1551884876326477, -0.19719599870394788, 0.10196925699710846, -1.0563067197799683, 0.11111524701118469, -0.34141767024993896, 0.914871096611023, -0.2155105322599411, 0.08803030848503113, -0.10424798727035522, -0.13875272870063782, -0.5156482214352011, -0.3554597702741089, 0.7560482525878134,0.19012166016774434,-0.29241943359375,0.8326416015625,-0.3540191650390625
20220112-1805,2022-01-12 18:05:57Z,u01, 89,40,movements,el-ex, rt, d,101097.40935629167, -1.027835441610325, -1.1598608559943544, -0.1913526432926436, -0.2128712385892868, -1.1834220886230469, 0.18126796185970306, -0.3420167863368988, 0.916747510433197, -0.2063940018415451, 0.04128137230873108, -0.13711488246917725, -0.005169034004211426, -0.5142838174164226, -0.36375150557569325, 0.7508480824531565,0.19855518904154168,-0.298675537109375,0.797332763671875,-0.262054443359375
20220112-1805,2022-01-12 18:05:57Z,u01, 90,40,movements,el-ex, rt, d,101097.43430229167, -1.0893623440718947, -1.1702162645683163, -0.22483371518409054, -0.9142859578132629, -1.273574948310852, 0.14709694683551788, -0.3456272482872009, 0.9208349585533142, -0.18056772649288177, 0.03463795781135559, 0.02934509515762329, -0.12503527104854584, -0.5178440860286131, -0.3762361500166063, 0.7406181331270318,0.20437365161692195,-0.2852935791015625,0.94744873046875,-0.3205718994140625
20220112-1805,2022-01-12 18:05:57Z,u01, 91,40,movements,el-ex, rt, d,101097.45924829168, -1.170272458426824, -1.1859318873603082, -0.2786877996415341, -1.0479553937911987, -1.2169133424758911, 0.28453612327575684, -0.3457205295562744, 0.9268493056297302, -0.14638182520866394, 0.05516275763511658, -0.0037078261375427246, 0.04202701151371002, -0.5249569184890377, -0.3888821416699274, 0.7274921372529497,0.20963327509904278,-0.289520263671875,0.91058349609375,-0.0771636962890625
20220112-1805,2022-01-12 18:05:57Z,u01, 92,40,movements,el-ex, rt, d,101097.48419416667, -1.2586599175133861, -1.2025844516136959, -0.3426254013863635, -1.2921143770217896, -1.0267313718795776, 0.2615152895450592, -0.34255507588386536, 0.9329724907875061, -0.11053729802370071, 0.00811302661895752, -0.010365009307861328, 0.10481525212526321, -0.5333798717298901, -0.40029646891701115, 0.7136356844583235,0.21445935942350552,-0.3664398193359375,0.96246337890625,0.0758819580078125
20220112-1805,2022-01-12 18:05:58Z,u01, 93,40,movements,el-ex, rt, d,101097.50914016667, -1.3879309845815824, -1.2149635133302767, -0.45394478440461034, -1.8933883905410767, -0.9814122319221497, -0.050199009478092194, -0.34256261587142944, 0.93735671043396, -0.06335055083036423, -0.05166339874267578, 0.09180289506912231, 0.06997287273406982, -0.5457063617759609, -0.4129519249516085, 0.6971481084832283,0.21368149570050646,-0.3932037353515625,1.035614013671875,-0.0067901611328125
20220112-1805,2022-01-12 18:05:58Z,u01, 94,40,movements,el-ex, rt, d,101097.53408616668, -1.5472132042551898, -1.2183342360905973, -0.5965126674357479, -2.013887882232666, -1.0317708253860474, -0.11975657939910889, -0.3451141119003296, 0.9385256171226501, -0.008140377700328827, -0.05693969130516052, 0.08660578727722168, -0.1402207612991333, -0.5596553363787888, -0.4274525888688178, 0.6782923464453648,0.2097375978685845,-0.420623779296875,0.9793701171875,-0.11590576171875
20220112-1805,2022-01-12 18:05:58Z,u01, 95,40,movements,el-ex, rt, d,101097.55903216667, -1.678230172885849, -1.2140473384189843, -0.711058546294617, -1.0358247756958008, -0.7769814133644104, -0.06415829807519913, -0.34721654653549194, 0.9370371103286743, 0.037446994334459305, -0.034634560346603394, -0.04134613275527954, -0.11117744445800781, -0.5700045660572441, -0.44024798817660715, 0.6621801744587941,0.20686713217677297,-0.3661956787109375,0.9071197509765625,-0.08502197265625
20220112-1805,2022-01-12 18:05:58Z,u01, 96,40,movements,el-ex, rt, d,101097.58397816667, -1.7203842501536117, -1.2133284604320245, -0.7368035550753972, 0.14879275858402252, -0.7530282139778137, 0.09960253536701202, -0.34599605202674866, 0.9367858171463013, 0.052146364003419876, 0.14744874835014343, 0.042950570583343506, -0.3091500997543335, -0.5711928788810634, -0.4470032184210063, 0.6555615894969001,0.2101568813119755,-0.1693572998046875,1.0095367431640625,-0.2936859130859375
20220112-1805,2022-01-12 18:05:58Z,u01, 97,40,movements,el-ex, rt, d,101097.60892416668, -1.728030011443427, -1.2215367038161584, -0.723360454270061, 0.4370558261871338, -0.8534321784973145, 0.5624337792396545, -0.33798104524612427, 0.9396263360977173, 0.05358431115746498, 0.16093340516090393, -0.06589275598526001, -0.09566807746887207, -0.5687645957958669, -0.4508868929203591, 0.6518865182384752,0.2196630552229282,-0.1893157958984375,0.8446502685546875,-0.0170135498046875
20220112-1805,2022-01-12 18:05:58Z,u01, 98,40,movements,el-ex, rt, d,101097.63387016667, -1.690159902141224, -1.2451176508938175, -0.6664757865563543, 1.4264048337936401, -0.39665234088897705, 1.0924965143203735, -0.3176754117012024, 0.9474338293075562, 0.0380999892950058, 0.06575289368629456, -0.18064910173416138, 0.07032907009124756, -0.5644849372661799, -0.44766812506476905, 0.6521773129023478,0.23582789355206624,-0.209320068359375,0.7370452880859375,0.0352783203125
20220112-1805,2022-01-12 18:05:58Z,u01, 99,40,movements,el-ex, rt, d,101097.65881616667, -1.523091695770308, -1.2767839380763604, -0.4889072889858805, 2.6893043518066406, 0.2744322717189789, 1.150571346282959, -0.28946539759635925, 0.957088828086853, -0.013819324783980846, 0.2785096764564514, -0.15331673622131348, 0.049204468727111816, -0.5525921783435762, -0.43328076571660734, 0.6634682686070494,0.25830140603675433,0.0102996826171875,0.837799072265625,0.058990478515625
20220112-1805,2022-01-12 18:05:58Z,u01, 100,40,movements,el-ex, rt, d,101097.68376216668, -1.2764660168000344, -1.293412177188939, -0.23764638813684744, 2.305335760116577, 0.018715543672442436, 1.0591001510620117, -0.2620648443698883, 0.9617750644683838, -0.07944098860025406, 0.40972423553466797, 0.10232716798782349, 0.21815866231918335, -0.5368986562264656, -0.4147521420330982, 0.6790088236286093,0.28047739951566664,0.124053955078125,1.1991119384765625,0.1172332763671875
20220112-1805,2022-01-12 18:05:58Z,u01, 101,40,movements,el-ex, rt, d,101097.70870716668, -1.1299439096802981, -1.2982939655033723, -0.07716740027847847, 0.9636819958686829, -0.614881157875061, 0.5935593843460083, -0.2434094399213791, 0.9631004333496094, -0.11484599858522415, 0.01789984107017517, 0.47116488218307495, 0.06824569404125214, -0.5266404530056644, -0.406481036328524, 0.6847949234528206,0.2974542255936388,-0.2762298583984375,1.45928955078125,-0.07879638671875
20220112-1805,2022-01-12 18:05:58Z,u01, 102,40,movements,el-ex, rt, d,101097.73365316667, -1.0612878344414745, -1.2946752524854204, 0.013827242128868659, 1.211159348487854, -0.9137284159660339, 0.04384872689843178, -0.23799799382686615, 0.9621201753616333, -0.13297271728515625, -0.2691277265548706, 0.6095350980758667, -0.30554962158203125, -0.5173286860253964, -0.4072894201829712, 0.6858681850729615,0.3099535393668128,-0.4818878173828125,1.5226593017578125,-0.53826904296875
20220112-1805,2022-01-12 18:05:58Z,u01, 103,40,movements,el-ex, rt, d,101097.75859916667, -0.9798831083775049, -1.2728316051089599, 0.1283164399090591, 1.847778558731079, -1.3582683801651, -0.1641388237476349, -0.2437942624092102, 0.9559359550476074, -0.16355647146701813, -0.05857381224632263, 0.4095730185508728, -0.3739038109779358, -0.4990585721669164, -0.41129345797378547, 0.6902307245897389,0.3245916643831911,-0.2951812744140625,1.3386993408203125,-0.5046539306640625
20220112-1805,2022-01-12 18:05:58Z,u01, 104,40,movements,el-ex, rt, d,101097.78354516668, -0.9037366759948471, -1.2399074285248644, 0.24368679676544552, 1.6718827486038208, -1.2418867349624634, -0.25006505846977234, -0.255243182182312, 0.9457539319992065, -0.20099875330924988, -0.036535292863845825, 0.16467398405075073, 0.013895511627197266, -0.4756145895890497, -0.4162828192284484, 0.6959535123470919,0.34080512949805764,-0.31689453125,1.012908935546875,-0.0382537841796875
20220112-1805,2022-01-12 18:05:58Z,u01, 105,40,movements,el-ex, rt, d,101097.80849116667, -0.8599195430643835, -1.2117031065565014, 0.3173060743149095, 1.443319320678711, -0.8005635142326355, -0.22557902336120605, -0.266306608915329, 0.936215877532959, -0.2293044775724411, -0.00958743691444397, -0.057416439056396484, 0.2947189211845398, -0.4569964193362151, -0.42012145308114013, 0.7003134288227261,0.3524390543105511,-0.2686920166015625,0.8698577880859375,0.0622711181640625
20220112-1805,2022-01-12 18:05:58Z,u01, 106,40,movements,el-ex, rt, d,101097.83343716667, -0.8142483352633829, -1.1841195727738665, 0.38344976736911884, 1.331240177154541, -0.530232310295105, -0.12364186346530914, -0.27424001693725586, 0.9261674284934998, -0.2588558495044708, 0.08789977431297302, 0.0005904436111450195, 0.15769004821777344, -0.4404563441624129, -0.4202026756126269, 0.7058987017908636,0.3621255936838439,-0.153564453125,0.9395904541015625,-0.141693115234375
20220112-1805,2022-01-12 18:05:58Z,u01, 107,40,movements,el-ex, rt, d,101097.85838316668, -0.7801100925215356, -1.1639090980769604, 0.43231785437743014, 0.9710515737533569, -0.3805178701877594, -0.01545247994363308, -0.2783556282520294, 0.9183571338653564, -0.28131523728370667, 0.12708008289337158, -0.01457911729812622, 0.22705498337745667, -0.4284123702322232, -0.4192913262512544, 0.7098351157567859,0.3698536662771496,-0.1581268310546875,0.89697265625,-0.0616455078125
20220112-1805,2022-01-12 18:05:58Z,u01, 108,40,movements,el-ex, rt, d,101097.88332916667, -0.7416711304831676, -1.144753090827005, 0.48150566538372264, 1.2973791360855103, -0.14975601434707642, 0.09652119874954224, -0.2791732847690582, 0.9106081128120422, -0.30472156405448914, 0.11089944839477539, 0.011083841323852539, 0.10667777061462402, -0.41761923793984007, -0.416213155788028, 0.7140780215490186,0.3774299858796105,-0.165130615234375,0.941680908203125,-0.1916351318359375
20220112-1805,2022-01-12 18:05:58Z,u01, 109,40,movements,el-ex, rt, d,101097.90827516667, -0.695825994357459, -1.123646247723856, 0.5360661034122294, 1.1224349737167358, -0.17319177091121674, 0.22293059527873993, -0.2771754860877991, 0.9016830325126648, -0.33187589049339294, 0.13372766971588135, -0.001979053020477295, -0.0009335875511169434, -0.4065171536618289, -0.4108598975025923, 0.7190728740745371,0.3858397316908381,-0.14166259765625,0.887237548828125,-0.337249755859375
20220112-1805,2022-01-12 18:05:58Z,u01, 110,40,movements,el-ex, rt, d,101097.93322116668, -0.6618752007679485, -1.1073229929403747, 0.5813100248665556, 0.9178579449653625, -0.38357603549957275, 0.2277212142944336, -0.2747604250907898, 0.8945051431655884, -0.3526575565338135, 0.10503700375556946, -0.025379717350006104, 0.0941888689994812, -0.3972096261229033, -0.4073030047937522, 0.7217459536002013,0.39422276668902834,-0.209197998046875,0.88458251953125,-0.239898681640625
20220112-1805,2022-01-12 18:05:58Z,u01, 111,40,movements,el-ex, rt, d,101097.95816716667, -0.6342295256371739, -1.0931524565252773, 0.6220820889276467, 0.8668090105056763, -0.2735227644443512, 0.1873389184474945, -0.2723914384841919, 0.8880804777145386, -0.37029188871383667, -0.16259077191352844, -0.0201604962348938, 0.20909804105758667, -0.38862167521468954, -0.40475578884054214, 0.7231593948624567,0.4027238762738874,-0.45477294921875,0.8704986572265625,-0.150054931640625
20220112-1805,2022-01-12 18:05:58Z,u01, 112,40,movements,el-ex, rt, d,101097.98311316667, -0.606492818031425, -1.0750041023633967, 0.6596973058742994, 1.2127230167388916, -0.19020046293735504, 0.11275069415569305, -0.2711602747440338, 0.8795921206474304, -0.39088350534439087, -0.2011907398700714, 0.025162577629089355, 0.21334749460220337, -0.3792052264288203, -0.40095092087521533, 0.7260809566285422,0.4101807700141631,-0.4497833251953125,0.8993072509765625,-0.2170257568359375
20220112-1805,2022-01-12 18:05:58Z,u01, 113,40,movements,el-ex, rt, d,101098.00805916668, -0.5762868876799458, -1.0479760776898226, 0.7014284148182979, 1.3808341026306152, -0.3480086624622345, 0.07682818174362183, -0.2720896899700165, 0.8664144277572632, -0.41868045926094055, -0.08333322405815125, -0.05966693162918091, 0.10259461402893066, -0.3659751379997997, -0.39588126100429294, 0.7307535772452851,0.4187355586720374,-0.347564697265625,0.7888946533203125,-0.3229827880859375
20220112-1805,2022-01-12 18:05:58Z,u01, 114,40,movements,el-ex, rt, d,101098.03300516667, -0.5604792331281969, -1.025856083136557, 0.7343302421674858, 0.757597804069519, -0.6442884206771851, 0.0886378362774849, -0.2755599319934845, 0.855158269405365, -0.43905726075172424, -0.03214874863624573, -0.18371033668518066, 0.07518082857131958, -0.353645631330985, -0.39421585944436066, 0.7327897233126206,0.42725640189818903,-0.3050994873046875,0.6421356201171875,-0.35394287109375
20220112-1805,2022-01-12 18:05:58Z,u01, 115,40,movements,el-ex, rt, d,101098.05795116667, -0.572875055191096, -1.022788087855996, 0.7409402589089931, -0.447120726108551, -0.768738329410553, 0.03153713420033455, -0.2824019193649292, 0.8535639047622681, -0.4378105103969574, -0.11818704009056091, -0.18135303258895874, 0.22818523645401, -0.3483984089436983, -0.39964145380358057, 0.7297180556063183,0.43176036422814573,-0.4128265380859375,0.6734619140625,-0.2000885009765625
20220112-1805,2022-01-12 18:05:58Z,u01, 116,40,movements,el-ex, rt, d,101098.08289716668, -0.6142220308260478, -1.0442322187224247, 0.7151053774493511, -1.6177350282669067, -0.775435209274292, 0.032264307141304016, -0.28964030742645264, 0.8645389080047607, -0.4107080101966858, -0.1634235978126526, -0.23424410820007324, 0.2412744164466858, -0.3536105707522349, -0.41183194679141494, 0.7211929819243066,0.43038915630215596,-0.454010009765625,0.6159210205078125,-0.1790924072265625
20220112-1805,2022-01-12 18:05:58Z,u01, 117,40,movements,el-ex, rt, d,101098.10784316667, -0.6989308359112, -1.0912958789587444, 0.6430949969151539, -2.953481674194336, -0.9954344630241394, 0.03696905076503754, -0.2968233823776245, 0.8872255086898804, -0.353166788816452, -0.08284571766853333, -0.32161271572113037, 0.1241782009601593, -0.3701162275635542, -0.43177607540997837, 0.7058045127140014,0.4224019212363544,-0.3688507080078125,0.57830810546875,-0.225616455078125
20220112-1805,2022-01-12 18:05:58Z,u01, 118,40,movements,el-ex, rt, d,101098.13278916667, -0.8511375153485309, -1.1513037554890762, 0.5082149785678458, -3.5985703468322754, -1.4954191446304321, -0.060534536838531494, -0.3063000738620758, 0.9132957458496094, -0.268461138010025, -0.009984046220779419, -0.1598014235496521, -0.016298413276672363, -0.39284850462978793, -0.45982549808877876, 0.6829868773546703,0.40958470851370465,-0.3123779296875,0.8682403564453125,-0.37579345703125
20220112-1805,2022-01-12 18:05:58Z,u01, 119,40,movements,el-ex, rt, d,101098.15773516668, -1.0714370679066962, -1.1991345192550058, 0.3155941680986986, -3.173189401626587, -1.8268994092941284, -0.2321268767118454, -0.3188183903694153, 0.9317251443862915, -0.1739061325788498, -0.05728018283843994, 0.40056562423706055, -0.2950727939605713, -0.41297752643885055, -0.4924393339728194, 0.6558337682603614,0.3960243238317329,-0.3851776123046875,1.3656005859375,-0.4503936767578125
20220112-1805,2022-01-12 18:05:58Z,u01, 120,40,movements,el-ex, rt, d,101098.18268016668, -1.243324650938284, -1.2089706492448467, 0.1789502715292846, -0.49201250076293945, -1.6709614992141724, -0.5891464948654175, -0.3351713716983795, 0.9352521300315857, -0.11385850608348846, -0.09993293881416321, 0.5356341600418091, -0.09404247999191284, -0.4173429060270192, -0.5185514887528279, 0.6366076516077682,0.3894355327063813,-0.4433746337890625,1.467803955078125,-0.1327056884765625
20220112-1805,2022-01-12 18:05:58Z,u01, 121,40,movements,el-ex, rt, d,101098.20762616667, -1.2662070523835327, -1.19115952049093, 0.19433707107084386, 0.9710089564323425, -1.2476500272750854, -0.6182198524475098, -0.3535253703594208, 0.9287992715835571, -0.11113842576742172, -0.10963985323905945, 0.38415849208831787, 0.06414134055376053, -0.40261656697321097, -0.5313479912705664, 0.6320387689183053,0.3950901655091884,-0.45703125,1.2701416015625,-0.0530548095703125
20220112-1805,2022-01-12 18:05:58Z,u01, 122,40,movements,el-ex, rt, d,101098.23257216667, -1.2493763269290579, -1.1704417075962716, 0.2394025670040952, 0.7643823027610779, -0.8219607472419739, -0.5205814242362976, -0.36978545784950256, 0.9209228157997131, -0.12312602251768112, 0.02855321764945984, 0.03636789321899414, -0.0032930374145507812, -0.38663965781618115, -0.5375376872947666, 0.6327464675153396,0.40149099840291047,-0.27825927734375,0.8370819091796875,-0.1922149658203125
20220112-1805,2022-01-12 18:05:58Z,u01, 123,40,movements,el-ex, rt, d,101098.25751816668, -1.2405208102824006, -1.1539150611221936, 0.2711086221180249, 0.541969358921051, -0.8307211995124817, -0.411968857049942, -0.38302692770957947, 0.9143561720848083, -0.13131417334079742, 0.16590964794158936, -0.2789343595504761, -0.08774107694625854, -0.37396285736432094, -0.5426736568038063, 0.6329030043886499,0.40631395752758426,-0.229766845703125,0.6390380859375,-0.20916748046875
20220112-1805,2022-01-12 18:05:58Z,u01, 124,40,movements,el-ex, rt, d,101098.28246416667, -1.2528036640257834, -1.145435440665644, 0.27906507233568034, 0.15198366343975067, -0.6910979747772217, -0.06748571991920471, -0.39196139574050903, 0.9108898639678955, -0.12901923060417175, 0.03814062476158142, -0.08935660123825073, -0.029092371463775635, -0.3662405033181536, -0.5489610922788153, 0.6300670833157513,0.40929831609657563,-0.375701904296875,0.892364501953125,-0.1985015869140625
20220112-1805,2022-01-12 18:05:58Z,u01, 125,40,movements,el-ex, rt, d,101098.30741016667, -1.256975776492165, -1.1455550025941388, 0.2930241942303032, 0.043774597346782684, -0.7702266573905945, 0.1674226075410843, -0.3923925459384918, 0.9109392166137695, -0.1273491382598877, 0.044354915618896484, 0.0895184874534607, -0.09043960273265839, -0.3615793289504914, -0.5527981730591559, 0.6260128580074477,0.4144664432250023,-0.3411865234375,0.9903564453125,-0.21539306640625
20220112-1805,2022-01-12 18:05:58Z,u01, 126,40,movements,el-ex, rt, d,101098.33235616668, -1.2893381892024196, -1.1548946461686622, 0.2828259616164833, -0.5445370078086853, -1.0660778284072876, 0.4061155915260315, -0.3881177008152008, 0.9147524237632751, -0.11221790313720703, 0.0848798155784607, -0.07220780849456787, -0.10285472869873047, -0.36100715814638806, -0.559968641605295, 0.6167796203435616,0.41915622520933543,-0.3187713623046875,0.8291015625,-0.2300262451171875
20220112-1805,2022-01-12 18:05:58Z,u01, 127,40,movements,el-ex, rt, d,101098.35730216667, -1.3494479254946332, -1.1678706751871484, 0.24664681173637606, -0.7951991558074951, -1.1110646724700928, 0.33309197425842285, -0.3825448155403137, 0.9199177622795105, -0.08608623594045639, 0.021720319986343384, 0.0933573842048645, -0.0372047945857048, -0.3631283090090413, -0.5701707760933818, 0.6041752285973225,0.42191875952934843,-0.3568267822265625,1.0256195068359375,-0.103179931640625
20220112-1805,2022-01-12 18:05:58Z,u01, 128,40,movements,el-ex, rt, d,101098.38224816667, -1.4272097627364817, -1.179779955478257, 0.1948901662199566, -0.9676877856254578, -1.30391526222229, 0.30299678444862366, -0.37720608711242676, 0.9245221614837646, -0.05453703925013542, 0.06243261694908142, 0.11583727598190308, -0.02020048350095749, -0.3656279739652648, -0.582277996488419, 0.5898379821588059,0.4235087362125808,-0.3061981201171875,1.0269927978515625,-0.0713348388671875
20220112-1805,2022-01-12 18:05:58Z,u01, 129,40,movements,el-ex, rt, d,101098.40719416668, -1.5365064963304667, -1.1890134412155615, 0.11259630569416529, -1.636269211769104, -1.3506295680999756, 0.19231170415878296, -0.37235674262046814, 0.928001880645752, -0.012773056514561176, 0.05100667476654053, 0.0882030725479126, 0.1266188621520996, -0.36975296209527336, -0.5974079166130871, 0.572897961579824,0.42210724082905915,-0.3245086669921875,1.01080322265625,0.136993408203125
20220112-1805,2022-01-12 18:05:58Z,u01, 130,40,movements,el-ex, rt, d,101098.43214016667, -1.6922530700985088, -1.1885058372596418, -0.01972858903538022, -2.219165325164795, -1.2222522497177124, -0.03941473737359047, -0.3702984154224396, 0.9278126358985901, 0.045197706669569016, 0.007734388113021851, -0.005601942539215088, 0.313734769821167, -0.37724572637782106, -0.6166721290850808, 0.5533556438239412,0.4137616110350392,-0.3831939697265625,0.88055419921875,0.3940887451171875
20220112-1805,2022-01-12 18:05:58Z,u01, 131,40,movements,el-ex, rt, d,101098.45708616667, -1.833072066701771, -1.176628635459428, -0.14499449123465985, -1.41861891746521, -0.7431119680404663, -0.2316979020833969, -0.37090685963630676, 0.9233165383338928, 0.09957358241081238, -0.07176584005355835, 0.04239702224731445, 0.31444311141967773, -0.3846589710652143, -0.6338961008712566, 0.5368248176172401,0.40253249636917204,-0.4519500732421875,0.9964141845703125,0.3881072998046875
20220112-1805,2022-01-12 18:05:58Z,u01, 132,40,movements,el-ex, rt, d,101098.482032125, -1.8784076516851471, -1.1610616569442789, -0.18095796450365983, -0.07907382398843765, -0.25582993030548096, -0.5965842604637146, -0.3796665370464325, 0.9172265529632568, 0.12061844021081924, -0.12748977541923523, 0.23382019996643066, 0.12018048018217087, -0.3834854690873796, -0.6428437708784165, 0.5316790243815231,0.39624261488241586,-0.5181121826171875,1.1370086669921875,0.23443603515625
20220112-1805,2022-01-12 18:05:59Z,u01, 133,40,movements,el-ex, rt, d,101098.506978125, -1.861530988657527, -1.1429261649714069, -0.15798315042893066, 0.11150701344013214, -0.08734138309955597, -1.0183662176132202, -0.39752092957496643, 0.9098515510559082, 0.11894344538450241, -0.11908060312271118, 0.04270899295806885, 0.03617739677429199, -0.3752423468676613, -0.6470432006249885, 0.53499400955196,0.39282287397825727,-0.512939453125,0.9302978515625,0.1519927978515625
20220112-1805,2022-01-12 18:05:59Z,u01, 134,40,movements,el-ex, rt, d,101098.53192412501, -1.8539768447613105, -1.1161060535714862, -0.14704480614213997, -0.4703361690044403, -0.16347770392894745, -1.0819646120071411, -0.42169252038002014, 0.8983970880508423, 0.12271294742822647, -0.029342055320739746, -0.14027923345565796, -0.05386517941951752, -0.3668307357604389, -0.6532929548345257, 0.5389164081711224,0.38498417101307736,-0.4260406494140625,0.706298828125,0.01336669921875
20220112-1805,2022-01-12 18:05:59Z,u01, 135,40,movements,el-ex, rt, d,101098.556870125, -1.880215862085797, -1.0887138567516894, -0.17016070240890027, -0.741477370262146, -0.22167840600013733, -0.7070067524909973, -0.4416080415248871, 0.8860313296318054, 0.14117661118507385, 0.10319867730140686, -0.3049919009208679, -0.18474043905735016, -0.3629927642966564, -0.6624383457110266, 0.5381823204233178,0.3738602888125517,-0.3293914794921875,0.58197021484375,-0.0298919677734375
20220112-1805,2022-01-12 18:05:59Z,u01, 136,40,movements,el-ex, rt, d,101098.581816125, -1.9111263249240065, -1.0693157013776355, -0.19881216851915728, -0.7113936543464661, -0.28640681505203247, -0.4894639849662781, -0.4531521797180176, 0.8768717646598816, 0.16046491265296936, 0.11156898736953735, -0.10448712110519409, -0.14203228056430817, -0.3623673294243962, -0.6700166958202594, 0.5354485054589204,0.3647772239746794,-0.3821868896484375,0.8549346923828125,0.0141448974609375
20220112-1805,2022-01-12 18:05:59Z,u01, 137,40,movements,el-ex, rt, d,101098.60676212501, -1.9360024694213551, -1.049477991995806, -0.21767754116092125, -0.6527509093284607, -0.3925928473472595, -0.7736349105834961, -0.4651792645454407, 0.867163360118866, 0.1778651624917984, -0.11473095417022705, 0.3401578664779663, -0.2101680040359497, -0.35979302212897274, -0.6778506939275021, 0.5325918788445027,0.35695005728148976,-0.592864990234375,1.2338409423828125,-0.0423126220703125
20220112-1805,2022-01-12 18:05:59Z,u01, 138,40,movements,el-ex, rt, d,101098.631708125, -1.966812492491844, -1.0188264049915194, -0.23961502142593022, -1.2130749225616455, -0.6806737184524536, -1.237387776374817, -0.48378217220306396, 0.851493239402771, 0.20227181911468506, -0.10038518905639648, 0.48210960626602173, -0.48329296708106995, -0.3551782225511775, -0.6891910738011839, 0.5288739221906702,0.3451903502671014,-0.5268096923828125,1.3475189208984375,-0.4208221435546875
20220112-1805,2022-01-12 18:05:59Z,u01, 139,40,movements,el-ex, rt, d,101098.656654125, -2.0109070758751804, -0.9760054454311614, -0.2594714192778369, -0.4002583622932434, -1.3427131175994873, -1.4332472085952759, -0.5069379210472107, 0.8282656669616699, 0.23872509598731995, 0.22503197193145752, 0.3916134238243103, -0.8977674841880798, -0.345552086867587, -0.7070758845978042, 0.520416138559758,0.3313674941595073,-0.2575531005859375,1.206756591796875,-0.668182373046875
20220112-1805,2022-01-12 18:05:59Z,u01, 140,40,movements,el-ex, rt, d,101098.681599125, -2.000285696585975, -0.9532647171308701, -0.2082845977552981, 1.3699002265930176, -1.2138118743896484, -1.2862751483917236, -0.5264368057250977, 0.8153101801872253, 0.241109699010849, 0.4388360381126404, 0.292752742767334, -0.6592463254928589, -0.32421921529947273, -0.7179392379688263, 0.5175117537676027,0.3341060514044679,-0.0697021484375,1.0305328369140625,-0.2479705810546875
20220112-1805,2022-01-12 18:05:59Z,u01, 141,40,movements,el-ex, rt, d,101098.70654512501, -1.9728524041584943, -0.9368528098110237, -0.14196722311560256, 0.7976809740066528, -0.8941268920898438, -1.0014103651046753, -0.5450933575630188, 0.8056979179382324, 0.23178403079509735, 0.34173959493637085, -0.2153964638710022, -0.09309700131416321, -0.30122682377244014, -0.7246753868713154, 0.5177154201535397,0.3407031580744156,-0.2001800537109375,0.543609619140625,0.1539459228515625
20220112-1805,2022-01-12 18:05:59Z,u01, 142,40,movements,el-ex, rt, d,101098.731491125, -1.9710758765242122, -0.9268238289092312, -0.11035241725345504, 0.30311575531959534, -0.977979302406311, -0.4725395441055298, -0.5529187321662903, 0.7997170686721802, 0.23395250737667084, 0.377091646194458, -0.39551156759262085, -0.10286423563957214, -0.2876766997696948, -0.7309024372281488, 0.5139497806173307,0.3447890570133274,-0.210968017578125,0.460845947265625,0.1850433349609375
20220112-1805,2022-01-12 18:05:59Z,u01, 143,40,movements,el-ex, rt, d,101098.756437125, -1.9805343552649004, -0.916347071408047, -0.09322379164179818, 0.23408165574073792, -0.8657937049865723, -0.6084497570991516, -0.5583356022834778, 0.7933833003044128, 0.24249617755413055, 0.20175296068191528, 0.029096007347106934, 0.06391549110412598, -0.2772721958951564, -0.7378131345753677, 0.5085974972579388,0.3465263663910842,-0.363128662109375,0.8593902587890625,0.302001953125
20220112-1805,2022-01-12 18:05:59Z,u01, 144,40,movements,el-ex, rt, d,101098.78138312501, -1.989285293707018, -0.9035728525001915, -0.07701899645129208, 0.06820740550756454, -0.8968333005905151, -0.7096135020256042, -0.5654067993164062, 0.7855428457260132, 0.2514711320400238, 0.18195348978042603, 0.2575175166130066, 0.012063354253768921, -0.26671553450358454, -0.744713627206029, 0.5038731033406194,0.3469530024078366,-0.393280029296875,1.0344085693359375,0.285430908203125
20220112-1805,2022-01-12 18:05:59Z,u01, 145,40,movements,el-ex, rt, d,101098.806329125, -2.0032968310140222, -0.8862417479687917, -0.06663385554080618, -0.13645821809768677, -0.8307809829711914, -0.7021779417991638, -0.5741036534309387, 0.7747007608413696, 0.2650355100631714, 0.08924037218093872, 0.13887351751327515, -0.010518908500671387, -0.25628689412015493, -0.7528843080550954, 0.4986257716097927,0.34475301848730877,-0.492523193359375,0.8873748779296875,0.25390625
20220112-1805,2022-01-12 18:05:59Z,u01, 146,40,movements,el-ex, rt, d,101098.831275125, -2.014119692477597, -0.8666741269628665, -0.05920962931768855, 0.0313592404127121, -0.5948997735977173, -0.7679703235626221, -0.5847850441932678, 0.7621800899505615, 0.2776833176612854, 0.05159717798233032, 0.03648018836975098, 0.018443912267684937, -0.24698305242842522, -0.7601585565510369, 0.49525175259138965,0.3404174818915766,-0.5274810791015625,0.7327423095703125,0.2500152587890625
20220112-1805,2022-01-12 18:05:59Z,u01, 147,40,movements,el-ex, rt, d,101098.85622112501, -2.0136376811611987, -0.8541440013240104, -0.0426704690254982, 0.2697346806526184, -0.3763940930366516, -0.5305212736129761, -0.593501627445221, 0.7540088891983032, 0.281471848487854, 0.03916507959365845, -0.14306223392486572, -0.010094434022903442, -0.2377754714039611, -0.7643289580890785, 0.49389713800297097,0.3396022500890079,-0.5533905029296875,0.5977935791015625,0.2852935791015625
20220112-1805,2022-01-12 18:05:59Z,u01, 148,40,movements,el-ex, rt, d,101098.881167125, -2.0116650632881363, -0.8470616908933094, -0.030122158675468996, 0.06964094936847687, -0.1982068419456482, -0.2815360128879547, -0.5988702774047852, 0.749337911605835, 0.28257229924201965, 0.03882700204849243, -0.22307753562927246, 0.11742159724235535, -0.23160499011291696, -0.7665802487825815, 0.49325292583346775,0.33972845837134563,-0.56500244140625,0.5099334716796875,0.4082183837890625
20220112-1805,2022-01-12 18:05:59Z,u01, 149,40,movements,el-ex, rt, d,101098.906113125, -2.017612410961217, -0.8412257504344693, -0.033376696331531515, -0.3532530665397644, -0.06823107600212097, -0.060028206557035446, -0.6011126041412354, 0.7454606890678406, 0.28801360726356506, 0.013649284839630127, -0.15312975645065308, 0.07645782828330994, -0.23044185880721824, -0.7687023854756878, 0.4921237052874857,0.3373535130081581,-0.5927886962890625,0.6023712158203125,0.3671875
20220112-1805,2022-01-12 18:05:59Z,u01, 150,40,movements,el-ex, rt, d,101098.93105912501, -2.027170593701496, -0.8384418450225967, -0.04462098023104173, -0.1991233229637146, -0.004581586457788944, 0.07828619331121445, -0.6001928448677063, 0.7436022162437439, 0.2946593463420868, -0.016765713691711426, -0.1154283881187439, -0.03690794110298157, -0.23249704584892872, -0.7702433350559075, 0.49061543758398984,0.33461433724581985,-0.6228485107421875,0.6199493408203125,0.2386474609375
20220112-1805,2022-01-12 18:05:59Z,u01, 151,40,movements,el-ex, rt, d,101098.956005125, -2.0326941494331994, -0.8395323146368787, -0.053874460500790644, -0.2266339510679245, 0.030124394223093987, 0.24004413187503815, -0.5978298783302307, 0.744330883026123, 0.29760849475860596, 0.02658665180206299, -0.17681074142456055, -0.028886109590530396, -0.23539649406187896, -0.7703198937415137, 0.4899267707643911,0.33341783832522864,-0.5659637451171875,0.5498046875,0.251251220703125
20220112-1805,2022-01-12 18:05:59Z,u01, 152,40,movements,el-ex, rt, d,101098.980951125, -2.0407780871387367, -0.8459264947307985, -0.06531021278840242, -0.24630878865718842, -0.03096306137740612, 0.49896156787872314, -0.5911493897438049, 0.7485857605934143, 0.300270140171051, -0.00894838571548462, -0.19546979665756226, -0.019371002912521362, -0.23994767187370025, -0.7697793126131247, 0.48811083762094354,0.334085112422415,-0.6301422119140625,0.600738525390625,0.2866973876953125
20220112-1805,2022-01-12 18:05:59Z,u01, 153,40,movements,el-ex, rt, d,101099.00589712501, -2.0585552603892037, -0.8569822193365735, -0.08774122766973473, -0.4333724081516266, 0.005571847781538963, 0.8363562226295471, -0.5783715844154358, 0.7558702230453491, 0.3068335950374603, -0.09953069686889648, -0.1503860354423523, 0.09372487664222717, -0.24814202839217753, -0.7693128982702243, 0.4840033872719439,0.3351477912962769,-0.6760101318359375,0.607421875,0.4230804443359375
20220112-1805,2022-01-12 18:05:59Z,u01, 154,40,movements,el-ex, rt, d,101099.030843125, -2.082683714578572, -0.8716655493396803, -0.12150370483768398, -0.3813914954662323, 0.12035056948661804, 0.9971948266029358, -0.5610630512237549, 0.7654018402099609, 0.3152272403240204, -0.06006115674972534, -0.1275082230567932, 0.14346715807914734, -0.26032968759338915, -0.7680117681707339, 0.4791262152472755,0.3358934929973044,-0.59600830078125,0.6576080322265625,0.4383544921875
20220112-1805,2022-01-12 18:05:59Z,u01, 155,40,movements,el-ex, rt, d,101099.055789125, -2.1031240357639853, -0.890382955868487, -0.15210476425424832, -0.28428322076797485, 0.09892409294843674, 1.0936866998672485, -0.5420624017715454, 0.7773127555847168, 0.3193008303642273, -0.02072739601135254, 0.0018619894981384277, 0.09145048260688782, -0.27260322771923184, -0.7650737799896902, 0.4749604254198872,0.3387655224308329,-0.5643157958984375,0.7853546142578125,0.40606689453125
20220112-1805,2022-01-12 18:05:59Z,u01, 156,40,movements,el-ex, rt, d,101099.08073512501, -2.1265955600618707, -0.9125854487260733, -0.18522008346754165, -0.17025846242904663, 0.17665810883045197, 1.2801597118377686, -0.5196284055709839, 0.7910879254341125, 0.3227479159832001, -0.06765180826187134, -0.06812644004821777, 0.08298322558403015, -0.28577531060391503, -0.7613845518690612, 0.4700143005525713,0.343092685958186,-0.6043853759765625,0.66656494140625,0.4173583984375
20220112-1805,2022-01-12 18:05:59Z,u01, 157,40,movements,el-ex, rt, d,101099.105681125, -2.1474910680297223, -0.9392597180973804, -0.22123029732665633, -0.13956455886363983, 0.45489805936813354, 1.4524098634719849, -0.4949024021625519, 0.8071212768554688, 0.3219115436077118, -0.07693594694137573, -0.1248549222946167, 0.09427189826965332, -0.30100261941977385, -0.7552173210884654, 0.46652477465405895,0.3484234912787161,-0.563507080078125,0.6947021484375,0.4321441650390625
20220112-1805,2022-01-12 18:05:59Z,u01, 158,40,movements,el-ex, rt, d,101099.130627125, -2.168535192770995, -0.9682546053540575, -0.26351369751746473, -0.20323120057582855, 0.6002128720283508, 1.5247257947921753, -0.46847158670425415, 0.8238977789878845, 0.3189460039138794, -0.036533206701278687, -0.0328516960144043, 0.13517063856124878, -0.31851886417306485, -0.7470065132465127, 0.46429370174860685,0.35349436195352624,-0.4862060546875,0.8068695068359375,0.42767333984375
20220112-1805,2022-01-12 18:05:59Z,u01, 159,40,movements,el-ex, rt, d,101099.155572125, -2.1885475385268705, -0.9969287715401225, -0.308237384734226, -0.16466538608074188, 0.7746273279190063, 1.5070006847381592, -0.44254979491233826, 0.8398076295852661, 0.3144402503967285, -0.04808118939399719, 0.009374439716339111, 0.1481451392173767, -0.33650027210153977, -0.7375552165309313, 0.4633153855515746,0.35793667280020686,-0.4953155517578125,0.8644256591796875,0.4615936279296875
20220112-1805,2022-01-12 18:05:59Z,u01, 160,40,movements,el-ex, rt, d,101099.18051812501, -2.212712861507846, -1.0223393787064168, -0.3603654488812848, -0.29626306891441345, 0.8300983905792236, 1.4298217296600342, -0.4175921380519867, 0.8533300161361694, 0.3121614158153534, -0.07236754894256592, 0.07387036085128784, 0.11023235321044922, -0.3553200147565335, -0.7278931221077981, 0.46272332316479653,0.3602866330045618,-0.46722412109375,0.8862152099609375,0.38507080078125
20220112-1805,2022-01-12 18:05:59Z,u01, 161,40,movements,el-ex, rt, d,101099.205464125, -2.2372676746755076, -1.0444941961883993, -0.41417240128445976, -0.4893072545528412, 0.8672515153884888, 1.2991646528244019, -0.3948427438735962, 0.8646705746650696, 0.3105543553829193, 0.010489135980606079, 0.01783674955368042, 0.1255417764186859, -0.3735807953840572, -0.718132696724909, 0.4628375766939698,0.36125364136224997,-0.372467041015625,0.88580322265625,0.429534912109375
20220112-1805,2022-01-12 18:05:59Z,u01, 162,40,movements,el-ex, rt, d,101099.230410125, -2.2720613060499586, -1.0583632803015468, -0.47664525558371484, -0.6989046931266785, 0.6135334372520447, 1.0792524814605713, -0.3746017515659332, 0.8715541958808899, 0.3163335919380188, 0.041899144649505615, 0.06037640571594238, 0.18520745635032654, -0.39144698140486084, -0.7105885323787422, 0.4613989549255646,0.3590880574123906,-0.337890625,0.931732177734375,0.33251953125
20220112-1805,2022-01-12 18:05:59Z,u01, 163,40,movements,el-ex, rt, d,101099.25535612501, -2.307995362401736, -1.0643926590349362, -0.5381754987490841, -0.8792281746864319, 0.5794680714607239, 0.9475686550140381, -0.35909831523895264, 0.8744944930076599, 0.32604920864105225, 0.08094584941864014, 0.09099030494689941, 0.16493287682533264, -0.407503389260653, -0.7049578664098572, 0.4596425661285881,0.3545479271169715,-0.2656402587890625,0.9540252685546875,0.5278472900390625
20220112-1805,2022-01-12 18:05:59Z,u01, 164,40,movements,el-ex, rt, d,101099.280302125, -2.359456221217801, -1.061449110789294, -0.6080994570789139, -1.2640098333358765, 0.29860183596611023, 0.742599368095398, -0.3436639904975891, 0.8730629682540894, 0.34591323137283325, 0.010229021310806274, 0.0734853744506836, 0.18239182233810425, -0.4227953867521762, -0.7029940778076382, 0.45375939069721316,0.34806000309986357,-0.3703155517578125,0.9028167724609375,0.5496978759765625
20220112-1805,2022-01-12 18:05:59Z,u01, 165,40,movements,el-ex, rt, d,101099.305248125, -2.4223293249125852, -1.0440130934144958, -0.6870181380714923, -1.8259614706039429, 0.2302751988172531, 0.6160799264907837, -0.33123093843460083, 0.8644287586212158, 0.37821879982948303, -0.05054399371147156, -0.003283560276031494, 0.14224332571029663, -0.43849035486827276, -0.7048656634462341, 0.44442652748588346,0.33671330554268736,-0.3733062744140625,0.854705810546875,0.5278472900390625
20220112-1805,2022-01-12 18:05:59Z,u01, 166,40,movements,el-ex, rt, d,101099.33019412501, -2.490229148331133, -1.013017355087814, -0.7704410421432192, -2.3289692401885986, 0.02197132632136345, 0.5102936625480652, -0.3209015429019928, 0.8484327793121338, 0.420932799577713, 0.0546814501285553, 0.024385452270507812, 0.19399648904800415, -0.45515489047156477, -0.7094366945329371, 0.4319892290492765,0.3208100052620759,-0.2377471923828125,0.8608551025390625,0.586151123046875
20220112-1805,2022-01-12 18:05:59Z,u01, 167,40,movements,el-ex, rt, d,101099.355140125, -2.5581285444657906, -0.9726434727627615, -0.849504287400778, -2.3297555446624756, -0.12681709229946136, 0.4158475697040558, -0.31023138761520386, 0.8263772130012512, 0.46995440125465393, 0.013737916946411133, -0.06798487901687622, 0.16967874765396118, -0.4714008322442407, -0.7160715461352896, 0.41613722854362234,0.30307188855626505,-0.3077850341796875,0.746337890625,0.6619110107421875
20220112-1805,2022-01-12 18:05:59Z,u01, 168,40,movements,el-ex, rt, d,101099.380086125, -2.6227217254237285, -0.9234383566610229, -0.9227879919257159, -2.951812982559204, -0.2763633728027344, 0.47649848461151123, -0.29906797409057617, 0.7976799607276917, 0.5237034559249878, -0.023777484893798828, -0.1543845534324646, 0.1983729600906372, -0.48757375969383854, -0.7239637740611602, 0.3973490923945312,0.2833055822033157,-0.291046142578125,0.574615478515625,0.705047607421875
20220112-1805,2022-01-12 18:05:59Z,u01, 169,40,movements,el-ex, rt, d,101099.40503212501, -2.6950968969098312, -0.8583782449405652, -1.0055013468286014, -3.6654789447784424, -0.3636120557785034, 0.8314687609672546, -0.2822577655315399, 0.7567834854125977, 0.5895841717720032, 0.1239326000213623, -0.2654961347579956, 0.2407534122467041, -0.5079945598418982, -0.732621050032982, 0.37193996086364123,0.25858970307182794,-0.1456146240234375,0.509002685546875,0.84637451171875
20220112-1805,2022-01-12 18:05:59Z,u01, 170,40,movements,el-ex, rt, d,101099.429978125, -2.7676533211886474, -0.7779043410358605, -1.0946067602426637, -3.9889893531799316, -0.21399587392807007, 1.0560237169265747, -0.26022419333457947, 0.701788067817688, 0.663157045841217, 0.17698749899864197, -0.10851091146469116, 0.2095237374305725, -0.5333189216577038, -0.7396955069063068, 0.34077570613736247,0.22867773038298184,-0.05157470703125,0.5982513427734375,0.821441650390625
20220112-1805,2022-01-12 18:05:59Z,u01, 171,40,movements,el-ex, rt, d,101099.454924125, -2.8241761291615473, -0.6992828235580117, -1.174051159778738, -3.517120838165283, 0.014824334532022476, 1.2075722217559814, -0.2388615757226944, 0.6436690092086792, 0.7270734906196594, 0.2413487732410431, -0.04953736066818237, -0.06725281476974487, -0.5589103989263062, -0.7423987649173657, 0.31097914005181265,0.19938748443146592,0.00372314453125,0.5955657958984375,0.661224365234375
20220112-1805,2022-01-12 18:05:59Z,u01, 172,40,movements,el-ex, rt, d,101099.47987029167, -2.8648250490676017, -0.6317130638451637, -1.2429763575456825, -2.842869758605957, 0.14288808405399323, 1.3964897394180298, -0.2205156534910202, 0.5905280709266663, 0.7763053774833679, 0.1994127333164215, 0.030581116676330566, -0.07699483633041382, -0.5829885565088265, -0.7404573050131819, 0.28573553095300136,0.17378922749343248,-0.0495758056640625,0.63861083984375,0.7595062255859375
20220112-1805,2022-01-12 18:06:00Z,u01, 173,40,movements,el-ex, rt, d,101099.50481629168, -2.8978352057129793, -0.5808222777139258, -1.3067378879312554, -2.2095820903778076, 0.1734357476234436, 1.6629668474197388, -0.2017720639705658, 0.5487115383148193, 0.8112977743148804, 0.09386192262172699, 0.053598761558532715, -0.02469170093536377, -0.6057340468447052, -0.7339857884432643, 0.265263455803624,0.1548758480689554,-0.110198974609375,0.5797119140625,0.780364990234375
20220112-1805,2022-01-12 18:06:00Z,u01, 174,40,movements,el-ex, rt, d,101099.52976229167, -2.9282438404800963, -0.5455827023253369, -1.3723449448170162, -1.5781818628311157, 0.18630214035511017, 1.974931001663208, -0.18099546432495117, 0.5189163088798523, 0.8354437351226807, 0.06370124220848083, -0.027095019817352295, -0.09206622838973999, -0.6288776441321108, -0.7226581344367363, 0.24905840934928586,0.14229533016972168,-0.1246795654296875,0.55181884765625,0.7272796630859375
20220112-1805,2022-01-12 18:06:00Z,u01, 175,40,movements,el-ex, rt, d,101099.55470829167, -2.956950024533225, -0.5242876630488448, -1.4337648446611115, -0.9460346102714539, 0.06922206282615662, 1.8721574544906616, -0.15893490612506866, 0.5005964636802673, 0.8509660363197327, -0.026047363877296448, 0.22862118482589722, -0.14764249324798584, -0.6498991772190725, -0.7093053402482232, 0.23667134397537892,0.13602847811244878,-0.1798553466796875,0.74847412109375,0.7124481201171875
20220112-1805,2022-01-12 18:06:00Z,u01, 176,40,movements,el-ex, rt, d,101099.57965429168, -2.984569011517564, -0.5163753861281299, -1.4885384381725544, -0.3383074402809143, -0.055956561118364334, 1.78618586063385, -0.13598965108394623, 0.49373137950897217, 0.8589160442352295, 0.006305232644081116, 0.41885116696357727, -0.09586954116821289, -0.667693345086016, -0.6954449176081142, 0.2282160362418659,0.13586605442765753,-0.1278533935546875,0.9471282958984375,0.8433074951171875
20220112-1805,2022-01-12 18:06:00Z,u01, 177,40,movements,el-ex, rt, d,101099.60459929168, -3.011614007692089, -0.5133196131136585, -1.5372077149014354, -0.3986731171607971, -0.14207594096660614, 1.602968454360962, -0.11290833353996277, 0.4910717308521271, 0.8637709021568298, 0.07614998519420624, 0.3707599639892578, -0.04972982406616211, -0.6827940980512154, -0.6824058024652363, 0.22124509698975975,0.13843817878161355,-0.0277099609375,0.8658294677734375,0.809722900390625
20220112-1805,2022-01-12 18:06:00Z,u01, 178,40,movements,el-ex, rt, d,101099.62954529167, -3.0370287455254403, -0.518224271492551, -1.5804693386778648, 0.5141468644142151, -0.23352143168449402, 1.4086989164352417, -0.09066924452781677, 0.4953383505344391, 0.8639554381370544, 0.10131995379924774, 0.4315110445022583, -0.14485454559326172, -0.6952834050597709, -0.6697452538658742, 0.21734737818952987,0.14416100190446796,0.0268096923828125,0.92645263671875,0.6763916015625
20220112-1805,2022-01-12 18:06:00Z,u01, 179,40,movements,el-ex, rt, d,101099.65449129167, -3.0605989476175166, -0.5453402253505828, -1.6150037025418973, 1.2535403966903687, -0.2745000123977661, 1.1195745468139648, -0.06916997581720352, 0.5187090039253235, 0.8521484136581421, 0.1186085119843483, 0.29487448930740356, -0.11447727680206299, -0.7028343251790059, -0.6573416972913738, 0.22138333910961686,0.15784589493868212,0.061187744140625,0.8242645263671875,0.7491302490234375
20220112-1805,2022-01-12 18:06:00Z,u01, 180,40,movements,el-ex, rt, d,101099.67943729168, -3.082153691057358, -0.5779918319795289, -1.6384923110022516, 1.0971931219100952, -0.540562093257904, 0.7255326509475708, -0.04975450411438942, 0.5463430881500244, 0.8360828757286072, 0.1766619086265564, 0.3319072723388672, -0.041908323764801025, -0.7058052336163705, -0.6479817904375467, 0.2275778644043004,0.17368680970424968,0.1462554931640625,0.8507080078125,0.810943603515625
20220112-1805,2022-01-12 18:06:00Z,u01, 181,40,movements,el-ex, rt, d,101099.70438329167, -3.110244519815989, -0.5978613211108957, -1.6592351859679961, 0.5045499801635742, -0.7907137870788574, 0.6663591861724854, -0.025906285271048546, 0.5628760457038879, 0.8261352777481079, 0.11945798993110657, -0.015390634536743164, 0.07384335994720459, -0.7079886736323902, -0.6417317766654259, 0.22732968659485228,0.18775941736568902,0.079620361328125,0.531890869140625,0.8998260498046875
20220112-1805,2022-01-12 18:06:00Z,u01, 182,40,movements,el-ex, rt, d,101099.72932929167, -3.1398747965640315, -0.6011862744188735, -1.672500150604483, -0.08189348131418228, -0.9388573169708252, 0.2961943745613098, -0.0014166563050821424, 0.5656211376190186, 0.8246640563011169, -0.019854024052619934, 0.09487080574035645, 0.18465906381607056, -0.7090285893853742, -0.6400081962949402, 0.22028615899538917,0.19784338912805016,-0.04364013671875,0.70166015625,0.9800872802734375
20220112-1805,2022-01-12 18:06:00Z,u01, 183,40,movements,el-ex, rt, d,101099.75427529168, 3.1180425803060157, -0.6056659743560423, -1.6772722911512243, 0.42761120200157166, -0.8383575677871704, -0.022845348343253136, 0.01935926266014576, 0.5693097114562988, 0.8218948841094971, -0.05189093202352524, 0.13222825527191162, 0.08548402786254883, -0.7074923100965218, -0.640626304382566, 0.2142715261373864,0.2077020562095221,-0.0325469970703125,0.6882171630859375,0.924530029296875
20220112-1805,2022-01-12 18:06:00Z,u01, 184,40,movements,el-ex, rt, d,101099.77922129167, 3.103028654287309, -0.6191494081000548, -1.672769745166813, 0.5831189155578613, -0.5539734363555908, -0.27422672510147095, 0.03139767795801163, 0.5803426504135132, 0.8137670755386353, -0.025584004819393158, -0.13054394721984863, 0.1250147819519043, -0.7028744450948797, -0.6425348557563235, 0.21377272800790348,0.21775619979969943,0.0360107421875,0.375396728515625,0.91357421875
20220112-1805,2022-01-12 18:06:00Z,u01, 185,40,movements,el-ex, rt, d,101099.80416729167, 3.0989016553518263, -0.6261475550194263, -1.6621378909106117, 0.032333362847566605, -0.2839455306529999, -0.44773757457733154, 0.034581638872623444, 0.5860275030136108, 0.8095530867576599, -0.06700649857521057, 0.038057029247283936, 0.12396442890167236, -0.6981562394594637, -0.6460297266210658, 0.2137533293289029,0.2225602470601783,-0.0482940673828125,0.64434814453125,0.9408111572265625
20220112-1805,2022-01-12 18:06:00Z,u01, 186,40,movements,el-ex, rt, d,101099.82911329168, 3.103021717106411, -0.6239063209556575, -1.645523600704196, -0.22763942182064056, -0.17937663197517395, -0.6044349074363708, 0.0312965102493763, 0.5842099785804749, 0.8109989762306213, -0.16658087074756622, 0.060717999935150146, 0.14975547790527344, -0.6934926941896615, -0.6515883348519357, 0.2124534188988465,0.22218031432553925,-0.1692962646484375,0.5838623046875,0.9374237060546875
20220112-1805,2022-01-12 18:06:00Z,u01, 187,40,movements,el-ex, rt, d,101099.85405929167, 3.1117220810094617, -0.619412726540773, -1.6262387225423496, -0.16324186325073242, -0.03047863207757473, -0.65205979347229, 0.024317584931850433, 0.580557107925415, 0.8138562440872192, -0.22509266436100006, -0.07964152097702026, 0.10830855369567871, -0.6886676274392146, -0.657772765748268, 0.21160190349693467,0.21976459388441613,-0.1995391845703125,0.5105438232421875,0.923065185546875
20220112-1805,2022-01-12 18:06:00Z,u01, 188,40,movements,el-ex, rt, d,101099.87900529167, 3.124451037134722, -0.616753879711751, -1.6058597164145811, -0.02795158326625824, 0.1015392541885376, -0.6454629302024841, 0.013982766307890415, 0.5783901810646057, 0.8156405091285706, -0.18491165339946747, -0.03806114196777344, 0.11169713735580444, -0.68362653966854, -0.6636829109002783, 0.21266475243908012,0.2166875281680273,-0.154083251953125,0.52093505859375,0.91448974609375
20220112-1805,2022-01-12 18:06:00Z,u01, 189,40,movements,el-ex, rt, d,101099.90395129168, 3.140796106805423, -0.6174658351793024, -1.5846080235309117, -0.015220043249428272, 0.27325567603111267, -0.7127697467803955, 0.000649463152512908, 0.5789707899093628, 0.815348207950592, -0.14023679494857788, 0.0019466280937194824, 0.16499853134155273, -0.678225465762051, -0.6690921638052985, 0.21606774045304,0.21363686689703895,-0.1414794921875,0.587432861328125,0.9927520751953125
20220112-1805,2022-01-12 18:06:00Z,u01, 190,40,movements,el-ex, rt, d,101099.92889729167, -3.1226975997639563, -0.6155649392978494, -1.565476163288046, -0.07102738320827484, 0.39685699343681335, -0.5368639826774597, -0.015425899997353554, 0.5774198770523071, 0.816301703453064, -0.08783026039600372, -0.028622210025787354, 0.13523638248443604, -0.6740824139311137, -0.6736198791658728, 0.2200183855987663,0.208425268720442,-0.0796966552734375,0.524505615234375,0.9201507568359375
20220112-1805,2022-01-12 18:06:00Z,u01, 191,40,movements,el-ex, rt, d,101099.95384329167, -3.101310730024887, -0.6155362752124522, -1.5489601642468167, 0.1987641453742981, 0.5829997062683105, -0.49406060576438904, -0.03287985548377037, 0.5773964524269104, 0.8158019185066223, -0.08493319153785706, 0.02973562479019165, 0.1472262144088745, -0.6707094502201076, -0.6767937594137162, 0.22553018370251132,0.20306481833838247,-0.125732421875,0.6099700927734375,0.95062255859375
20220112-1805,2022-01-12 18:06:00Z,u01, 192,40,movements,el-ex, rt, d,101099.97878929168, -3.076758678790451, -0.627295541882642, -1.5353872017223242, 0.6079394221305847, 0.7601926922798157, -0.3609056770801544, -0.052453987300395966, 0.5869573354721069, 0.8079169988632202, -0.09047502279281616, -0.05946093797683716, 0.045018792152404785, -0.6674451171332575, -0.6771082067283914, 0.23633763354835158,0.2004646582426699,-0.1451873779296875,0.482879638671875,0.846649169921875
20220112-1805,2022-01-12 18:06:00Z,u01, 193,40,movements,el-ex, rt, d,101100.00373529167, -3.0511169012119894, -0.6354823923330181, -1.5256154289522743, 0.21903333067893982, 0.8398011326789856, -0.26542583107948303, -0.07271429896354675, 0.593565821647644, 0.8014940619468689, -0.05324695259332657, -0.07006710767745972, 0.02107691764831543, -0.6659091078700563, -0.6762485414479382, 0.24670290225335922,0.19593564377482758,-0.13092041015625,0.5549774169921875,0.818756103515625
20220112-1805,2022-01-12 18:06:00Z,u01, 194,40,movements,el-ex, rt, d,101100.02868129167, -3.0242644254075883, -0.6402797212300391, -1.5172682732535743, 0.2955150306224823, 0.8875651359558105, -0.21055012941360474, -0.09387318789958954, 0.597419798374176, 0.7964156866073608, -0.05728032439947128, 0.1314469575881958, -0.02935612201690674, -0.66524597795275, -0.6750226958690843, 0.2565094700613452,0.18972398724166306,-0.1534271240234375,0.685760498046875,0.73065185546875
20220112-1805,2022-01-12 18:06:00Z,u01, 195,40,movements,el-ex, rt, d,101100.05362629167, -2.997182452495445, -0.6463189379554819, -1.5109692186123602, 0.1457446813583374, 0.9642609357833862, -0.15013399720191956, -0.11488334089517593, 0.6022518873214722, 0.7899969816207886, -0.05418401211500168, -0.09698736667633057, -0.04991501569747925, -0.6651334232292127, -0.6727525640913117, 0.2669646497878248,0.183661622935939,-0.171417236328125,0.497161865234375,0.7394561767578125
20220112-1805,2022-01-12 18:06:00Z,u01, 196,40,movements,el-ex, rt, d,101100.07857229168, -2.9692838653659783, -0.6487717451843853, -1.506312635264257, 0.08826150745153427, 1.0208559036254883, -0.15172024071216583, -0.13662180304527283, 0.6042081713676453, 0.7850267291069031, -0.049993112683296204, -0.07677280902862549, -0.08930230140686035, -0.6658783507500201, -0.670163703662778, 0.276683869695223,0.17587684678808763,-0.2022247314453125,0.6207122802734375,0.7222747802734375
20220112-1805,2022-01-12 18:06:00Z,u01, 197,40,movements,el-ex, rt, d,101100.10351829167, -2.9422961019319116, -0.6450654562787516, -1.5040811580510876, -0.3493981957435608, 1.0467095375061035, -0.08152344077825546, -0.15819790959358215, 0.6012507677078247, 0.7832440733909607, -0.07887783646583557, 0.05342763662338257, 0.012486636638641357, -0.6677197347100374, -0.6676618821470055, 0.2843635964546113,0.1658776537003756,-0.2396392822265625,0.645721435546875,0.79254150390625
20220112-1805,2022-01-12 18:06:00Z,u01, 198,40,movements,el-ex, rt, d,101100.12846429167, -2.9145931742689757, -0.6346063312800726, -1.5024065690743118, -0.4006879925727844, 1.0874159336090088, -0.20620465278625488, -0.18123801052570343, 0.5928605198860168, 0.784646213054657, -0.05686008930206299, 0.0923812985420227, -0.027825355529785156, -0.670101700107999, -0.665797878220377, 0.29022264423643684,0.15312692402655603,-0.24017333984375,0.729949951171875,0.7832183837890625
20220112-1805,2022-01-12 18:06:00Z,u01, 199,40,movements,el-ex, rt, d,101100.15341029168, -2.8840075631367568, -0.6217014072049333, -1.4977105970927587, -0.5728257298469543, 1.154228687286377, -0.3618052899837494, -0.20708021521568298, 0.5824190378189087, 0.786069929599762, -0.07775552570819855, 0.1891263723373413, 0.13990968465805054, -0.6715790110570238, -0.6648432974411056, 0.2960781618133513,0.13893446775489596,-0.2910308837890625,0.7767486572265625,0.9403839111328125
20220112-1805,2022-01-12 18:06:00Z,u01, 200,40,movements,el-ex, rt, d,101100.17835629167, -2.8497429622756747, -0.6023931663814739, -1.4905976231788762, -0.7475776076316833, 1.2847801446914673, -0.5240160822868347, -0.23707953095436096, 0.5666159987449646, 0.7891384959220886, -0.09521104395389557, 0.2321053147315979, 0.21768218278884888, -0.672478085859222, -0.6650883102832631, 0.30110340417526194,0.1215215601930256,-0.3610382080078125,0.8331756591796875,1.062042236328125
20220112-1805,2022-01-12 18:06:00Z,u01, 201,40,movements,el-ex, rt, d,101100.20330229167, -2.8078873933807214, -0.5828292700071475, -1.4792799467241122, -0.42061787843704224, 1.5947598218917847, -0.6540622711181641, -0.27347129583358765, 0.5503883361816406, 0.7888516187667847, -0.19666728377342224, 0.3026849627494812, 0.4188970923423767, -0.6718865005475179, -0.6655782063097329, 0.3084744438410497,0.10206816304351586,-0.4799041748046875,0.8502044677734375,1.2111663818359375
20220112-1805,2022-01-12 18:06:00Z,u01, 202,40,movements,el-ex, rt, d,101100.22824829168, -2.7531209599289337, -0.5730197912887354, -1.4610394114060374, 0.07842791825532913, 1.996256709098816, -0.7687267065048218, -0.31827184557914734, 0.5421719551086426, 0.7776583433151245, -0.197063148021698, 0.27255576848983765, 0.3716336488723755, -0.6686494702198661, -0.6646330217233006, 0.3229287357446992,0.08299293734884335,-0.5184783935546875,0.7950592041015625,1.11517333984375
20220112-1805,2022-01-12 18:06:00Z,u01, 203,40,movements,el-ex, rt, d,101100.25319429167, -2.6859991358710595, -0.5741163422019603, -1.434765047856801, 0.7735063433647156, 2.188263177871704, -0.809088408946991, -0.36945220828056335, 0.5430930256843567, 0.7540263533592224, -0.12888461351394653, 0.1743602156639099, 0.1438620686531067, -0.6624061001280807, -0.6619904288013959, 0.34453413919802317,0.0654465569643283,-0.498992919921875,0.7022705078125,0.8854522705078125
20220112-1805,2022-01-12 18:06:00Z,u01, 204,40,movements,el-ex, rt, d,101100.27814029167, -2.6115130702256337, -0.5908106679204684, -1.398826931406427, 1.5185660123825073, 2.2025375366210938, -0.6857273578643799, -0.419897198677063, 0.557034432888031, 0.7165188789367676, -0.13028892874717712, -0.05389106273651123, 0.13757669925689697, -0.6527340641727033, -0.6574174218002939, 0.37263971250782174,0.05366848109076486,-0.58258056640625,0.459930419921875,0.8371734619140625
20220112-1805,2022-01-12 18:06:00Z,u01, 205,40,movements,el-ex, rt, d,101100.30308629168, -2.52725829556832, -0.6246550267173752, -1.3484288270578793, 2.6976723670959473, 2.2261571884155273, -0.6084078550338745, -0.4675675332546234, 0.5848174691200256, 0.6628495454788208, -0.1631697714328766, -0.03444802761077881, 0.11318200826644897, -0.638853939801772, -0.6506077248806361, 0.40762316849810404,0.04918028235380198,-0.636566162109375,0.5602264404296875,0.7661590576171875
20220112-1805,2022-01-12 18:06:00Z,u01, 206,40,movements,el-ex, rt, d,101100.32803229167, -2.4252509138405935, -0.6805944113587316, -1.26988924235793, 3.706815242767334, 2.095583915710449, -0.5588760375976562, -0.5103321671485901, 0.6292551159858704, 0.5861735343933105, -0.1666545271873474, -0.04372948408126831, 0.09938877820968628, -0.6178401404631106, -0.641373770700537, 0.4514592631912667,0.05565849825640959,-0.6970977783203125,0.5883026123046875,0.679656982421875
20220112-1805,2022-01-12 18:06:00Z,u01, 207,40,movements,el-ex, rt, d,101100.35297829167, -2.31062393385357, -0.7373761636987765, -1.1722764297389179, 3.6577610969543457, 1.9825677871704102, -0.5060632228851318, -0.546726405620575, 0.6723479628562927, 0.49903735518455505, -0.2215840220451355, -0.07998651266098022, 0.07936233282089233, -0.5932634912226213, -0.6305212975809311, 0.4960531146471744,0.06642723032058337,-0.7657623291015625,0.5957183837890625,0.5654754638671875
20220112-1805,2022-01-12 18:06:00Z,u01, 208,40,movements,el-ex, rt, d,101100.37792429168, -2.189159876542219, -0.783275039092006, -1.0661448916472904, 3.348628520965576, 1.891502022743225, -0.48014891147613525, -0.5773927569389343, 0.7056038975715637, 0.4107811152935028, -0.14419537782669067, -0.06819838285446167, 0.21908646821975708, -0.5681450914721079, -0.6185480711804249, 0.5373126819966373,0.07684187513378612,-0.7019805908203125,0.619293212890625,0.6882171630859375
20220112-1805,2022-01-12 18:06:00Z,u01, 209,40,movements,el-ex, rt, d,101100.40287029167, -2.0745286415722437, -0.8124347549904666, -0.9712593710087476, 2.2607550621032715, 1.8540284633636475, -0.3969956040382385, -0.6023078560829163, 0.7259637713432312, 0.33196717500686646, -0.11772388219833374, -0.21262741088867188, 0.3960449993610382, -0.5469107734704826, -0.6056997524139808, 0.5719774117830028,0.08281542785249704,-0.726043701171875,0.51416015625,0.6955108642578125
20220112-1805,2022-01-12 18:06:00Z,u01, 210,40,movements,el-ex, rt, d,101100.42781629167, -1.9803642927643756, -0.8264531772885241, -0.9033635065448793, 1.7805914878845215, 1.691810131072998, -0.30236339569091797, -0.6214559078216553, 0.7355330586433411, 0.26978498697280884, -0.08958840370178223, -0.1771222949028015, 0.19589808583259583, -0.5324174909507138, -0.5928103428589472, 0.5985392552266029,0.08281530009232119,-0.70947265625,0.6310577392578125,0.3958892822265625
20220112-1805,2022-01-12 18:06:00Z,u01, 211,40,movements,el-ex, rt, d,101100.45276229168, -1.8972358575370052, -0.833076326863362, -0.8440930401225214, 1.1303284168243408, 1.4740331172943115, -0.3287496566772461, -0.6370823383331299, 0.7400040030479431, 0.215685173869133, -0.027682006359100342, -0.13522189855575562, 0.2287728488445282, -0.5195173330501395, -0.5813297918109622, 0.6208843010199423,0.0816091858657183,-0.6646270751953125,0.5898895263671875,0.4991302490234375
20220112-1805,2022-01-12 18:06:00Z,u01, 212,40,movements,el-ex, rt, d,101100.47770704167, -1.8434490767337903, -0.8284186683174363, -0.8212734587927827, 0.08684909343719482, 1.4270786046981812, -0.4367186725139618, -0.6510686874389648, 0.7368632555007935, 0.18204934895038605, -0.054024577140808105, -0.18518173694610596, 0.4215579032897949, -0.514168166742978, -0.5715380730345995, 0.6353221927384403,0.0730820536487084,-0.7047576904296875,0.661468505859375,0.560638427734375
20220112-1805,2022-01-12 18:06:01Z,u01, 213,40,movements,el-ex, rt, d,101100.50265304168, -1.8057715811982389, -0.8175337071128633, -0.8148611073749853, 0.0013262424618005753, 1.1631982326507568, -0.4776436984539032, -0.6652252674102783, 0.7294610738754272, 0.1592532843351364, -0.005856156349182129, 0.18287718296051025, 0.30790969729423523, -0.5114979524108219, -0.5639117729938771, 0.6454553010715749,0.06132423905594847,-0.668975830078125,0.92803955078125,0.45416259765625
20220112-1805,2022-01-12 18:06:01Z,u01, 214,40,movements,el-ex, rt, d,101100.52759904167, -1.7774226917890237, -0.8051654059626426, -0.8100382721782079, 0.294906884431839, 0.875819206237793, -0.540171205997467, -0.6782509684562683, 0.7209452986717224, 0.1421736627817154, -0.008257091045379639, 0.11892902851104736, 0.1281663030385971, -0.5084308053679508, -0.5590929663589885, 0.6529271019190338,0.050983268211833244,-0.694061279296875,0.8196258544921875,0.2098541259765625
20220112-1805,2022-01-12 18:06:01Z,u01, 215,40,movements,el-ex, rt, d,101100.55254504168, -1.7299190697278708, -0.7964506224960964, -0.7718857134191398, 1.6367405652999878, 0.7331695556640625, -0.5219480991363525, -0.6904146075248718, 0.7148786783218384, 0.11079737544059753, 0.0204927921295166, 0.06687486171722412, 0.12624798715114594, -0.4971146645813315, -0.555225809185713, 0.6650291966226194,0.04834714939461343,-0.6686859130859375,0.7705078125,0.2401580810546875
20220112-1805,2022-01-12 18:06:01Z,u01, 216,40,movements,el-ex, rt, d,101100.57749104167, -1.6639810981660723, -0.7921504028022939, -0.700533671940863, 1.9139243364334106, 0.5031291246414185, -0.3243314325809479, -0.6992691159248352, 0.7118651866912842, 0.0653504952788353, -0.016230642795562744, -0.1381193995475769, 0.15985393524169922, -0.4780664690947582, -0.5514777419633146, 0.6814191477917481,0.05470564200844058,-0.7545013427734375,0.4853515625,0.340789794921875
20220112-1805,2022-01-12 18:06:01Z,u01, 217,40,movements,el-ex, rt, d,101100.60243704167, -1.618890990455468, -0.7896138786106103, -0.654418759181495, 0.5409616827964783, 0.37802764773368835, -0.05142752453684807, -0.7033054232597351, 0.7100814580917358, 0.03385134041309357, 0.08491253852844238, -0.44674521684646606, 0.2551349401473999, -0.46604274358667447, -0.5474758736465131, 0.6925280524675359,0.05898534134881889,-0.57684326171875,0.2939300537109375,0.2650909423828125
20220112-1805,2022-01-12 18:06:01Z,u01, 218,40,movements,el-ex, rt, d,101100.62738304168, -1.6131599211285215, -0.7907623354705322, -0.6494868155193761, 0.021446390077471733, -0.17233477532863617, 0.08125442266464233, -0.7026726007461548, 0.7108896374702454, 0.029785556718707085, 0.31099486351013184, -0.08808684349060059, 0.07057154178619385, -0.4651599442304817, -0.5463689276057397, 0.6939268579079818,0.0597725015585423,-0.3898773193359375,0.7220458984375,0.0547637939453125
20220112-1805,2022-01-12 18:06:01Z,u01, 219,40,movements,el-ex, rt, d,101100.65232904167, -1.615059863792655, -0.7937073227745941, -0.6398078453731654, 0.48757487535476685, -0.4177584946155548, 0.16411668062210083, -0.7005201578140259, 0.7129577398300171, 0.031027765944600105, 0.26300495862960815, -0.009893715381622314, 0.04746353626251221, -0.4632125312642148, -0.5485873078121806, 0.6930438417573668,0.06462470160716055,-0.4339141845703125,0.6994171142578125,0.0953521728515625
20220112-1805,2022-01-12 18:06:01Z,u01, 220,40,movements,el-ex, rt, d,101100.67727504167, -1.6088455107155928, -0.7990363972839324, -0.6182975613959535, 0.7266360521316528, -0.3003823459148407, 0.22442609071731567, -0.6968929171562195, 0.7166844010353088, 0.026529010385274887, 0.41532254219055176, 0.0054378509521484375, 0.1582244634628296, -0.4589036030726783, -0.5501563305788438, 0.6938811227477752,0.07255693552819914,-0.1983489990234375,0.705841064453125,0.254730224609375
20220112-1805,2022-01-12 18:06:01Z,u01, 221,40,movements,el-ex, rt, d,101100.70222104168, -1.5950726005239952, -0.8063215865347433, -0.5887438915115836, 1.0334964990615845, -0.3097778260707855, 0.30729126930236816, -0.6919541358947754, 0.721746027469635, 0.016801368445158005, 0.6142563819885254, -0.09804296493530273, 0.22782766819000244, -0.4532296144052523, -0.5504394616816511, 0.6962967931644424,0.08228095173071087,-0.0869598388671875,0.636474609375,0.220458984375
20220112-1805,2022-01-12 18:06:01Z,u01, 222,40,movements,el-ex, rt, d,101100.72716704167, -1.5557126786839957, -0.8142334420132797, -0.5259721881696215, 2.452138662338257, -0.16491994261741638, 0.2846299707889557, -0.6863479018211365, 0.7271996140480042, -0.01035341527312994, 0.478157103061676, 0.03358834981918335, 0.0551837682723999, -0.4399138682217427, -0.5489071696334613, 0.7039346090272456,0.09824833710381597,-0.2635040283203125,0.7982025146484375,0.0369415283203125
20220112-1805,2022-01-12 18:06:01Z,u01, 223,40,movements,el-ex, rt, d,101100.75211304167, -1.4886819512476501, -0.8172288448425044, -0.43103771770374977, 2.3711869716644287, -0.07000240683555603, 0.21810001134872437, -0.6819391250610352, 0.7292524576187134, -0.05612320452928543, 0.33092600107192993, 0.10793626308441162, 0.0925917699933052, -0.4184504245008488, -0.5448280827063073, 0.7169321328447711,0.11861665857090725,-0.3528594970703125,0.8437957763671875,0.0427398681640625
20220112-1805,2022-01-12 18:06:01Z,u01, 224,40,movements,el-ex, rt, d,101100.77705904168, -1.4432295779521642, -0.8182793326329777, -0.36238571750003074, 1.4778350591659546, -0.3170771300792694, 0.3023041784763336, -0.6779246926307678, 0.7299708724021912, -0.08695283532142639, 0.2924877405166626, 0.10758417844772339, 0.07216709852218628, -0.40298668468772786, -0.5423332149280802, 0.7248580886840705,0.1343773091153756,-0.410308837890625,0.7806396484375,-0.0633392333984375
20220112-1805,2022-01-12 18:06:01Z,u01, 225,40,movements,el-ex, rt, d,101100.80200504167, -1.413615928429978, -0.8243077754108573, -0.31018394482466166, 1.424200177192688, -0.3099803030490875, 0.566815197467804, -0.6706939935684204, 0.7340778708457947, -0.10629677772521973, 0.10151082277297974, -0.11652415990829468, 0.06084086745977402, -0.39287776286988163, -0.5408314676378521, 0.7285811270210896,0.1493914977600878,-0.5830841064453125,0.6143951416015625,-0.0377349853515625
20220112-1805,2022-01-12 18:06:01Z,u01, 226,40,movements,el-ex, rt, d,101100.82695104167, -1.3675555804008364, -0.832267187634364, -0.2434282447112489, 1.9640697240829468, 0.08234059065580368, 0.667769193649292, -0.6593449711799622, 0.7394595146179199, -0.13588188588619232, 0.010877013206481934, -0.039950788021087646, 0.22787714004516602, -0.38118982517405686, -0.53549357953328, 0.7347947548258698,0.16738480332221783,-0.64385986328125,0.7337493896484375,0.101409912109375
20220112-1805,2022-01-12 18:06:01Z,u01, 227,40,movements,el-ex, rt, d,101100.85189704168, -1.3049159799962549, -0.8376095200557464, -0.16573952574171838, 1.9642901420593262, 0.2399987280368805, 0.7666705846786499, -0.6457249522209167, 0.743045449256897, -0.17584896087646484, 0.14807486534118652, 0.011425435543060303, 0.15309810638427734, -0.3679403461024954, -0.5260184614516171, 0.7438680638635089,0.18596998584000884,-0.4865264892578125,0.75970458984375,-0.034881591796875
20220112-1805,2022-01-12 18:06:01Z,u01, 228,40,movements,el-ex, rt, d,101100.87684204167, -1.2366307047328726, -0.8416314740687026, -0.08106024658741381, 2.3130595684051514, 0.21909891068935394, 0.851356029510498, -0.6293933391571045, 0.7457310557365417, -0.2185164839029312, 0.10053890943527222, 0.0563778281211853, 0.07062831521034241, -0.3540378085757591, -0.5151688937304184, 0.7527488997556124,0.20646426599446632,-0.56463623046875,0.773712158203125,-0.1892852783203125
20220112-1805,2022-01-12 18:06:01Z,u01, 229,40,movements,el-ex, rt, d,101100.90178804168, -1.1597039827837532, -0.8391337367327262, 0.014570087062315445, 2.4189679622650146, 0.24120740592479706, 0.7964906692504883, -0.6124442219734192, 0.7440646290779114, -0.26698312163352966, 0.08059912919998169, -0.0489504337310791, -0.02188098430633545, -0.3371242921524584, -0.5028475455412265, 0.7623403226929505,0.22875497834877362,-0.5255584716796875,0.689910888671875,-0.29779052734375
20220112-1805,2022-01-12 18:06:01Z,u01, 230,40,movements,el-ex, rt, d,101100.92673404167, -1.0926923886495385, -0.8336309196023707, 0.09999962139297101, 1.8462525606155396, -0.006937685422599316, 0.7645638585090637, -0.5968183875083923, 0.7403769493103027, -0.30927321314811707, 0.08812093734741211, 0.010721743106842041, 0.048759907484054565, -0.3217394022386402, -0.49177957322459265, 0.7697855635258541,0.24913217251148878,-0.478515625,0.7655487060546875,-0.3573455810546875
20220112-1805,2022-01-12 18:06:01Z,u01, 231,40,movements,el-ex, rt, d,101100.95168004167, -1.0468009973332233, -0.8283035425945301, 0.16860938291092095, 1.6849887371063232, -0.3501250147819519, 0.7029608488082886, -0.5854087471961975, 0.7367854118347168, -0.33829548954963684, 0.27052849531173706, 0.013855457305908203, -0.3576730787754059, -0.3087726274561229, -0.4852954898116427, 0.7731478350898253,0.26718941381709166,-0.3205108642578125,0.775299072265625,-0.663299560546875
20220112-1805,2022-01-12 18:06:01Z,u01, 232,40,movements,el-ex, rt, d,101100.97662604168, -1.0088402449235052, -0.8213710821005714, 0.2341489655017208, 1.7252789735794067, -0.39662885665893555, 0.6703706979751587, -0.5764564871788025, 0.7320805191993713, -0.3629818856716156, 0.14229828119277954, 0.10878556966781616, -0.1037234365940094, -0.29536355082245347, -0.48090480240249367, 0.7746257097898785,0.2853871719690213,-0.462127685546875,0.8364715576171875,-0.41583251953125
20220112-1805,2022-01-12 18:06:01Z,u01, 233,40,movements,el-ex, rt, d,101101.00157204167, -0.9708146322644803, -0.8106664200184643, 0.2979384767522096, 1.4223963022232056, -0.2801184356212616, 0.5050563216209412, -0.5686762928962708, 0.7247465252876282, -0.3890371024608612, 0.06437337398529053, 0.06309539079666138, 0.14958089590072632, -0.2812751783241816, -0.47577906829843436, 0.776507846090383,0.3025792457959994,-0.5083160400390625,0.7632293701171875,-0.224853515625
20220112-1805,2022-01-12 18:06:01Z,u01, 234,40,movements,el-ex, rt, d,101101.02651804168, -0.9522541810882411, -0.8096356691318138, 0.33130728709188867, 0.35337042808532715, -0.2178061157464981, 0.5065208077430725, -0.5619663596153259, 0.724035918712616, -0.3999572992324829, 0.1196293830871582, -0.014334321022033691, 0.11512142419815063, -0.2757837638790931, -0.47324904948399077, 0.7759904346501344,0.31275793946333386,-0.38983154296875,0.753692626953125,-0.3219146728515625
20220112-1805,2022-01-12 18:06:01Z,u01, 235,40,movements,el-ex, rt, d,101101.05146404167, -0.9407867426031764, -0.8131854281349142, 0.3551924639680663, 0.7159660458564758, -0.2146310955286026, 0.44583237171173096, -0.5552626252174377, 0.7264798283576965, -0.4048583209514618, 0.1448165774345398, 0.19380825757980347, 0.02428889274597168, -0.2734411405643088, -0.4720177741736011, 0.7741741802746998,0.32106598373715106,-0.422943115234375,0.9257049560546875,-0.386474609375
20220112-1805,2022-01-12 18:06:01Z,u01, 236,40,movements,el-ex, rt, d,101101.07641004167, -0.9177171945840451, -0.8053896477926593, 0.393826592271836, 1.271762728691101, -0.16968879103660583, 0.38323038816452026, -0.5502573847770691, 0.7211006283760071, -0.4209878444671631, 0.09211230278015137, 0.1175682544708252, 0.0056893229484558105, -0.26484688983031945, -0.4683611941930331, 0.7749413427738274,0.33160203334189764,-0.4728546142578125,0.785247802734375,-0.4188079833984375
20220112-1805,2022-01-12 18:06:01Z,u01, 237,40,movements,el-ex, rt, d,101101.10135604168, -0.8890455951334474, -0.7931052982126795, 0.43799489821808496, 1.1045656204223633, -0.08255075663328171, 0.36750808358192444, -0.5447999238967896, 0.7125355005264282, -0.4421384036540985, 0.04888927936553955, -0.03969913721084595, 0.05456507205963135, -0.2542018453998017, -0.4629386852484233, 0.7767818728718152,0.3430440494501869,-0.491485595703125,0.6643829345703125,-0.391448974609375
20220112-1805,2022-01-12 18:06:01Z,u01, 238,40,movements,el-ex, rt, d,101101.12630204167, -0.8670002101344239, -0.7868212257127123, 0.4729405081199926, 0.8871962428092957, -0.12844720482826233, 0.5195897221565247, -0.5383242964744568, 0.7081122994422913, -0.45692887902259827, 0.09972572326660156, -0.16117626428604126, 0.006901383399963379, -0.24731229356840811, -0.45866348604863527, 0.7771258105225268,0.35290228952256303,-0.4503173828125,0.57220458984375,-0.4528656005859375
20220112-1805,2022-01-12 18:06:01Z,u01, 239,40,movements,el-ex, rt, d,101101.15124804167, -0.8434187636879505, -0.7802923666489274, 0.510584218125543, 1.099980354309082, -0.10023181140422821, 0.49080172181129456, -0.5308424234390259, 0.7034872174263, -0.4725590646266937, 0.07089686393737793, 0.02949923276901245, -0.008275896310806274, -0.24015971461444446, -0.4539204522565847, 0.7771667153651187,0.36371897517207696,-0.4536590576171875,0.73150634765625,-0.48095703125
20220112-1805,2022-01-12 18:06:01Z,u01, 240,40,movements,el-ex, rt, d,101101.17619404168, -0.817247947754227, -0.7695465945901455, 0.5505503812578119, 1.1037418842315674, -0.024776604026556015, 0.4214709997177124, -0.5237777233123779, 0.6958096623420715, -0.4914325773715973, 0.0939834713935852, 0.05539584159851074, 0.0342792272567749, -0.23137097472111878, -0.44805266213988093, 0.7780092540486424,0.37472396882579223,-0.4237518310546875,0.740478515625,-0.4385223388671875
20220112-1805,2022-01-12 18:06:01Z,u01, 241,40,movements,el-ex, rt, d,101101.20114004167, -0.79190175921923, -0.7574985407416119, 0.587776297219815, 1.1263870000839233, 0.04097890853881836, 0.36297619342803955, -0.5170838236808777, 0.6871061325073242, -0.5104014277458191, 0.08761000633239746, 0.03759479522705078, 0.045939087867736816, -0.2227179329938699, -0.44180993515121236, 0.7791763454313498,0.38481825171994516,-0.439544677734375,0.71783447265625,-0.4539031982421875
20220112-1805,2022-01-12 18:06:01Z,u01, 242,40,movements,el-ex, rt, d,101101.22608604167, -0.7681707936240647, -0.7442244936335358, 0.6199088940105831, 0.9064344763755798, 0.08870920538902283, 0.23783884942531586, -0.5111196041107178, 0.6774015426635742, -0.5290406346321106, 0.03995877504348755, 0.04575830698013306, 0.07196354866027832, -0.21455975011095724, -0.4352514266475353, 0.7809774342650857,0.39318526495703343,-0.4705047607421875,0.710693359375,-0.49237060546875
20220112-1805,2022-01-12 18:06:01Z,u01, 243,40,movements,el-ex, rt, d,101101.25103204168, -0.7494644827008735, -0.7323658155583391, 0.6449727485654975, 0.7829813957214355, 0.05007033795118332, 0.20601606369018555, -0.5065715312957764, 0.6686307191848755, -0.5443512797355652, 0.07476305961608887, 0.03135097026824951, 0.011605918407440186, -0.20771902368939565, -0.4297407969956983, 0.7825804734426299,0.3996793077246309,-0.432464599609375,0.695404052734375,-0.526031494140625
20220112-1805,2022-01-12 18:06:01Z,u01, 244,40,movements,el-ex, rt, d,101101.27597804167, -0.7344265087747517, -0.7223150002841795, 0.6665186341337006, 0.694744884967804, 0.030798109248280525, 0.22785744071006775, -0.5028070211410522, 0.6611233353614807, -0.5568671822547913, 0.06065315008163452, 0.0013980269432067871, 0.049176692962646484, -0.20178774875160826, -0.42526240335179777, 0.7835833777937554,0.40550055654084494,-0.4519500732421875,0.645172119140625,-0.480255126953125
20220112-1805,2022-01-12 18:06:01Z,u01, 245,40,movements,el-ex, rt, d,101101.30092304168, -0.7217691544126348, -0.7128387839252305, 0.6847155834470044, 0.6373258829116821, 0.0559946745634079, 0.09320176392793655, -0.4998354911804199, 0.6539839506149292, -0.5678640007972717, 0.0397220253944397, -0.1093214750289917, 0.04044389724731445, -0.19641056677141044, -0.4212966763295033, 0.7845409743014328,0.41039926465505405,-0.4541168212890625,0.538238525390625,-0.5427398681640625
20220112-1805,2022-01-12 18:06:01Z,u01, 246,40,movements,el-ex, rt, d,101101.32586904167, -0.7013949969749586, -0.6954228399332939, 0.7113066904248107, 1.6565580368041992, 0.3426155149936676, 0.2175588607788086, -0.49543797969818115, 0.640710175037384, -0.5865421295166016, 0.07051128149032593, -0.13135647773742676, -0.03549766540527344, -0.18751353928191639, -0.41420719610325535, 0.7869140772486887,0.41717775768870075,-0.442291259765625,0.5391998291015625,-0.613189697265625
20220112-1805,2022-01-12 18:06:01Z,u01, 247,40,movements,el-ex, rt, d,101101.35081504167, -0.6685915444832071, -0.6677426127257277, 0.7486339251451136, 1.297729730606079, 0.5062165856361389, 0.04558990150690079, -0.4867441952228546, 0.6192150115966797, -0.6161597967147827, 0.07825121283531189, 0.04919630289077759, 0.2746680974960327, -0.17478464172042643, -0.40170939432749997, 0.7913683228074488,0.4263989896336274,-0.4238433837890625,0.7282562255859375,-0.2779693603515625
20220112-1805,2022-01-12 18:06:01Z,u01, 248,40,movements,el-ex, rt, d,101101.37576104168, -0.6473038513819794, -0.6490676129536815, 0.7661655353809252, 0.9011632800102234, 0.08628067374229431, 0.0012867525219917297, -0.48040875792503357, 0.6044439077377319, -0.6354959607124329, 0.08767807483673096, 0.5186030268669128, 0.4283578395843506, -0.16773015405833513, -0.3925794509484216, 0.795552375852905,0.42993544188558336,-0.300201416015625,0.7408447265625,-0.6002197265625
20220112-1805,2022-01-12 18:06:01Z,u01, 249,40,movements,el-ex, rt, d,101101.40070704167, -0.6401485383395938, -0.6418422233497674, 0.7789220514242833, -0.4956592917442322, -0.10029033571481705, 0.32274195551872253, -0.47844552993774414, 0.598672091960907, -0.6424030065536499, 0.029760897159576416, -0.3296595811843872, 0.012306571006774902, -0.16363248583345852, -0.3899011521852809, 0.7956125474511329,0.4338227099205685,-0.466400146484375,0.3190460205078125,-0.6029510498046875
20220112-1805,2022-01-12 18:06:01Z,u01, 250,40,movements,el-ex, rt, d,101101.42565304168, -0.6473860447081597, -0.6625967616870324, 0.7709234837624872, -0.7945703268051147, -0.04236205667257309, 0.17967292666435242, -0.4754852056503296, 0.615166187286377, -0.6288754940032959, -0.039361536502838135, -0.06240123510360718, 0.0312345027923584, -0.17266457091469634, -0.3946507329893405, 0.7918312673837904,0.4329445804207149,-0.52056884765625,0.6183929443359375,-0.6187286376953125
20220112-1805,2022-01-12 18:06:01Z,u01, 251,40,movements,el-ex, rt, d,101101.45059904167, -0.6496980911064619, -0.6746605338108419, 0.7657048528552041, -0.1599179357290268, 0.055709850043058395, 0.15981526672840118, -0.47241389751434326, 0.6246322393417358, -0.6218196749687195, -0.005216658115386963, -0.02271878719329834, -0.001639246940612793, -0.17844049408122975, -0.3965465273044793, 0.7900828453439214,0.43206368854901994,-0.4691009521484375,0.5978546142578125,-0.627197265625
