SessionID,LoggingTime,UID,RecNo,Hertz,Activity,MoveType,Wrist,Side,TimeStamp,DMRoll,DMPitch,DMYaw,DMRotX,DMRotY,DMRotZ,DMGrvX,DMGrvY,DMGrvZ,DMUAccelX,DMUAccelY,DMUAccelZ,DMQuatX,DMQuatY,DMQuatW,DMQuatZ,AccelroX,AceelroY,AceelroZ
20220117-1521,2022-01-17 15:21:12Z,u01, 1,40,movements,el-ex, rt, d,189346.10841175, 3.0166872897069323, -0.8363346197515266, 3.0860296946980106, 0.4047071039676666, -1.0974849462509155, 0.8493760824203491, 0.08349248766899109, 0.7421916127204895, 0.6649661064147949, 0.03580072522163391, 0.05428659915924072, 0.14265060424804688, -0.9124050998897821, 0.0, 0.40672263797136726,0.045754066672736377,0.1492156982421875,0.785064697265625,0.8066864013671875
20220117-1521,2022-01-17 15:21:12Z,u01, 2,40,movements,el-ex, rt, d,189346.13335675, 2.9651199419763747, -0.8365075992282156, 3.053766787688866, -0.1956094652414322, -1.1209205389022827, 0.8563008904457092, 0.11763434112071991, 0.7423075437545776, 0.6596524119377136, 0.11451288312673569, -0.019574999809265137, 0.062042176723480225, -0.910938285562873, 0.004201094979694564, 0.4077302810754654,0.06268729481501704,0.255462646484375,0.726043701171875,0.6412506103515625
20220117-1521,2022-01-17 15:21:12Z,u01, 3,40,movements,el-ex, rt, d,189346.15830175002, 2.916171568092548, -0.8240650784730905, 3.027004008258165, -0.2848140299320221, -1.5956449508666992, 1.0607768297195435, 0.15182232856750488, 0.7339130640029907, 0.6620585918426514, -0.04809308052062988, 0.06016969680786133, -0.13718706369400024, -0.911579895383343, 0.00716957265626772, 0.4031800613484464,0.0801032743443014,0.5582122802734375,0.72796630859375,0.4591064453125
20220117-1521,2022-01-17 15:21:12Z,u01, 4,40,movements,el-ex, rt, d,189346.18324575, 2.866962182077935, -0.820369028463025, 2.997329695560735, 0.49646908044815063, -1.0548274517059326, 0.8070951104164124, 0.18493911623954773, 0.7313975095748901, 0.6563950181007385, -0.140703946352005, 0.03878968954086304, 0.03633826971054077, -0.9099868049969706, 0.011023994016044092, 0.403044482904581,0.09673370452623511,0.1494140625,0.7758331298828125,0.752655029296875
20220117-1521,2022-01-17 15:21:12Z,u01, 5,40,movements,el-ex, rt, d,189346.20819075, 2.8161129986837543, -0.8296026526290854, 2.963758748819047, 0.5592897534370422, -1.0542107820510864, 0.7227095365524292, 0.21589407324790955, 0.7376631498336792, 0.6397203207015991, 0.08439883589744568, 0.10863494873046875, 0.12483608722686768, -0.9053344344751411, 0.01515705190160288, 0.40927965024414015,0.1123822976955375,0.3138427734375,0.823944091796875,0.7591400146484375
20220117-1521,2022-01-17 15:21:12Z,u01, 6,40,movements,el-ex, rt, d,189346.23313575002, 2.7694323537368195, -0.8266896934395759, 2.936101899839123, -0.2768968343734741, -1.0287754535675049, 0.7619941830635071, 0.24629096686840057, 0.7356932759284973, 0.6309481859207153, 0.07116807997226715, -0.04114377498626709, 0.060595035552978516, -0.902848889576169, 0.0183842682627669, 0.4100361660567616,0.1280471974607576,0.31048583984375,0.684417724609375,0.62103271484375
20220117-1521,2022-01-17 15:21:12Z,u01, 7,40,movements,el-ex, rt, d,189346.25808075, 2.730454532678584, -0.8101888992023774, 2.915891401132649, -0.2753883898258209, -0.8925855755805969, 0.7770751714706421, 0.27550527453422546, 0.7244173884391785, 0.6319145560264587, 0.009483128786087036, -0.006323516368865967, 0.07047772407531738, -0.9030504098146297, 0.021383130154123242, 0.40447987705831945,0.14296387580883413,0.277496337890625,0.7312774658203125,0.72607421875
20220117-1521,2022-01-17 15:21:12Z,u01, 8,40,movements,el-ex, rt, d,189346.28302575002, 2.6914786274207962, -0.8023648718152789, 2.8927882518948684, 0.23972183465957642, -0.9183255434036255, 0.6746888756752014, 0.30237582325935364, 0.7190017104148865, 0.625783383846283, 0.0182265043258667, 0.12172704935073853, 0.03521174192428589, -0.9012618222755471, 0.024875873527429593, 0.4032091023467298,0.1566223432113914,0.3462677001953125,0.8658599853515625,0.6075439453125
20220117-1521,2022-01-17 15:21:12Z,u01, 9,40,movements,el-ex, rt, d,189346.30796975002, 2.6470179797533375, -0.8050828829616599, 2.8651791270668325, 0.5124855637550354, -1.0044360160827637, 0.6028033494949341, 0.3289618492126465, 0.720888078212738, 0.6100033521652222, -0.04061654210090637, 0.06297117471694946, 0.0009429454803466797, -0.8967843017986887, 0.0279212568402174, 0.40724520481552934,0.1707323875538578,0.2776947021484375,0.7639007568359375,0.620208740234375
20220117-1521,2022-01-17 15:21:12Z,u01, 10,40,movements,el-ex, rt, d,189346.33291475, 2.604345481707253, -0.8039195205648343, 2.8401188496517245, 0.06706357002258301, -0.9482913017272949, 0.6648446321487427, 0.3551138937473297, 0.7200813293457031, 0.5961349606513977, -0.016826540231704712, -0.031406283378601074, 0.05210393667221069, -0.8928224495876763, 0.030586740305568794, 0.4095935331138446,0.18483946114571026,0.3739776611328125,0.6603240966796875,0.6751251220703125
20220117-1521,2022-01-17 15:21:12Z,u01, 11,40,movements,el-ex, rt, d,189346.35785975002, 2.56839818254758, -0.7932087042474713, 2.8221999823407375, -0.22667191922664642, -0.9121780395507812, 0.6198047399520874, 0.3804704248905182, 0.7126080393791199, 0.5894336700439453, 0.0435560941696167, 0.004387259483337402, 0.06304723024368286, -0.8908622852349648, 0.03288205468405414, 0.4072810880189123,0.1985076443481888,0.42987060546875,0.7353515625,0.6334686279296875
20220117-1521,2022-01-17 15:21:12Z,u01, 12,40,movements,el-ex, rt, d,189346.38280475, 2.5351407650256745, -0.7814180890291187, 2.808484037369417, -0.06167866289615631, -0.9705243706703186, 0.5582264065742493, 0.4046202301979065, 0.7042868733406067, 0.5833199620246887, 0.03188788890838623, 0.07298064231872559, -0.023185372352600098, -0.889097093947048, 0.03415157924266127, 0.4042125619133783,0.21201915368099267,0.4179534912109375,0.76397705078125,0.531951904296875
20220117-1521,2022-01-17 15:21:12Z,u01, 13,40,movements,el-ex, rt, d,189346.40774975, 2.498883483217092, -0.7738231366347779, 2.792513390662093, 0.06374427676200867, -1.0115681886672974, 0.5517140030860901, 0.4286928176879883, 0.698874831199646, 0.572534441947937, -0.004239201545715332, 0.03716325759887695, -0.010431647300720215, -0.886017544345192, 0.035215698556920916, 0.40336925965705583,0.22588884248879937,0.428466796875,0.7293548583984375,0.5872802734375
20220117-1521,2022-01-17 15:21:12Z,u01, 14,40,movements,el-ex, rt, d,189346.43269475002, 2.4637373872554886, -0.7656758250314252, 2.776944163660732, -0.0745190978050232, -0.927379846572876, 0.5563738942146301, 0.45210230350494385, 0.6930243968963623, 0.5615338683128357, 0.019485771656036377, -0.003922224044799805, 0.09712666273117065, -0.8828566962946178, 0.03648267568299024, 0.40238327230998383,0.23941725652509224,0.5091400146484375,0.6768798828125,0.6547393798828125
20220117-1521,2022-01-17 15:21:12Z,u01, 15,40,movements,el-ex, rt, d,189346.45763875, 2.434760621855725, -0.7535363571355772, 2.7673076801623613, -0.30809900164604187, -0.8732293248176575, 0.5020213723182678, 0.47361063957214355, 0.6842219829559326, 0.5545563697814941, 0.07045665383338928, 0.03399395942687988, 0.05030173063278198, -0.8808488469966962, 0.03719523547582393, 0.3990284573858472,0.2519880223089351,0.544403076171875,0.7317352294921875,0.5850982666015625
20220117-1521,2022-01-17 15:21:12Z,u01, 16,40,movements,el-ex, rt, d,189346.48258375, 2.4087851608903237, -0.7394468943242631, 2.761826546706991, -0.30546262860298157, -0.9237378239631653, 0.48165157437324524, 0.4942547678947449, 0.6738793849945068, 0.5491803884506226, 0.030556082725524902, 0.061960697174072266, -0.05987691879272461, -0.8793225788726076, 0.03717504577243841, 0.39435774698704923,0.26437068728422336,0.5155029296875,0.72589111328125,0.4485626220703125
20220117-1521,2022-01-17 15:21:12Z,u01, 17,40,movements,el-ex, rt, d,189346.50752875002, 2.3799159780961134, -0.7275895616091107, 2.7525124560701384, 0.131002277135849, -0.8359132409095764, 0.5781341195106506, 0.5153791308403015, 0.6650714874267578, 0.5404291749000549, -0.03626859188079834, 0.026838243007659912, 0.04183053970336914, -0.8767975747040547, 0.03795525946653444, 0.39125098247330764,0.276961914271464,0.4766387939453125,0.6821136474609375,0.63299560546875
20220117-1521,2022-01-17 15:21:12Z,u01, 18,40,movements,el-ex, rt, d,189346.53247375, 2.3461991429968254, -0.7245396923360896, 2.733193688408195, 0.39109042286872864, -0.8243119716644287, 0.4417560398578644, 0.5347505211830139, 0.662790834903717, 0.5241659283638, 0.018716156482696533, 0.05736297369003296, 0.14178842306137085, -0.8720374803318159, 0.04041762960544493, 0.39339011150956926,0.288376768782981,0.6080169677734375,0.732452392578125,0.6084136962890625
20220117-1521,2022-01-17 15:21:12Z,u01, 19,40,movements,el-ex, rt, d,189346.55741875002, 2.314494367742819, -0.7209211045405606, 2.716590236271588, 0.03018311969935894, -0.8220581412315369, 0.4533386528491974, 0.5528591871261597, 0.6600768566131592, 0.5085716843605042, 0.05158722400665283, -0.01759016513824463, 0.008121192455291748, -0.8674722026858356, 0.04216432662291414, 0.39501555080061057,0.29946091988991974,0.5900115966796875,0.6306915283203125,0.496673583984375
20220117-1521,2022-01-17 15:21:12Z,u01, 20,40,movements,el-ex, rt, d,189346.58236275002, 2.2909467394589584, -0.7093651882133652, 2.7112729610937687, -0.33497709035873413, -0.7739328145980835, 0.4637645483016968, 0.5703762769699097, 0.6513522267341614, 0.5004105567932129, 0.009762704372406006, -0.021606743335723877, -0.05996590852737427, -0.8651063561142902, 0.04238234126798662, 0.3916680232123557,0.31046857360398245,0.583099365234375,0.64971923828125,0.47174072265625
20220117-1521,2022-01-17 15:21:12Z,u01, 21,40,movements,el-ex, rt, d,189346.60730775, 2.2691861550986343, -0.6976963481681269, 2.7062816252849187, 0.0312191229313612, -0.7139850854873657, 0.4418157637119293, 0.5869109630584717, 0.6424540281295776, 0.49273502826690674, -0.003888070583343506, 0.04789936542510986, 0.08216997981071472, -0.8628587549034867, 0.04292174819136507, 0.38823926615321874,0.3207843510061494,0.5948486328125,0.696380615234375,0.56817626953125
20220117-1521,2022-01-17 15:21:12Z,u01, 22,40,movements,el-ex, rt, d,189346.63225275002, 2.240758497646669, -0.6931458823815354, 2.691800451802071, 0.3734273612499237, -0.7967483997344971, 0.4116339683532715, 0.6029648184776306, 0.6389603018760681, 0.4776642918586731, 0.03024435043334961, 0.06971901655197144, 0.013882219791412354, -0.8583916539444396, 0.044675622318386676, 0.38940915377000973,0.33095070525244485,0.620147705078125,0.68585205078125,0.469635009765625
20220117-1521,2022-01-17 15:21:12Z,u01, 23,40,movements,el-ex, rt, d,189346.65719775, 2.210181985144271, -0.6894217222793695, 2.6761266939579467, 0.10651903599500656, -0.8338288068771362, 0.43496498465538025, 0.6191909909248352, 0.6360910534858704, 0.4604238271713257, -0.012791633605957031, -0.03404033184051514, -0.0219171941280365, -0.8532692380725084, 0.04629812819562312, 0.3912729497609478,0.3416041128010536,0.6163482666015625,0.593475341796875,0.428436279296875
20220117-1521,2022-01-17 15:21:12Z,u01, 24,40,movements,el-ex, rt, d,189346.68214275, 2.1841909329499436, -0.678544369937947, 2.6693891017213485, -0.21218718588352203, -0.8831866979598999, 0.5089513063430786, 0.6365677118301392, 0.6276605129241943, 0.44813328981399536, 0.023130714893341064, -0.06110161542892456, -0.04850602149963379, -0.8496362967266992, 0.046741958409057704, 0.3888023052432535,0.3532222724899458,0.664764404296875,0.568084716796875,0.4214630126953125
20220117-1521,2022-01-17 15:21:12Z,u01, 25,40,movements,el-ex, rt, d,189346.70708675002, 2.159024161770356, -0.6654831362387652, 2.6643625330920724, -0.10201223939657211, -0.915795087814331, 0.4885663390159607, 0.6544078588485718, 0.6174392700195312, 0.43648484349250793, 0.05704838037490845, -0.0225600004196167, 0.0459519624710083, -0.8461739454304227, 0.047244787449594594, 0.3852309140968562,0.3651776007152404,0.7227630615234375,0.603912353515625,0.4721221923828125
20220117-1521,2022-01-17 15:21:12Z,u01, 26,40,movements,el-ex, rt, d,189346.73203175, 2.1307430184913603, -0.6550003957130626, 2.6575586235941686, -0.026270834729075432, -1.0177046060562134, 0.45716428756713867, 0.6719358563423157, 0.609159529209137, 0.42121997475624084, 0.07705694437026978, 0.015169084072113037, -0.008241236209869385, -0.8416465241850865, 0.047340405125237406, 0.3831262931328472,0.37762951790311783,0.746551513671875,0.609283447265625,0.3845062255859375
20220117-1521,2022-01-17 15:21:13Z,u01, 27,40,movements,el-ex, rt, d,189346.75697675, 2.10155965626646, -0.6428844291339457, 2.65338226340455, -0.2928808629512787, -1.088024377822876, 0.5185257792472839, 0.6902557015419006, 0.5995065569877625, 0.40514063835144043, 0.03331601619720459, -0.0518379807472229, -0.05267810821533203, -0.836894704545105, 0.04666447386167599, 0.3799863543486613,0.39120331025431926,0.7203826904296875,0.538543701171875,0.3485565185546875
20220117-1521,2022-01-17 15:21:13Z,u01, 28,40,movements,el-ex, rt, d,189346.78192175002, 2.076107812674754, -0.6255204596739573, 2.6554914126876388, -0.45901063084602356, -1.01155686378479, 0.6220986843109131, 0.7093454003334045, 0.5855192542076111, 0.3924235701560974, 0.024312376976013184, -0.04950845241546631, -0.04511857032775879, -0.8331474295861818, 0.04557566455214612, 0.37355929210473504,0.4052673846457286,0.73394775390625,0.5418243408203125,0.3913116455078125
20220117-1521,2022-01-17 15:21:13Z,u01, 29,40,movements,el-ex, rt, d,189346.80686675, 2.0513956119796215, -0.6080444793887219, 2.6554878986823374, -0.21321912109851837, -0.9919874668121338, 0.5681001543998718, 0.7277884483337402, 0.5712635517120361, 0.37944909930229187, 0.035288214683532715, 5.608797073364258e-05, 0.04173898696899414, -0.8292385773796798, 0.04569381266734146, 0.36751569007898327,0.41857799326814205,0.7734222412109375,0.5887603759765625,0.39996337890625
20220117-1521,2022-01-17 15:21:13Z,u01, 30,40,movements,el-ex, rt, d,189346.83181175002, 2.0241070270336308, -0.5947570337893767, 2.650294104958431, 0.02949972078204155, -0.9719752669334412, 0.5324302315711975, 0.7446296215057373, 0.560307502746582, 0.36274248361587524, 0.05338972806930542, 0.08133995532989502, -0.009044021368026733, -0.8241423658677668, 0.046482235952631235, 0.3642546027987684,0.4312160719254653,0.8013153076171875,0.6401519775390625,0.3466949462890625
20220117-1521,2022-01-17 15:21:13Z,u01, 31,40,movements,el-ex, rt, d,189346.85675575002, 1.9951067144909191, -0.5827513558852179, 2.642404032360859, -0.01958576776087284, -0.9956163763999939, 0.5627021789550781, 0.7609103918075562, 0.5503232479095459, 0.3437432050704956, 0.02812141180038452, 0.0216829776763916, -0.048409610986709595, -0.8182826837183917, 0.0478022472580405, 0.3621921379055537,0.44378502709622125,0.789154052734375,0.5597076416015625,0.2863922119140625
20220117-1521,2022-01-17 15:21:13Z,u01, 32,40,movements,el-ex, rt, d,189346.88170075, 1.967853642836698, -0.5679888727544282, 2.6371610328366732, -0.06391671299934387, -0.9155688881874084, 0.6551043391227722, 0.7774026393890381, 0.5379377603530884, 0.325987309217453, 0.027040600776672363, -0.01669752597808838, -0.016768217086791992, -0.8127550986988835, 0.04922206371698434, 0.3585833992380935,0.4565349368297588,0.800384521484375,0.5062408447265625,0.3680419921875
20220117-1521,2022-01-17 15:21:13Z,u01, 33,40,movements,el-ex, rt, d,189346.90664575002, 1.9410269278450119, -0.5537742588734009, 2.6295052875491116, 0.052270613610744476, -0.909783661365509, 0.5771117806434631, 0.7929157018661499, 0.5259011387825012, 0.30775317549705505, 0.041617751121520996, 0.034920334815979004, 0.05366617441177368, -0.8069758849020688, 0.05163824064912331, 0.35582732715389337,0.46851903846915555,0.838897705078125,0.568389892578125,0.344757080078125
20220117-1521,2022-01-17 15:21:13Z,u01, 34,40,movements,el-ex, rt, d,189346.93159075, 1.9145139629806673, -0.541255712547028, 2.622294859579265, 0.04383920878171921, -0.9161126017570496, 0.5475054979324341, 0.8069314360618591, 0.5152125954627991, 0.28882110118865967, 0.033583641052246094, 0.0619664192199707, 0.02358710765838623, -0.8009663171209165, 0.05351182150281647, 0.3536940244794169,0.48009371884879737,0.836212158203125,0.5566253662109375,0.3060455322265625
20220117-1521,2022-01-17 15:21:13Z,u01, 35,40,movements,el-ex, rt, d,189346.95653575, 1.8894307724317851, -0.5281328064999069, 2.6177924350914155, -0.09392904490232468, -0.8986108303070068, 0.5441211462020874, 0.820271909236908, 0.5039214491844177, 0.27058684825897217, 0.005716800689697266, 0.011017024517059326, 0.02209174633026123, -0.7951664316626146, 0.05480663368876165, 0.35074953922435936,0.4916109808168455,0.8309326171875,0.5156097412109375,0.2933807373046875
20220117-1521,2022-01-17 15:21:13Z,u01, 36,40,movements,el-ex, rt, d,189346.98147975001, 1.8670047883146605, -0.5142597430725263, 2.6167789623134974, -0.13464903831481934, -0.8604840040206909, 0.5221189260482788, 0.8327399492263794, 0.49189046025276184, 0.2541411817073822, 0.011772871017456055, 0.03441578149795532, 0.06104409694671631, -0.7899309803265806, 0.0554945406840463, 0.34666913604963084,0.5027423090710256,0.8426666259765625,0.5352630615234375,0.310546875
20220117-1521,2022-01-17 15:21:13Z,u01, 37,40,movements,el-ex, rt, d,189347.00642475, 1.8451460481825412, -0.5014806308913555, 2.6146823902100214, 0.0023077791556715965, -0.8113840222358704, 0.4877317249774933, 0.8440780639648438, 0.48072439432144165, 0.23756298422813416, -0.004936337471008301, 0.07637405395507812, 0.059983134269714355, -0.7845976075809015, 0.05646315865569579, 0.34328314890048783,0.5132008872185605,0.8391876220703125,0.5607452392578125,0.2971038818359375
20220117-1521,2022-01-17 15:21:13Z,u01, 38,40,movements,el-ex, rt, d,189347.03136975, 1.8227766851560112, -0.4910606457432007, 2.6093022710194016, 0.13765814900398254, -0.7763227224349976, 0.4361177980899811, 0.8539854884147644, 0.471561461687088, 0.21986067295074463, 0.0017579197883605957, 0.09814083576202393, 0.04907527565956116, -0.7788262000496105, 0.057966246070886296, 0.34165111415911703,0.5228233343416036,0.8648529052734375,0.5599822998046875,0.2557830810546875
20220117-1521,2022-01-17 15:21:13Z,u01, 39,40,movements,el-ex, rt, d,189347.05631504167, 1.8005219930973877, -0.48134696987546605, 2.6020526953061616, 0.16423946619033813, -0.7297889590263367, 0.42711636424064636, 0.8630861043930054, 0.4629735052585602, 0.20183615386486053, -0.0008273124694824219, 0.050774723291397095, 0.050437211990356445, -0.772861225875369, 0.06002999674182902, 0.3408329274546258,0.5318973847829215,0.8571319580078125,0.505462646484375,0.2557830810546875
20220117-1521,2022-01-17 15:21:13Z,u01, 40,40,movements,el-ex, rt, d,189347.08126004168, 1.780451731859575, -0.4723349884914454, 2.5952146349247767, 0.1548687219619751, -0.6286228895187378, 0.3756268322467804, 0.8710085153579712, 0.45496684312820435, 0.18533512949943542, -0.018027067184448242, 0.03392484784126282, 0.09773039817810059, -0.7673397835309983, 0.06210653517521658, 0.34016496807692986,0.5400186564532493,0.8607177734375,0.491485595703125,0.2870330810546875
20220117-1521,2022-01-17 15:21:13Z,u01, 41,40,movements,el-ex, rt, d,189347.10620504167, 1.7631867362465699, -0.4648480047542855, 2.589714604017527, 0.10287033766508102, -0.559028685092926, 0.29625415802001953, 0.877397358417511, 0.4482869505882263, 0.1709168255329132, -0.003694474697113037, 0.060105472803115845, 0.09128998219966888, -0.7624984220049188, 0.06367552580685104, 0.33963712057154255,0.5469809354513744,0.8744659423828125,0.50823974609375,0.2566375732421875
20220117-1521,2022-01-17 15:21:13Z,u01, 42,40,movements,el-ex, rt, d,189347.13114904167, 1.7487678656153085, -0.4585329721954532, 2.5868490075778663, -0.00916578434407711, -0.49316632747650146, 0.23985400795936584, 0.8825392723083496, 0.44263309240341187, 0.15874646604061127, -0.01539754867553711, 0.057092368602752686, 0.08753015100955963, -0.7584398426138389, 0.06436020946014737, 0.3387375939432399,0.5530674906876551,0.869354248046875,0.4893951416015625,0.240936279296875
20220117-1521,2022-01-17 15:21:13Z,u01, 43,40,movements,el-ex, rt, d,189347.15609404168, 1.7377458185010903, -0.45237806966545635, 2.5869974044683275, -0.05306113511323929, -0.3943679928779602, 0.24990199506282806, 0.8869050145149231, 0.43710562586784363, 0.14945951104164124, -0.0019106268882751465, 0.0016304254531860352, 0.08590710163116455, -0.755365340565427, 0.06444344739670982, 0.33696676883838256,0.5583221490431849,0.8852081298828125,0.4332275390625,0.2386322021484375
20220117-1521,2022-01-17 15:21:13Z,u01, 44,40,movements,el-ex, rt, d,189347.18103904166, 1.7294203252193356, -0.44687788995760647, 2.588168402035172, -0.09919410943984985, -0.30707719922065735, 0.17468665540218353, 0.8904790878295898, 0.43215212225914, 0.14244811236858368, -0.013281941413879395, 0.03205081820487976, 0.1062394380569458, -0.753044941829345, 0.06440006307245749, 0.33504968845990446,0.5625990025848316,0.8779144287109375,0.4854278564453125,0.242950439453125
20220117-1521,2022-01-17 15:21:13Z,u01, 45,40,movements,el-ex, rt, d,189347.20598404168, 1.723379099196647, -0.44302945889847567, 2.589160203317884, -0.026492642238736153, -0.214503675699234, 0.12292512506246567, 0.8929605484008789, 0.428678423166275, 0.1373177170753479, -0.014618992805480957, 0.08281156420707703, 0.09826254844665527, -0.7513501837397173, 0.06427874953824042, 0.3336675323897574,0.5656916925419481,0.8831329345703125,0.5047607421875,0.234832763671875
20220117-1521,2022-01-17 15:21:13Z,u01, 46,40,movements,el-ex, rt, d,189347.2309290417, 1.7188844805214727, -0.4402102081523209, 2.5887359875659763, -0.0007729986682534218, -0.1365230679512024, 0.10692891478538513, 0.8947604298591614, 0.42612963914871216, 0.13348059356212616, -0.010528981685638428, 0.04117083549499512, 0.09830021858215332, -0.7500434225079994, 0.06461549035541475, 0.3329841900563594,0.567786152119345,0.8804779052734375,0.44891357421875,0.2249755859375
20220117-1521,2022-01-17 15:21:13Z,u01, 47,40,movements,el-ex, rt, d,189347.25587304166, 1.7167130518394271, -0.4382253210080978, 2.58922852203213, -0.056857407093048096, -0.05118146538734436, 0.050431884825229645, 0.895883321762085, 0.4243331551551819, 0.1316601037979126, -0.014291644096374512, 0.024107515811920166, 0.0990372896194458, -0.7494270925309752, 0.06472316613766466, 0.3322474310571045,0.5690180619799218,0.883880615234375,0.453887939453125,0.230377197265625
20220117-1521,2022-01-17 15:21:13Z,u01, 48,40,movements,el-ex, rt, d,189347.28081804168, 1.7174275724516255, -0.4375763863457626, 2.591394073630586, -0.09621763229370117, 0.04507629573345184, -0.010636062361299992, 0.8960612416267395, 0.42374545335769653, 0.1323404163122177, -0.014179646968841553, 0.05264928936958313, 0.10807681083679199, -0.7496952308081616, 0.06424380404130497, 0.33139003160307035,0.5692191316092656,0.8751373291015625,0.46917724609375,0.2426300048828125
20220117-1521,2022-01-17 15:21:13Z,u01, 49,40,movements,el-ex, rt, d,189347.3057630417, 1.7231348789408645, -0.43827274405899225, 2.5951934596244186, -0.1013818308711052, 0.1518833041191101, -0.05818773806095123, 0.8949993252754211, 0.42437610030174255, 0.13740748167037964, -0.02321910858154297, 0.03868246078491211, 0.09921024739742279, -0.7514434633561929, 0.06353318421604986, 0.33036251407660816,0.5675885097717611,0.8719329833984375,0.468170166015625,0.2364959716796875
20220117-1521,2022-01-17 15:21:13Z,u01, 50,40,movements,el-ex, rt, d,189347.33070804167, 1.7311036264392166, -0.440011717968055, 2.5991331088174814, -0.10816460102796555, 0.23323681950569153, -0.10932302474975586, 0.8931459784507751, 0.4259500801563263, 0.14441704750061035, -0.0069615840911865234, 0.050795555114746094, 0.08921000361442566, -0.753833694262481, 0.06279555353678024, 0.3295836174803586,0.5649476832608917,0.8897857666015625,0.472412109375,0.2229461669921875
20220117-1521,2022-01-17 15:21:13Z,u01, 51,40,movements,el-ex, rt, d,189347.35565304168, 1.7423697850186761, -0.442824433313852, 2.6042115992925976, -0.16354750096797943, 0.33487701416015625, -0.15389995276927948, 0.8902784585952759, 0.4284931719303131, 0.15426485240459442, -0.010609447956085205, 0.023777365684509277, 0.08529792726039886, -0.7571733113240943, 0.061814283110684154, 0.3287594856479292,0.5610567639534263,0.8791961669921875,0.4490509033203125,0.245574951171875
20220117-1521,2022-01-17 15:21:13Z,u01, 52,40,movements,el-ex, rt, d,189347.3805970417, 1.7570646570144082, -0.4462986941304142, 2.6122449080859704, -0.293501615524292, 0.42609772086143494, -0.20035932958126068, 0.8864474296569824, 0.4316297173500061, 0.16705358028411865, -0.003009319305419922, 0.011729806661605835, 0.07577456533908844, -0.7615253906304367, 0.060048914054770475, 0.32725764180995176,0.5562155115176521,0.8935089111328125,0.4354400634765625,0.2316131591796875
20220117-1521,2022-01-17 15:21:13Z,u01, 53,40,movements,el-ex, rt, d,189347.40554204167, 1.773908976230282, -0.44987783502634504, 2.6227761436086996, -0.38530951738357544, 0.5077959299087524, -0.2085404247045517, 0.8819888830184937, 0.43485552072525024, 0.18164794147014618, 0.011992931365966797, 0.010350257158279419, 0.05313873291015625, -0.766487800124005, 0.057623130145689816, 0.32508364209461715,0.5509051958917285,0.8923797607421875,0.4448394775390625,0.2395782470703125
20220117-1521,2022-01-17 15:21:13Z,u01, 54,40,movements,el-ex, rt, d,189347.43048704168, 1.7930095216946018, -0.45317017768284845, 2.634972072414958, -0.4323779344558716, 0.5906085968017578, -0.2394242286682129, 0.8769574761390686, 0.43781793117523193, 0.19814366102218628, 0.005687117576599121, 0.01097366213798523, 0.0731421709060669, -0.7720423845870886, 0.05497624914125265, 0.32235351647655175,0.544992020051251,0.8830718994140625,0.4633636474609375,0.2942962646484375
20220117-1521,2022-01-17 15:21:13Z,u01, 55,40,movements,el-ex, rt, d,189347.45543204166, 1.8151032014839714, -0.4561945797198276, 2.6483828015718953, -0.37010177969932556, 0.7181282043457031, -0.22203752398490906, 0.871077299118042, 0.4405350387096405, 0.21714767813682556, -0.007857203483581543, 0.01802217960357666, 0.10212695598602295, -0.7783515752278953, 0.05237047552647356, 0.3191969923724455,0.5380886718945754,0.8572540283203125,0.4672698974609375,0.321044921875
20220117-1521,2022-01-17 15:21:13Z,u01, 56,40,movements,el-ex, rt, d,189347.48037704168, 1.8384794540674227, -0.46073364005429535, 2.657569962251065, -0.1740523874759674, 0.8291093111038208, -0.2891491949558258, 0.8638261556625366, 0.44460538029670715, 0.2369176298379898, -0.023372292518615723, 0.10774758458137512, 0.0986534059047699, -0.7847600114451727, 0.05109344034132618, 0.31776114687057405,0.5296875167484607,0.837677001953125,0.575042724609375,0.34368896484375
20220117-1521,2022-01-17 15:21:13Z,u01, 57,40,movements,el-ex, rt, d,189347.5053220417, 1.8617552663409616, -0.4682997914845275, 2.661085916512072, 0.08348488807678223, 0.9122635722160339, -0.35800015926361084, 0.8548312187194824, 0.4513697922229767, 0.2559855580329895, -0.023776710033416748, 0.1316685974597931, 0.09698054194450378, -0.7908109496967255, 0.051096172343827295, 0.3189740253072737,0.5198679450348999,0.8301849365234375,0.5801849365234375,0.3570404052734375
20220117-1521,2022-01-17 15:21:13Z,u01, 58,40,movements,el-ex, rt, d,189347.53026604166, 1.885152035700777, -0.4788599219432407, 2.660046492211888, 0.20697367191314697, 1.009918451309204, -0.4325638711452484, 0.8440284132957458, 0.46076762676239014, 0.27442479133605957, -0.0159493088722229, 0.11316129565238953, 0.09680604934692383, -0.7965557940716733, 0.052069714502650966, 0.3224791712941243,0.5087186767019174,0.8300323486328125,0.5724639892578125,0.377838134765625
20220117-1521,2022-01-17 15:21:13Z,u01, 59,40,movements,el-ex, rt, d,189347.55521104168, 1.9112398510950466, -0.49123029397567597, 2.6599112209249776, 0.0744422897696495, 1.0940829515457153, -0.5032920241355896, 0.831146240234375, 0.47171106934547424, 0.294421911239624, 0.016265690326690674, 0.06468120217323303, 0.09559246897697449, -0.8027681268629776, 0.052671516176064526, 0.3263637113708856,0.49626167783992103,0.847564697265625,0.5327911376953125,0.39141845703125
20220117-1521,2022-01-17 15:21:13Z,u01, 60,40,movements,el-ex, rt, d,189347.5801560417, 1.9425205005594657, -0.5034666142124496, 2.665998178515905, -0.11015717685222626, 1.1934893131256104, -0.5619562864303589, 0.8160924911499023, 0.48246487975120544, 0.3181520700454712, 0.031243324279785156, 0.057360708713531494, 0.0637294352054596, -0.8101834089900951, 0.05175781582514538, 0.32858440950499207,0.4826554338042146,0.8414154052734375,0.547943115234375,0.4087982177734375
20220117-1521,2022-01-17 15:21:13Z,u01, 61,40,movements,el-ex, rt, d,189347.60510104167, 1.9777535626358262, -0.5166416259180745, 2.6752495171855464, -0.08731125295162201, 1.2728617191314697, -0.6655463576316833, 0.7984716296195984, 0.4939628839492798, 0.3441559970378876, 0.036885857582092285, 0.08684772253036499, 0.08704182505607605, -0.8182761449034812, 0.050021434174987556, 0.3304220214516811,0.4676998647898284,0.835418701171875,0.5922088623046875,0.4300079345703125
20220117-1521,2022-01-17 15:21:13Z,u01, 62,40,movements,el-ex, rt, d,189347.63004604168, 2.0149879620118702, -0.5320871870313026, 2.684800701665781, 0.008062371984124184, 1.3347930908203125, -0.7148822546005249, 0.7781242728233337, 0.5073330998420715, 0.37031814455986023, 0.05853027105331421, 0.11830782890319824, 0.054135292768478394, -0.8263532413182244, 0.0479520357305252, 0.3331700563046701,0.451484829889081,0.831817626953125,0.60943603515625,0.4338531494140625
20220117-1521,2022-01-17 15:21:13Z,u01, 63,40,movements,el-ex, rt, d,189347.6549900417, 2.0534840263423497, -0.5487719461947589, 2.6938515947083648, 0.01205095462501049, 1.3938355445861816, -0.7607608437538147, 0.7556921243667603, 0.521639883518219, 0.39600670337677, 0.06875556707382202, 0.07064539194107056, 0.031040847301483154, -0.8341933085142954, 0.04609630407225129, 0.33666251086381904,0.4343443505114298,0.822113037109375,0.5972137451171875,0.435638427734375
20220117-1521,2022-01-17 15:21:13Z,u01, 64,40,movements,el-ex, rt, d,189347.67993504167, 2.0945668923041643, -0.5663443331925048, 2.7040800610743942, 0.04740065708756447, 1.4669318199157715, -0.8194068670272827, 0.730738639831543, 0.536550760269165, 0.4220595359802246, 0.07887732982635498, 0.06334865093231201, 0.03501725196838379, -0.8420711305015147, 0.04411332249333555, 0.3403860257862191,0.4160619588151083,0.8054046630859375,0.593353271484375,0.4761505126953125
20220117-1521,2022-01-17 15:21:13Z,u01, 65,40,movements,el-ex, rt, d,189347.70488004168, 2.138942044585969, -0.584472229970316, 2.716738573436167, -0.022243203595280647, 1.5399079322814941, -0.8627201914787292, 0.7029814124107361, 0.5517593026161194, 0.4487520754337311, 0.09541934728622437, 0.045774877071380615, 0.07363221049308777, -0.8500802921586486, 0.04170776967852807, 0.34399225159009045,0.396602006362658,0.79638671875,0.5979156494140625,0.5258636474609375
20220117-1521,2022-01-17 15:21:13Z,u01, 66,40,movements,el-ex, rt, d,189347.72982504166, 2.186880355678299, -0.6015241857990274, 2.732898281267634, -0.08599728345870972, 1.5747324228286743, -0.8715535998344421, 0.6728922128677368, 0.5658997893333435, 0.4764168858528137, 0.11230963468551636, 0.034014761447906494, 0.050041526556015015, -0.858310511821977, 0.038878062530649626, 0.3467032145612683,0.37628219253983874,0.7745361328125,0.6019134521484375,0.52288818359375
20220117-1521,2022-01-17 15:21:14Z,u01, 67,40,movements,el-ex, rt, d,189347.75477004168, 2.2369703794129108, -0.6184034644867794, 2.750773036391781, -0.035396091639995575, 1.6230665445327759, -0.9100733995437622, 0.6405930519104004, 0.5797350406646729, 0.5035353302955627, 0.09758126735687256, 0.0539473295211792, 0.02945423126220703, -0.866301848924304, 0.035899629534805355, 0.3493250655548489,0.35525249062191716,0.73394775390625,0.6342620849609375,0.5376434326171875
20220117-1521,2022-01-17 15:21:14Z,u01, 68,40,movements,el-ex, rt, d,189347.7797150417, 2.288465267612157, -0.6359902085066071, 2.7687522971418077, 0.04362725466489792, 1.6650676727294922, -0.9280832409858704, 0.6060505509376526, 0.5939744114875793, 0.5290530920028687, 0.10610765218734741, 0.041340649127960205, 0.012313306331634521, -0.8737433216596922, 0.033153373227347294, 0.35255401118246554,0.3334353518069012,0.70172119140625,0.6356658935546875,0.56903076171875
20220117-1521,2022-01-17 15:21:14Z,u01, 69,40,movements,el-ex, rt, d,189347.8046590417, 2.3411282165094502, -0.6545292883155692, 2.7868712604646553, 0.08870121836662292, 1.6722588539123535, -0.9513899683952332, 0.5693597793579102, 0.60878586769104, 0.5524569153785706, 0.12143594026565552, 0.025079429149627686, 0.046175599098205566, -0.8805073941760921, 0.030580782601967393, 0.3565006744156214,0.3109318852198746,0.6895751953125,0.63372802734375,0.5964813232421875
20220117-1521,2022-01-17 15:21:14Z,u01, 70,40,movements,el-ex, rt, d,189347.82960404168, 2.3954757690129624, -0.672082493093537, 2.8068165790225716, 0.004397528246045113, 1.6941241025924683, -0.9378198385238647, 0.531173050403595, 0.6226169466972351, 0.5746328830718994, 0.13148552179336548, 0.0014827847480773926, 0.03292602300643921, -0.8868676983251216, 0.027966379035818945, 0.3601054276136705,0.2881102508772685,0.6457061767578125,0.621978759765625,0.5931396484375
20220117-1521,2022-01-17 15:21:14Z,u01, 71,40,movements,el-ex, rt, d,189347.8545490417, 2.452055099324646, -0.6870695427476056, 2.8295255706167155, 0.013567191548645496, 1.7105131149291992, -0.9185129404067993, 0.4918361008167267, 0.6342743635177612, 0.5964838266372681, 0.10592693090438843, 0.019168078899383545, 0.003964424133300781, -0.8930868042110902, 0.025256307371002096, 0.36259935706789126,0.26510314839394467,0.5897674560546875,0.660888671875,0.6113739013671875
20220117-1521,2022-01-17 15:21:14Z,u01, 72,40,movements,el-ex, rt, d,189347.87949404167, 2.5090533908461676, -0.7033937368702233, 2.851706725304635, 0.16600769758224487, 1.7081794738769531, -0.9618189930915833, 0.4508751928806305, 0.6468096375465393, 0.615100085735321, 0.11632433533668518, 0.03260314464569092, 0.03518331050872803, -0.8983473726965738, 0.022848404659109867, 0.36614543190989624,0.2416345519497921,0.565277099609375,0.6803436279296875,0.6505889892578125
20220117-1521,2022-01-17 15:21:14Z,u01, 73,40,movements,el-ex, rt, d,189347.90443904168, 2.5665419471283943, -0.7209981669424991, 2.8743861163042914, 0.18217052519321442, 1.7175731658935547, -0.9765586256980896, 0.40853169560432434, 0.6601347923278809, 0.6303358674049377, 0.1278451383113861, 0.034902989864349365, 0.046680986881256104, -0.9026362790234767, 0.020387994819362987, 0.3705928058686459,0.21792853428885234,0.5306854248046875,0.6929779052734375,0.6796112060546875
20220117-1521,2022-01-17 15:21:14Z,u01, 74,40,movements,el-ex, rt, d,189347.9293830417, 2.626281859852486, -0.736453633274391, 2.900157631427962, 0.07415983080863953, 1.7135019302368164, -0.9839385747909546, 0.365097314119339, 0.6716647744178772, 0.6446473598480225, 0.13963288068771362, -0.006335735321044922, -0.003580033779144287, -0.9066500752839977, 0.01758760636110024, 0.37417512062672825,0.19408570437884975,0.4808807373046875,0.661956787109375,0.6401214599609375
20220117-1521,2022-01-17 15:21:14Z,u01, 75,40,movements,el-ex, rt, d,189347.95432804167, 2.688295433988292, -0.7497651080872411, 2.928377275542593, 0.1385257989168167, 1.739272952079773, -0.9774230718612671, 0.3205000162124634, 0.6814668774604797, 0.65793776512146, 0.11590126156806946, 0.007787883281707764, 0.002889573574066162, -0.9103591092784707, 0.014669136177401343, 0.37702321577499576,0.16995425966598224,0.428619384765625,0.6988372802734375,0.6747283935546875
20220117-1521,2022-01-17 15:21:14Z,u01, 76,40,movements,el-ex, rt, d,189347.97927304168, 2.7512424407883405, -0.7646441375213225, 2.956599045411288, 0.242549329996109, 1.7305114269256592, -1.022515058517456, 0.2745886743068695, 0.6922802329063416, 0.6673449277877808, 0.13370606303215027, 0.03652554750442505, 0.03333848714828491, -0.9129774773551573, 0.012024828017150713, 0.38104781707773233,0.1453620694369414,0.3992767333984375,0.7312164306640625,0.7128143310546875
20220117-1521,2022-01-17 15:21:14Z,u01, 77,40,movements,el-ex, rt, d,189348.00421804166, 2.8158772792122133, -0.7774764914229422, 2.988163272316301, 0.06251582503318787, 1.6866090297698975, -1.0128086805343628, 0.2280498743057251, 0.7014831900596619, 0.6752140522003174, 0.14690430462360382, -0.01625680923461914, 0.031496405601501465, -0.9151672958844959, 0.00870953580351308, 0.38440500802941235,0.12093629748627824,0.3692779541015625,0.6800537109375,0.700714111328125
20220117-1521,2022-01-17 15:21:14Z,u01, 78,40,movements,el-ex, rt, d,189348.02916304168, 2.8822568347443687, -0.7827325120101287, 3.022472160440544, -0.18451246619224548, 1.7188358306884766, -0.9794908165931702, 0.1818121075630188, 0.7052193880081177, 0.6852805018424988, 0.1425744593143463, -0.030079007148742676, 0.026343226432800293, -0.9179389366719342, 0.0053262306226324885, 0.3846936369986323,0.09680065043828487,0.3004150390625,0.6679229736328125,0.71759033203125
20220117-1521,2022-01-17 15:21:14Z,u01, 79,40,movements,el-ex, rt, d,189348.05410691668, 2.9504025966797913, -0.7829803470447715, 3.0581303221872886, -0.23322071135044098, 1.7258843183517456, -1.0001521110534668, 0.1346941441297531, 0.7053950428962708, 0.6958988904953003, 0.13492868840694427, 0.0182226300239563, 0.002892434597015381, -0.9208395367608866, 0.0019979855295519933, 0.38317424646829384,0.07230521175637612,0.2657012939453125,0.7348480224609375,0.70440673828125
20220117-1521,2022-01-17 15:21:14Z,u01, 80,40,movements,el-ex, rt, d,189348.0790519167, 3.018471851168149, -0.7828265665318894, 3.0941895412076117, -0.07390289753675461, 1.6896308660507202, -1.0341650247573853, 0.0870627909898758, 0.7052860260009766, 0.7035563588142395, 0.1561776101589203, 0.05264860391616821, -0.025806963443756104, -0.9229169094612921, -0.0015980968923861028, 0.3820133614387167,0.0478286702005406,0.217742919921875,0.7653350830078125,0.688751220703125
20220117-1521,2022-01-17 15:21:14Z,u01, 81,40,movements,el-ex, rt, d,189348.10399691667, 3.086161920343805, -0.7829211642673456, 3.1302430074359058, -0.14096152782440186, 1.6998695135116577, -1.0001567602157593, 0.03927228972315788, 0.7053530812263489, 0.7077672481536865, 0.137271910905838, -0.009063959121704102, 0.0113028883934021, -0.9240428705992724, -0.005329471321122825, 0.3815316220743095,0.023450758464606675,0.1674652099609375,0.684539794921875,0.7155914306640625
20220117-1521,2022-01-17 15:21:14Z,u01, 82,40,movements,el-ex, rt, d,189348.1289419167, -3.130840023126369, -0.7760028238684661, -3.1195495891848086, -0.419489324092865, 1.7200686931610107, -0.9301910400390625, -0.007674208842217922, 0.7004321813583374, 0.7136777639389038, 0.13955596089363098, -0.0591813325881958, -0.007409632205963135, -0.9256198789341644, -0.008167978302545509, 0.3783655443744245,-0.0008066193393808929,0.108612060546875,0.6499786376953125,0.7010345458984375
20220117-1521,2022-01-17 15:21:14Z,u01, 83,40,movements,el-ex, rt, d,189348.15388691667, -3.0651907312115565, -0.7644011208501096, -3.0876042976339, -0.34691938757896423, 1.7430970668792725, -0.9458081126213074, -0.05509301275014877, 0.6921048760414124, 0.7196909785270691, 0.13843654096126556, 0.058474957942962646, 0.017064034938812256, -0.9272158066087188, -0.010786228926329855, 0.37351175869104686,-0.02536380805340352,0.081878662109375,0.765655517578125,0.7299041748046875
20220117-1521,2022-01-17 15:21:14Z,u01, 84,40,movements,el-ex, rt, d,189348.17883091667, -2.9998481988446635, -0.7581673942089325, -3.055380286797897, 0.05757816135883331, 1.7085236310958862, -0.9934168457984924, -0.10257593542337418, 0.6875919699668884, 0.71881502866745, 0.16185636818408966, 0.10806238651275635, 0.016246318817138672, -0.9269403475596788, -0.013751566820442707, 0.3716323694959071,-0.04981705635132522,0.0309906005859375,0.779632568359375,0.7109832763671875
20220117-1521,2022-01-17 15:21:14Z,u01, 85,40,movements,el-ex, rt, d,189348.20377591669, -2.933856373381577, -0.7576556284074332, -3.02043388502752, 0.14355196058750153, 1.671798825263977, -1.0037440061569214, -0.14982667565345764, 0.6872202754020691, 0.7108302712440491, 0.1216742992401123, 0.021016359329223633, -0.01104724407196045, -0.9247176937289503, -0.017672288414757487, 0.372995815176124,-0.07388379385463878,-0.038330078125,0.693695068359375,0.6948699951171875
20220117-1521,2022-01-17 15:21:14Z,u01, 86,40,movements,el-ex, rt, d,189348.22872091667, -2.8691400070108983, -0.7519575380442588, -2.9873863125611604, -0.11290622502565384, 1.6992167234420776, -0.9860742688179016, -0.19653387367725372, 0.6830697655677795, 0.7034128904342651, 0.1185157299041748, -0.032877445220947266, 0.008210897445678711, -0.9226344042784471, -0.021265305803717993, 0.37243055429417604,-0.09792295792163222,-0.0935211181640625,0.6541290283203125,0.70379638671875
20220117-1521,2022-01-17 15:21:14Z,u01, 87,40,movements,el-ex, rt, d,189348.25366591668, -2.8061430027483123, -0.7420055957361612, -2.9567300375260817, -0.059777095913887024, 1.6567139625549316, -0.9844396114349365, -0.24265357851982117, 0.6757676005363464, 0.6960296630859375, 0.11881326138973236, 0.018217504024505615, -0.026321589946746826, -0.9205499731623366, -0.024547355971942242, 0.37029681118771585,-0.12192382986242926,-0.133819580078125,0.6943817138671875,0.662109375
20220117-1521,2022-01-17 15:21:14Z,u01, 88,40,movements,el-ex, rt, d,189348.2786109167, -2.7440209718286934, -0.7340156540526602, -2.92539692974711, 0.12275433540344238, 1.6309212446212769, -0.9870902895927429, -0.2874777317047119, 0.669856607913971, 0.6845787763595581, 0.12138593196868896, 0.04404103755950928, 0.003943204879760742, -0.917327659131943, -0.02827285057169099, 0.36959139125269747,-0.145301916827985,-0.1768646240234375,0.7041473388671875,0.6888275146484375
20220117-1521,2022-01-17 15:21:14Z,u01, 89,40,movements,el-ex, rt, d,189348.30355591667, -2.683693680538893, -0.7264733114237075, -2.8940500672554115, 0.00845305621623993, 1.5392475128173828, -0.970501720905304, -0.3304528594017029, 0.6642374992370605, 0.6705145239830017, 0.1265801191329956, -0.039008378982543945, -0.01035839319229126, -0.9133507283948232, -0.03236850844824224, 0.3695735946769674,-0.1678039707569105,-0.2084808349609375,0.6103668212890625,0.6471710205078125
20220117-1521,2022-01-17 15:21:14Z,u01, 90,40,movements,el-ex, rt, d,189348.32849991668, -2.628380626256048, -0.7124290723490556, -2.8681401463889, -0.2723834216594696, 1.5264172554016113, -0.9537554979324341, -0.371560275554657, 0.6536739468574524, 0.6592819094657898, 0.12668734788894653, -0.06010711193084717, -0.0013843774795532227, -0.9101393029314342, -0.035880307392231525, 0.3665839201612296,-0.18967096542795403,-0.259674072265625,0.608642578125,0.6271820068359375
20220117-1521,2022-01-17 15:21:14Z,u01, 91,40,movements,el-ex, rt, d,189348.3534449167, -2.577157053775694, -0.6953485058497397, -2.847160127567716, -0.21875602006912231, 1.4697513580322266, -0.8899377584457397, -0.4107423722743988, 0.6406530737876892, 0.648732602596283, 0.09833395481109619, -0.012219786643981934, -0.06583189964294434, -0.9071254999240274, -0.03859554399572551, 0.36209969482491744,-0.2109914753151261,-0.3159332275390625,0.635833740234375,0.575103759765625
20220117-1521,2022-01-17 15:21:14Z,u01, 92,40,movements,el-ex, rt, d,189348.37838991667, -2.529130964913029, -0.6806954460174865, -2.8260540093160387, -0.06040077656507492, 1.3710535764694214, -0.8450387716293335, -0.4467622637748718, 0.6293336153030396, 0.635879635810852, 0.11854568123817444, 0.02236950397491455, -0.045471370220184326, -0.9034324366752993, -0.04182869685008772, 0.3589798994394374,-0.23063757922110245,-0.3467254638671875,0.6656951904296875,0.63128662109375
20220117-1521,2022-01-17 15:21:14Z,u01, 93,40,movements,el-ex, rt, d,189348.4033349167, -2.481506937575817, -0.6689522705377584, -2.804184354580953, 0.060425110161304474, 1.3394631147384644, -0.8340237140655518, -0.4810260832309723, 0.6201643943786621, 0.6196854710578918, 0.11228218674659729, -0.02102792263031006, -0.008754312992095947, -0.8987786790621664, -0.04516229776672703, 0.35754768258221914,-0.24963360508956375,-0.3688201904296875,0.5977325439453125,0.6096038818359375
20220117-1521,2022-01-17 15:21:14Z,u01, 94,40,movements,el-ex, rt, d,189348.42827991667, -2.43759736995632, -0.6549508652980698, -2.7857791234971887, -0.21371427178382874, 1.2622264623641968, -0.767773449420929, -0.5133341550827026, 0.60912024974823, 0.604533314704895, 0.1250743269920349, -0.05185389518737793, -0.049388229846954346, -0.8943985992989005, -0.048143695745351434, 0.3549381693934185,-0.2678660857514691,-0.4149627685546875,0.539306640625,0.5286102294921875
20220117-1521,2022-01-17 15:21:14Z,u01, 95,40,movements,el-ex, rt, d,189348.45322391667, -2.3999550609618767, -0.6366822885878627, -2.775092642895494, -0.3721937835216522, 1.2272804975509644, -0.7338954210281372, -0.5431479811668396, 0.5945310592651367, 0.5928936004638672, 0.07902151346206665, -0.022768855094909668, -0.05280900001525879, -0.8910489883071074, -0.049784499956475825, 0.3495504244061357,-0.28525009604798457,-0.4645538330078125,0.584136962890625,0.53277587890625
20220117-1521,2022-01-17 15:21:14Z,u01, 96,40,movements,el-ex, rt, d,189348.47816891668, -2.364849229215493, -0.6185437517545371, -2.765280024211922, -0.21613827347755432, 1.1454761028289795, -0.7065186500549316, -0.571088969707489, 0.579849362373352, 0.5810607671737671, 0.09892117977142334, 0.06105029582977295, -0.025717496871948242, -0.8876144650127795, -0.05168110962968542, 0.344197506681056,-0.3016579552298433,-0.48968505859375,0.621826171875,0.534942626953125
20220117-1521,2022-01-17 15:21:14Z,u01, 97,40,movements,el-ex, rt, d,189348.50311391667, -2.328956950086933, -0.6036542754093664, -2.7527876288332234, -0.10064616054296494, 1.1544075012207031, -0.7021270990371704, -0.5977756381034851, 0.5676547288894653, 0.5660675764083862, 0.05541723966598511, -0.01276862621307373, -0.013165473937988281, -0.8832332555949327, -0.05415537093745154, 0.3408181606670059,-0.3175046753510419,-0.542388916015625,0.5433807373046875,0.5498199462890625
20220117-1521,2022-01-17 15:21:14Z,u01, 98,40,movements,el-ex, rt, d,189348.52805891668, -2.294718420076905, -0.5876763094791607, -2.7423973842366487, -0.2472357302904129, 1.1111499071121216, -0.6822292804718018, -0.6235190629959106, 0.5544286966323853, 0.5512101650238037, 0.07838362455368042, 0.021193981170654297, 0.028287768363952637, -0.8788784508410736, -0.05637165689745749, 0.33678493000087933,-0.333122738740629,-0.5465240478515625,0.5579376220703125,0.5198822021484375
20220117-1521,2022-01-17 15:21:14Z,u01, 99,40,movements,el-ex, rt, d,189348.5530039167, -2.2641687614435475, -0.5710055561987785, -2.735463091158072, -0.2676679491996765, 1.0546785593032837, -0.6360730528831482, -0.64708411693573, 0.5404783487319946, 0.5377408862113953, 0.047856271266937256, -0.007473409175872803, -0.07301944494247437, -0.8749317298385078, -0.05800794874921178, 0.33192697316486197,-0.34778446729625934,-0.604339599609375,0.5230560302734375,0.46234130859375
20220117-1521,2022-01-17 15:21:14Z,u01, 100,40,movements,el-ex, rt, d,189348.57794791667, -2.235168688634466, -0.5547327588767734, -2.7298175124380673, -0.22597619891166687, 1.0258842706680298, -0.613720178604126, -0.6692406535148621, 0.5267161726951599, 0.5241056680679321, 0.05664616823196411, 0.007646679878234863, -0.0735291838645935, -0.870932452413377, -0.05940953495143292, 0.32707277481327424,-0.3618984289773757,-0.6121063232421875,0.539642333984375,0.4576873779296875
20220117-1521,2022-01-17 15:21:14Z,u01, 101,40,movements,el-ex, rt, d,189348.60289291668, -2.2056628293010716, -0.540885631937153, -2.721567976037158, 0.03221427649259567, 0.9921622276306152, -0.6074492931365967, -0.6902179718017578, 0.5148953795433044, 0.5084110498428345, 0.05771070718765259, 0.03733551502227783, -0.010699987411499023, -0.8662742489883102, -0.06143646081413312, 0.3238143775729738,-0.375418023360358,-0.63818359375,0.5453338623046875,0.49371337890625
20220117-1521,2022-01-17 15:21:14Z,u01, 102,40,movements,el-ex, rt, d,189348.6278379167, -2.1748649713730663, -0.5304644915009915, -2.708431092153843, 0.15260620415210724, 0.9331590533256531, -0.5811814665794373, -0.7099241018295288, 0.5059340596199036, 0.4899373948574066, 0.05696988105773926, 0.01785457134246826, -0.008721113204956055, -0.8606920730050698, -0.06463630710424972, 0.32306075555631025,-0.3881534377039645,-0.64642333984375,0.499420166015625,0.443939208984375
20220117-1521,2022-01-17 15:21:14Z,u01, 103,40,movements,el-ex, rt, d,189348.65278291667, -2.14719556289876, -0.5201757689642108, -2.697668455480075, -0.034712955355644226, 0.8731053471565247, -0.5184699296951294, -0.7275329828262329, 0.49703267216682434, 0.47292131185531616, 0.06444704532623291, -0.05794554948806763, -0.029394149780273438, -0.8555273459526354, -0.06733209608221619, 0.3219529505745786,-0.3998571553589544,-0.66943359375,0.4308013916015625,0.440460205078125
20220117-1521,2022-01-17 15:21:14Z,u01, 104,40,movements,el-ex, rt, d,189348.67772791669, -2.123565415272627, -0.5085437521507051, -2.6937122382640637, -0.23669292032718658, 0.8565919399261475, -0.4356306493282318, -0.743374228477478, 0.4869057834148407, 0.4586036801338196, 0.05472993850708008, -0.08848345279693604, -0.023026466369628906, -0.8512668673399899, -0.06816573541944265, 0.31890734067606835,-0.4110914963486686,-0.6949310302734375,0.4177703857421875,0.4487152099609375
20220117-1521,2022-01-17 15:21:14Z,u01, 105,40,movements,el-ex, rt, d,189348.70267291667, -2.1024912258717237, -0.49629712451637725, -2.6938709160367145, -0.20418080687522888, 0.8273069858551025, -0.4140931963920593, -0.7579561471939087, 0.47617268562316895, 0.44582682847976685, 0.05925643444061279, 0.0009391903877258301, -0.005138099193572998, -0.8475276590550983, -0.06789901027917844, 0.31472233462178945,-0.4219434604643516,-0.7004241943359375,0.483184814453125,0.4378204345703125
20220117-1521,2022-01-17 15:21:14Z,u01, 106,40,movements,el-ex, rt, d,189348.72761691667, -2.081149389999488, -0.4858586367995159, -2.690386585778633, -0.030668944120407104, 0.7527698874473572, -0.4331904351711273, -0.7715931534767151, 0.46696779131889343, 0.4319550693035126, 0.05441480875015259, 0.035397469997406006, -0.007440507411956787, -0.8433573205190197, -0.06874566069964405, 0.3120659319469565,-0.432015445157284,-0.7276763916015625,0.4934539794921875,0.4041900634765625
20220117-1521,2022-01-17 15:21:15Z,u01, 107,40,movements,el-ex, rt, d,189348.75256191668, -2.061132637904994, -0.47615651692670596, -2.6858031953300996, -0.11119454354047775, 0.718866765499115, -0.3917844295501709, -0.7840442061424255, 0.45836663246154785, 0.4185386300086975, 0.03309816122055054, -0.029029905796051025, -0.004888355731964111, -0.8392566153710719, -0.07012598690710004, 0.3099450948143556,-0.441208188261904,-0.757659912109375,0.4151153564453125,0.409210205078125
20220117-1521,2022-01-17 15:21:15Z,u01, 108,40,movements,el-ex, rt, d,189348.77750691667, -2.0436393076051202, -0.4658361864034493, -2.6861305324765903, -0.28567326068878174, 0.6968147158622742, -0.3387984335422516, -0.7954145073890686, 0.4491700530052185, 0.40689241886138916, 0.028660595417022705, -0.06307688355445862, -0.03639405965805054, -0.8357858904316229, -0.07005820039063149, 0.3064451074155814,-0.45016106293995894,-0.7686920166015625,0.402252197265625,0.359375
20220117-1521,2022-01-17 15:21:15Z,u01, 109,40,movements,el-ex, rt, d,189348.80245191668, -2.028417716571411, -0.4558773992454898, -2.688825197651744, -0.21853502094745636, 0.6168864965438843, -0.29163843393325806, -0.8054888844490051, 0.4402502775192261, 0.3966950476169586, 0.03791093826293945, -0.009021520614624023, -0.06806671619415283, -0.8327922739854292, -0.06931485718580299, 0.30247789680105336,-0.45843153616111243,-0.767578125,0.4326171875,0.3299102783203125
20220117-1521,2022-01-17 15:21:15Z,u01, 110,40,movements,el-ex, rt, d,189348.8273969167, -2.0145642171370963, -0.447729241736748, -2.6900107699976754, -0.13883113861083984, 0.5359653234481812, -0.26790836453437805, -0.8141199350357056, 0.4329197108745575, 0.3870258629322052, 0.03991967439651489, 0.001910090446472168, -0.041322946548461914, -0.8299136240844818, -0.06896604050418315, 0.2995132300293081,-0.4655951187381508,-0.7704620361328125,0.4313812255859375,0.3125457763671875
20220117-1521,2022-01-17 15:21:15Z,u01, 111,40,movements,el-ex, rt, d,189348.85234091667, -2.0014770525070777, -0.44143232060805165, -2.6886915589189813, -0.0027403756976127625, 0.4569704234600067, -0.23903746902942657, -0.8215760588645935, 0.4272349178791046, 0.37746918201446533, 0.03599268198013306, -0.03552645444869995, -0.08610284328460693, -0.8270021790907884, -0.06929631703818478, 0.29783345913890175,-0.4717632917854318,-0.7848052978515625,0.3901214599609375,0.28759765625
20220117-1521,2022-01-17 15:21:15Z,u01, 112,40,movements,el-ex, rt, d,189348.87728591668, -1.990235263427177, -0.4368061376374708, -2.6854457649921324, 0.046719685196876526, 0.3109210133552551, -0.18513569235801697, -0.8275637030601501, 0.42304763197898865, 0.36901044845581055, 0.0498233437538147, -0.0325445830821991, -0.11254096031188965, -0.8243603221268345, -0.07025159927570607, 0.29720837037956244,-0.47661499052417416,-0.772613525390625,0.3762664794921875,0.2335968017578125
20220117-1521,2022-01-17 15:21:15Z,u01, 113,40,movements,el-ex, rt, d,189348.9022309167, -1.9842847410737305, -0.43383796871544383, -2.6840198328470453, -0.06707169860601425, 0.113936647772789, -0.06658075004816055, -0.8308912515640259, 0.42035630345344543, 0.36458253860473633, 0.06143629550933838, -0.098899245262146, -0.18639060854911804, -0.8229705616462342, -0.07078644867659617, 0.2966157740682421,-0.47929932847210477,-0.769195556640625,0.315277099609375,0.1785430908203125
20220117-1521,2022-01-17 15:21:15Z,u01, 114,40,movements,el-ex, rt, d,189348.92717591667, -1.9850154158085587, -0.4329000304628025, -2.6866853251834764, -0.09874136745929718, -0.07684747874736786, 0.06739348918199539, -0.8309850692749023, 0.4195050597190857, 0.3653480112552643, 0.06436824798583984, -0.10460928082466125, -0.18736979365348816, -0.8232651576732991, -0.0700606155707813, 0.29559001092987364,-0.4795336098717649,-0.75921630859375,0.33587646484375,0.1895294189453125
20220117-1521,2022-01-17 15:21:15Z,u01, 115,40,movements,el-ex, rt, d,189348.95212091669, -1.9897227890793483, -0.43544244673967664, -2.687786659384029, 0.11761655658483505, -0.2465149462223053, 0.1417405605316162, -0.8282788991928101, 0.42181161046028137, 0.3688206076622009, 0.07774502038955688, -0.02276366949081421, -0.10870435833930969, -0.8243587178435555, -0.06959174928821166, 0.29614212776146437,-0.4773776227912846,-0.752288818359375,0.4000396728515625,0.2654266357421875
20220117-1521,2022-01-17 15:21:15Z,u01, 116,40,movements,el-ex, rt, d,189348.9770649167, -1.9968694836943939, -0.44144173822204813, -2.685041240521373, 0.20953692495822906, -0.4011974036693573, 0.20608019828796387, -0.8233030438423157, 0.4272434413433075, 0.3736781179904938, 0.0717008113861084, -0.03046897053718567, -0.08907130360603333, -0.8257862811420867, -0.07011469933352438, 0.2988599813520596,-0.4731212485312342,-0.75799560546875,0.375701904296875,0.2816009521484375
20220117-1521,2022-01-17 15:21:15Z,u01, 117,40,movements,el-ex, rt, d,189349.00200991667, -2.008628411451108, -0.4487218342004343, -2.6846875886021486, 0.04170325770974159, -0.5432401299476624, 0.3075505197048187, -0.8160132765769958, 0.43381425738334656, 0.3820042312145233, 0.051700711250305176, -0.0860205590724945, -0.1419990062713623, -0.8283121614659629, -0.07000775315530722, 0.30134558972564,-0.4671066572573339,-0.76507568359375,0.343994140625,0.24066162109375
20220117-1521,2022-01-17 15:21:15Z,u01, 118,40,movements,el-ex, rt, d,189349.02695491668, -2.024610115780186, -0.45706789191072683, -2.6887355239755264, -0.00727856857702136, -0.5919992327690125, 0.39285895228385925, -0.8065221905708313, 0.4413188695907593, 0.3933953046798706, 0.03564810752868652, -0.11745086312294006, -0.107170969247818, -0.831872635736215, -0.06845117799419764, 0.30309309625496833,-0.45982281070856834,-0.7598114013671875,0.3505706787109375,0.2988739013671875
20220117-1521,2022-01-17 15:21:15Z,u01, 119,40,movements,el-ex, rt, d,189349.05189975002, -2.042641494988494, -0.4665483479522507, -2.6934570905519895, 0.0452180951833725, -0.6911744475364685, 0.42047253251075745, -0.7955349683761597, 0.44980621337890625, 0.4059530198574066, 0.06912529468536377, -0.016838043928146362, -0.03617185354232788, -0.8357834816174656, -0.06665195099188709, 0.3051058969729276,-0.4515901380900276,-0.7227935791015625,0.4407806396484375,0.3791656494140625
20220117-1521,2022-01-17 15:21:15Z,u01, 120,40,movements,el-ex, rt, d,189349.07684475, -2.0633583745626174, -0.47674962700148144, -2.6980676998886786, 0.02387598715722561, -0.796739399433136, 0.4417787492275238, -0.7828711271286011, 0.45889368653297424, 0.4201540946960449, 0.06703555583953857, -0.009934157133102417, -0.027698218822479248, -0.8401374286336898, -0.06516252459019051, 0.30739453604457945,-0.4420764357822407,-0.7097015380859375,0.46624755859375,0.39892578125
20220117-1521,2022-01-17 15:21:15Z,u01, 121,40,movements,el-ex, rt, d,189349.10178975, -2.086364093308088, -0.48725428169891355, -2.7036744182092645, 0.040449272841215134, -0.8188819289207458, 0.4693436026573181, -0.7687622308731079, 0.46820148825645447, 0.4356509745121002, 0.05666518211364746, 0.016814470291137695, -0.012051969766616821, -0.844856643383856, -0.06358251463953896, 0.3095759168352266,-0.4316678927311899,-0.7156524658203125,0.4857025146484375,0.432525634765625
20220117-1521,2022-01-17 15:21:15Z,u01, 122,40,movements,el-ex, rt, d,189349.12673375002, -2.1088845491834265, -0.4987643036099291, -2.7093885790846834, 0.05886552855372429, -0.7696241736412048, 0.5074767470359802, -0.7540792226791382, 0.478340744972229, 0.45006003975868225, 0.030538201332092285, -0.013100266456604004, -0.009829014539718628, -0.8492497865234757, -0.06168325645145062, 0.3122248915268899,-0.42129015793614777,-0.7209014892578125,0.4779052734375,0.4521026611328125
20220117-1521,2022-01-17 15:21:15Z,u01, 123,40,movements,el-ex, rt, d,189349.15167875, -2.1304921804067356, -0.5110102642626438, -2.7151302975965805, 0.1172206923365593, -0.7571651339530945, 0.5234860777854919, -0.7391599416732788, 0.4890587031841278, 0.4631028473377228, 0.033105313777923584, 0.01605314016342163, -0.019789397716522217, -0.8532348591379203, -0.05951216503129125, 0.31526897747920013,-0.411161843633071,-0.706451416015625,0.5050048828125,0.435333251953125
20220117-1521,2022-01-17 15:21:15Z,u01, 124,40,movements,el-ex, rt, d,189349.17662375, -2.1527139934204533, -0.5245797887148231, -2.7200230948718627, 0.16350455582141876, -0.8092246055603027, 0.5467077493667603, -0.7230761647224426, 0.5008493661880493, 0.47572100162506104, 0.012855947017669678, 0.0038046836853027344, -0.03625285625457764, -0.8570580886083536, -0.057549391295435404, 0.31907763885228557,-0.40041084675250127,-0.7114410400390625,0.5038299560546875,0.4650726318359375
20220117-1521,2022-01-17 15:21:15Z,u01, 125,40,movements,el-ex, rt, d,189349.20156875002, -2.17674872645117, -0.5389253316500525, -2.7257519652150917, 0.1482325941324234, -0.8736767172813416, 0.6126490831375122, -0.7054557800292969, 0.5132139325141907, 0.48881807923316956, 0.0282709002494812, -0.0220029354095459, -0.04317024350166321, -0.8610093834420407, -0.05542456588636119, 0.32306270738396664,-0.38887180927725773,-0.6736297607421875,0.48614501953125,0.4513397216796875
20220117-1521,2022-01-17 15:21:15Z,u01, 126,40,movements,el-ex, rt, d,189349.22651375, -2.2023518587772872, -0.5542392409443051, -2.7324054815875374, 0.1921619027853012, -0.893543541431427, 0.6211481690406799, -0.6862862706184387, 0.5262965559959412, 0.5020183324813843, 0.023017466068267822, -0.03915977478027344, -0.02962183952331543, -0.864983614002334, -0.053033228518500564, 0.3273155040368422,-0.37663666717641064,-0.6533660888671875,0.5108184814453125,0.4662017822265625
20220117-1521,2022-01-17 15:21:15Z,u01, 127,40,movements,el-ex, rt, d,189349.25145775, -2.228417057420605, -0.5704923395492383, -2.738121114449164, 0.2635459005832672, -0.9484728574752808, 0.6226096749305725, -0.6661108136177063, 0.5400465130805969, 0.5144370794296265, 0.036319732666015625, 0.02968621253967285, -0.05142480134963989, -0.8686854670401836, -0.05103043037032268, 0.3322174676501293,-0.3638856987751883,-0.6265411376953125,0.571258544921875,0.4594573974609375
20220117-1521,2022-01-17 15:21:15Z,u01, 128,40,movements,el-ex, rt, d,189349.27640275002, -2.255848686646258, -0.5874859484459922, -2.7431533443367315, 0.28815096616744995, -1.0151864290237427, 0.6434842944145203, -0.644549548625946, 0.5542702674865723, 0.5266305208206177, 0.025515973567962646, -0.0023751258850097656, -0.08365297317504883, -0.8722740873827355, -0.049529523117205376, 0.3376061170178024,-0.35029507521894415,-0.613250732421875,0.5351715087890625,0.43853759765625
20220117-1521,2022-01-17 15:21:15Z,u01, 129,40,movements,el-ex, rt, d,189349.30134775, -2.285733932067047, -0.6044398955223171, -2.7498880553766876, 0.2599133551120758, -1.0609275102615356, 0.6640633344650269, -0.621339738368988, 0.5683013200759888, 0.5394165515899658, 0.03576856851577759, -0.05565166473388672, -0.08261454105377197, -0.8760230130378044, -0.04787453353697396, 0.3427216348416733,-0.33590696387277486,-0.5799407958984375,0.51483154296875,0.468780517578125
20220117-1521,2022-01-17 15:21:15Z,u01, 130,40,movements,el-ex, rt, d,189349.32629275002, -2.3170234303399173, -0.6216216430544809, -2.7571399951291635, 0.2866591811180115, -1.1114221811294556, 0.674836277961731, -0.596902072429657, 0.5823541879653931, 0.5518800020217896, 0.05756497383117676, -0.030657291412353516, -0.020370781421661377, -0.8796537896900186, -0.046359618086840304, 0.34792783048880216,-0.32094583778388397,-0.5193328857421875,0.5805816650390625,0.5458221435546875
20220117-1521,2022-01-17 15:21:15Z,u01, 131,40,movements,el-ex, rt, d,189349.35123775, -2.3513613859401032, -0.6386589238364203, -2.7666016418807655, 0.19414828717708588, -1.1970149278640747, 0.7332071661949158, -0.5704703330993652, 0.596119225025177, 0.564982533454895, 0.08212810754776001, -0.013675928115844727, 0.002506852149963379, -0.8834592179612735, -0.04462149458470066, 0.352784940612726,-0.30504337179137403,-0.4849395751953125,0.5712890625,0.55413818359375
20220117-1521,2022-01-17 15:21:15Z,u01, 132,40,movements,el-ex, rt, d,189349.37618175, -2.3916544474683565, -0.6534665258448347, -2.782111235315834, -0.056612297892570496, -1.2751798629760742, 0.7789707183837891, -0.5411723256111145, 0.6079424023628235, 0.5809805393218994, 0.05774343013763428, -0.07092452049255371, -0.058535099029541016, -0.8881073546574121, -0.041899663924088615, 0.3558507266999316,-0.2878887770548587,-0.48095703125,0.53900146484375,0.4875640869140625
20220117-1521,2022-01-17 15:21:15Z,u01, 133,40,movements,el-ex, rt, d,189349.40112675002, -2.436620837482231, -0.6648078295243139, -2.8026778452059844, -0.037799593061208725, -1.305124282836914, 0.7756795287132263, -0.5100083947181702, 0.6169078946113586, 0.5994293093681335, 0.05515933036804199, -0.03339654207229614, -0.0800967812538147, -0.8934353625731498, -0.03857336152949592, 0.35690234623710027,-0.2700108862552814,-0.4482879638671875,0.5981903076171875,0.5437164306640625
20220117-1521,2022-01-17 15:21:15Z,u01, 134,40,movements,el-ex, rt, d,189349.42607175, -2.4781653208513643, -0.6779103531927936, -2.8180186688504136, 0.19810274243354797, -1.2651865482330322, 0.6467512845993042, -0.47965359687805176, 0.6271668076515198, 0.6136727929115295, 0.05277365446090698, 0.07421892881393433, 0.05701184272766113, -0.8974879855680944, -0.03676557406703285, 0.3597441897149425,-0.25248315529137755,-0.3965301513671875,0.7441253662109375,0.6775665283203125
20220117-1521,2022-01-17 15:21:15Z,u01, 135,40,movements,el-ex, rt, d,189349.45101675, -2.5185974672361726, -0.6919957757802272, -2.8301382916816356, 0.20969626307487488, -1.3810540437698364, 0.6564376354217529, -0.449256956577301, 0.6380751729011536, 0.6253224611282349, 0.12741857767105103, 0.08017146587371826, 0.0028358101844787598, -0.9007499999915608, -0.036203281209468696, 0.363626770957754,-0.23476435962132253,-0.31585693359375,0.687042236328125,0.6121368408203125
20220117-1521,2022-01-17 15:21:15Z,u01, 136,40,movements,el-ex, rt, d,189349.47596175002, -2.568187090111744, -0.702437512491027, -2.8495821707354207, -0.17272618412971497, -1.5901005268096924, 0.8081122040748596, -0.41407060623168945, 0.6460800766944885, 0.641190767288208, 0.098457932472229, -0.11045080423355103, -0.17227321863174438, -0.9051995627512921, -0.03477262513441515, 0.3651188778123853,-0.21469206106438862,-0.3201904296875,0.4695281982421875,0.4048004150390625
20220117-1521,2022-01-17 15:21:15Z,u01, 137,40,movements,el-ex, rt, d,189349.50090675, -2.625206706754963, -0.7061081893418215, -2.877947016472771, -0.35586321353912354, -1.399177074432373, 0.8137863874435425, -0.3756837248802185, 0.6488774418830872, 0.6616795659065247, 0.036908119916915894, -0.08494287729263306, 0.05060058832168579, -0.9109518242801798, -0.0317264726035032, 0.36289499600237185,-0.19356510519169084,-0.3302764892578125,0.589691162109375,0.7626495361328125
20220117-1521,2022-01-17 15:21:15Z,u01, 138,40,movements,el-ex, rt, d,189349.52585075, -2.6741188628083066, -0.7131303268494039, -2.9016374607641535, 0.12225822359323502, -1.3486292362213135, 0.7187173962593079, -0.3408212661743164, 0.6542044878005981, 0.6751717925071716, 0.10652261972427368, 0.07066434621810913, 0.1335742473602295, -0.9147424714954351, -0.02884609745280997, 0.36310306123180186,-0.17484322180599304,-0.200103759765625,0.813568115234375,0.7851715087890625
20220117-1521,2022-01-17 15:21:15Z,u01, 139,40,movements,el-ex, rt, d,189349.55079575002, -2.7225029744657974, -0.7258333344441261, -2.92111024529026, 0.2682158648967743, -1.4867810010910034, 0.7939949631690979, -0.3043610453605652, 0.6637589335441589, 0.6832187175750732, 0.09969502687454224, 0.04636979103088379, -0.018546223640441895, -0.9169892411703668, -0.027204762007431993, 0.36652390129464973,-0.15508287759942388,-0.2154083251953125,0.6874847412109375,0.6699981689453125
20220117-1521,2022-01-17 15:21:15Z,u01, 140,40,movements,el-ex, rt, d,189349.57574075, -2.7761467167312763, -0.7369447950082783, -2.9450207708228606, 0.04311686381697655, -1.5213690996170044, 0.8416426777839661, -0.2646382451057434, 0.6720286011695862, 0.691623866558075, 0.01714077591896057, -0.06721597909927368, -0.0950666069984436, -0.9193436444425666, -0.024883721599181285, 0.3691189352520724,-0.13393693925160194,-0.24517822265625,0.6088714599609375,0.580718994140625
20220117-1521,2022-01-17 15:21:15Z,u01, 141,40,movements,el-ex, rt, d,189349.60068575002, -2.830289333920673, -0.7462909228480517, -2.971725859351329, 0.2582174837589264, -1.3277448415756226, 0.8791390061378479, -0.2248888611793518, 0.6789202094078064, 0.698922336101532, -0.0016889125108718872, -0.00014799833297729492, 0.09461086988449097, -0.9214060041871417, -0.02172903070255655, 0.37108685599301344,-0.11328455912917747,-0.219757080078125,0.689300537109375,0.8238067626953125
20220117-1521,2022-01-17 15:21:15Z,u01, 142,40,movements,el-ex, rt, d,189349.62563075, -2.8781387970824195, -0.7640526777545725, -2.994932635055558, 0.619150698184967, -1.2650492191314697, 0.836733341217041, -0.18803082406520844, 0.6918532848358154, 0.6971250772476196, 0.05306684970855713, 0.07337510585784912, 0.12556761503219604, -0.9209875559413581, -0.018559292267397998, 0.3775078355669854,-0.09447373428033337,-0.0949859619140625,0.81378173828125,0.838531494140625
20220117-1521,2022-01-17 15:21:15Z,u01, 143,40,movements,el-ex, rt, d,189349.65057475, -2.927781319856335, -0.7821332857853709, -3.0200923396362978, 0.3575268089771271, -1.3254966735839844, 0.918923020362854, -0.15052711963653564, 0.7047944068908691, 0.6932574510574341, 0.07936018705368042, -0.02092599868774414, 0.09612518548965454, -0.9199985434602773, -0.015211572318900524, 0.38428862965740246,-0.07545438243521096,-0.072052001953125,0.6683502197265625,0.7682952880859375
20220117-1521,2022-01-17 15:21:15Z,u01, 144,40,movements,el-ex, rt, d,189349.67551975002, -2.9838588118193896, -0.78821646391479, -3.05185675784244, -0.1580181121826172, -1.3374103307724, 0.9166902303695679, -0.11075927317142487, 0.7090967893600464, 0.6963577270507812, 0.02267029881477356, -0.08296757936477661, -0.018791377544403076, -0.920899810519445, -0.011063831979170435, 0.3856689687208274,-0.05550295283963316,-0.0893402099609375,0.624420166015625,0.63970947265625
20220117-1521,2022-01-17 15:21:15Z,u01, 145,40,movements,el-ex, rt, d,189349.70046475, -3.0375510256112754, -0.7875701606064004, -3.0835366762561125, 0.016752231866121292, -1.1819977760314941, 0.8438003659248352, -0.07327619194984436, 0.7086409330368042, 0.7017537951469421, 0.011890113353729248, 0.035179316997528076, 0.06869268417358398, -0.9224046444785378, -0.006823979770840538, 0.3843997522442797,-0.036876398280388856,-0.0503082275390625,0.75848388671875,0.7731170654296875
20220117-1521,2022-01-17 15:21:15Z,u01, 146,40,movements,el-ex, rt, d,189349.72540975, -3.085694056186276, -0.7960815324928924, -3.110789985161985, 0.4509313404560089, -1.128203272819519, 0.7534765601158142, -0.0390813946723938, 0.7146205902099609, 0.6984196901321411, 0.04065307602286339, 0.1401158571243286, 0.14302605390548706, -0.9215196906709618, -0.0033603682351440733, 0.3878124272383394,-0.019790683070855325,0.0277862548828125,0.8846435546875,0.84185791015625
20220117-1521,2022-01-17 15:21:16Z,u01, 147,40,movements,el-ex, rt, d,189349.75035475002, -3.1335364893911346, -0.8083600875742138, -3.13793183838831, 0.3034566044807434, -1.1403357982635498, 0.8203198313713074, -0.005564212333410978, 0.7231554985046387, 0.690662682056427, 0.04110196232795715, 0.014866411685943604, 0.10248887538909912, -0.9194190163530749, -9.881124397559393e-05, 0.3932679554647496,-0.0029836742556481888,0.028472900390625,0.7061767578125,0.768157958984375
20220117-1521,2022-01-17 15:21:16Z,u01, 148,40,movements,el-ex, rt, d,189349.77529875, 3.0991521057343108, -0.8090419279953353, 3.1155578815158447, -0.17955826222896576, -1.1526570320129395, 0.7925124764442444, 0.0292833149433136, 0.7236262559890747, 0.6895700693130493, -0.022172696888446808, -0.06493496894836426, -0.06415849924087524, -0.9191147794279653, 0.0036132225840955767, 0.3937104499221167,0.014382419272307295,-0.002197265625,0.683807373046875,0.614105224609375
20220117-1521,2022-01-17 15:21:16Z,u01, 149,40,movements,el-ex, rt, d,189349.80024375, 3.052537185604641, -0.8060774695898106, 3.0884157145526734, 0.17397867143154144, -1.0282011032104492, 0.7083664536476135, 0.061574652791023254, 0.7215770483016968, 0.6895902752876282, -0.01830071210861206, 0.05422568321228027, 0.0522763729095459, -0.9191008923240122, 0.00697837844575816, 0.3927767492400044,0.030515019544030714,0.06451416015625,0.7963714599609375,0.772308349609375
20220117-1521,2022-01-17 15:21:16Z,u01, 150,40,movements,el-ex, rt, d,189349.82518875002, 3.009672350002174, -0.8135536681824918, 3.0635694783515506, 0.4889121949672699, -0.9922105073928833, 0.5949777960777283, 0.09035603702068329, 0.7267328500747681, 0.6809511184692383, 0.06725198775529861, 0.16460919380187988, 0.1552911400794983, -0.9167234027316713, 0.00968282904257417, 0.3968514639006951,0.045090345943358104,0.19488525390625,0.9019622802734375,0.8405303955078125
20220117-1521,2022-01-17 15:21:16Z,u01, 151,40,movements,el-ex, rt, d,189349.85013375, 2.9648612813967676, -0.8219202497147869, 3.037502998895092, 0.24303489923477173, -1.073620080947876, 0.7229229807853699, 0.11969608813524246, 0.7324545383453369, 0.6702108979225159, 0.06080012023448944, -0.021883249282836914, 0.03688102960586548, -0.9137583129558212, 0.012296312146801325, 0.40160091178573276,0.06009229636060945,0.1634521484375,0.6797943115234375,0.676483154296875
20220117-1521,2022-01-17 15:21:16Z,u01, 152,40,movements,el-ex, rt, d,189349.87507875002, 2.919029888140521, -0.8181431910900615, 3.0115062631358773, -0.20012331008911133, -1.0186073780059814, 0.6866004467010498, 0.15088601410388947, 0.7298778295516968, 0.6667171716690063, -0.03992408514022827, -0.10052883625030518, -0.10232526063919067, -0.9127584171586939, 0.015187258428421335, 0.4010840471394659,0.07598028312064561,0.107086181640625,0.6725006103515625,0.5715789794921875
20220117-1521,2022-01-17 15:21:16Z,u01, 153,40,movements,el-ex, rt, d,189349.90002275002, 2.877833525264335, -0.8125018590806079, 2.988266900013394, 0.15601855516433716, -0.9402875900268555, 0.6416475772857666, 0.17928701639175415, 0.7260099053382874, 0.6639012098312378, -0.0002709627151489258, 0.04306340217590332, 0.03623253107070923, -0.9119369763657333, 0.017932229252317966, 0.3998376278220992,0.09043775145510227,0.1974945068359375,0.786376953125,0.7260589599609375
20220117-1521,2022-01-17 15:21:16Z,u01, 154,40,movements,el-ex, rt, d,189349.92496775, 2.8360298942955073, -0.8166822474409133, 2.963146814507741, 0.5169283747673035, -0.9549765586853027, 0.6071861982345581, 0.20596103370189667, 0.728878378868103, 0.6529286503791809, 0.08351340889930725, 0.12346231937408447, 0.10149604082107544, -0.9088666278400185, 0.020634434790934797, 0.40334657697225756,0.10414915361909188,0.32086181640625,0.8368682861328125,0.762908935546875
20220117-1521,2022-01-17 15:21:16Z,u01, 155,40,movements,el-ex, rt, d,189349.94991275002, 2.7913491713293297, -0.8217217583231508, 2.935355811173409, 0.19492200016975403, -0.9986022710800171, 0.7129483819007874, 0.23365570604801178, 0.7323193550109863, 0.6396191120147705, 0.061754390597343445, -0.053776443004608154, 0.062071144580841064, -0.9051228826764173, 0.023708995069756933, 0.40764270042734696,0.11839613496160689,0.29144287109375,0.653900146484375,0.66375732421875
20220117-1521,2022-01-17 15:21:16Z,u01, 156,40,movements,el-ex, rt, d,189349.97485775, 2.749250079700736, -0.8133580694576865, 2.9117494857609656, -0.2715143859386444, -0.980988085269928, 0.6708683967590332, 0.26270097494125366, 0.7265984416007996, 0.6348562836647034, -0.004384934902191162, -0.07202690839767456, -0.09200990200042725, -0.9037228851184292, 0.02670389836927578, 0.4059432039398917,0.13334863935043323,0.26177978515625,0.700042724609375,0.5291290283203125
20220117-1521,2022-01-17 15:21:16Z,u01, 157,40,movements,el-ex, rt, d,189349.99980275, 2.710447268099599, -0.8033516922832746, 2.892029889685608, 0.085825614631176, -0.9688526391983032, 0.6371819972991943, 0.2901553511619568, 0.7196872234344482, 0.630761444568634, 0.009923964738845825, 0.028985321521759033, -0.00943911075592041, -0.9025210729207633, 0.028921333060413557, 0.4034462197274179,0.14781867886500355,0.3130645751953125,0.7581939697265625,0.655609130859375
20220117-1521,2022-01-17 15:21:16Z,u01, 158,40,movements,el-ex, rt, d,189350.02474675002, 2.6695142258229585, -0.802459476364649, 2.8691547350938866, 0.3306560814380646, -0.9892916679382324, 0.5678334832191467, 0.31601589918136597, 0.7190674543380737, 0.6189310550689697, 0.08672457933425903, 0.11349785327911377, 0.10714292526245117, -0.8991666793308009, 0.031061175474951852, 0.4054387174234055,0.16172145896206078,0.4508514404296875,0.845947265625,0.7541046142578125
20220117-1521,2022-01-17 15:21:16Z,u01, 159,40,movements,el-ex, rt, d,189350.04969175, 2.6287358326061274, -0.8013159691664463, 2.8451413658627556, 0.13596713542938232, -0.9116404056549072, 0.658842921257019, 0.3413882851600647, 0.71827232837677, 0.606249213218689, 0.11556658148765564, 0.01721644401550293, 0.14277374744415283, -0.8955381605958131, 0.03370489540437288, 0.4076246134438168,0.17526354702250477,0.447113037109375,0.7140350341796875,0.7335357666015625
20220117-1521,2022-01-17 15:21:16Z,u01, 160,40,movements,el-ex, rt, d,189350.07463675, 2.5934215217436685, -0.7906563899138996, 2.825998683396452, -0.2774809002876282, -0.8090215921401978, 0.666840136051178, 0.36654984951019287, 0.7108151316642761, 0.6003190875053406, 0.021969467401504517, -0.015838205814361572, 0.024970591068267822, -0.89376452245748, 0.03666758087313893, 0.4053828029794487,0.18842827890770047,0.36553955078125,0.734832763671875,0.5843658447265625
20220117-1521,2022-01-17 15:21:16Z,u01, 161,40,movements,el-ex, rt, d,189350.09958175002, 2.565080203016549, -0.7787829188671008, 2.812834051460144, -0.013846224173903465, -0.7318435311317444, 0.5167776346206665, 0.3879874348640442, 0.7024136781692505, 0.5967245697975159, -0.02936023473739624, 0.1292513608932495, -0.03576606512069702, -0.8926736606228054, 0.03867824481399701, 0.40209367926760364,0.19989549892802813,0.36053466796875,0.821990966796875,0.576507568359375
20220117-1521,2022-01-17 15:21:16Z,u01, 162,40,movements,el-ex, rt, d,189350.12452675, 2.533716388793942, -0.776914655205003, 2.7935692687565563, 0.4466095566749573, -0.7046434879302979, 0.47240594029426575, 0.40725815296173096, 0.7010826468467712, 0.5853408575057983, -0.02641397714614868, 0.07133269309997559, 0.04782235622406006, -0.8893644337101929, 0.041247192247416575, 0.4038981512239261,0.21022811757949492,0.397705078125,0.75018310546875,0.653900146484375
20220117-1521,2022-01-17 15:21:16Z,u01, 163,40,movements,el-ex, rt, d,189350.14947175002, 2.4997032519110656, -0.7798305328383327, 2.7696021469676047, 0.46234428882598877, -0.6747767329216003, 0.5138508081436157, 0.4257020652294159, 0.7031589150428772, 0.5695127248764038, 0.024950891733169556, -0.0021548867225646973, 0.10199576616287231, -0.8847479667364913, 0.044467974716688397, 0.40843793911113085,0.2200498207439243,0.4560546875,0.6884918212890625,0.669097900390625
20220117-1521,2022-01-17 15:21:16Z,u01, 164,40,movements,el-ex, rt, d,189350.17441575002, 2.46863022369874, -0.77720993772847, 2.7490191303815203, 0.05431102588772774, -0.6701574325561523, 0.5251051783561707, 0.44433727860450745, 0.7012931704521179, 0.5574511289596558, 0.010405093431472778, -0.040862321853637695, 0.06980675458908081, -0.8811658837958342, 0.04766820366926805, 0.410373318331958,0.22993046063265812,0.4511871337890625,0.6566162109375,0.5754547119140625
20220117-1521,2022-01-17 15:21:16Z,u01, 165,40,movements,el-ex, rt, d,189350.19936075, 2.4423770327083725, -0.7667041800081928, 2.7366864981339054, -0.20003913342952728, -0.7239176630973816, 0.4882186949253082, 0.46353381872177124, 0.6937653422355652, 0.5512036681175232, -0.007113009691238403, -0.04523634910583496, -0.09888774156570435, -0.879279240435342, 0.049697491576317976, 0.40810240920248747,0.24052114393821833,0.454559326171875,0.665191650390625,0.4582977294921875
20220117-1521,2022-01-17 15:21:16Z,u01, 166,40,movements,el-ex, rt, d,189350.22430575002, 2.4189377620166788, -0.7559306084843648, 2.7285853892307133, -0.0665821060538292, -0.6959924697875977, 0.4567468464374542, 0.48124080896377563, 0.6859661340713501, 0.5457630753517151, -0.018457084894180298, 0.024559378623962402, -0.02971118688583374, -0.877680856784281, 0.05057521414239419, 0.40523556734200067,0.25080360827842096,0.474884033203125,0.7132568359375,0.568023681640625
20220117-1521,2022-01-17 15:21:16Z,u01, 167,40,movements,el-ex, rt, d,189350.24925075, 2.3935990441017228, -0.749446508922151, 2.7159139858394563, 0.16653156280517578, -0.6556522846221924, 0.45417264103889465, 0.49792852997779846, 0.6812336444854736, 0.5366443395614624, 0.029262512922286987, 0.022791504859924316, 0.0850592851638794, -0.8749789671410909, 0.05228738123752974, 0.40484353039952664,0.26034461038769857,0.5356597900390625,0.7017059326171875,0.6143035888671875
20220117-1521,2022-01-17 15:21:16Z,u01, 168,40,movements,el-ex, rt, d,189350.27419575, 2.3661748427921414, -0.7444640570365307, 2.7001168554400574, 0.14957399666309357, -0.6788817644119263, 0.5018284916877747, 0.5148264765739441, 0.6775777339935303, 0.5252067446708679, 0.029744446277618408, -0.005336403846740723, 0.03488212823867798, -0.8715598190750772, 0.05465204438583371, 0.40564065697872165,0.26991165313288723,0.5335235595703125,0.6570281982421875,0.5243072509765625
20220117-1521,2022-01-17 15:21:16Z,u01, 169,40,movements,el-ex, rt, d,189350.29913975002, 2.339659087132906, -0.7360494655055886, 2.687093729760629, -0.08797301352024078, -0.7321726083755493, 0.5006202459335327, 0.5326488614082336, 0.6713653206825256, 0.5153186917304993, -0.006312310695648193, -0.033227503299713135, -0.06899946928024292, -0.868585864017519, 0.05672702381739142, 0.4047689753358795,0.28018311382541855,0.5310211181640625,0.6430816650390625,0.4416046142578125
20220117-1521,2022-01-17 15:21:16Z,u01, 170,40,movements,el-ex, rt, d,189350.32408475, 2.3158990051473456, -0.7249040453174256, 2.6792907182542693, -0.1288955807685852, -0.7388033866882324, 0.46388137340545654, 0.5502076148986816, 0.663063645362854, 0.5075612664222717, 0.0035491585731506348, 0.016517281532287598, -0.014549851417541504, -0.8662832612867692, 0.057740221278607395, 0.4020864998657398,0.2907677743210927,0.571258544921875,0.695404052734375,0.5199737548828125
20220117-1521,2022-01-17 15:21:16Z,u01, 171,40,movements,el-ex, rt, d,189350.34902975, 2.29241134102364, -0.7154687395725495, 2.6709161487083137, -0.005494716577231884, -0.6986590027809143, 0.4372542202472687, 0.566647469997406, 0.6559712886810303, 0.4986097514629364, 0.04747283458709717, 0.03331393003463745, 0.050691038370132446, -0.863628097998998, 0.058748419321930256, 0.4002408793979995,0.30083577139293116,0.6197357177734375,0.6860809326171875,0.5393829345703125
20220117-1521,2022-01-17 15:21:16Z,u01, 172,40,movements,el-ex, rt, d,189350.37397475002, 2.2689097545763985, -0.7075264101971213, 2.660962978321593, 0.03664550930261612, -0.6671599745750427, 0.4411817789077759, 0.5821810364723206, 0.6499559283256531, 0.4884897768497467, 0.03714263439178467, 0.0221632719039917, 0.02342700958251953, -0.8605970107826574, 0.06014707116487733, 0.39930848258213597,0.3103348982395947,0.6086273193359375,0.667083740234375,0.4949798583984375
20220117-1521,2022-01-17 15:21:16Z,u01, 173,40,movements,el-ex, rt, d,189350.39891975, 2.2456976791561996, -0.6986937375313798, 2.651486303035806, -0.05672001838684082, -0.7103922367095947, 0.4684855341911316, 0.5978212356567383, 0.6432180404663086, 0.47841426730155945, 0.014956474304199219, 0.004456579685211182, -0.028188645839691162, -0.8575588851937165, 0.06164327707925038, 0.39802714833166597,0.31994877472707617,0.6135101318359375,0.6491546630859375,0.44671630859375
20220117-1521,2022-01-17 15:21:16Z,u01, 174,40,movements,el-ex, rt, d,189350.42386375, 2.2238658759408216, -0.6879439480178943, 2.6453922275514494, -0.13203780353069305, -0.7174175977706909, 0.4439018964767456, 0.6135790944099426, 0.6349501013755798, 0.46942436695098877, 0.015266120433807373, 0.018782317638397217, -0.015429794788360596, -0.8548741133000206, 0.062469407497419416, 0.3954829928048436,0.32997135110543613,0.6419830322265625,0.6597137451171875,0.4644927978515625
20220117-1521,2022-01-17 15:21:16Z,u01, 175,40,movements,el-ex, rt, d,189350.44880875002, 2.2023598976447634, -0.6774329693848054, 2.639807033886844, -0.09131694585084915, -0.7094165682792664, 0.44454917311668396, 0.6288837790489197, 0.6267948746681213, 0.46003618836402893, 0.030982494354248047, 0.0021419525146484375, 0.020462870597839355, -0.8520739877620417, 0.06315072056924653, 0.39299717365755144,0.33990456492620036,0.661468505859375,0.623779296875,0.4771881103515625
20220117-1521,2022-01-17 15:21:16Z,u01, 176,40,movements,el-ex, rt, d,189350.47375375, 2.1810465169838142, -0.6670334781252732, 2.6339824021734164, -0.10834702849388123, -0.7160645127296448, 0.4544529914855957, 0.6438520550727844, 0.6186580061912537, 0.4502401649951935, 0.023933351039886475, -0.0055446624755859375, 0.005310654640197754, -0.8491308519208852, 0.06400688416874722, 0.3906474250639631,0.34967744764642505,0.6661834716796875,0.607574462890625,0.446014404296875
20220117-1521,2022-01-17 15:21:16Z,u01, 177,40,movements,el-ex, rt, d,189350.49869875002, 2.159374200836085, -0.6557221675731701, 2.628750356280044, -0.1315821409225464, -0.767686665058136, 0.46853986382484436, 0.6592362523078918, 0.6097317934036255, 0.4400388300418854, 0.017643511295318604, -0.006933331489562988, -0.029409945011138916, -0.8460592221284293, 0.06483210937349154, 0.38791238014187907,0.35986716854872114,0.6778717041015625,0.6049957275390625,0.4150390625
20220117-1521,2022-01-17 15:21:16Z,u01, 178,40,movements,el-ex, rt, d,189350.52364375, 2.1373676787105893, -0.644109950747914, 2.6244558250127588, -0.13508333265781403, -0.772061824798584, 0.47754546999931335, 0.674688458442688, 0.6004869341850281, 0.4291975498199463, 0.012918233871459961, 0.010047733783721924, 0.02771124243736267, -0.8428101846134679, 0.06534350633368102, 0.384959399955615,0.37041510533812694,0.6966552734375,0.596466064453125,0.4557342529296875
20220117-1521,2022-01-17 15:21:16Z,u01, 179,40,movements,el-ex, rt, d,189350.54858775, 2.1158161220703002, -0.6327124599869177, 2.619976925671905, -0.121953085064888, -0.7381018996238708, 0.4506639242172241, 0.6895891427993774, 0.591334342956543, 0.41807979345321655, 0.02121114730834961, 0.007222354412078857, 0.017756789922714233, -0.8394516166904277, 0.0660369423020769, 0.38216108891067657,0.3806744819606947,0.715850830078125,0.60052490234375,0.43115234375
20220117-1521,2022-01-17 15:21:16Z,u01, 180,40,movements,el-ex, rt, d,189350.57353275002, 2.0953329950102786, -0.6215878549701149, 2.6163024734083202, -0.11561000347137451, -0.7468259334564209, 0.4405113458633423, 0.7036579251289368, 0.5823267698287964, 0.40713751316070557, 0.024796664714813232, 0.022775888442993164, -0.0029630064964294434, -0.8361423965905661, 0.06659312791039596, 0.3793281488186797,0.39056542362212987,0.7325439453125,0.6029205322265625,0.386474609375
20220117-1521,2022-01-17 15:21:16Z,u01, 181,40,movements,el-ex, rt, d,189350.59847775, 2.073555555477563, -0.6106808562434941, 2.612001187446529, -0.08002055436372757, -0.7991659641265869, 0.4546445608139038, 0.7178797125816345, 0.5734254121780396, 0.3947553336620331, 0.011352956295013428, 0.0030364990234375, -0.01775670051574707, -0.8323853890029874, 0.06717314692122067, 0.3767923622823928,0.4008113868749381,0.7277984619140625,0.5706024169921875,0.377197265625
20220117-1521,2022-01-17 15:21:16Z,u01, 182,40,movements,el-ex, rt, d,189350.62342275, 2.0510713494039985, -0.5995595096152746, 2.6081474302865515, -0.10259533673524857, -0.8123472332954407, 0.45661747455596924, 0.7321838736534119, 0.5642788410186768, 0.38143885135650635, -0.004675507545471191, -0.021111786365509033, 0.0001984238624572754, -0.8283450208284902, 0.06755705396617528, 0.37416189155818064,0.41144048047779347,0.72601318359375,0.5417022705078125,0.3965606689453125
20220117-1521,2022-01-17 15:21:16Z,u01, 183,40,movements,el-ex, rt, d,189350.64836775002, 2.029163460123884, -0.5886567447275414, 2.6043489079815467, -0.05275513976812363, -0.782328724861145, 0.44044026732444763, 0.7458372116088867, 0.5552443265914917, 0.368008553981781, 0.01035773754119873, 0.022453486919403076, 0.04274249076843262, -0.8242426294978668, 0.06803212343471793, 0.3716328769697823,0.4217637248120886,0.76434326171875,0.5762481689453125,0.4071807861328125
20220117-1521,2022-01-17 15:21:16Z,u01, 184,40,movements,el-ex, rt, d,189350.67331175, 2.0067432355044725, -0.5789779976839292, 2.599590400014871, -0.016257649287581444, -0.8063746094703674, 0.39535143971443176, 0.7587360143661499, 0.5471687912940979, 0.3534484803676605, 0.029929637908935547, 0.016185760498046875, 0.03638279438018799, -0.8197734093852308, 0.06852584778253218, 0.36983118234616225,0.4318571490922519,0.7904205322265625,0.5597991943359375,0.3710174560546875
20220117-1521,2022-01-17 15:21:16Z,u01, 185,40,movements,el-ex, rt, d,189350.69825675, 1.9838172923837187, -0.569893837417413, 2.5950168109926213, -0.010769007727503777, -0.8273141980171204, 0.38873910903930664, 0.7711597681045532, 0.5395426750183105, 0.3379434645175934, 0.005558133125305176, 0.029121875762939453, 0.011650294065475464, -0.8150140229559923, 0.06873047888323591, 0.36827940005906823,0.4420388487309833,0.775421142578125,0.571502685546875,0.347930908203125
20220117-1521,2022-01-17 15:21:16Z,u01, 186,40,movements,el-ex, rt, d,189350.72320175002, 1.9612451518145957, -0.56066497930015, 2.591234311826946, -0.06490917503833771, -0.8283767700195312, 0.3929826319217682, 0.7831623554229736, 0.5317494869232178, 0.3223336935043335, 0.005503296852111816, 0.0364726185798645, 0.021690726280212402, -0.810208725460394, 0.06876535530236882, 0.3665357012228549,0.45219979470767724,0.80731201171875,0.5490875244140625,0.3442535400390625
20220117-1521,2022-01-17 15:21:16Z,u01, 187,40,movements,el-ex, rt, d,189350.74814675, 1.940167470318527, -0.5501269012997244, 2.5902362295398214, -0.1819819062948227, -0.8169587850570679, 0.41128167510032654, 0.7949634194374084, 0.5227954387664795, 0.3077620267868042, 0.04329317808151245, -0.04447817802429199, 0.019157111644744873, -0.8057326256810283, 0.06838093890633629, 0.36366988092208513,0.46245317695874355,0.8408660888671875,0.4815673828125,0.3250274658203125
20220117-1521,2022-01-17 15:21:17Z,u01, 188,40,movements,el-ex, rt, d,189350.77309175002, 1.9217362480491995, -0.5380628819572022, 2.5930344009482322, -0.29354557394981384, -0.7703022956848145, 0.4321057200431824, 0.8063650131225586, 0.5124735236167908, 0.29520541429519653, 0.039490699768066406, -0.01491481065750122, 0.025991827249526978, -0.8019043919776987, 0.06746891669339533, 0.3592938659737505,0.4725517786071757,0.841217041015625,0.5039825439453125,0.3204498291015625
20220117-1521,2022-01-17 15:21:17Z,u01, 189,40,movements,el-ex, rt, d,189350.79803575002, 1.9052562515519578, -0.5257233311673365, 2.596607346400346, -0.2551729083061218, -0.7044085264205933, 0.41450226306915283, 0.817031741142273, 0.5018388032913208, 0.2839313745498657, 0.03247082233428955, 0.019126951694488525, 0.035770565271377563, -0.7984415787131497, 0.06675871466922889, 0.3545617453748041,0.4819961745731452,0.8521881103515625,0.5214385986328125,0.316375732421875
20220117-1521,2022-01-17 15:21:17Z,u01, 190,40,movements,el-ex, rt, d,189350.82298075, 1.8890619793072851, -0.5144149458262489, 2.5981088204497063, -0.12008184939622879, -0.6494719386100769, 0.4132709205150604, 0.8268595933914185, 0.49202558398246765, 0.27242186665534973, 0.022917449474334717, 0.030374377965927124, 0.03305885195732117, -0.7948354127241086, 0.06669036177748028, 0.350687883179107,0.49072083733250704,0.8427581787109375,0.5250091552734375,0.306854248046875
20220117-1521,2022-01-17 15:21:17Z,u01, 191,40,movements,el-ex, rt, d,189350.84792575001, 1.8724907295202873, -0.503790646475992, 2.596236020044343, -0.00707273930311203, -0.593651533126831, 0.4297308623790741, 0.8362048268318176, 0.48274868726730347, 0.2602217197418213, 0.00017523765563964844, 0.01715993881225586, 0.036515772342681885, -0.790898894435663, 0.06774807402139255, 0.3479202617155369,0.49883934124450835,0.8367156982421875,0.4953460693359375,0.2906646728515625
20220117-1521,2022-01-17 15:21:17Z,u01, 192,40,movements,el-ex, rt, d,189350.87287075, 1.8565987036476987, -0.49398796278180257, 2.5924814353377825, 0.020112011581659317, -0.5316193103790283, 0.39708876609802246, 0.8447340726852417, 0.47414085268974304, 0.24822263419628143, -3.820657730102539e-05, 0.019816726446151733, 0.029777035117149353, -0.786947618167186, 0.0694604959120691, 0.3459316069323383,0.5061816810797752,0.854156494140625,0.4987640380859375,0.2742919921875
20220117-1521,2022-01-17 15:21:17Z,u01, 193,40,movements,el-ex, rt, d,189350.89781575, 1.841918437440877, -0.48501222465978633, 2.588816148912786, 0.037885479629039764, -0.49594080448150635, 0.37704703211784363, 0.8523528575897217, 0.4662191867828369, 0.23692560195922852, 0.004031121730804443, 0.0407845675945282, 0.0347263365983963, -0.783201105070134, 0.07112544055791303, 0.34421419118487073,0.5128874773725255,0.852996826171875,0.4980621337890625,0.2787322998046875
20220117-1521,2022-01-17 15:21:17Z,u01, 194,40,movements,el-ex, rt, d,189350.92276075002, 1.8283750240954475, -0.47671959301192846, 2.5846218004666697, 0.05983728915452957, -0.426683634519577, 0.3306838572025299, 0.8591927886009216, 0.45886698365211487, 0.22633762657642365, -0.011872291564941406, 0.00812840461730957, 0.06504395604133606, -0.7796402160068947, 0.07300650795411173, 0.34287280660976793,0.5189117267714929,0.8530426025390625,0.46630859375,0.2985687255859375
20220117-1521,2022-01-17 15:21:17Z,u01, 195,40,movements,el-ex, rt, d,189350.94770475003, 1.8175062228490833, -0.46925263390157557, 2.582126574655213, -0.035505976527929306, -0.3611695468425751, 0.2926795482635498, 0.8649004101753235, 0.4522198438644409, 0.21781672537326813, 0.0062999725341796875, 0.04955020546913147, 0.07780681550502777, -0.77676645657112, 0.0744461615004336, 0.3413138482315945,0.5240194008638126,0.87005615234375,0.504150390625,0.2929534912109375
20220117-1521,2022-01-17 15:21:17Z,u01, 196,40,movements,el-ex, rt, d,189350.97264975, 1.809074883461451, -0.46254819440486294, 2.581711746435437, -0.054643187671899796, -0.29237210750579834, 0.23782001435756683, 0.8696327805519104, 0.4462299644947052, 0.2112276554107666, -0.021412253379821777, 0.06756401062011719, 0.07405039668083191, -0.7745629998722381, 0.07527276971808233, 0.3394018426844243,0.5283865602965181,0.8468780517578125,0.51904296875,0.2814178466796875
20220117-1521,2022-01-17 15:21:17Z,u01, 197,40,movements,el-ex, rt, d,189350.99759475002, 1.8029431242498373, -0.457081484433349, 2.5817965537274685, -0.053578656166791916, -0.19979463517665863, 0.18518410623073578, 0.8732728958129883, 0.44133108854293823, 0.20644956827163696, -0.01737689971923828, 0.0664510726928711, 0.07075658440589905, -0.7729558633161665, 0.0759211269112936, 0.33770935511032396,0.5317213978644022,0.8574066162109375,0.50518798828125,0.27874755859375
20220117-1521,2022-01-17 15:21:17Z,u01, 198,40,movements,el-ex, rt, d,189351.02253975, 1.7995090575837924, -0.45317422814070857, 2.582988105108984, -0.11238374561071396, -0.10460467636585236, 0.0922694131731987, 0.8756493926048279, 0.43782156705856323, 0.20383885502815247, -0.01760202646255493, 0.07318010926246643, 0.08102726936340332, -0.772092029255016, 0.0761139098696747, 0.3361642922842213,0.5339232919210684,0.857391357421875,0.51251220703125,0.2853240966796875
20220117-1521,2022-01-17 15:21:17Z,u01, 199,40,movements,el-ex, rt, d,189351.04748375, 1.798948297962256, -0.4512457431659266, 2.585339765784667, -0.07730505615472794, -0.02708391845226288, 0.026271622627973557, 0.8765845894813538, 0.4360869228839874, 0.2035384327173233, -0.010251462459564209, 0.08034700155258179, 0.06645040214061737, -0.772033434831606, 0.0757204851026641, 0.33488676619923735,0.5348660836508474,0.8657379150390625,0.51593017578125,0.2685699462890625
20220117-1521,2022-01-17 15:21:17Z,u01, 200,40,movements,el-ex, rt, d,189351.07242775, 1.8002543145288104, -0.4509072835758964, 2.5880683320354176, -0.13807609677314758, 0.04681939631700516, -0.045541513711214066, 0.8764613270759583, 0.4357823133468628, 0.20471657812595367, -0.015926897525787354, 0.07677567005157471, 0.06707271933555603, -0.7724859141350504, 0.07499198529109802, 0.3339899905979292,0.5348758953665398,0.86187744140625,0.5126495361328125,0.279327392578125
20220117-1521,2022-01-17 15:21:17Z,u01, 201,40,movements,el-ex, rt, d,189351.09737275002, 1.8050354225781193, -0.452038190218814, 2.5934551240391803, -0.2091539353132248, 0.14049488306045532, -0.11126686632633209, 0.8749926686286926, 0.43679991364479065, 0.20879016816616058, -0.003502368927001953, 0.058958202600479126, 0.08768783509731293, -0.7739604787358357, 0.07335025527106753, 0.3327680989338763,0.5337323106927059,0.869140625,0.4958343505859375,0.2972564697265625
20220117-1521,2022-01-17 15:21:17Z,u01, 202,40,movements,el-ex, rt, d,189351.12231775, 1.813989655936909, -0.4547372212042138, 2.6013375290383838, -0.2875998020172119, 0.26596373319625854, -0.20017023384571075, 0.8719407320022583, 0.4392262399196625, 0.21633191406726837, -0.013481378555297852, 0.0779399573802948, 0.10378193855285645, -0.7766171851242075, 0.07093451599574718, 0.3312922607922173,0.531111478790071,0.8502655029296875,0.517974853515625,0.3223419189453125
20220117-1521,2022-01-17 15:21:17Z,u01, 203,40,movements,el-ex, rt, d,189351.14726275002, 1.8267861185606968, -0.4593040715644485, 2.6110148959793418, -0.2903253138065338, 0.3903631269931793, -0.2727547585964203, 0.8671513795852661, 0.44332441687583923, 0.22696134448051453, -0.021051764488220215, 0.08676594495773315, 0.0851721465587616, -0.780304973910533, 0.06785884100696482, 0.3298980294435918,0.5269595999398422,0.848785400390625,0.52923583984375,0.3115692138671875
20220117-1521,2022-01-17 15:21:17Z,u01, 204,40,movements,el-ex, rt, d,189351.17220775, 1.842079649221996, -0.46437071123372586, 2.621352310187029, -0.3353840112686157, 0.46695828437805176, -0.32959458231925964, 0.8614039421081543, 0.4478602409362793, 0.2395911067724228, -0.0029752254486083984, 0.06846669316291809, 0.062013834714889526, -0.7846025462209663, 0.06476417858360917, 0.328479610871632,0.5218288782283346,0.855987548828125,0.5253753662109375,0.313629150390625
20220117-1521,2022-01-17 15:21:17Z,u01, 205,40,movements,el-ex, rt, d,189351.19715175, 1.8604583328629887, -0.47110001015479, 2.6335466453394485, -0.3119576573371887, 0.5795851945877075, -0.4257238209247589, 0.8539479970932007, 0.45386675000190735, 0.2545146942138672, -0.012593626976013184, 0.11635434627532959, 0.1121232807636261, -0.7896497123321295, 0.06091536931128422, 0.3271498549537293,0.5154760864680004,0.83905029296875,0.5771484375,0.375579833984375
20220117-1521,2022-01-17 15:21:17Z,u01, 206,40,movements,el-ex, rt, d,189351.22209675002, 1.8812619459010427, -0.48034122896908876, 2.6439092745637396, -0.18690472841262817, 0.7125988006591797, -0.5033755898475647, 0.8444387912750244, 0.46208181977272034, 0.27093058824539185, -0.018450140953063965, 0.09198015928268433, 0.12750673294067383, -0.7950905222244726, 0.05741384479791972, 0.32722428765406086,0.5074041174329303,0.821075439453125,0.540740966796875,0.4049835205078125
20220117-1521,2022-01-17 15:21:17Z,u01, 207,40,movements,el-ex, rt, d,189351.24704175, 1.9051248976761115, -0.4916536134593266, 2.65298457876636, -0.14567506313323975, 0.8510434031486511, -0.5651834011077881, 0.8327425718307495, 0.47208428382873535, 0.2892685532569885, -0.0017336606979370117, 0.06806176900863647, 0.11022153496742249, -0.8010513936298793, 0.05432250947648343, 0.32840360715078765,0.4975106390970382,0.8347625732421875,0.54486083984375,0.3963470458984375
20220117-1521,2022-01-17 15:21:17Z,u01, 208,40,movements,el-ex, rt, d,189351.27198675, 1.9315838862294794, -0.5045206509574582, 2.661874287176967, -0.081559918820858, 0.929171085357666, -0.6055238246917725, 0.8190464973449707, 0.48338785767555237, 0.30902808904647827, 0.028014421463012695, 0.05797871947288513, 0.07317370176315308, -0.8073912066031039, 0.05131752673724038, 0.33025613276777377,0.48622690442889727,0.8445281982421875,0.536834716796875,0.373016357421875
20220117-1521,2022-01-17 15:21:17Z,u01, 209,40,movements,el-ex, rt, d,189351.29693175002, 1.9595659411133588, -0.5185975314531496, 2.6702957556442004, -0.05638736113905907, 0.9934889674186707, -0.6541667580604553, 0.8037031292915344, 0.4956625699996948, 0.3292107582092285, 0.027122557163238525, 0.04927468299865723, 0.04594159126281738, -0.8137911555835757, 0.048469897021882424, 0.3327698145201975,0.4739818541908827,0.8269805908203125,0.5478057861328125,0.38531494140625
20220117-1521,2022-01-17 15:21:17Z,u01, 210,40,movements,el-ex, rt, d,189351.32187575, 1.98955267872912, -0.5333393603944215, 2.6790931472995037, -0.02685859426856041, 1.0548224449157715, -0.6592541337013245, 0.7867099046707153, 0.5084117650985718, 0.3501501679420471, 0.03831756114959717, 0.03676968812942505, 0.06972566246986389, -0.8203575658250406, 0.04570071702084594, 0.3355423938621656,0.46079957534020144,0.826690673828125,0.5193328857421875,0.432342529296875
20220117-1521,2022-01-17 15:21:17Z,u01, 211,40,movements,el-ex, rt, d,189351.34682075, 2.0212719027440307, -0.5481654494630802, 2.6878737728790654, -0.035991571843624115, 1.1336820125579834, -0.6848341822624207, 0.7683385014533997, 0.5211223363876343, 0.37160056829452515, 0.047304630279541016, -0.006931662559509277, 0.09099981188774109, -0.8269974582446944, 0.043306899563900214, 0.3384667725502175,0.4468106776464248,0.8135223388671875,0.5195770263671875,0.4710693359375
20220117-1521,2022-01-17 15:21:17Z,u01, 212,40,movements,el-ex, rt, d,189351.37176575002, 2.055715245700843, -0.5629840639693825, 2.6984944579218753, -0.07179923355579376, 1.170764684677124, -0.7080053091049194, 0.7481713891029358, 0.5337120890617371, 0.3941958248615265, 0.06609839200973511, -0.00035643577575683594, 0.07212772965431213, -0.8339301827344571, 0.04072303247004849, 0.3410901247407099,0.4319251952075793,0.8075103759765625,0.5464630126953125,0.4538116455078125
20220117-1521,2022-01-17 15:21:17Z,u01, 213,40,movements,el-ex, rt, d,189351.39671075, 2.0913641494010076, -0.5778288561585864, 2.7099287312228357, -0.027145950123667717, 1.1865479946136475, -0.7086547017097473, 0.7266926169395447, 0.5462065935134888, 0.4166245460510254, 0.05208534002304077, 0.02741718292236328, 0.016068696975708008, -0.8407496265669243, 0.03810958886142751, 0.3437162823057633,0.41658946085574333,0.77557373046875,0.5738983154296875,0.430389404296875
20220117-1521,2022-01-17 15:21:17Z,u01, 214,40,movements,el-ex, rt, d,189351.42165575002, 2.1279868575508987, -0.5927197440534351, 2.7217285746550948, -0.034836724400520325, 1.2367606163024902, -0.7290094494819641, 0.7039691209793091, 0.5586189031600952, 0.4386027455329895, 0.05935174226760864, 0.002767324447631836, 0.0024065375328063965, -0.8473682127831403, 0.03561587617959705, 0.3464670004437247,0.4008231802220972,0.7548980712890625,0.5710296630859375,0.46484375
20220117-1521,2022-01-17 15:21:17Z,u01, 215,40,movements,el-ex, rt, d,189351.44659975002, 2.166653189407482, -0.608248571763777, 2.734119128971471, 0.04973438382148743, 1.3013142347335815, -0.7522084712982178, 0.6792255640029907, 0.571431040763855, 0.46056362986564636, 0.06493014097213745, 0.037593066692352295, 0.05091068148612976, -0.8539202411999522, 0.03319686955989393, 0.34952581092550544,0.38412209289072363,0.7426910400390625,0.61431884765625,0.515777587890625
20220117-1521,2022-01-17 15:21:17Z,u01, 216,40,movements,el-ex, rt, d,189351.47154475, 2.2048671536129, -0.625691309882564, 2.743377031094178, 0.2553112506866455, 1.3328121900558472, -0.7342067956924438, 0.6530040502548218, 0.5856577754020691, 0.4801984429359436, 0.08254575729370117, 0.025761961936950684, 0.03127598762512207, -0.8597045544542822, 0.03173795769006754, 0.35415363582032666,0.366709599068637,0.7273101806640625,0.606842041015625,0.51397705078125
20220117-1521,2022-01-17 15:21:17Z,u01, 217,40,movements,el-ex, rt, d,189351.49648975002, 2.2432299944838734, -0.6442990478287265, 2.7511787346333594, 0.20718279480934143, 1.377265214920044, -0.7505073547363281, 0.6254715919494629, 0.6006381511688232, 0.498014897108078, 0.08891427516937256, -0.005148589611053467, 0.019334077835083008, -0.864901384763926, 0.03087150096378727, 0.359677344039763,0.3487473079629332,0.7118072509765625,0.5945587158203125,0.518951416015625
20220117-1521,2022-01-17 15:21:17Z,u01, 218,40,movements,el-ex, rt, d,189351.52143475, 2.285486096131186, -0.6601736093134957, 2.7635165533161903, -0.008041564375162125, 1.4050906896591187, -0.7363381385803223, 0.5965976715087891, 0.6132540106773376, 0.5176774859428406, 0.10123234987258911, -0.016437053680419922, 0.016074538230895996, -0.870611062348836, 0.029582604703211945, 0.3634201744407617,0.33028287657219574,0.6795806884765625,0.612274169921875,0.5514068603515625
20220117-1521,2022-01-17 15:21:17Z,u01, 219,40,movements,el-ex, rt, d,189351.54637975, 2.331053197164608, -0.6725780285852112, 2.7809206564563054, -0.10271843522787094, 1.3894041776657104, -0.7399598360061646, 0.5668411254882812, 0.6230046153068542, 0.5390321612358093, 0.09532910585403442, 0.027233362197875977, 0.020659804344177246, -0.8767861867346354, 0.02760554508656926, 0.36509296488899523,0.31175441513533914,0.653289794921875,0.6525726318359375,0.5680694580078125
20220117-1521,2022-01-17 15:21:17Z,u01, 220,40,movements,el-ex, rt, d,189351.57132375002, 2.3783061965124475, -0.6843042803592616, 2.7999632305828, -0.0653957650065422, 1.4477256536483765, -0.7577258944511414, 0.5356596112251282, 0.6321340799331665, 0.5598880052566528, 0.0751190185546875, 0.017447829246520996, 0.07470935583114624, -0.8827770774091274, 0.025468407061470633, 0.3664852010879479,0.29282140654956995,0.5946044921875,0.6396636962890625,0.6453399658203125
20220117-1521,2022-01-17 15:21:17Z,u01, 221,40,movements,el-ex, rt, d,189351.59626875, 2.4271373092668327, -0.6968281847773602, 2.81897617890247, -0.010202553123235703, 1.492030143737793, -0.7946189641952515, 0.5024654865264893, 0.6417885422706604, 0.5793408751487732, 0.07263827323913574, 0.03118520975112915, 0.056080639362335205, -0.8883206982809837, 0.023596329464215082, 0.3684893877001977,0.273029492438258,0.571014404296875,0.6848602294921875,0.6380767822265625
20220117-1521,2022-01-17 15:21:17Z,u01, 222,40,movements,el-ex, rt, d,189351.62121375, 2.4771142647352145, -0.709563699183523, 2.838649924197238, 0.04840549826622009, 1.4922881126403809, -0.7886294722557068, 0.46781817078590393, 0.6515028476715088, 0.5972356200218201, 0.08255112171173096, 0.04635804891586304, 0.03212815523147583, -0.8933894270123502, 0.021751541408596586, 0.37077905861093197,0.2527946445099779,0.5383148193359375,0.68115234375,0.6269073486328125
20220117-1521,2022-01-17 15:21:17Z,u01, 223,40,movements,el-ex, rt, d,189351.64615875002, 2.528134580439956, -0.7224773872436909, 2.8596480972827374, 0.025025177747011185, 1.508113145828247, -0.8429343700408936, 0.4318714737892151, 0.6612451672554016, 0.6133852601051331, 0.08009135723114014, 0.025949716567993164, 0.018633484840393066, -0.8979458233139751, 0.019645149266100892, 0.37328127505164543,0.23231086369540102,0.513916015625,0.6893768310546875,0.6363983154296875
20220117-1521,2022-01-17 15:21:17Z,u01, 224,40,movements,el-ex, rt, d,189351.67110375, 2.5811593326795137, -0.7349543495590729, 2.882540108858126, 0.035456277430057526, 1.525577187538147, -0.8610288500785828, 0.3943386673927307, 0.6705532670021057, 0.6283747553825378, 0.10973531007766724, 0.015146195888519287, 0.048260629177093506, -0.9021572195126744, 0.017312666701576884, 0.37569456549499447,0.21134349993338836,0.4870758056640625,0.6875457763671875,0.697357177734375
20220117-1521,2022-01-17 15:21:17Z,u01, 225,40,movements,el-ex, rt, d,189351.69604775, 2.636380463624596, -0.7459721681277027, 2.907219855809141, 0.006209542974829674, 1.5619350671768188, -0.8462423086166382, 0.3554583489894867, 0.6786861419677734, 0.6426776647567749, 0.09836861491203308, 0.007715463638305664, 0.05515235662460327, -0.9061537209456765, 0.014975435946674387, 0.377625575083431,0.18989500535383,0.4477996826171875,0.6879425048828125,0.6947174072265625
20220117-1521,2022-01-17 15:21:17Z,u01, 226,40,movements,el-ex, rt, d,189351.72099275002, 2.6938250432529105, -0.7554045344974868, 2.9342244930401735, -0.0718843936920166, 1.5769027471542358, -0.8947430849075317, 0.3151881992816925, 0.685583233833313, 0.6562254428863525, 0.10590860247612, 0.017404556274414062, 0.020287930965423584, -0.9099229880060979, 0.012364861831277107, 0.37900950441480047,0.16804465740484226,0.41082763671875,0.7052154541015625,0.677764892578125
20220117-1521,2022-01-17 15:21:17Z,u01, 227,40,movements,el-ex, rt, d,189351.74593775, 2.754068274944441, -0.76172110314486, 2.9643452588873, -0.1701284945011139, 1.5895003080368042, -0.9094646573066711, 0.27346503734588623, 0.6901679635047913, 0.6699882745742798, 0.1139097511768341, 0.03259497880935669, 0.021295487880706787, -0.913732465790562, 0.009333657276177965, 0.37915313218780183,0.14576874956525357,0.3819732666015625,0.7249908447265625,0.6918487548828125
20220117-1521,2022-01-17 15:21:18Z,u01, 228,40,movements,el-ex, rt, d,189351.77088275002, 2.815318649013215, -0.766244797979409, 2.99542241858543, -0.09666340798139572, 1.5929968357086182, -0.9079779982566833, 0.23093801736831665, 0.6934344172477722, 0.6825074553489685, 0.12337109446525574, 0.04240560531616211, 0.005495965480804443, -0.9171773813168659, 0.00627565322449819, 0.37887003842083494,0.12330368324203797,0.3367919921875,0.745849609375,0.6833038330078125
20220117-1521,2022-01-17 15:21:18Z,u01, 229,40,movements,el-ex, rt, d,189351.79582775, 2.8770790182759787, -0.7724399247715265, 3.026742791416732, 0.021054737269878387, 1.621368169784546, -0.9427825212478638, 0.18724575638771057, 0.6978847980499268, 0.6912997364997864, 0.11220796406269073, 0.05226778984069824, 0.04597407579421997, -0.9195869740321928, 0.003108675143288553, 0.3797954063129403,0.10052579751205487,0.2948150634765625,0.741119384765625,0.7363739013671875
20220117-1521,2022-01-17 15:21:18Z,u01, 230,40,movements,el-ex, rt, d,189351.82077175, 2.9400609524028325, -0.7778961103265659, 3.0587171017650703, -0.06888237595558167, 1.621412754058838, -0.944772481918335, 0.14259964227676392, 0.7017821669578552, 0.6979736685752869, 0.13659046590328217, 0.011383354663848877, 0.052621304988861084, -0.9214048209858463, 2.2747111285803534e-05, 0.3808237618135398,0.07737224005469844,0.268463134765625,0.71051025390625,0.7255706787109375
20220117-1521,2022-01-17 15:21:18Z,u01, 231,40,movements,el-ex, rt, d,189351.84571675002, 3.003278673959962, -0.7790526272050778, 3.091503544053606, -0.13313816487789154, 1.609265923500061, -0.9420392513275146, 0.09810782223939896, 0.7026056051254272, 0.7047834396362305, 0.12232063710689545, 0.010849595069885254, 0.008991897106170654, -0.9232453394145983, -0.0031225856174061928, 0.38032455812356236,0.05441837156539145,0.2106781005859375,0.7174530029296875,0.71826171875
20220117-1521,2022-01-17 15:21:18Z,u01, 232,40,movements,el-ex, rt, d,189351.87066175, 3.0664369956018582, -0.7790200145875333, 3.124092352453778, -0.040443845093250275, 1.6343752145767212, -0.901268482208252, 0.053430601954460144, 0.7025824189186096, 0.7095934748649597, 0.13142964243888855, 0.01603037118911743, 0.0006570816040039062, -0.9245315464744943, -0.006176814771142902, 0.3797566915124194,0.03143320212826295,0.1638336181640625,0.706146240234375,0.7179107666015625
20220117-1521,2022-01-17 15:21:18Z,u01, 233,40,movements,el-ex, rt, d,189351.89560675, 3.1297573028917194, -0.7814272291065633, -3.127086097093489, 0.12885385751724243, 1.624659538269043, -0.9384046196937561, 0.008401826955378056, 0.7042933106422424, 0.7098594307899475, 0.11382108926773071, 0.008307576179504395, 0.01471930742263794, -0.9245806714814566, -0.0089601417192548, 0.38079196751601174,0.008233855496271009,0.1169891357421875,0.7203369140625,0.7377166748046875
20220117-1521,2022-01-17 15:21:18Z,u01, 234,40,movements,el-ex, rt, d,189351.92055175002, -3.089887520045267, -0.7845680309598954, -3.0945529520424673, 0.1966731995344162, 1.6228231191635132, -0.9013341069221497, -0.0365750789642334, 0.7065195441246033, 0.7067475914955139, 0.1321714222431183, -0.006003737449645996, 0.017724156379699707, -0.9237063976702093, -0.011844374448471306, 0.3826282423526531,-0.014891687399873982,0.079193115234375,0.6927947998046875,0.72698974609375
20220117-1521,2022-01-17 15:21:18Z,u01, 235,40,movements,el-ex, rt, d,189351.94549675, -3.026711430588504, -0.785977536327068, -3.062333633294416, 0.07751058787107468, 1.6484253406524658, -0.9097728133201599, -0.08100773394107819, 0.7075163125991821, 0.702038586139679, 0.10412484407424927, -0.026379168033599854, 0.019823908805847168, -0.9223919876027289, -0.014570965230267241, 0.38412041374860295,-0.037843849141344366,0.0180511474609375,0.6829376220703125,0.7129974365234375
20220117-1521,2022-01-17 15:21:18Z,u01, 236,40,movements,el-ex, rt, d,189351.97044075, -2.9639358324302467, -0.7845265551905776, -3.0311138914201767, 0.1002785861492157, 1.6284207105636597, -0.8647111654281616, -0.12507137656211853, 0.7064902186393738, 0.6965832114219666, 0.1260937601327896, -0.04207676649093628, -0.004444897174835205, -0.9208713925028842, -0.01695560063189555, 0.38471868455880415,-0.06082559361063708,-0.018890380859375,0.6705780029296875,0.7104034423828125
20220117-1521,2022-01-17 15:21:18Z,u01, 237,40,movements,el-ex, rt, d,189351.99538575002, -2.901907666802343, -0.7813459604014514, -3.000393777092676, 0.019074808806180954, 1.6047577857971191, -0.8982086181640625, -0.16854353249073029, 0.7042356729507446, 0.6896700263023376, 0.11716723442077637, -0.0016751289367675781, 0.033352017402648926, -0.9189455198016077, -0.019343185659361495, 0.38493571955835,-0.08360221805371973,-0.05889892578125,0.7047882080078125,0.74456787109375
20220117-1521,2022-01-17 15:21:18Z,u01, 238,40,movements,el-ex, rt, d,189352.02033075, -2.8407293546628725, -0.7745458412617608, -2.9703155590446606, -0.1127825528383255, 1.5710389614105225, -0.8999607563018799, -0.21180905401706696, 0.6993915438652039, 0.682633101940155, 0.12489505112171173, 0.014399349689483643, 0.05491536855697632, -0.9169712914669427, -0.02191374580606087, 0.38390038021687783,-0.10631939160230475,-0.0966033935546875,0.7072906494140625,0.6873779296875
20220117-1521,2022-01-17 15:21:18Z,u01, 239,40,movements,el-ex, rt, d,189352.04527575002, -2.784175385468485, -0.7624835738336899, -2.943494592780679, -0.2588953375816345, 1.4932605028152466, -0.8645716309547424, -0.2529888451099396, 0.690719485282898, 0.6774241328239441, 0.09889033436775208, -0.03500330448150635, -0.04546624422073364, -0.9154842003338612, -0.02451040257516196, 0.3806691616629848,-0.12798043126722017,-0.17156982421875,0.653594970703125,0.6542816162109375
20220117-1521,2022-01-17 15:21:18Z,u01, 240,40,movements,el-ex, rt, d,189352.070221125, -2.7303749988232475, -0.7471655934210831, -2.919714746277668, -0.3395364284515381, 1.5062870979309082, -0.8905626535415649, -0.2932458519935608, 0.6795620918273926, 0.6724594235420227, 0.07664743065834045, -0.020565569400787354, -0.020329654216766357, -0.9140616343240459, -0.026852157218048622, 0.3761143258385698,-0.14935913173070364,-0.222564697265625,0.6710052490234375,0.660614013671875
20220117-1521,2022-01-17 15:21:18Z,u01, 241,40,movements,el-ex, rt, d,189352.095165125, -2.6778656926446565, -0.7302258537876009, -2.8969931804514713, -0.27563223242759705, 1.4666049480438232, -0.8862260580062866, -0.3332373797893524, 0.6670379042625427, 0.666342556476593, 0.11102375388145447, 0.043029725551605225, -0.04241114854812622, -0.9123063421299386, -0.029468810843904014, 0.3710899863710583,-0.1706478373484544,-0.2276458740234375,0.7121429443359375,0.62860107421875
20220117-1521,2022-01-17 15:21:18Z,u01, 242,40,movements,el-ex, rt, d,189352.12011012502, -2.62665528408019, -0.7158360252023264, -2.873724955549695, -0.10370806604623795, 1.4065572023391724, -0.8899131417274475, -0.37159836292266846, 0.6562484502792358, 0.6566979289054871, 0.10252496600151062, 0.04281771183013916, -0.030919969081878662, -0.9095547763376589, -0.03254326039966621, 0.3675908226180432,-0.19112271269263076,-0.2831878662109375,0.692138671875,0.6363525390625
20220117-1521,2022-01-17 15:21:18Z,u01, 243,40,movements,el-ex, rt, d,189352.145055125, -2.5767386938475467, -0.7020619473446608, -2.8507920454317603, -0.14931677281856537, 1.3940635919570923, -0.8606696128845215, -0.4087020754814148, 0.6457933783531189, 0.6449130177497864, 0.11915144324302673, 0.0018200874328613281, -0.019684553146362305, -0.9061852912280399, -0.03584292406519218, 0.36467432773060443,-0.2110827059919051,-0.2914886474609375,0.6360626220703125,0.6229705810546875
20220117-1521,2022-01-17 15:21:18Z,u01, 244,40,movements,el-ex, rt, d,189352.170000125, -2.5300370285351867, -0.6863200850315399, -2.831672944691364, -0.238204225897789, 1.3594080209732056, -0.8339001536369324, -0.4441465437412262, 0.6336947679519653, 0.633375883102417, 0.11896643042564392, -0.024441540241241455, -0.0022113919258117676, -0.9028863093341449, -0.03852588966187481, 0.3607653790742328,-0.2305655300323991,-0.350128173828125,0.6177825927734375,0.62139892578125
20220117-1521,2022-01-17 15:21:18Z,u01, 245,40,movements,el-ex, rt, d,189352.19494512503, -2.4859629513277466, -0.6687852197722268, -2.8149852718168407, -0.2666773200035095, 1.3350346088409424, -0.8308793902397156, -0.47832298278808594, 0.6200333833694458, 0.621904730796814, 0.0984707772731781, 0.03086090087890625, -0.020479917526245117, -0.8995891471120019, -0.04113061050917671, 0.3560313924704902,-0.24957805298563024,-0.3809661865234375,0.6454315185546875,0.59210205078125
20220117-1521,2022-01-17 15:21:18Z,u01, 246,40,movements,el-ex, rt, d,189352.219889125, -2.4444750563407887, -0.6506220209552649, -2.800775703160085, -0.27982380986213684, 1.29486882686615, -0.7890574932098389, -0.5108520984649658, 0.6056814789772034, 0.6100651621818542, 0.11238425970077515, 0.02345365285873413, -0.0139046311378479, -0.8961834042243447, -0.04344997913250015, 0.35091634683584466,-0.26800177633016464,-0.4156646728515625,0.6004486083984375,0.5790863037109375
20220117-1521,2022-01-17 15:21:18Z,u01, 247,40,movements,el-ex, rt, d,189352.244834125, -2.4040174701589345, -0.6337345885584973, -2.7867600411196727, -0.15674301981925964, 1.2797918319702148, -0.7857599854469299, -0.5419110655784607, 0.592158317565918, 0.5963894724845886, 0.08431535959243774, 0.013081610202789307, -0.027786314487457275, -0.8922394198840082, -0.045864652363862946, 0.34653293183529776,-0.2858671113491292,-0.464508056640625,0.6115570068359375,0.56634521484375
20220117-1521,2022-01-17 15:21:18Z,u01, 248,40,movements,el-ex, rt, d,189352.26977912502, -2.3635265311056743, -0.6191184479575615, -2.7709969851655294, 0.00992834847420454, 1.2231006622314453, -0.7654100656509399, -0.5716231465339661, 0.5803174376487732, 0.58006751537323, 0.08389133214950562, 0.03857910633087158, -0.030400395393371582, -0.8874978021148456, -0.04879966267820268, 0.3436090422587016,-0.3031484165626626,-0.5028839111328125,0.620361328125,0.5392608642578125
20220117-1521,2022-01-17 15:21:18Z,u01, 249,40,movements,el-ex, rt, d,189352.294724125, -2.3240853413180886, -0.6061986282340501, -2.754440543592111, 0.005504705011844635, 1.1710268259048462, -0.7410163283348083, -0.5994704961776733, 0.5697475671768188, 0.5621587634086609, 0.07331711053848267, -0.00018268823623657227, -0.01732879877090454, -0.8822525987832486, -0.052055111648251884, 0.3417493572324022,-0.3195745274711467,-0.5290985107421875,0.5555877685546875,0.5338134765625
20220117-1521,2022-01-17 15:21:18Z,u01, 250,40,movements,el-ex, rt, d,189352.31966912502, -2.287974496311998, -0.5923867381630764, -2.7415638925772425, -0.12410301715135574, 1.1379798650741577, -0.6640290021896362, -0.6252467036247253, 0.558342695236206, 0.5452699661254883, 0.08096599578857422, -0.06819987297058105, -0.054746031761169434, -0.8773014454899908, -0.054563356250743544, 0.33906722076058937,-0.3352584417173965,-0.55157470703125,0.4879302978515625,0.51123046875
20220117-1521,2022-01-17 15:21:18Z,u01, 251,40,movements,el-ex, rt, d,189352.34461312502, -2.2550544169910665, -0.5768824280588024, -2.733551934288801, -0.20442984998226166, 1.1238757371902466, -0.635948896408081, -0.6494855880737305, 0.5454135537147522, 0.5298038125038147, 0.0795242190361023, -0.008334696292877197, -0.012851536273956299, -0.8727924449672824, -0.05599328401212844, 0.33494468532384175,-0.35058522659456093,-0.5693206787109375,0.547821044921875,0.5098114013671875
20220117-1521,2022-01-17 15:21:18Z,u01, 252,40,movements,el-ex, rt, d,189352.369558125, -2.223446156904277, -0.5618816836787678, -2.724992302899906, -0.09782145172357559, 1.052613377571106, -0.664143443107605, -0.6723294854164124, 0.5327795147895813, 0.5139246582984924, 0.08593440055847168, 0.0384179949760437, 0.003027617931365967, -0.8681060820666353, -0.057915073789735316, 0.33122332425353107,-0.36514191510029437,-0.604949951171875,0.5547027587890625,0.492919921875
