SessionID,LoggingTime,UID,RecNo,Hertz,Activity,MoveType,Wrist,Side,TimeStamp,DMRoll,DMPitch,DMYaw,DMRotX,DMRotY,DMRotZ,DMGrvX,DMGrvY,DMGrvZ,DMUAccelX,DMUAccelY,DMUAccelZ,DMQuatX,DMQuatY,DMQuatW,DMQuatZ,AccelroX,AceelroY,AceelroZ
20220117-1511,2022-01-17 15:11:16Z,u01, 1,40,movements,el-ex, rt, d,188750.42514654167, -2.3643387745612157, -0.6984808321010387, -2.8455560433265554, -0.005683334544301033, -1.3219151496887207, 1.0660243034362793, -0.53708815574646, 0.6430550217628479, 0.5459085702896118, 0.060373127460479736, -0.02759188413619995, -0.04992192983627319, -0.8791781910394634, 5.551115123125783e-17, 0.36571370124643526,-0.3054489751051157,-0.4784088134765625,0.60906982421875,0.4986572265625
20220117-1511,2022-01-17 15:11:16Z,u01, 2,40,movements,el-ex, rt, d,188750.45009254167, -2.411880125775145, -0.7179248398809273, -2.868522362078593, 0.18921366333961487, -1.286185622215271, 1.020947813987732, -0.5021063089370728, 0.6578231453895569, 0.5613889694213867, 0.07345646619796753, 0.10885465145111084, 0.08250123262405396, -0.8835542492955646, 0.005136248370897933, 0.37059534179707676,-0.2862943762038408,-0.4406280517578125,0.7535247802734375,0.624664306640625
20220117-1511,2022-01-17 15:11:16Z,u01, 3,40,movements,el-ex, rt, d,188750.47503854168, -2.457293705696495, -0.7384884091162279, -2.888820762521855, 0.167277529835701, -1.2719998359680176, 0.9671099781990051, -0.46745166182518005, 0.6731708645820618, 0.573000431060791, 0.07186764478683472, 0.05360513925552368, 0.030103027820587158, -0.8867988183206543, 0.00938422934179367, 0.3767198410486954,-0.2675477882479147,-0.3965911865234375,0.7271881103515625,0.606719970703125
20220117-1511,2022-01-17 15:11:16Z,u01, 4,40,movements,el-ex, rt, d,188750.49998454168, -2.5053566056963708, -0.7549920375969947, -2.9127114685032964, 0.07932742685079575, -0.9867873191833496, 0.7724674940109253, -0.43272194266319275, 0.6852828860282898, 0.5857807993888855, 0.12177824974060059, -0.02529442310333252, -0.07770901918411255, -0.8903383900255468, 0.013709738820969097, 0.3810117626961572,-0.2488767719770556,-0.3508758544921875,0.6795196533203125,0.51287841796875
20220117-1511,2022-01-17 15:11:16Z,u01, 5,40,movements,el-ex, rt, d,188750.52493054167, -2.5543276632417085, -0.7728412329276592, -2.9365918105672155, 0.2905605733394623, -1.3196288347244263, 1.0010818243026733, -0.3966868221759796, 0.6981721520423889, 0.5959822535514832, 0.21554973721504211, -0.019888579845428467, -0.056981027126312256, -0.8931263881386304, 0.017787224295929382, 0.38628251235430744,-0.22977074022448526,-0.044677734375,0.647857666015625,0.496551513671875
20220117-1511,2022-01-17 15:11:16Z,u01, 6,40,movements,el-ex, rt, d,188750.54987654169, -2.6010710150790546, -0.7937205815384192, -2.958381796827983, 0.39587944746017456, -1.2350956201553345, 0.9713183641433716, -0.3608244061470032, 0.712967038154602, 0.6012347936630249, 0.056991398334503174, 0.0588376522064209, 0.0793222188949585, -0.894514933655717, 0.02145751726995465, 0.3934571598503377,-0.21112538468299524,-0.329559326171875,0.7910919189453125,0.700897216796875
20220117-1511,2022-01-17 15:11:16Z,u01, 7,40,movements,el-ex, rt, d,188750.57482354168, -2.650370318557135, -0.8109636765865191, -2.9843903412183663, 0.1035781055688858, -1.2302626371383667, 0.996312141418457, -0.3249097168445587, 0.7249512672424316, 0.6073541045188904, 0.06683781743049622, -0.0004183053970336914, -0.03872019052505493, -0.896113953630455, 0.02562905837612678, 0.3989860259130741,-0.1926992606847736,-0.261199951171875,0.726898193359375,0.579010009765625
20220117-1511,2022-01-17 15:11:16Z,u01, 8,40,movements,el-ex, rt, d,188750.59976954167, -2.7039275059481627, -0.8244648999654587, -3.0157752742249517, 0.17626966536045074, -1.2188085317611694, 1.0240389108657837, -0.28775644302368164, 0.7341845631599426, 0.61495441198349, 0.02323007583618164, -0.05904430150985718, -0.02883392572402954, -0.8980768985363612, 0.030579340786321796, 0.4028316837537196,-0.17392335179436838,-0.255218505859375,0.6850128173828125,0.572418212890625
20220117-1511,2022-01-17 15:11:16Z,u01, 9,40,movements,el-ex, rt, d,188750.62471554166, -2.7556663998613744, -0.8419416113252304, -3.045983557888557, 0.47750401496887207, -1.1848353147506714, 1.0322827100753784, -0.25069984793663025, 0.7459376454353333, 0.617030143737793, 0.03184303641319275, 0.0792880654335022, 0.048542797565460205, -0.8984747577002002, 0.0354710053471734, 0.4089679991676093,-0.15565982573870502,-0.226318359375,0.8177947998046875,0.6688079833984375
20220117-1511,2022-01-17 15:11:16Z,u01, 10,40,movements,el-ex, rt, d,188750.64966154168, -2.8057575042977008, -0.8658169997774906, -3.073441890380027, 0.7092467546463013, -1.1704213619232178, 1.0005645751953125, -0.2135593295097351, 0.7616249322891235, 0.6118165850639343, 0.06765475869178772, 0.07332068681716919, -0.025116443634033203, -0.8968509456024873, 0.03958134306203842, 0.4185408495781948,-0.13753240939025038,-0.152587890625,0.86968994140625,0.590484619140625
20220117-1511,2022-01-17 15:11:16Z,u01, 11,40,movements,el-ex, rt, d,188750.67460754167, -2.8581890155917202, -0.8886409388358619, -3.105278254838374, 0.4987308382987976, -1.063871145248413, 1.1012743711471558, -0.17629453539848328, 0.7762156128883362, 0.6053175926208496, 0.04049128293991089, -0.13125717639923096, 0.04644620418548584, -0.894808069293879, 0.04446711670369674, 0.4277811984234192,-0.11976810069115545,-0.13623046875,0.6541595458984375,0.64776611328125
20220117-1511,2022-01-17 15:11:16Z,u01, 12,40,movements,el-ex, rt, d,188750.69955354166, -2.916489397552102, -0.9027150784103677, 3.1369930037691076, 0.17717111110687256, -1.1053202152252197, 1.1483312845230103, -0.1382724642753601, 0.7850117683410645, 0.6038519740104675, 0.07793916761875153, -0.008888602256774902, 0.00894087553024292, -0.894047121037393, 0.051046313475622884, 0.43319408747343063,-0.10206306716855781,-0.0884552001953125,0.7352447509765625,0.6461181640625
20220117-1511,2022-01-17 15:11:16Z,u01, 13,40,movements,el-ex, rt, d,188750.72449954168, -2.9801209541372944, -0.912180130605138, 3.092953491778923, 0.1976495087146759, -1.189676284790039, 1.1123368740081787, -0.09839553385972977, 0.7908399105072021, 0.6040618419647217, 0.05828012526035309, 0.0602191686630249, 0.009600818157196045, -0.8937286936319139, 0.05727067995370155, 0.43711603333286,-0.08305842897978605,-0.0402069091796875,0.8530426025390625,0.6153106689453125
20220117-1511,2022-01-17 15:11:17Z,u01, 14,40,movements,el-ex, rt, d,188750.74944554167, -3.0435960738698355, -0.9212099465772394, 3.0499364760762138, 0.2705478072166443, -1.185317039489746, 1.0562679767608643, -0.05917905643582344, 0.7963340282440186, 0.6019546389579773, 0.06970758736133575, 0.036902427673339844, -0.03080308437347412, -0.8927718091013672, 0.06273610146328118, 0.44148061745419553,-0.06416678969900719,-0.0098724365234375,0.844146728515625,0.60882568359375
20220117-1511,2022-01-17 15:11:17Z,u01, 15,40,movements,el-ex, rt, d,188750.77439154166, -3.1076960898882127, -0.9324879632493738, 3.006895496970767, 0.4666164517402649, -1.197412371635437, 1.0622365474700928, -0.02019297517836094, 0.803104817867279, 0.5954952239990234, 0.05740910768508911, -0.013935565948486328, -0.015508890151977539, -0.8905971902354921, 0.06770707713808694, 0.4474320637035064,-0.045352495469941745,0.0379486083984375,0.7903900146484375,0.5745697021484375
20220117-1511,2022-01-17 15:11:17Z,u01, 16,40,movements,el-ex, rt, d,188750.79933754168, 3.1095278121046603, -0.9426375266164269, 2.9617411186657994, 0.23080676794052124, -1.1789345741271973, 1.0649887323379517, 0.018839862197637558, 0.8091108798980713, 0.5873537659645081, 0.043751657009124756, 0.04788374900817871, 0.09829974174499512, -0.8879098370382656, 0.0727529628496364, 0.45345163930957527,-0.026545509831795627,0.04412841796875,0.8296661376953125,0.6451568603515625
20220117-1511,2022-01-17 15:11:17Z,u01, 17,40,movements,el-ex, rt, d,188750.82428354167, 3.043111785666542, -0.941502789511786, 2.9159563125521477, -0.1895822286605835, -1.1679697036743164, 1.0911407470703125, 0.05786960572004318, 0.8084434866905212, 0.5857219099998474, 0.06258323788642883, -0.0019707679748535156, 0.07469367980957031, -0.8870018890516662, 0.07802956113834325, 0.4550649474398553,-0.007411161790831511,0.1194610595703125,0.8118438720703125,0.6630706787109375
20220117-1511,2022-01-17 15:11:17Z,u01, 18,40,movements,el-ex, rt, d,188750.84922954167, 2.9797415649931778, -0.9284755569938014, 2.8735161086237295, -0.43965423107147217, -1.1808984279632568, 1.059457778930664, 0.09653488546609879, 0.8007076382637024, 0.5912253856658936, 0.056831128895282745, 0.009564340114593506, -0.03312027454376221, -0.8880793869440389, 0.08323285837608219, 0.4519327207514593,0.011994188700781672,0.1415557861328125,0.785797119140625,0.5759124755859375
20220117-1511,2022-01-17 15:11:17Z,u01, 19,40,movements,el-ex, rt, d,188750.87417554168, 2.9162981862905433, -0.9189699883277772, 2.83187324242913, 0.09927333891391754, -1.2375086545944214, 1.0689635276794434, 0.13551925122737885, 0.7949771881103516, 0.5913087129592896, 0.023248419165611267, 0.05063450336456299, -0.053314387798309326, -0.8876320223662431, 0.08811216878064188, 0.45094210938070595,0.03157405406487385,0.1598358154296875,0.845916748046875,0.538848876953125
20220117-1511,2022-01-17 15:11:17Z,u01, 20,40,movements,el-ex, rt, d,188750.89912154168, 2.8503464387510684, -0.9170280968045581, 2.787952484296179, 0.10216853022575378, -1.2419828176498413, 1.0139317512512207, 0.17463697493076324, 0.7937976717948914, 0.5825689435005188, 0.035735875368118286, 0.10094708204269409, 0.07600009441375732, -0.8846841072789056, 0.09283594163840969, 0.45399144579737355,0.05105976918838498,0.184661865234375,0.8697357177734375,0.6260528564453125
20220117-1511,2022-01-17 15:11:17Z,u01, 21,40,movements,el-ex, rt, d,188750.92406754167, 2.7912327078350003, -0.9034173918914251, 2.7525258292535413, -0.6083322763442993, -1.2428888082504272, 1.0003553628921509, 0.21243883669376373, 0.7854466438293457, 0.5813290476799011, 0.08431407809257507, 0.016463875770568848, 0.08026152849197388, -0.8839285153729256, 0.09661737509946855, 0.4520273202734657,0.0707588046468903,0.293365478515625,0.812225341796875,0.664764404296875
20220117-1511,2022-01-17 15:11:17Z,u01, 22,40,movements,el-ex, rt, d,188750.94901454166, 2.742267057882066, -0.8749983487445896, 2.728348354793455, -1.045037031173706, -1.1790779829025269, 0.9455201625823975, 0.2492181360721588, 0.7675424218177795, 0.5905663967132568, 0.0703008621931076, -0.019816040992736816, 0.026758313179016113, -0.8861737320142512, 0.09989656566566224, 0.4432835883216877,0.0906442563929517,0.312774658203125,0.693450927734375,0.6197662353515625
20220117-1511,2022-01-17 15:11:17Z,u01, 23,40,movements,el-ex, rt, d,188750.97396054168, 2.697575521109194, -0.846333336405632, 2.709643793744911, -0.48333096504211426, -1.2823456525802612, 0.8851832151412964, 0.2846907377243042, 0.7488554120063782, 0.5984703898429871, 0.05455788969993591, 0.12509173154830933, -0.04730767011642456, -0.8881293725069958, 0.1022809953215621, 0.4342895338057773,0.11026074829711327,0.3404388427734375,0.8714599609375,0.5568084716796875
20220117-1511,2022-01-17 15:11:17Z,u01, 24,40,movements,el-ex, rt, d,188750.99890654167, 2.6434079049017596, -0.8338218488122594, 2.6808971775103525, 0.1483626663684845, -1.3202736377716064, 0.9192686080932617, 0.3211269676685333, 0.7405052781105042, 0.5903635621070862, 0.002908557653427124, 0.04860299825668335, -0.04843264818191528, -0.8855113217242913, 0.10512605586429619, 0.4335389744104456,0.12985406720585713,0.3227996826171875,0.797332763671875,0.5113372802734375
20220117-1511,2022-01-17 15:11:17Z,u01, 25,40,movements,el-ex, rt, d,188751.02385254166, 2.5878792164610287, -0.8256216493676852, 2.6490311416165873, 0.08458910137414932, -1.2493757009506226, 0.9035289883613586, 0.3565785586833954, 0.734969437122345, 0.5767768621444702, 0.04713839292526245, 0.06288206577301025, 0.061254024505615234, -0.8812624702578562, 0.10846600949301483, 0.43530425128814065,0.14873385202831346,0.39739990234375,0.8006744384765625,0.635467529296875
20220117-1511,2022-01-17 15:11:17Z,u01, 26,40,movements,el-ex, rt, d,188751.04879854168, 2.539539934947366, -0.8119226377651371, 2.624287299467624, -0.3057190179824829, -1.1752824783325195, 0.8433735370635986, 0.38969796895980835, 0.7256115078926086, 0.5671183466911316, 0.12411117553710938, -0.016413509845733643, 0.030568361282348633, -0.8781727326875266, 0.11122875979853514, 0.43427341465794556,0.16687523996236164,0.498443603515625,0.7069091796875,0.6141815185546875
20220117-1511,2022-01-17 15:11:17Z,u01, 27,40,movements,el-ex, rt, d,188751.07374454167, 2.4981046141450283, -0.7932316449951826, 2.607588551358658, -0.19076330959796906, -1.1894810199737549, 0.80296790599823, 0.4209202527999878, 0.7126241326332092, 0.5612422823905945, 0.09967905282974243, 0.08853858709335327, -0.020547151565551758, -0.8762660158546429, 0.11304430052746145, 0.4304462890396477,0.18464784125239514,0.5214691162109375,0.7989044189453125,0.5446929931640625
20220117-1511,2022-01-17 15:11:17Z,u01, 28,40,movements,el-ex, rt, d,188751.09869054166, 2.4510368059801504, -0.7818524269930984, 2.5827886588681124, 0.30015823245048523, -1.166182279586792, 0.8371469974517822, 0.45199713110923767, 0.704595148563385, 0.5470325350761414, 0.0026842355728149414, 0.011591494083404541, 0.005350887775421143, -0.8718196347209288, 0.11596031494321768, 0.4309499502086457,0.2019058379680559,0.4647369384765625,0.7268829345703125,0.547027587890625
20220117-1511,2022-01-17 15:11:17Z,u01, 29,40,movements,el-ex, rt, d,188751.12363654168, 2.4009974031122185, -0.7749287743198895, 2.553100266184619, 0.33177822828292847, -1.1902068853378296, 0.8224402070045471, 0.48207300901412964, 0.6996651887893677, 0.5273273587226868, 0.020581960678100586, 0.08379733562469482, 0.022782325744628906, -0.8656751982766673, 0.11945767197487739, 0.43426847026306764,0.21851128893506566,0.4978790283203125,0.7830352783203125,0.550750732421875
20220117-1511,2022-01-17 15:11:17Z,u01, 30,40,movements,el-ex, rt, d,188751.14858254167, 2.355540894498304, -0.7618545556362091, 2.530226993240874, -0.2603492736816406, -1.1582818031311035, 0.835838258266449, 0.5119662284851074, 0.6902645230293274, 0.5112974643707275, 0.05208998918533325, -0.05665862560272217, 0.06568294763565063, -0.8606363392922481, 0.12228579481246388, 0.43450938134780753,0.2356962984613735,0.5560760498046875,0.662384033203125,0.5773773193359375
20220117-1511,2022-01-17 15:11:17Z,u01, 31,40,movements,el-ex, rt, d,188751.17352854167, 2.323343072214642, -0.7378027463983059, 2.524377436377577, -0.6926308274269104, -1.134727120399475, 0.7814708948135376, 0.5401254892349243, 0.672663688659668, 0.5057544708251953, 0.05493664741516113, 0.010334968566894531, 0.06509178876876831, -0.8588870440259775, 0.12324889654170279, 0.4278997656215227,0.253030448504728,0.5933074951171875,0.6741180419921875,0.5712432861328125
20220117-1511,2022-01-17 15:11:17Z,u01, 32,40,movements,el-ex, rt, d,188751.19847454168, 2.2917619277659202, -0.7156689033710848, 2.520303639749698, -0.2849583029747009, -1.1882622241973877, 0.7061573266983032, 0.5668727159500122, 0.6561223268508911, 0.4981551170349121, 0.03731417655944824, 0.08592772483825684, -0.026734977960586548, -0.8566542572150744, 0.1233735858563555, 0.4218569360400505,0.2701093816971344,0.6038360595703125,0.7538604736328125,0.486602783203125
20220117-1511,2022-01-17 15:11:17Z,u01, 33,40,movements,el-ex, rt, d,188751.22342054168, 2.2534641332847483, -0.7005589153424439, 2.5075340394310124, 0.06783641874790192, -1.2257969379425049, 0.7191486358642578, 0.5931556820869446, 0.644645094871521, 0.4822849631309509, 0.01360994577407837, 0.04058128595352173, -0.02520802617073059, -0.851870234598566, 0.12433657074888238, 0.42023288605861053,0.28681306477223056,0.6057586669921875,0.6885986328125,0.4580535888671875
20220117-1511,2022-01-17 15:11:17Z,u01, 34,40,movements,el-ex, rt, d,188751.24836654167, 2.21035057530116, -0.6880566337525561, 2.4888452231993967, 0.19625981152057648, -1.2648612260818481, 0.7775869965553284, 0.6198095679283142, 0.6350371837615967, 0.4610460698604584, 0.03373950719833374, 0.0030395984649658203, -0.018739759922027588, -0.8453300775307274, 0.12625410650344038, 0.42097886457061107,0.3037327928612882,0.6417388916015625,0.6452484130859375,0.4424896240234375
20220117-1511,2022-01-17 15:11:17Z,u01, 35,40,movements,el-ex, rt, d,188751.27331254169, 2.1655200926352824, -0.6744766575838297, 2.4686982282203784, 0.16996994614601135, -1.303923487663269, 0.836753785610199, 0.6469327807426453, 0.6244886517524719, 0.43759751319885254, 0.050271689891815186, -0.0200117826461792, -0.014746099710464478, -0.8379916715986068, 0.12871954879407033, 0.4219464588006025,0.3211889077339466,0.6955718994140625,0.6072845458984375,0.423919677734375
20220117-1511,2022-01-17 15:11:17Z,u01, 36,40,movements,el-ex, rt, d,188751.29825954168, 2.1212854781836885, -0.6585948152499966, 2.4505446262673494, 0.10708066076040268, -1.3415231704711914, 0.8482081294059753, 0.6740191578865051, 0.6120061874389648, 0.4136984348297119, 0.07338672876358032, 0.0031672120094299316, -0.020830512046813965, -0.8304578152102065, 0.1311069552392714, 0.42202345801449465,0.33918565063408634,0.7361297607421875,0.6104278564453125,0.4058685302734375
20220117-1511,2022-01-17 15:11:17Z,u01, 37,40,movements,el-ex, rt, d,188751.32320554167, 2.0771521104412796, -0.6415429113997803, 2.433819700210405, 0.1404062658548355, -1.3693420886993408, 0.8787325024604797, 0.7006403207778931, 0.5984323024749756, 0.38856393098831177, 0.07679492235183716, 0.0052054524421691895, -0.01714986562728882, -0.822504450949501, 0.1332981172233345, 0.4217359053187755,0.3575707885448948,0.7758331298828125,0.60723876953125,0.3715362548828125
20220117-1511,2022-01-17 15:11:17Z,u01, 38,40,movements,el-ex, rt, d,188751.34815154166, 2.0332195096705497, -0.6236653941195925, 2.4176171354149734, 0.06393149495124817, -1.3765383958816528, 0.8815891146659851, 0.7264891266822815, 0.5840144157409668, 0.36213332414627075, 0.08033454418182373, -0.009673595428466797, -0.006924152374267578, -0.8140486854747921, 0.1356148809192767, 0.42135296915410425,0.37602519943310575,0.7953338623046875,0.573699951171875,0.3710479736328125
20220117-1511,2022-01-17 15:11:17Z,u01, 39,40,movements,el-ex, rt, d,188751.37309754168, 1.9920818271355332, -0.6036349075599796, 2.4057923845554816, -0.052758701145648956, -1.359823226928711, 0.8941777348518372, 0.7512935400009155, 0.5676387548446655, 0.3366661071777344, 0.0740695595741272, 0.0032840967178344727, 0.005039095878601074, -0.8058804300463434, 0.13744013427510693, 0.4194816034962353,0.3945909807987806,0.8242950439453125,0.57244873046875,0.3418121337890625
20220117-1511,2022-01-17 15:11:17Z,u01, 40,40,movements,el-ex, rt, d,188751.39804354167, 1.9544196077711595, -0.5821359239053041, 2.3977466463886246, -0.14003102481365204, -1.2953097820281982, 0.8921247124671936, 0.7745765447616577, 0.5498092770576477, 0.3126347064971924, 0.07930505275726318, 0.01607811450958252, 0.03712710738182068, -0.798115208878062, 0.13903043433686463, 0.41633889967684945,0.41272801308723894,0.84539794921875,0.556396484375,0.351898193359375
20220117-1511,2022-01-17 15:11:17Z,u01, 41,40,movements,el-ex, rt, d,188751.42298954166, 1.9192188969147341, -0.5608185497654907, 2.390987818748877, -0.01951935514807701, -1.2269359827041626, 0.8588671684265137, 0.7959364652633667, 0.5318795442581177, 0.2891174852848053, 0.07521814107894897, 0.04201871156692505, 0.04752179980278015, -0.7904164008134498, 0.14071479023806804, 0.41300064070613707,0.4299669542706277,0.870513916015625,0.5751800537109375,0.3375244140625
20220117-1511,2022-01-17 15:11:17Z,u01, 42,40,movements,el-ex, rt, d,188751.4479359167, 1.8851594752255647, -0.5414067640201945, 2.3829962998762384, -0.021793529391288757, -1.1442564725875854, 0.7887161374092102, 0.8149866461753845, 0.5153420567512512, 0.2649889290332794, 0.05972331762313843, 0.05091160535812378, 0.023981928825378418, -0.7823919629747874, 0.14267894839225703, 0.41066046039071447,0.44594108886452055,0.874786376953125,0.5708160400390625,0.302642822265625
20220117-1511,2022-01-17 15:11:17Z,u01, 43,40,movements,el-ex, rt, d,188751.47288191668, 1.8551109815163422, -0.5228089619438266, 2.378014163944234, -0.10119621455669403, -1.0392788648605347, 0.7289947271347046, 0.8316367864608765, 0.49931585788726807, 0.24303051829338074, 0.03468090295791626, 0.042081236839294434, 0.052577972412109375, -0.7750721073430609, 0.14414746255958316, 0.4077809057695383,0.46065107269068817,0.8666839599609375,0.542266845703125,0.2931060791015625
20220117-1511,2022-01-17 15:11:17Z,u01, 44,40,movements,el-ex, rt, d,188751.49782791667, 1.8293676474861698, -0.5050872321152485, 2.376509075897796, -0.15638431906700134, -0.958812415599823, 0.6470248699188232, 0.8460396528244019, 0.4838837683200836, 0.22377100586891174, 0.018157124519348145, 0.07803648710250854, 0.11032012104988098, -0.7686779457535772, 0.14498179098621972, 0.40416967978360957,0.4740900758814316,0.8646240234375,0.5572662353515625,0.3401336669921875
20220117-1511,2022-01-17 15:11:17Z,u01, 45,40,movements,el-ex, rt, d,188751.5227739167, 1.8063369562434022, -0.48945137924764864, 2.3769590162456975, -0.16430966556072235, -0.8974090814590454, 0.572283923625946, 0.8582211136817932, 0.470141738653183, 0.20596911013126373, 0.0073490142822265625, 0.10857841372489929, 0.0889069139957428, -0.7628508065585794, 0.14506276377573474, 0.4006271251118724,0.48632638768237274,0.8635711669921875,0.5801239013671875,0.295867919921875
20220117-1511,2022-01-17 15:11:17Z,u01, 46,40,movements,el-ex, rt, d,188751.54771991668, 1.7856007001713348, -0.47498263267845925, 2.3783819182996524, -0.19971349835395813, -0.7991251349449158, 0.5333684086799622, 0.8688628077507019, 0.45732301473617554, 0.18956004083156586, 0.00944828987121582, 0.07320988178253174, 0.0981137752532959, -0.7574752595539485, 0.14495257245551002, 0.3970835840400813,0.4975385288097335,0.87823486328125,0.5369720458984375,0.2809295654296875
20220117-1511,2022-01-17 15:11:17Z,u01, 47,40,movements,el-ex, rt, d,188751.57266591667, 1.768374818621657, -0.4618164755879394, 2.3813380379980242, -0.1886070817708969, -0.6858493089675903, 0.4469591975212097, 0.8778272271156311, 0.4455750286579132, 0.17573246359825134, -0.00722193717956543, 0.1075407862663269, 0.11838065087795258, -0.7529613672326314, 0.14462160413103986, 0.39333231258645796,0.5073690112537445,0.8719482421875,0.5518798828125,0.2956695556640625
20220117-1511,2022-01-17 15:11:17Z,u01, 48,40,movements,el-ex, rt, d,188751.59761291667, 1.7532458061003031, -0.45155565652501506, 2.3832122860755214, -0.12654080986976624, -0.5777513980865479, 0.33617082238197327, 0.8848351240158081, 0.4363657832145691, 0.16325318813323975, -0.02044004201889038, 0.1202290952205658, 0.1189122200012207, -0.7488800330350438, 0.1442403894688732, 0.3906411757741418,0.5155316071704125,0.86151123046875,0.563629150390625,0.27886962890625
20220117-1511,2022-01-17 15:11:17Z,u01, 49,40,movements,el-ex, rt, d,188751.6225589167, 1.7416240145724522, -0.44364293694672696, 2.38645545680357, -0.2303795963525772, -0.4693191945552826, 0.25455984473228455, 0.8900473713874817, 0.4292325973510742, 0.1535412073135376, -0.02131885290145874, 0.09289270639419556, 0.14827752113342285, -0.7458090419865256, 0.14331599809487444, 0.3880950004685485,0.5221222273379993,0.8697509765625,0.5248870849609375,0.302642822265625
20220117-1511,2022-01-17 15:11:17Z,u01, 50,40,movements,el-ex, rt, d,188751.64750491668, 1.7342301379713367, -0.43696966294458345, 2.393941224121727, -0.36433133482933044, -0.37593212723731995, 0.1798175722360611, 0.8939647078514099, 0.42319580912590027, 0.14741896092891693, -0.028211593627929688, 0.09166628122329712, 0.13093185424804688, -0.7441473707165258, 0.14125922368053495, 0.38451588324856323,0.527672289526641,0.8653564453125,0.5162811279296875,0.2826690673828125
20220117-1511,2022-01-17 15:11:17Z,u01, 51,40,movements,el-ex, rt, d,188751.67245091667, 1.7299405754157806, -0.4320207161088982, 2.402846343554147, -0.34306737780570984, -0.2673059105873108, 0.09744852781295776, 0.8966456651687622, 0.4187067151069641, 0.14391301572322845, -0.03182345628738403, 0.07963007688522339, 0.14232657849788666, -0.7434445175570752, 0.13873267226378855, 0.38086747138126326,0.5319617679476436,0.864410400390625,0.498077392578125,0.2866668701171875
20220117-1511,2022-01-17 15:11:17Z,u01, 52,40,movements,el-ex, rt, d,188751.6973969167, 1.728048391852202, -0.4294866676558735, 2.4110957948833316, -0.25269970297813416, -0.15855233371257782, 0.01753418892621994, 0.897961437702179, 0.4164041578769684, 0.14238184690475464, -0.013623237609863281, 0.1146475076675415, 0.1254556030035019, -0.7434105705380241, 0.13613099546549984, 0.37798187271340333,0.5347323465538018,0.884613037109375,0.5284881591796875,0.268951416015625
20220117-1511,2022-01-17 15:11:17Z,u01, 53,40,movements,el-ex, rt, d,188751.72234291668, 1.7279513505404898, -0.4290798317945362, 2.4165417336905133, -0.14915327727794647, -0.0211996641010046, -0.045719213783741, 0.898142397403717, 0.4160342216491699, 0.14232118427753448, -0.03473931550979614, 0.08904692530632019, 0.1206943690776825, -0.7437375290032457, 0.1342202765303937, 0.37639955269765013,0.5358755231355512,0.8639678955078125,0.5059051513671875,0.26251220703125
20220117-1511,2022-01-17 15:11:17Z,u01, 54,40,movements,el-ex, rt, d,188751.74728891667, 1.7305434194839258, -0.43066376431280295, 2.420542700189689, -0.11103885620832443, 0.09375955164432526, -0.12313077598810196, 0.8971187472343445, 0.41747406125068665, 0.14454375207424164, -0.034661710262298584, 0.09715905785560608, 0.10978958010673523, -0.7447560755209335, 0.13270367258727106, 0.3756669737965047,0.5353524505645515,0.8605804443359375,0.5114593505859375,0.2650299072265625
20220117-1511,2022-01-17 15:11:18Z,u01, 55,40,movements,el-ex, rt, d,188751.7722349167, 1.7357979553340581, -0.4342622854314829, 2.4236230473782316, -0.08797647804021835, 0.2260197103023529, -0.20501567423343658, 0.8948593735694885, 0.4207412898540497, 0.14900799095630646, -0.035255610942840576, 0.08462980389595032, 0.13630078732967377, -0.7464883940437034, 0.1313737952593882, 0.375662795243802,0.533266766235893,0.859283447265625,0.5071563720703125,0.282623291015625
20220117-1511,2022-01-17 15:11:18Z,u01, 56,40,movements,el-ex, rt, d,188751.79718091668, 1.74542752736997, -0.44007639731957326, 2.4278361804823168, -0.11724591255187988, 0.39471346139907837, -0.29552897810935974, 0.890958845615387, 0.42600858211517334, 0.15719036757946014, -0.021131694316864014, 0.10421904921531677, 0.1381434053182602, -0.7495109220883395, 0.12972493458280154, 0.3758047732983867,0.5293160499056436,0.8654937744140625,0.5255279541015625,0.308380126953125
20220117-1511,2022-01-17 15:11:18Z,u01, 57,40,movements,el-ex, rt, d,188751.82212691667, 1.7594072951477089, -0.44802610177920765, 2.432449420649999, -0.08318477869033813, 0.5617886185646057, -0.3952481746673584, 0.8853196501731873, 0.4331873059272766, 0.1689896583557129, -0.018193423748016357, 0.08378040790557861, 0.11519001424312592, -0.7537212222321104, 0.12805915286902242, 0.3762871167363405,0.5233670187189142,0.8680572509765625,0.5170135498046875,0.2825164794921875
20220117-1511,2022-01-17 15:11:18Z,u01, 58,40,movements,el-ex, rt, d,188751.8470729167, 1.7766158569065553, -0.45865488489694217, 2.4362241886326284, 0.002610648050904274, 0.6830441951751709, -0.4685560166835785, 0.8777238726615906, 0.44274240732192993, 0.1832476109266281, -0.008903861045837402, 0.10497182607650757, 0.10460935533046722, -0.7587013521779066, 0.1264755393208885, 0.3777061215767902,0.515474688134763,0.866790771484375,0.543853759765625,0.28643798828125
20220117-1511,2022-01-17 15:11:18Z,u01, 59,40,movements,el-ex, rt, d,188751.87201891668, 1.7955722817971949, -0.47059184943354, 2.437956256695406, 0.05838599428534508, 0.7756648659706116, -0.4785650372505188, 0.8688783645629883, 0.45341387391090393, 0.1986600011587143, -0.0009586811065673828, 0.0874338448047638, 0.10137340426445007, -0.7639042780628604, 0.12561947940347973, 0.38001839482221617,0.5062171706318688,0.8674774169921875,0.541015625,0.2994384765625
20220117-1511,2022-01-17 15:11:18Z,u01, 60,40,movements,el-ex, rt, d,188751.89696491667, 1.8161213205799658, -0.48276511952263906, 2.4384404265456467, 0.15922459959983826, 0.8425658345222473, -0.4903615415096283, 0.8591951131820679, 0.4642300605773926, 0.21511496603488922, 0.0021788477897644043, 0.05389750003814697, 0.1338076889514923, -0.7692860713739538, 0.1255245866593997, 0.3826599432952621,0.4959979481880099,0.863555908203125,0.5305633544921875,0.3396148681640625
20220117-1511,2022-01-17 15:11:18Z,u01, 61,40,movements,el-ex, rt, d,188751.9219109167, 1.8366592466504017, -0.4967455357580062, 2.4375169972064654, 0.16930975019931793, 0.8336672186851501, -0.5563790798187256, 0.8482504487037659, 0.47656694054603577, 0.23098643124103546, 0.02943485975265503, 0.06833964586257935, 0.07524213194847107, -0.7744346939064101, 0.12547558631865408, 0.3862793954436198,0.48507199951255775,0.8757476806640625,0.5431365966796875,0.30792236328125
20220117-1511,2022-01-17 15:11:18Z,u01, 62,40,movements,el-ex, rt, d,188751.9468579167, 1.858204688351058, -0.5113495176497277, 2.4384989797411953, 0.02020248956978321, 0.8715391159057617, -0.5970401167869568, 0.8363134264945984, 0.48935458064079285, 0.24720799922943115, 0.02867668867111206, -0.002934873104095459, 0.0515284538269043, -0.7797667993225453, 0.1247707542860439, 0.38961417292398437,0.4739163746801832,0.8701324462890625,0.4883575439453125,0.282257080078125
20220117-1511,2022-01-17 15:11:18Z,u01, 63,40,movements,el-ex, rt, d,188751.97180391668, 1.88494736688306, -0.5254516150538724, 2.446062972709818, -0.1285475790500641, 0.9663375616073608, -0.6440086960792542, 0.822758674621582, 0.5016037225723267, 0.26732301712036133, 0.03579217195510864, 0.043775856494903564, 0.08329340815544128, -0.7865104191015093, 0.12273086618132262, 0.3909772421841804,0.4620337404977696,0.858001708984375,0.54229736328125,0.3481292724609375
20220117-1511,2022-01-17 15:11:18Z,u01, 64,40,movements,el-ex, rt, d,188751.99674991667, 1.914956709862046, -0.5408861092825651, 2.4553989054692607, -0.07273893803358078, 1.0543115139007568, -0.7499895095825195, 0.8069826364517212, 0.5148957967758179, 0.28924256563186646, 0.03959012031555176, 0.07033979892730713, 0.06691265106201172, -0.7938217845262912, 0.12028407054606882, 0.3923254488696573,0.4488423199038533,0.8491058349609375,0.5684661865234375,0.3572235107421875
20220117-1511,2022-01-17 15:11:18Z,u01, 65,40,movements,el-ex, rt, d,188752.0216959167, 1.946714304349109, -0.5590434054813788, 2.463785764272588, 0.05720951035618782, 1.1482937335968018, -0.7995806932449341, 0.7885645031929016, 0.5303754806518555, 0.31123629212379456, 0.061746835708618164, 0.06303894519805908, 0.014935523271560669, -0.8010837779660516, 0.11782582053434748, 0.39488569132368445,0.43410505042253544,0.851043701171875,0.593719482421875,0.325927734375
20220117-1511,2022-01-17 15:11:18Z,u01, 66,40,movements,el-ex, rt, d,188752.04664191668, 1.9808868755689237, -0.5782610768047111, 2.4717158292326777, 0.037802256643772125, 1.25863516330719, -0.8207467198371887, 0.7679799199104309, 0.5465685725212097, 0.33387070894241333, 0.05115771293640137, 0.05491769313812256, 0.05150511860847473, -0.8084047756446093, 0.11583210591017828, 0.397943640768925,0.41797787349233523,0.824249267578125,0.6012115478515625,0.3668670654296875
20220117-1511,2022-01-17 15:11:18Z,u01, 67,40,movements,el-ex, rt, d,188752.07158791667, 2.0183629410581245, -0.5983780090612244, 2.480558912291908, 0.0900452584028244, 1.34543776512146, -0.9024001955986023, 0.7448667883872986, 0.5633030533790588, 0.3575788140296936, 0.06551200151443481, 0.06514537334442139, 0.06775978207588196, -0.8159604938398018, 0.11400821755990392, 0.4011214405541739,0.40038979231230143,0.8108978271484375,0.6264495849609375,0.4241790771484375
20220117-1511,2022-01-17 15:11:18Z,u01, 68,40,movements,el-ex, rt, d,188752.0965339167, 2.0590990088718626, -0.6204292749212027, 2.492144813834807, 0.00044483132660388947, 1.3870854377746582, -1.019716739654541, 0.7185403108596802, 0.5813844799995422, 0.3816957175731659, 0.08802390098571777, 0.09674662351608276, 0.05832183361053467, -0.8236816798402709, 0.1113389210720479, 0.4044864867083205,0.38150061213990505,0.8090972900390625,0.6742095947265625,0.441619873046875
20220117-1511,2022-01-17 15:11:18Z,u01, 69,40,movements,el-ex, rt, d,188752.12147991668, 2.104919826998119, -0.6420377721953222, 2.5097424376171253, -0.14600658416748047, 1.454177975654602, -1.0506317615509033, 0.6893270611763, 0.5988286733627319, 0.40771594643592834, 0.10464870929718018, 0.049364686012268066, 0.04579043388366699, -0.8320457778458867, 0.10750721546479469, 0.40658806947797727,0.3617016959919387,0.7955780029296875,0.650299072265625,0.4514312744140625
20220117-1511,2022-01-17 15:11:18Z,u01, 70,40,movements,el-ex, rt, d,188752.14642591667, 2.157074849276994, -0.661801077102092, 2.53335975646518, -0.23223155736923218, 1.5810626745224, -1.0890902280807495, 0.657146692276001, 0.6145386695861816, 0.4364631474018097, 0.09073221683502197, 0.08449697494506836, 0.0826406478881836, -0.8411939247794791, 0.10307454526840165, 0.40702840762159254,0.34072890421160246,0.7536163330078125,0.681488037109375,0.496429443359375
20220117-1511,2022-01-17 15:11:18Z,u01, 71,40,movements,el-ex, rt, d,188752.1713719167, 2.2130245508670607, -0.683033362935848, 2.557869826211168, -0.0460318922996521, 1.6780405044555664, -1.189040184020996, 0.6211212873458862, 0.6311488151550293, 0.46460679173469543, 0.10849297046661377, 0.11109977960586548, 0.06911498308181763, -0.8500257824210105, 0.09879050693321928, 0.4082007751119476,0.31791302946952876,0.7308349609375,0.739227294921875,0.53466796875
20220117-1511,2022-01-17 15:11:18Z,u01, 72,40,movements,el-ex, rt, d,188752.19631791668, 2.2714663801193824, -0.7069955514856451, 2.581947466302599, 0.04473023861646652, 1.775728702545166, -1.229478120803833, 0.5811939835548401, 0.6495523452758789, 0.4901990592479706, 0.12689006328582764, 0.11613363027572632, 0.07753467559814453, -0.8579764860534039, 0.09474108658957703, 0.4109273960966225,0.2933242343444013,0.7139434814453125,0.7704925537109375,0.54925537109375
20220117-1511,2022-01-17 15:11:18Z,u01, 73,40,movements,el-ex, rt, d,188752.22126391667, 2.335615907186969, -0.729612815746227, 2.609899600945233, -0.13876734673976898, 1.914003849029541, -1.2322818040847778, 0.5378348231315613, 0.6665810942649841, 0.5161423683166504, 0.15700453519821167, 0.061858177185058594, 0.12185794115066528, -0.8659276480519245, 0.09077721635780983, 0.41291248450856377,0.2672675470794925,0.695556640625,0.726226806640625,0.633392333984375
20220117-1511,2022-01-17 15:11:18Z,u01, 74,40,movements,el-ex, rt, d,188752.2462099167, 2.4085062704862445, -0.7486932508863375, 2.6448765134892196, -0.21213383972644806, 2.019517421722412, -1.3664802312850952, 0.4902171492576599, 0.6806820631027222, 0.5443886518478394, 0.1982288360595703, 0.10700714588165283, 0.0736684799194336, -0.874472064660234, 0.08656166769047818, 0.4128957141852374,0.23942174358448554,0.688690185546875,0.7653961181640625,0.66241455078125
20220117-1511,2022-01-17 15:11:18Z,u01, 75,40,movements,el-ex, rt, d,188752.2711569167, 2.4879884437364215, -0.7663821928713833, 2.6871754442710425, -0.24303394556045532, 2.0132856369018555, -1.4104150533676147, 0.4380553960800171, 0.6935334205627441, 0.5719431638717651, 0.1952759027481079, 0.12485653162002563, -0.031186997890472412, -0.8828490064352729, 0.08092725908257631, 0.41206064341046766,0.21031994269320678,0.64080810546875,0.820343017578125,0.5407257080078125
20220117-1511,2022-01-17 15:11:18Z,u01, 76,40,movements,el-ex, rt, d,188752.29610291668, 2.57004557631596, -0.7807742387751366, 2.7322468667318294, -0.32634663581848145, 2.0597405433654785, -1.3522088527679443, 0.384262353181839, 0.7038296461105347, 0.5974661111831665, 0.10078388452529907, 0.04259967803955078, 0.052298665046691895, -0.8905412178260054, 0.07529537670140724, 0.4104766085578958,0.18104068111091037,0.5048828125,0.750457763671875,0.6280364990234375
20220117-1511,2022-01-17 15:11:18Z,u01, 77,40,movements,el-ex, rt, d,188752.32104891667, 2.6535691948966313, -0.7919660261753878, 2.777644306012127, -0.1781332641839981, 2.039661169052124, -1.349866509437561, 0.32936421036720276, 0.7117356657981873, 0.6204445362091064, 0.12661409378051758, 0.06016063690185547, 0.024529099464416504, -0.8973683911762883, 0.07037222529741216, 0.4084479085591571,0.15148595973093482,0.455078125,0.7685394287109375,0.654022216796875
20220117-1511,2022-01-17 15:11:18Z,u01, 78,40,movements,el-ex, rt, d,188752.3459949167, 2.735296331791751, -0.8038922291677811, 2.8223498269388108, -0.07301177084445953, 1.9600294828414917, -1.3262115716934204, 0.2742396891117096, 0.7200623750686646, 0.6374184489250183, 0.15738558769226074, 0.0185086727142334, -0.04992473125457764, -0.9024629463481079, 0.06534402926238064, 0.4078063030852979,0.12241182066153387,0.45477294921875,0.7521514892578125,0.563934326171875
20220117-1511,2022-01-17 15:11:18Z,u01, 79,40,movements,el-ex, rt, d,188752.37094091668, 2.816636636586755, -0.8138231014728319, 2.868474718477594, -0.13335058093070984, 1.8986334800720215, -1.329796314239502, 0.21924833953380585, 0.7269179224967957, 0.6507840156555176, 0.1644032895565033, -0.024662792682647705, -0.07397162914276123, -0.9065309890502563, 0.059946419242820626, 0.4071500253313026,0.09400338795976856,0.3852996826171875,0.7033843994140625,0.57379150390625
20220117-1511,2022-01-17 15:11:18Z,u01, 80,40,movements,el-ex, rt, d,188752.39588691667, 2.8987881116967364, -0.8186393269278985, 2.916906272108127, -0.21024829149246216, 1.8600451946258545, -1.3244553804397583, 0.16426260769367218, 0.7302168607711792, 0.6631748676300049, 0.18762026727199554, -0.0201491117477417, 0.014254212379455566, -0.9103023191306098, 0.054195197778343585, 0.4050207663275085,0.066111139984382,0.356781005859375,0.7152252197265625,0.665435791015625
20220117-1511,2022-01-17 15:11:18Z,u01, 81,40,movements,el-ex, rt, d,188752.4208329167, 2.9807821933433, -0.8194387816730746, 2.966380031637301, -0.26520371437072754, 1.8099842071533203, -1.3151648044586182, 0.10930179059505463, 0.7307628393173218, 0.6738241910934448, 0.2118651568889618, -0.0061991214752197266, 0.008838832378387451, -0.9135625220533548, 0.04812097762142015, 0.401988000694572,0.03864742700462179,0.323150634765625,0.724273681640625,0.684783935546875
20220117-1511,2022-01-17 15:11:18Z,u01, 82,40,movements,el-ex, rt, d,188752.44577929168, 3.060350376353653, -0.8184897753601604, 3.01436389155463, -0.09432345628738403, 1.7568938732147217, -1.288888931274414, 0.05545380339026451, 0.7301146984100342, 0.6810708045959473, 0.1775020956993103, -0.016583144664764404, -0.07421368360519409, -0.9158378886597713, 0.04214704220133919, 0.3991526709592741,0.011905815275229159,0.2535552978515625,0.715728759765625,0.6291046142578125
20220117-1511,2022-01-17 15:11:18Z,u01, 83,40,movements,el-ex, rt, d,188752.47072529167, 3.1385668669877202, -0.8196022917259561, 3.061153529489872, 0.03673219680786133, 1.7855162620544434, -1.2911171913146973, 0.0020651330705732107, 0.7308744192123413, 0.6825090050697327, 0.16182947158813477, 0.009787380695343018, 0.029069364070892334, -0.9164815776165172, 0.03627711537630002, 0.39816005398276116,-0.014633716667109747,0.1673431396484375,0.7379150390625,0.704925537109375
20220117-1511,2022-01-17 15:11:18Z,u01, 84,40,movements,el-ex, rt, d,188752.4956712917, -3.0660182699145073, -0.8178989651249506, 3.1081524895010944, -0.13493938744068146, 1.75419282913208, -1.2772177457809448, -0.05162523314356804, 0.7297108173370361, 0.6818038821220398, 0.19034284353256226, -0.018346190452575684, 0.014683306217193604, -0.916504682604757, 0.03034989528185078, 0.3967267455059034,-0.041301732715247924,0.1447906494140625,0.713409423828125,0.70556640625
20220117-1511,2022-01-17 15:11:18Z,u01, 85,40,movements,el-ex, rt, d,188752.52061729168, -2.989608321633106, -0.8082369930009922, -3.1302589642216487, -0.31831973791122437, 1.7357820272445679, -1.256463646888733, -0.10458311438560486, 0.7230704426765442, 0.6828112602233887, 0.18353205919265747, -0.009767889976501465, 0.03241384029388428, -0.9169502145566895, 0.02465621629399123, 0.392462903014892,-0.0675807783078442,0.0828857421875,0.7138519287109375,0.723480224609375
20220117-1511,2022-01-17 15:11:18Z,u01, 86,40,movements,el-ex, rt, d,188752.54556329167, -2.9170901705874375, -0.7954869431827108, -3.0888661392139056, -0.20410771667957306, 1.6891151666641235, -1.1968777179718018, -0.15582096576690674, 0.7142044901847839, 0.6823722124099731, 0.12748533487319946, -0.013413965702056885, -0.03871077299118042, -0.9169605093424666, 0.019223441041748113, 0.3874897076323353,-0.09308946879342048,-0.0053863525390625,0.7003631591796875,0.6439971923828125
20220117-1511,2022-01-17 15:11:18Z,u01, 87,40,movements,el-ex, rt, d,188752.5705092917, -2.845497284707221, -0.7866438242892827, -3.048086727798577, 0.11675239354372025, 1.7260112762451172, -1.2171114683151245, -0.20606788992881775, 0.7079870700836182, 0.6754925847053528, 0.09889009594917297, 0.019994497299194336, 0.03164529800415039, -0.915181128192733, 0.013776738965493085, 0.38501957256308095,-0.11837903160472266,-0.10369873046875,0.7250518798828125,0.7061309814453125
20220117-1511,2022-01-17 15:11:18Z,u01, 88,40,movements,el-ex, rt, d,188752.5954562917, -2.7718099109260375, -0.7808886870405093, -3.0048365861603346, 0.22564375400543213, 1.7157683372497559, -1.2498736381530762, -0.25670725107192993, 0.7039109468460083, 0.6622768044471741, 0.13779547810554504, 0.0301893949508667, 0.0072634220123291016, -0.9116354061338547, 0.007700017698955286, 0.3848537529229406,-0.1440455362215198,-0.117706298828125,0.751922607421875,0.6834869384765625
20220117-1511,2022-01-17 15:11:18Z,u01, 89,40,movements,el-ex, rt, d,188752.62040229168, -2.7000570175193936, -0.7714419146972068, -2.9628265970177354, -0.00455904845148325, 1.673471212387085, -1.2454534769058228, -0.3063543736934662, 0.6971696615219116, 0.6481525301933289, 0.1571080982685089, 0.008198440074920654, -0.0003711581230163574, -0.9077854430385531, 0.0013586189175306962, 0.3837413488835429,-0.16931154058942063,-0.1466064453125,0.7086944580078125,0.647979736328125
20220117-1511,2022-01-17 15:11:18Z,u01, 90,40,movements,el-ex, rt, d,188752.64534829167, -2.6334311444282714, -0.7568332675787134, -2.9262681776935175, -0.010975701734423637, 1.6391910314559937, -1.1761139631271362, -0.3537445366382599, 0.6866226196289062, 0.635148823261261, 0.11927798390388489, -0.04195404052734375, -0.04600715637207031, -0.90418789196741, -0.004320663394900781, 0.38061629184915763,-0.1937957279425026,-0.2148895263671875,0.648712158203125,0.5989227294921875
20220117-1511,2022-01-17 15:11:18Z,u01, 91,40,movements,el-ex, rt, d,188752.6702942917, -2.569708579123464, -0.7417989081920272, -2.8918976559936147, 0.04991547763347626, 1.6038519144058228, -1.1686186790466309, -0.3990148901939392, 0.6756152510643005, 0.6199445724487305, 0.10979965329170227, 0.015211284160614014, -0.03760826587677002, -0.8999301012983585, -0.00990524172752627, 0.37776529195010977,-0.21753421025666206,-0.2866668701171875,0.6896209716796875,0.5820770263671875
20220117-1511,2022-01-17 15:11:18Z,u01, 92,40,movements,el-ex, rt, d,188752.69524029168, -2.5070650268889922, -0.7274200525438617, -2.8573553996616354, 0.15278834104537964, 1.5609246492385864, -1.1599229574203491, -0.4427555799484253, 0.6649448871612549, 0.6015110015869141, 0.11179247498512268, 0.037142395973205566, 0.005529224872589111, -0.8947080356066883, -0.01590664797622271, 0.37587897656887587,-0.24074759704819002,-0.325653076171875,0.709228515625,0.5929107666015625
20220117-1511,2022-01-17 15:11:18Z,u01, 93,40,movements,el-ex, rt, d,188752.72018629167, -2.4476829048644086, -0.71165783126652, -2.8248790091957, -0.01524534821510315, 1.4703954458236694, -1.1454530954360962, -0.484316885471344, 0.6530901193618774, 0.5821603536605835, 0.13818645477294922, -0.014051973819732666, -0.02141517400741577, -0.88915390164676, -0.022034158731119413, 0.3737732035851829,-0.26308455918979073,-0.3460235595703125,0.642852783203125,0.56640625
20220117-1511,2022-01-17 15:11:18Z,u01, 94,40,movements,el-ex, rt, d,188752.7451322917, -2.3973101166213113, -0.6896789248745147, -2.8017920587094722, -0.3309820890426636, 1.3821749687194824, -1.0810054540634155, -0.5226144194602966, 0.6362895369529724, 0.5674587488174438, 0.1216287612915039, -0.03904533386230469, -0.034164249897003174, -0.8848703188116813, -0.02709044426717283, 0.3682339775569209,-0.28403212179337517,-0.3840789794921875,0.601531982421875,0.5240325927734375
20220117-1511,2022-01-17 15:11:19Z,u01, 95,40,movements,el-ex, rt, d,188752.77007829168, -2.35204486402938, -0.6656786872369856, -2.7840305489410486, -0.247036874294281, 1.358941912651062, -1.0766785144805908, -0.5584409832954407, 0.6175930500030518, 0.5538254380226135, 0.1043241024017334, -0.019066989421844482, -0.030021846294403076, -0.8808639628764809, -0.031486705414302874, 0.3614298707542682,-0.3040654032418917,-0.452117919921875,0.598052978515625,0.5248870849609375
20220117-1511,2022-01-17 15:11:19Z,u01, 96,40,movements,el-ex, rt, d,188752.79502429167, -2.3074106855783385, -0.642373663523643, -2.7657186321102882, -0.15247976779937744, 1.3210070133209229, -1.0677199363708496, -0.5930984020233154, 0.5990976691246033, 0.537881076335907, 0.1183822751045227, 0.05548906326293945, -0.028512299060821533, -0.8761348968053448, -0.036444291116731475, 0.35536259809011483,-0.3236924502275672,-0.47296142578125,0.65985107421875,0.5113372802734375
20220117-1511,2022-01-17 15:11:19Z,u01, 97,40,movements,el-ex, rt, d,188752.8199702917, -2.263328191309461, -0.6209929912961325, -2.7456901670530685, -0.03236338123679161, 1.278143048286438, -1.0707807540893555, -0.6259424686431885, 0.5818430185317993, 0.519282877445221, 0.1277124285697937, 0.025639891624450684, -0.0425984263420105, -0.8705553223226832, -0.04212902558181231, 0.3507555618750882,-0.34253337078368096,-0.4972381591796875,0.610992431640625,0.4796600341796875
20220117-1511,2022-01-17 15:11:19Z,u01, 98,40,movements,el-ex, rt, d,188752.84491629168, -2.220950192226872, -0.5992277092877304, -2.727474814648729, -0.11145943403244019, 1.2877315282821655, -1.0453872680664062, -0.6573064923286438, 0.5640048980712891, 0.4998469054698944, 0.11319321393966675, 0.02535068988800049, 0.0471806526184082, -0.864668598511982, -0.04766204760383036, 0.3460392538509365,-0.36101729785166214,-0.5334930419921875,0.5960540771484375,0.53558349609375
20220117-1511,2022-01-17 15:11:19Z,u01, 99,40,movements,el-ex, rt, d,188752.86986229167, -2.181058903456851, -0.5763958365354244, -2.7133289583142832, -0.22421744465827942, 1.2748873233795166, -0.9847123026847839, -0.687093198299408, 0.5450056195259094, 0.4804909825325012, 0.12112945318222046, 0.0032731294631958008, 0.019661426544189453, -0.8587798981067143, -0.05236964368187419, 0.34044294411128195,-0.37927962776441293,-0.564239501953125,0.551177978515625,0.502197265625
20220117-1511,2022-01-17 15:11:19Z,u01, 100,40,movements,el-ex, rt, d,188752.8948082917, -2.144468939278317, -0.552683303432926, -2.7039680951006284, -0.3270360827445984, 1.2714332342147827, -0.9557543992996216, -0.7148659825325012, 0.5249729156494141, 0.4619194269180298, 0.09653419256210327, -0.011804759502410889, 0.0198613703250885, -0.8531216980617162, -0.056063201104878946, 0.3337690575623762,-0.39703694188105365,-0.607086181640625,0.50311279296875,0.46490478515625
20220117-1511,2022-01-17 15:11:19Z,u01, 101,40,movements,el-ex, rt, d,188752.9197552917, -2.109078162675344, -0.5292758394970004, -2.6974706334111267, -0.21062619984149933, 1.2728233337402344, -0.8821437358856201, -0.7411121129989624, 0.5049083828926086, 0.44251546263694763, 0.09394121170043945, -0.017344415187835693, -0.000926285982131958, -0.8472221936425955, -0.05892609468484583, 0.3268182958571385,-0.4146467658707239,-0.64508056640625,0.491943359375,0.449981689453125
20220117-1511,2022-01-17 15:11:19Z,u01, 102,40,movements,el-ex, rt, d,188752.94470129168, -2.0730708337933828, -0.5085506829257711, -2.6894994423773597, -0.15988291800022125, 1.2964223623275757, -0.8404475450515747, -0.765571117401123, 0.4869118630886078, 0.42049720883369446, 0.076499342918396, -0.023227661848068237, 0.010105699300765991, -0.840488959882192, -0.06186205501668918, 0.3214394473868999,-0.4317732613943838,-0.6810302734375,0.463623046875,0.425750732421875
20220117-1511,2022-01-17 15:11:19Z,u01, 103,40,movements,el-ex, rt, d,188752.96964729167, -2.0369082901094484, -0.48922261980269127, -2.6819862117241327, -0.07190273702144623, 1.3225911855697632, -0.7876557111740112, -0.7885342240333557, 0.46993982791900635, 0.3966991603374481, 0.08008384704589844, -0.04754599928855896, -0.004212796688079834, -0.8331868710242886, -0.06441439292531775, 0.3167043212611287,-0.44871902360132865,-0.705657958984375,0.427154541015625,0.392181396484375
20220117-1511,2022-01-17 15:11:19Z,u01, 104,40,movements,el-ex, rt, d,188752.9945932917, -2.001257540853248, -0.4701583932616132, -2.6748240825437755, -0.23870915174484253, 1.2761996984481812, -0.7882306575775146, -0.8101681470870972, 0.45302748680114746, 0.37201249599456787, 0.06801128387451172, -0.005182117223739624, -0.06508210301399231, -0.8255392421430822, -0.06701648551748146, 0.3121594010483147,-0.4653494744644903,-0.7395782470703125,0.4156951904296875,0.3267059326171875
20220117-1511,2022-01-17 15:11:19Z,u01, 105,40,movements,el-ex, rt, d,188753.01953929168, -1.9696375323927637, -0.44991826047067496, -2.672257194595145, -0.19492489099502563, 1.165536642074585, -0.7778541445732117, -0.8298053741455078, 0.434891939163208, 0.3497031629085541, 0.08447444438934326, 0.0024708211421966553, -0.08653488755226135, -0.8186015749676604, -0.06886978777277303, 0.3061056285626607,-0.4810902639808301,-0.7443084716796875,0.43902587890625,0.2674713134765625
20220117-1511,2022-01-17 15:11:19Z,u01, 106,40,movements,el-ex, rt, d,188753.04448529167, -1.9403063591489724, -0.43029612746019974, -2.669084016213926, -0.21676041185855865, 1.0696934461593628, -0.7777808904647827, -0.8474993705749512, 0.4171399474143982, 0.3282361626625061, 0.05948978662490845, 0.013127386569976807, -0.06067347526550293, -0.8118062495046486, -0.0713350983565148, 0.3004686092421542,-0.4955809782865138,-0.7787933349609375,0.4230804443359375,0.26171875
20220117-1511,2022-01-17 15:11:19Z,u01, 107,40,movements,el-ex, rt, d,188753.0694312917, -1.9143292255144353, -0.4094664273521093, -2.668392766658486, -0.2496001273393631, 0.9729586243629456, -0.7948305010795593, -0.8637341856956482, 0.3981199264526367, 0.3089722692966461, 0.05996215343475342, 0.06313806772232056, -0.040905922651290894, -0.8056278885954874, -0.07382298092524786, 0.2937418578393226,-0.5091459585108885,-0.8029022216796875,0.464141845703125,0.270233154296875
20220117-1511,2022-01-17 15:11:19Z,u01, 108,40,movements,el-ex, rt, d,188753.09437729168, -1.8919698269484937, -0.3879718872542037, -2.67013037037458, -0.4650842249393463, 0.8745811581611633, -0.7803423404693604, -0.8783441781997681, 0.37831181287765503, 0.29221832752227783, 0.06006115674972534, 0.04980403184890747, -0.05354046821594238, -0.800185918204236, -0.07623428756095263, 0.28608147696901604,-0.5215823912746337,-0.81451416015625,0.4287567138671875,0.24725341796875
20220117-1511,2022-01-17 15:11:19Z,u01, 109,40,movements,el-ex, rt, d,188753.11932329167, -1.873266094734735, -0.3665684825023512, -2.6762606679329513, -0.5181142687797546, 0.8344279527664185, -0.7126063704490662, -0.8911824226379395, 0.35841402411460876, 0.2780885100364685, 0.06467491388320923, 0.00041165947914123535, -0.04044830799102783, -0.7956318988062938, -0.07755083055654738, 0.27719329043968616,-0.533028697732501,-0.8256683349609375,0.3598785400390625,0.233367919921875
20220117-1511,2022-01-17 15:11:19Z,u01, 110,40,movements,el-ex, rt, d,188753.1442692917, -1.8549141020794364, -0.34727757268549225, -2.6835668958676893, -0.48343849182128906, 0.8534443974494934, -0.6202507019042969, -0.9026052951812744, 0.34033915400505066, 0.2635768949985504, 0.05774146318435669, -0.025062114000320435, 0.004382580518722534, -0.7910176347922053, -0.0779714699809485, 0.2687543140583254,-0.5440428258126893,-0.8399505615234375,0.3074493408203125,0.2686004638671875
20220117-1511,2022-01-17 15:11:19Z,u01, 111,40,movements,el-ex, rt, d,188753.16921529168, -1.8361536950677204, -0.3300892865814768, -2.691343042803685, -0.44882622361183167, 0.8510115742683411, -0.5517569184303284, -0.9129018783569336, 0.3241274952888489, 0.24809594452381134, 0.0693502426147461, 0.015975654125213623, -0.008243203163146973, -0.7861402100137208, -0.07766300326350828, 0.26096419910916635,-0.5548420803737312,-0.84246826171875,0.339141845703125,0.2400360107421875
20220117-1511,2022-01-17 15:11:19Z,u01, 112,40,movements,el-ex, rt, d,188753.19416129167, -1.8178983949344434, -0.31530641227893774, -2.6981464306672485, -0.38482043147087097, 0.7781709432601929, -0.4682447016239166, -0.921824038028717, 0.3101077973842621, 0.23253686726093292, 0.06641638278961182, -0.02235761284828186, -0.08210064470767975, -0.7812224669295869, -0.07720030799030236, 0.25429525408096487,-0.5648587508872184,-0.853759765625,0.3003997802734375,0.16943359375
20220117-1511,2022-01-17 15:11:19Z,u01, 113,40,movements,el-ex, rt, d,188753.2191072917, -1.8018038311284355, -0.3032645071032444, -2.7041842058560728, -0.2606724202632904, 0.6796312928199768, -0.3465079665184021, -0.9290149807929993, 0.298637330532074, 0.2185102254152298, 0.07131850719451904, -0.060371339321136475, -0.07400965690612793, -0.7767832006824973, -0.07657002946777991, 0.2487555363487929,-0.5734679406400601,-0.8561859130859375,0.24041748046875,0.13818359375
20220117-1511,2022-01-17 15:11:19Z,u01, 114,40,movements,el-ex, rt, d,188753.2440542917, -1.786591063316036, -0.29514592745290785, -2.704955220308363, 0.029888972640037537, 0.5335686206817627, -0.2953896224498749, -0.9345691204071045, 0.2908794581890106, 0.20486502349376678, 0.03823733329772949, -0.06633114814758301, -0.1287086009979248, -0.7723427295727789, -0.07693645211187383, 0.2461363481958274,-0.580503550958588,-0.8932037353515625,0.2152252197265625,0.1260528564453125
20220117-1511,2022-01-17 15:11:19Z,u01, 115,40,movements,el-ex, rt, d,188753.26900029168, -1.7759866292981632, -0.28936677718216985, -2.701432063805478, 0.12690137326717377, 0.21836532652378082, -0.1877031922340393, -0.938319206237793, 0.2853453755378723, 0.19528239965438843, 0.07216930389404297, -0.05467823147773743, -0.23725947737693787, -0.7690442760469244, -0.07881686320823361, 0.2454638469247321,-0.5848986068830442,-0.869110107421875,0.234527587890625,-0.035736083984375
20220117-1511,2022-01-17 15:11:19Z,u01, 116,40,movements,el-ex, rt, d,188753.29394629167, -1.7730935360233735, -0.2881317194004594, -2.6969926759264076, 0.1156739890575409, -0.07401680946350098, 0.025777870789170265, -0.9392244219779968, 0.28416144847869873, 0.19263751804828644, 0.0881657600402832, -0.1830262541770935, -0.24965982139110565, -0.7680033065613828, -0.08055857078656581, 0.24642820025598594,-0.5856228932678194,-0.8486480712890625,0.1128082275390625,-0.066680908203125
20220117-1511,2022-01-17 15:11:19Z,u01, 117,40,movements,el-ex, rt, d,188753.3188922917, -1.778346045180364, -0.2915829493738466, -2.6977248318592846, -0.09442059695720673, -0.34292030334472656, 0.2366955578327179, -0.9372345209121704, 0.28746873140335083, 0.19736488163471222, 0.09151625633239746, -0.13643726706504822, -0.20606258511543274, -0.7696163570850603, -0.07983172528575033, 0.24726103002816097,-0.5832490045191581,-0.846099853515625,0.14117431640625,-0.0074005126953125
20220117-1511,2022-01-17 15:11:19Z,u01, 118,40,movements,el-ex, rt, d,188753.34383829168, -1.7907967789609986, -0.2987726870079137, -2.7002201959189733, 0.01504824124276638, -0.5849491953849792, 0.3752891421318054, -0.9326633214950562, 0.29434749484062195, 0.20856207609176636, 0.09947270154953003, -0.07190492749214172, -0.24222318828105927, -0.7734173376222298, -0.07814513250561639, 0.2486728282915346,-0.5778240000155431,-0.8365936279296875,0.2205352783203125,-0.0422515869140625
20220117-1511,2022-01-17 15:11:19Z,u01, 119,40,movements,el-ex, rt, d,188753.36878429167, -1.8076981957737999, -0.3100497953720669, -2.701107272678888, 0.09910815954208374, -0.7418465614318848, 0.5053955316543579, -0.9257199168205261, 0.3051060438156128, 0.22350165247917175, 0.08570832014083862, -0.09389388561248779, -0.1768404245376587, -0.7784059190158058, -0.07638752245414193, 0.2519079631060447,-0.5699048639817491,-0.8391876220703125,0.20867919921875,0.043548583984375
20220117-1511,2022-01-17 15:11:19Z,u01, 120,40,movements,el-ex, rt, d,188753.3937302917, -1.8280926889820972, -0.3246181225796746, -2.7022611272359662, 0.08797867596149445, -0.8553435802459717, 0.6298748850822449, -0.9165732264518738, 0.31894686818122864, 0.24117666482925415, 0.08380961418151855, -0.06363680958747864, -0.10760140419006348, -0.7842895327879389, -0.07401528935204821, 0.2561981188044682,-0.5601554108208722,-0.833282470703125,0.2423553466796875,0.10809326171875
20220117-1511,2022-01-17 15:11:19Z,u01, 121,40,movements,el-ex, rt, d,188753.41867629168, -1.8497752596538732, -0.34192012240331565, -2.7026516608390114, 0.25698259472846985, -0.878251850605011, 0.6959124803543091, -0.9056876301765442, 0.3352966904640198, 0.25943344831466675, 0.05920642614364624, -0.06134042143821716, -0.023578554391860962, -0.7903307343589209, -0.07137268551879006, 0.261734059010403,-0.549343638521371,-0.8455963134765625,0.271331787109375,0.2351837158203125
20220117-1511,2022-01-17 15:11:19Z,u01, 122,40,movements,el-ex, rt, d,188753.44362279167, -1.871383283357519, -0.36151640049569955, -2.69978711111027, 0.37539908289909363, -0.9334315657615662, 0.7376618981361389, -0.893422544002533, 0.35369300842285156, 0.2769426703453064, 0.060964107513427734, -0.0008640289306640625, -0.06962156295776367, -0.7960201079161693, -0.06945010425698822, 0.26907633100877515,-0.537704865796144,-0.84185791015625,0.336639404296875,0.209075927734375
20220117-1511,2022-01-17 15:11:19Z,u01, 123,40,movements,el-ex, rt, d,188753.46856879166, -1.8933983097949878, -0.3832149942986693, -2.694882107393125, 0.48427313566207886, -0.962827205657959, 0.8000513911247253, -0.8796226978302002, 0.37390419840812683, 0.29403993487358093, 0.060866594314575195, -0.04608440399169922, -0.05227982997894287, -0.8015013794744097, -0.06793754960806758, 0.27776896809407137,-0.5251898529512895,-0.8184051513671875,0.3306427001953125,0.2308502197265625
20220117-1511,2022-01-17 15:11:19Z,u01, 124,40,movements,el-ex, rt, d,188753.49351479168, -1.9149346490454102, -0.40735770217989437, -2.688815135885975, 0.62307208776474, -0.9350990653038025, 0.8687562346458435, -0.8643351793289185, 0.39618462324142456, 0.3097776472568512, 0.04416006803512573, -0.09555596113204956, -0.00509035587310791, -0.8065316617752316, -0.06629853421674936, 0.28771266034062404,-0.5121840773531824,-0.8217010498046875,0.2916717529296875,0.2812957763671875
20220117-1511,2022-01-17 15:11:19Z,u01, 125,40,movements,el-ex, rt, d,188753.51846079167, -1.934377545488693, -0.43427205580357614, -2.679538748152914, 0.7213887572288513, -0.9453682899475098, 0.9090061187744141, -0.8478735089302063, 0.42075014114379883, 0.32261332869529724, 0.053409576416015625, -0.009510606527328491, 0.007006853818893433, -0.8106014074848885, -0.06505395267124053, 0.2995721974189472,-0.4989485503122298,-0.7964019775390625,0.405792236328125,0.3277130126953125
20220117-1511,2022-01-17 15:11:19Z,u01, 126,40,movements,el-ex, rt, d,188753.54340679166, -1.9561199650055072, -0.4612478846094053, -2.673117904886786, 0.5125070810317993, -1.016772747039795, 0.9516358971595764, -0.8298369646072388, 0.4450659453868866, 0.33658093214035034, 0.07857054471969604, 0.006182223558425903, -0.04390215873718262, -0.8150434200408682, -0.06320352603844454, 0.31064088494254294,-0.48498629146260536,-0.756500244140625,0.467529296875,0.2763519287109375
20220117-1511,2022-01-17 15:11:19Z,u01, 127,40,movements,el-ex, rt, d,188753.56835279168, -1.9821482568061992, -0.4867310230031439, -2.674265574686621, 0.2084747552871704, -1.0259970426559448, 0.9754688143730164, -0.8101353645324707, 0.4677390456199646, 0.35341301560401917, 0.0602269172668457, -0.018794983625411987, -0.0010724067687988281, -0.82046057712994, -0.05958980212211773, 0.31922055989631437,-0.47052276331772747,-0.7509765625,0.449554443359375,0.3515625
20220117-1511,2022-01-17 15:11:19Z,u01, 128,40,movements,el-ex, rt, d,188753.59329979168, -2.0111585670260608, -0.5109009072321343, -2.680693807545801, 0.24109788239002228, -1.0556570291519165, 0.9675204753875732, -0.7890839576721191, 0.4889633059501648, 0.3718346059322357, 0.05657064914703369, -0.0021470189094543457, -0.04525095224380493, -0.8263814414462057, -0.054872721459493234, 0.3261102959107289,-0.4557791282734152,-0.7362518310546875,0.4724273681640625,0.329803466796875
20220117-1511,2022-01-17 15:11:19Z,u01, 129,40,movements,el-ex, rt, d,188753.61824579167, -2.0402999948829423, -0.5354899176341994, -2.6852629615722345, 0.2785118520259857, -1.090756893157959, 0.9379291534423828, -0.7669585943222046, 0.5102624297142029, 0.3891100287437439, 0.051916539669036865, 0.05310732126235962, -0.020213723182678223, -0.8318347028309867, -0.05104945629564833, 0.33374377124604976,-0.44052244449182726,-0.7172393798828125,0.557220458984375,0.364715576171875
20220117-1511,2022-01-17 15:11:19Z,u01, 130,40,movements,el-ex, rt, d,188753.6431917917, -2.0721197299226253, -0.5583033919314505, -2.6932249385413742, 0.04569709673523903, -1.104115605354309, 0.9373219013214111, -0.7437873482704163, 0.5297479629516602, 0.4076119065284729, 0.06442028284072876, 0.04881960153579712, 0.05451565980911255, -0.8376156998393267, -0.0469669871356822, 0.3400501701911897,-0.42492344895325734,-0.680084228515625,0.5997772216796875,0.421539306640625
20220117-1511,2022-01-17 15:11:19Z,u01, 131,40,movements,el-ex, rt, d,188753.66813779168, -2.107710227574889, -0.5775135264321628, -2.7090210552298513, -0.19569918513298035, -1.0709228515625, 0.9494526982307434, -0.7199336290359497, 0.5459424257278442, 0.42853501439094543, 0.03800314664840698, -0.03970158100128174, 0.01824212074279785, -0.844129755688405, -0.04138191616840803, 0.34345567720662923,-0.40959813302314274,-0.6833953857421875,0.506072998046875,0.452362060546875
20220117-1511,2022-01-17 15:11:19Z,u01, 132,40,movements,el-ex, rt, d,188753.69308379167, -2.14508164602142, -0.5955821758772878, -2.7275334763068604, -0.0031151152215898037, -1.105176329612732, 0.9278123378753662, -0.6950233578681946, 0.5609908103942871, 0.4497017562389374, 0.051346659660339355, 0.047987401485443115, -0.04709869623184204, -0.850645852680736, -0.03539076764773563, 0.3461414719563062,-0.3941257764519919,-0.6494598388671875,0.5869293212890625,0.3989410400390625
20220117-1511,2022-01-17 15:11:19Z,u01, 133,40,movements,el-ex, rt, d,188753.71802979166, -2.1791616892893524, -0.6173485041680299, -2.7383290511674803, 0.25203925371170044, -1.0927531719207764, 0.9194316267967224, -0.6691170334815979, 0.5788751244544983, 0.46603232622146606, 0.04312509298324585, 0.08994823694229126, -0.01850736141204834, -0.8555887812568725, -0.03136884543397578, 0.352153551058287,-0.3781160819646308,-0.6273040771484375,0.660491943359375,0.4324188232421875
20220117-1511,2022-01-17 15:11:19Z,u01, 134,40,movements,el-ex, rt, d,188753.74297579168, -2.2124076362431015, -0.6394015690684411, -2.7482899780641565, 0.24943144619464874, -1.0738956928253174, 0.8956997990608215, -0.6428709030151367, 0.5967153310775757, 0.4802576005458832, 0.05003654956817627, 0.032968997955322266, 0.05323523283004761, -0.8598606087500003, -0.027722311755279172, 0.3586631707118364,-0.36225927405531977,-0.5894927978515625,0.672637939453125,0.5178070068359375
20220117-1511,2022-01-17 15:11:20Z,u01, 135,40,movements,el-ex, rt, d,188753.76792179167, -2.2472408992575286, -0.6593815328435587, -2.7627802481282666, 0.010278820991516113, -1.025844931602478, 0.9465686678886414, -0.6163341403007507, 0.612628161907196, 0.4947916865348816, 0.03227353096008301, -0.07629704475402832, -0.016672849655151367, -0.8642111870307561, -0.023127158988659913, 0.3637257053441532,-0.3468540310018539,-0.58624267578125,0.5385894775390625,0.48150634765625
20220117-1511,2022-01-17 15:11:20Z,u01, 136,40,movements,el-ex, rt, d,188753.79286779166, -2.2847347672821052, -0.6783870914438033, -2.781062695501141, 0.16945938766002655, -1.087528109550476, 0.9702545404434204, -0.5884461402893066, 0.6275380253791809, 0.5098297595977783, 0.05130636692047119, 0.02038043737411499, -0.08781778812408447, -0.8686759340555954, -0.01780488495528687, 0.36799142911251276,-0.33116034925860105,-0.5426483154296875,0.6261749267578125,0.434173583984375
20220117-1511,2022-01-17 15:11:20Z,u01, 137,40,movements,el-ex, rt, d,188753.81781379168, -2.319289076271043, -0.7022266890146014, -2.7937736222541933, 0.49013084173202515, -1.0249249935150146, 0.9685484170913696, -0.5593592524528503, 0.645919144153595, 0.5195245146751404, 0.008333742618560791, 0.02177494764328003, 0.06015676259994507, -0.8715381270613285, -0.013547979069922667, 0.3754604509488259,-0.315066989021091,-0.5511322021484375,0.668853759765625,0.5731964111328125
20220117-1511,2022-01-17 15:11:20Z,u01, 138,40,movements,el-ex, rt, d,188753.84275979167, -2.3515669712650937, -0.7282464416445724, -2.804299378010956, 0.4195723533630371, -1.02211332321167, 0.977502167224884, -0.5301803946495056, 0.6655619144439697, 0.525296151638031, 0.052336156368255615, -0.013935327529907227, -0.026669621467590332, -0.8732437738572515, -0.009663602897363621, 0.3843982969331249,-0.2993156612847775,-0.4976348876953125,0.64453125,0.5244598388671875
20220117-1511,2022-01-17 15:11:20Z,u01, 139,40,movements,el-ex, rt, d,188753.86770579166, -2.388854425576614, -0.7508988598801491, -2.8207306156209895, 0.2047549933195114, -1.0831130743026733, 0.9896003603935242, -0.49979254603385925, 0.6822961568832397, 0.5335535407066345, 0.06474912166595459, -0.045714735984802246, -0.04258686304092407, -0.8756426575947496, -0.005169029303782713, 0.39126841587492583,-0.283076425781482,-0.436370849609375,0.6391143798828125,0.486572265625
20220117-1511,2022-01-17 15:11:20Z,u01, 140,40,movements,el-ex, rt, d,188753.89265179168, -2.4324776790898412, -0.7692402665316703, -2.8447719323182987, -0.01595008745789528, -1.0878254175186157, 1.0385898351669312, -0.4678206443786621, 0.6955896019935608, 0.5452512502670288, 0.04760882258415222, -0.034151673316955566, 0.006079196929931641, -0.878991201837967, 0.0002928323642306663, 0.395586261741958,-0.26624402684537474,-0.43341064453125,0.634857177734375,0.5458526611328125
20220117-1511,2022-01-17 15:11:20Z,u01, 141,40,movements,el-ex, rt, d,188753.91759779167, -2.4786702503131064, -0.7861898339718433, -2.8715498502703998, 0.08496271073818207, -1.1097468137741089, 0.9955267906188965, -0.43482494354248047, 0.7076663374900818, 0.5568979382514954, 0.04009532928466797, 0.05898088216781616, 0.05694764852523804, -0.8822775351741308, 0.0059431535028716675, 0.39936715190029004,-0.24911205433348582,-0.395721435546875,0.7594451904296875,0.6152496337890625
20220117-1511,2022-01-17 15:11:20Z,u01, 142,40,movements,el-ex, rt, d,188753.94254479167, -2.5257266046870055, -0.8039221984294693, -2.896275066240414, 0.23366659879684448, -1.2388263940811157, 0.9815002679824829, -0.40083491802215576, 0.7200831770896912, 0.5664018392562866, 0.07664668560028076, 0.02745997905731201, -0.15490305423736572, -0.8849254991466544, 0.010381959005599073, 0.4041482227090606,-0.2312209412850058,-0.3326263427734375,0.77056884765625,0.4365081787109375
20220117-1511,2022-01-17 15:11:20Z,u01, 143,40,movements,el-ex, rt, d,188753.9674907917, -2.5732681658369376, -0.8242098476952123, -2.9195118058595795, 0.33685797452926636, -1.19221830368042, 0.9963809251785278, -0.3655255436897278, 0.7340114116668701, 0.5723792910575867, 0.012437134981155396, -0.06076318025588989, 0.008476793766021729, -0.8865606385446445, 0.01413762704898458, 0.4105739323092158,-0.21269532827233129,-0.3502044677734375,0.6712188720703125,0.572540283203125
20220117-1511,2022-01-17 15:11:20Z,u01, 144,40,movements,el-ex, rt, d,188753.99243679168, -2.622881207379171, -0.8432397151582549, -2.9466861394141595, 0.1251637190580368, -1.177883267402649, 1.0131269693374634, -0.3297046720981598, 0.7468016147613525, 0.5775657892227173, 0.053688377141952515, 0.048868000507354736, 0.08805304765701294, -0.8879387688446548, 0.018645408545282738, 0.41644323555989693,-0.19440201750945493,-0.295379638671875,0.76177978515625,0.6217041015625
20220117-1511,2022-01-17 15:11:20Z,u01, 145,40,movements,el-ex, rt, d,188754.01738279167, -2.678501939079142, -0.8544483741323371, -2.980768589343744, -0.2140558809041977, -1.2150484323501587, 1.0133650302886963, -0.2933288812637329, 0.7542088031768799, 0.5874754190444946, 0.05899956822395325, 0.003268122673034668, -0.007412612438201904, -0.8906063456312446, 0.023622950346642635, 0.4187616746871319,-0.1757867784211216,-0.2350006103515625,0.7610321044921875,0.5849151611328125
20220117-1511,2022-01-17 15:11:20Z,u01, 146,40,movements,el-ex, rt, d,188754.04232879166, -2.7393694237664645, -0.8584905321802606, -3.0205298467898176, -0.22845755517482758, -1.2659857273101807, 1.0238044261932373, -0.25585395097732544, 0.7568568587303162, 0.6014201641082764, 0.05172187089920044, -0.021352767944335938, -0.04716014862060547, -0.8943511952024024, 0.02908648433651334, 0.418037667067404,-0.1566344710001214,-0.20654296875,0.7379913330078125,0.553070068359375
20220117-1511,2022-01-17 15:11:20Z,u01, 147,40,movements,el-ex, rt, d,188754.06727479168, -2.798852089541073, -0.8677879401346053, -3.057167283605019, 0.16727912425994873, -1.2482596635818481, 1.0254030227661133, -0.21727420389652252, 0.7629006505012512, 0.608912467956543, 0.002796649932861328, -0.004538774490356445, -0.041072070598602295, -0.8962739559428023, 0.0339004733852033, 0.42040963020249555,-0.13711119004119143,-0.2156524658203125,0.7519073486328125,0.5604400634765625
20220117-1511,2022-01-17 15:11:20Z,u01, 148,40,movements,el-ex, rt, d,188754.09222079167, -2.8578867466363214, -0.8785788100179456, -3.092621277994616, -0.007898152805864811, -1.324725866317749, 0.9853121638298035, -0.1786547601222992, 0.7698326110839844, 0.6127316951751709, 0.0927019715309143, 0.07841873168945312, -0.004882693290710449, -0.8971670064704687, 0.03817331867810575, 0.4240312023622056,-0.11760804906488553,-0.113800048828125,0.866058349609375,0.6255950927734375
20220117-1511,2022-01-17 15:11:20Z,u01, 149,40,movements,el-ex, rt, d,188754.11716679166, -2.922572150046126, -0.8797444323909287, -3.133088298163419, -0.303510457277298, -1.3405519723892212, 1.032186508178711, -0.13847896456718445, 0.770576000213623, 0.6221224665641785, 0.07684867084026337, -0.064353346824646, -0.008642852306365967, -0.8995758626841066, 0.04271416992083571, 0.42368969474924656,-0.09708690608299556,-0.0601043701171875,0.7164459228515625,0.6075897216796875
20220117-1511,2022-01-17 15:11:20Z,u01, 150,40,movements,el-ex, rt, d,188754.14211279168, -2.988312082118623, -0.8785248522258122, 3.10782495804024, -0.08094995468854904, -1.3502743244171143, 1.0705547332763672, -0.09745433926582336, 0.7697981595993042, 0.6308034658432007, 0.04803110659122467, -0.02210235595703125, -0.10385668277740479, -0.9017303752268595, 0.04779183190245101, 0.4227933468507755,-0.07644551036458716,-0.070037841796875,0.706878662109375,0.558990478515625
20220117-1511,2022-01-17 15:11:20Z,u01, 151,40,movements,el-ex, rt, d,188754.16705879167, -3.053986080136992, -0.8898661762308929, 3.0675384594000983, 0.5732813477516174, -1.3835128545761108, 1.0581392049789429, -0.05507921427488327, 0.7769874930381775, 0.627101719379425, 0.03818768262863159, 0.10199499130249023, -0.018505096435546875, -0.9004578378617474, 0.05221630567291108, 0.42822673689814256,-0.05541628195235265,-0.019439697265625,0.8695526123046875,0.5950469970703125
20220117-1511,2022-01-17 15:11:20Z,u01, 152,40,movements,el-ex, rt, d,188754.19200479166, -3.120773822819382, -0.9030827783992001, 3.0265672287100136, 0.18284383416175842, -1.3693634271621704, 1.042515516281128, -0.012889925390481949, 0.7852394580841064, 0.6190579533576965, 0.12469103932380676, 0.00562363862991333, 0.07077652215957642, -0.8979781291532607, 0.05625179381552575, 0.43506952946107824,-0.034431132758092425,0.0921173095703125,0.8380126953125,0.6551361083984375
20220117-1511,2022-01-17 15:11:20Z,u01, 153,40,movements,el-ex, rt, d,188754.21695079168, 3.0964776679758916, -0.8966824284450933, 2.984727910208402, -0.6270210146903992, -1.2808958292007446, 1.052416205406189, 0.028151465579867363, 0.7812603712081909, 0.6235702633857727, 0.1115579605102539, -0.12871813774108887, 0.12116533517837524, -0.8989345084518198, 0.060843155829476026, 0.43362134470992,-0.013690828184023063,0.1395111083984375,0.6571197509765625,0.7457122802734375
20220117-1511,2022-01-17 15:11:20Z,u01, 154,40,movements,el-ex, rt, d,188754.24189679167, 3.0342409413262343, -0.8764574686484656, 2.9459025955873677, -0.5487697720527649, -1.3273764848709106, 1.0236315727233887, 0.06856004148721695, 0.7684769034385681, 0.636193573474884, 0.09625007957220078, 0.08551156520843506, -0.020928919315338135, -0.902099640076526, 0.06567361880449074, 0.4264442493446501,0.006954757430416819,0.1665191650390625,0.8295135498046875,0.6502532958984375
20220117-1511,2022-01-17 15:11:20Z,u01, 155,40,movements,el-ex, rt, d,188754.26684379167, 2.9702597777211084, -0.8718348506094751, 2.9069690552158542, 0.4163943827152252, -1.3962342739105225, 1.0138647556304932, 0.10970091819763184, 0.7655107975006104, 0.6340020298957825, 0.01865595579147339, 0.09197205305099487, -0.1257472038269043, -0.9011797546189028, 0.0698288710713651, 0.4268802102424981,0.027787905314117983,0.1305999755859375,0.8560333251953125,0.5145416259765625
20220117-1511,2022-01-17 15:11:20Z,u01, 156,40,movements,el-ex, rt, d,188754.2917897917, 2.9029009773826853, -0.8790898572725941, 2.864096853587012, 0.45242297649383545, -1.3509408235549927, 1.0553205013275146, 0.1508084386587143, 0.7701586484909058, 0.6197680234909058, 0.07975181937217712, 0.07380497455596924, 0.029615402221679688, -0.896880611577771, 0.07408892807689221, 0.4333420626881168,0.048276627314691484,0.19500732421875,0.90484619140625,0.603790283203125
20220117-1511,2022-01-17 15:11:20Z,u01, 157,40,movements,el-ex, rt, d,188754.31673579168, 2.839925993062926, -0.8748436150579, 2.8228506128620072, -0.3382149338722229, -1.1636704206466675, 1.0486773252487183, 0.19048351049423218, 0.7674432396888733, 0.612165629863739, 0.08574628829956055, -0.11628967523574829, 0.22331392765045166, -0.8943141609580944, 0.07927801879735852, 0.43508960972860755,0.06792770619880875,0.2732696533203125,0.6563873291015625,0.82904052734375
20220117-1511,2022-01-17 15:11:20Z,u01, 158,40,movements,el-ex, rt, d,188754.34168179167, 2.7904056385233296, -0.8493986473588507, 2.795354268088453, -0.8572825193405151, -1.1720385551452637, 0.9581091403961182, 0.22719790041446686, 0.7508834004402161, 0.6201251745223999, 0.15248648822307587, 0.11059737205505371, 0.05408430099487305, -0.8961405857069981, 0.08363399555306694, 0.42706486591082554,0.08690802904277264,0.371826171875,0.819549560546875,0.7259674072265625
20220117-1511,2022-01-17 15:11:20Z,u01, 159,40,movements,el-ex, rt, d,188754.36662779166, 2.742352533806049, -0.8277769824798189, 2.771919368546192, -0.23085106909275055, -1.253177285194397, 0.8782128691673279, 0.262973427772522, 0.7364292740821838, 0.6233107447624207, 0.04768013954162598, 0.1472528576850891, -0.10831165313720703, -0.8967536194041836, 0.08653512350429587, 0.42083874763442164,0.10601505585096396,0.3167266845703125,0.8861236572265625,0.5258026123046875
20220117-1511,2022-01-17 15:11:20Z,u01, 160,40,movements,el-ex, rt, d,188754.39157379168, 2.686980392876684, -0.8237358160939124, 2.7389112906974673, 0.603604793548584, -1.1995139122009277, 0.8930850028991699, 0.29837125539779663, 0.7336893677711487, 0.6104704141616821, -0.0680857002735138, 0.021956264972686768, 0.042132556438446045, -0.892808768650043, 0.09015380615529478, 0.42344373852852457,0.12433857102370545,0.235137939453125,0.7579345703125,0.5941314697265625
20220117-1511,2022-01-17 15:11:20Z,u01, 161,40,movements,el-ex, rt, d,188754.41651979167, 2.6288482008794882, -0.8275747311699145, 2.6995703909335367, 0.5676901340484619, -1.1563720703125, 0.8729504346847534, 0.3319512605667114, 0.7362924218177795, 0.5896456241607666, 0.014270633459091187, 0.09930938482284546, 0.024978339672088623, -0.8864867474176078, 0.0946786399590846, 0.43037403524309864,0.14126370014550116,0.337005615234375,0.8379364013671875,0.6181793212890625
20220117-1511,2022-01-17 15:11:20Z,u01, 162,40,movements,el-ex, rt, d,188754.44146587502, 2.576660226763226, -0.8225322830291758, 2.6672454138883, -0.05596228316426277, -1.1248952150344849, 0.8505682945251465, 0.364240825176239, 0.7328710556030273, 0.5746554732322693, 0.08258229494094849, -0.03400307893753052, 0.03015720844268799, -0.8818281612457384, 0.09852323526041601, 0.4332074786165109,0.15812537866724272,0.43463134765625,0.7153167724609375,0.6067047119140625
20220117-1511,2022-01-17 15:11:20Z,u01, 163,40,movements,el-ex, rt, d,188754.466411875, 2.5324037619330695, -0.8071328139415702, 2.6453335388209034, -0.14617979526519775, -1.1528546810150146, 0.8428097367286682, 0.395719438791275, 0.7223072648048401, 0.5671671628952026, 0.061189740896224976, 0.02265751361846924, 0.03695881366729736, -0.8793873539652288, 0.10129884400265937, 0.43088818645023014,0.17536214224340896,0.4571380615234375,0.7410888671875,0.6039581298828125
20220117-1511,2022-01-17 15:11:20Z,u01, 164,40,movements,el-ex, rt, d,188754.491357875, 2.485033143092761, -0.7952776332332605, 2.6204981698563548, 0.19868308305740356, -1.2093658447265625, 0.8387567400932312, 0.42732957005500793, 0.714057981967926, 0.5545364618301392, 0.024574726819992065, 0.06410974264144897, -0.021363914012908936, -0.8754502549427894, 0.10418778795519995, 0.4307681320335564,0.19279679060528476,0.4467315673828125,0.7774505615234375,0.5314178466796875
20220117-1511,2022-01-17 15:11:20Z,u01, 165,40,movements,el-ex, rt, d,188754.51630387502, 2.4349702707740635, -0.7874543018918502, 2.591906473853722, 0.218401238322258, -1.1701873540878296, 0.8043220043182373, 0.45815709233283997, 0.7085592150688171, 0.5366894006729126, 0.029269516468048096, 0.054288625717163086, 0.07187670469284058, -0.8699492556032484, 0.10739182265223396, 0.43314729726624357,0.20985370030061568,0.4833221435546875,0.7671051025390625,0.6100616455078125
20220117-1511,2022-01-17 15:11:20Z,u01, 166,40,movements,el-ex, rt, d,188754.541249875, 2.392190679103863, -0.7748278222290741, 2.5715966149773006, -0.21033897995948792, -1.1104106903076172, 0.7302625775337219, 0.4867464303970337, 0.6995930671691895, 0.5231132507324219, 0.09203469753265381, -0.008827626705169678, 0.04683297872543335, -0.8657669373327979, 0.10956384502964434, 0.43267586955463044,0.22635143607983219,0.567138671875,0.6922454833984375,0.563323974609375
20220117-1511,2022-01-17 15:11:20Z,u01, 167,40,movements,el-ex, rt, d,188754.566195875, 2.356658955330929, -0.7575399370930472, 2.560654358232425, -0.25674474239349365, -1.129676342010498, 0.6975117325782776, 0.5134945511817932, 0.6871362328529358, 0.5139718055725098, 0.06876546144485474, 0.05427306890487671, 0.039067625999450684, -0.8630210685730759, 0.11036545001140291, 0.4291262867223016,0.24262046207766075,0.5839385986328125,0.737945556640625,0.55682373046875
20220117-1511,2022-01-17 15:11:20Z,u01, 168,40,movements,el-ex, rt, d,188754.59114187502, 2.3183655850851634, -0.7425766430533753, 2.5466678164363024, 0.020963622257113457, -1.1655585765838623, 0.7489502429962158, 0.5402751564979553, 0.6761884689331055, 0.500870943069458, 0.020103752613067627, 0.02641773223876953, -0.014298856258392334, -0.8590675545501244, 0.11152766690144589, 0.4271834122783556,0.25899572361126855,0.56280517578125,0.72430419921875,0.4779815673828125
20220117-1511,2022-01-17 15:11:20Z,u01, 169,40,movements,el-ex, rt, d,188754.61608887502, 2.2750208726894554, -0.7309862480210914, 2.5255466874031236, 0.1947757601737976, -1.1728676557540894, 0.7495127320289612, 0.5674061179161072, 0.6676042079925537, 0.48203182220458984, -0.0073934197425842285, 0.0037061572074890137, 0.04418262839317322, -0.8532426481503739, 0.11398639555321965, 0.42799686939408804,0.27532288762167917,0.5572357177734375,0.6668853759765625,0.52935791015625
20220117-1511,2022-01-17 15:11:20Z,u01, 170,40,movements,el-ex, rt, d,188754.641034875, 2.233009932046098, -0.7184194857285512, 2.5068618504031375, -0.014634652063250542, -1.1848297119140625, 0.7302259802818298, 0.5937201976776123, 0.6581956148147583, 0.46289870142936707, 0.054366350173950195, -0.0028914809226989746, 0.003928780555725098, -0.8473508175664721, 0.11595664643502523, 0.4283060693645,0.29172707631304273,0.64007568359375,0.6795654296875,0.4731292724609375
20220117-1511,2022-01-17 15:11:20Z,u01, 171,40,movements,el-ex, rt, d,188754.665980875, 2.195646185459506, -0.7019995971830574, 2.4954381699012784, -0.24885401129722595, -1.2106131315231323, 0.7274913191795349, 0.6192797422409058, 0.6457457542419434, 0.4466593563556671, 0.05724900960922241, -0.02662050724029541, 0.03345826268196106, -0.8424193149490926, 0.11687331642677107, 0.4260615971149154,0.30845048790414226,0.6759033203125,0.6155242919921875,0.4819488525390625
20220117-1511,2022-01-17 15:11:20Z,u01, 172,40,movements,el-ex, rt, d,188754.69092687502, 2.1594342762090775, -0.6836520378224246, 2.4870660914133347, -0.1491379290819168, -1.2507290840148926, 0.7601014375686646, 0.6447911262512207, 0.6316285729408264, 0.43045276403427124, 0.042189955711364746, 0.005761563777923584, -0.011385440826416016, -0.8375254006852646, 0.1173779330659358, 0.4227257452720009,0.32569388008996414,0.68017578125,0.6446685791015625,0.4188995361328125
20220117-1511,2022-01-17 15:11:20Z,u01, 173,40,movements,el-ex, rt, d,188754.715872875, 2.121071292761099, -0.6663192249269791, 2.475356415846295, -0.00746269291266799, -1.2259976863861084, 0.7956498861312866, 0.6700581908226013, 0.6180967092514038, 0.41106972098350525, 0.028901100158691406, -0.0029691457748413086, 0.023424148559570312, -0.8315310025439728, 0.11870571061602264, 0.4206073669946274,0.34286225562261263,0.6972808837890625,0.6146697998046875,0.4348907470703125
20220117-1511,2022-01-17 15:11:20Z,u01, 174,40,movements,el-ex, rt, d,188754.740818875, 2.0819896415182653, -0.650293041576663, 2.463666827652186, -0.06029345095157623, -1.2774646282196045, 0.747970700263977, 0.6941587924957275, 0.6054196357727051, 0.3893720507621765, 0.07904970645904541, 0.017581462860107422, -0.014295816421508789, -0.8248468343569366, 0.11963995292213703, 0.419202061881973,0.3599772479644118,0.7716827392578125,0.63543701171875,0.3752288818359375
20220117-1511,2022-01-17 15:11:21Z,u01, 175,40,movements,el-ex, rt, d,188754.76576487502, 2.0462816308039944, -0.6316981320613498, 2.4568789721451045, -0.2675878703594208, -1.2306805849075317, 0.7543133497238159, 0.7175028920173645, 0.5905160307884216, 0.36943212151527405, 0.06663089990615845, -0.009339332580566406, 0.010908335447311401, -0.8187164810714463, 0.12008075378104127, 0.41595599580321296,0.3771795655004446,0.7834320068359375,0.5822601318359375,0.377471923828125
20220117-1511,2022-01-17 15:11:21Z,u01, 176,40,movements,el-ex, rt, d,188754.790710875, 2.0151048115221113, -0.611407197869244, 2.455286386198631, -0.3019295036792755, -1.1997865438461304, 0.714048445224762, 0.7393382787704468, 0.5740203261375427, 0.35196542739868164, 0.05555307865142822, 0.03524792194366455, 0.056069761514663696, -0.8133819330449087, 0.11996890209561478, 0.4109538112412967,0.39387086837516344,0.796173095703125,0.5831451416015625,0.421722412109375
20220117-1511,2022-01-17 15:11:21Z,u01, 177,40,movements,el-ex, rt, d,188754.815656875, 1.9840282285725235, -0.5931170614962826, 2.452281201366647, -0.1316218227148056, -1.158970594406128, 0.6898384094238281, 0.7594064474105835, 0.5589483976364136, 0.3329838216304779, 0.04929399490356445, 0.08767330646514893, 0.013268470764160156, -0.8075153364550205, 0.12004535333925365, 0.4069986617416178,0.4097072927629556,0.8089599609375,0.6446685791015625,0.346832275390625
20220117-1511,2022-01-17 15:11:21Z,u01, 178,40,movements,el-ex, rt, d,188754.84060287502, 1.952936022817419, -0.5767545882945533, 2.44739769725754, -0.13133400678634644, -1.1181551218032837, 0.6480056047439575, 0.7777736186981201, 0.545306384563446, 0.3125840425491333, 0.04324060678482056, 0.05529475212097168, 0.01740238070487976, -0.8011142228234673, 0.12044923384854844, 0.4041912224641522,0.42466141562145765,0.8163299560546875,0.60723876953125,0.335968017578125
20220117-1511,2022-01-17 15:11:21Z,u01, 179,40,movements,el-ex, rt, d,188754.865548875, 1.9246352378956897, -0.5592756594968958, 2.4456978001227014, -0.2615385949611664, -1.056288719177246, 0.6688955426216125, 0.7951278686523438, 0.5305723547935486, 0.29370835423469543, 0.039955079555511475, 0.03197348117828369, 0.006080985069274902, -0.7951810984009687, 0.12058687520437678, 0.4002317027387158,0.43927256753727817,0.8358306884765625,0.5652923583984375,0.2982635498046875
20220117-1511,2022-01-17 15:11:21Z,u01, 180,40,movements,el-ex, rt, d,188754.890494875, 1.9001669218737058, -0.5411114429623458, 2.4477312093425705, -0.3382026255130768, -0.9926564693450928, 0.6205758452415466, 0.8110620379447937, 0.5150889754295349, 0.277238667011261, 0.008197367191314697, 0.04292488098144531, 0.06173524260520935, -0.7900235698022666, 0.12034156214105879, 0.3950216299263024,0.4531428142095716,0.8123321533203125,0.545806884765625,0.3503875732421875
20220117-1511,2022-01-17 15:11:21Z,u01, 181,40,movements,el-ex, rt, d,188754.91544087502, 1.8778889477395027, -0.524463410660046, 2.4503479375554558, -0.23254121840000153, -0.9043024778366089, 0.5527802109718323, 0.8250971436500549, 0.5007486343383789, 0.2616587281227112, -0.006066441535949707, 0.0779409408569336, 0.03344619274139404, -0.7851349547781727, 0.11996863172488315, 0.3900745852235999,0.4658458345131188,0.8198394775390625,0.5768585205078125,0.296539306640625
20220117-1511,2022-01-17 15:11:21Z,u01, 182,40,movements,el-ex, rt, d,188754.940386875, 1.8562138399065797, -0.5107519848414475, 2.450870547240835, -0.13273146748542786, -0.8544064164161682, 0.5240725874900818, 0.837084174156189, 0.48883339762687683, 0.24562478065490723, 0.021588683128356934, 0.0872163474559784, 0.032100290060043335, -0.7800473740774054, 0.11974341543530309, 0.38659196224691134,0.4772149271467845,0.8538360595703125,0.5891265869140625,0.2794189453125
20220117-1511,2022-01-17 15:11:21Z,u01, 183,40,movements,el-ex, rt, d,188754.965332875, 1.8351498911972874, -0.4986093336987312, 2.449107651098845, -0.01655302755534649, -0.7549024224281311, 0.48940783739089966, 0.8477392792701721, 0.4782046377658844, 0.22947338223457336, 0.01654881238937378, 0.04004478454589844, 0.06604345142841339, -0.774795720753686, 0.12011778691239544, 0.3841803236897107,0.48751268936317826,0.8632965087890625,0.5211029052734375,0.298004150390625
20220117-1511,2022-01-17 15:11:21Z,u01, 184,40,movements,el-ex, rt, d,188754.990279875, 1.8156196349771005, -0.4878248543905721, 2.4465696398968033, -0.040429431945085526, -0.7127532958984375, 0.4258553087711334, 0.857012927532196, 0.46870556473731995, 0.21411177515983582, -0.00795292854309082, 0.05706655979156494, 0.0851588249206543, -0.7697293740398647, 0.12071693669527811, 0.3823638260344713,0.4967313050925506,0.8494873046875,0.5274658203125,0.30694580078125
20220117-1511,2022-01-17 15:11:21Z,u01, 185,40,movements,el-ex, rt, d,188755.01522587502, 1.7989982718260094, -0.4777710006523786, 2.447074224807786, -0.18320156633853912, -0.621153712272644, 0.37775105237960815, 0.8649998903274536, 0.45980092883110046, 0.2008940875530243, -0.005685925483703613, 0.0543440580368042, 0.08880928158760071, -0.7654558638801812, 0.12051708175644021, 0.37988743390828444,0.5052114070052416,0.8582305908203125,0.51605224609375,0.29034423828125
20220117-1511,2022-01-17 15:11:21Z,u01, 186,40,movements,el-ex, rt, d,188755.040171875, 1.7860379840135894, -0.46783450901962836, 2.450613621530381, -0.23182006180286407, -0.533444881439209, 0.3462989032268524, 0.8719512224197388, 0.4509545564651489, 0.19063331186771393, -0.01123344898223877, 0.01237863302230835, 0.11039212346076965, -0.7622008252245764, 0.11986058037737518, 0.37646393881864443,0.5127945624498309,0.8626861572265625,0.464630126953125,0.305938720703125
20220117-1511,2022-01-17 15:11:21Z,u01, 187,40,movements,el-ex, rt, d,188755.065117875, 1.7755057685203237, -0.45923628835771985, 2.454006537093724, -0.09432382136583328, -0.4425385892391205, 0.27840620279312134, 0.8776747584342957, 0.4432636499404907, 0.18222081661224365, -0.01251673698425293, 0.07887691259384155, 0.0796046257019043, -0.7595197237617886, 0.11933231192469879, 0.3733671684159731,0.5191209463544546,0.8640594482421875,0.5222625732421875,0.2592620849609375
20220117-1511,2022-01-17 15:11:21Z,u01, 188,40,movements,el-ex, rt, d,188755.09006387502, 1.765346266885226, -0.45340391664352525, 2.4543141474394563, -0.08650881052017212, -0.38228994607925415, 0.18328040838241577, 0.8820019960403442, 0.4380280673503876, 0.17379164695739746, -0.013456642627716064, 0.07137134671211243, 0.1038571447134018, -0.756762880814801, 0.11918793633639713, 0.37196326517094763,0.5241634886888883,0.8708038330078125,0.5030670166015625,0.2803955078125
20220117-1511,2022-01-17 15:11:21Z,u01, 189,40,movements,el-ex, rt, d,188755.115009875, 1.7578515937117232, -0.4482121508628815, 2.4561331082320335, -0.13214270770549774, -0.285665363073349, 0.19059458374977112, 0.8855023384094238, 0.4333549737930298, 0.16759717464447021, -0.025166213512420654, 0.041315436363220215, 0.10425327718257904, -0.7547784851217336, 0.11877719997916736, 0.3702171510252963,0.5283375286871077,0.8607635498046875,0.475433349609375,0.2692108154296875
20220117-1511,2022-01-17 15:11:21Z,u01, 190,40,movements,el-ex, rt, d,188755.139955875, 1.753489227540757, -0.4438653107587325, 2.459901180202998, -0.15719716250896454, -0.19907233119010925, 0.13985955715179443, 0.8880689740180969, 0.4294334352016449, 0.1640733778476715, -0.00208282470703125, 0.0557045042514801, 0.09618042409420013, -0.7537402269355418, 0.11795067001651871, 0.3680434426058299,0.5315140434895854,0.885833740234375,0.483917236328125,0.2650146484375
20220117-1511,2022-01-17 15:11:21Z,u01, 191,40,movements,el-ex, rt, d,188755.16490187502, 1.7509447237159752, -0.4412024243781497, 2.4620451581257723, -0.06083127483725548, -0.06622546166181564, 0.06538573652505875, 0.8896056413650513, 0.42702704668045044, 0.16201750934123993, -0.02695012092590332, 0.07455986738204956, 0.0952608585357666, -0.7531231101357128, 0.11753440050173736, 0.3667442218832019,0.5333759526557681,0.8632049560546875,0.5027313232421875,0.2547760009765625
20220117-1511,2022-01-17 15:11:21Z,u01, 192,40,movements,el-ex, rt, d,188755.189847875, 1.750879597759578, -0.4408824053712459, 2.4620810648017586, 0.06290198117494583, 0.08068408817052841, -0.03123481385409832, 0.8897504806518555, 0.4267376661300659, 0.16198402643203735, -0.03267967700958252, 0.09828680753707886, 0.09711015224456787, -0.7530998509392928, 0.11761218236235743, 0.3666328918624036,0.5334681027018969,0.8565826416015625,0.520263671875,0.268402099609375
20220117-1511,2022-01-17 15:11:21Z,u01, 193,40,movements,el-ex, rt, d,188755.214793875, 1.7531591125720751, -0.44323653580833544, 2.460165431552724, 0.07217823714017868, 0.2016945332288742, -0.10983628034591675, 0.8883885145187378, 0.4288654923439026, 0.16382914781570435, -0.016547203063964844, 0.07967942953109741, 0.10500013828277588, -0.7536525839628224, 0.11799305059845722, 0.3677853009328733,0.5318075680232338,0.8732452392578125,0.510345458984375,0.2677154541015625
20220117-1511,2022-01-17 15:11:21Z,u01, 194,40,movements,el-ex, rt, d,188755.23973987502, 1.760147591896659, -0.44749991658007104, 2.4608963095618543, -0.043278779834508896, 0.3241196572780609, -0.20984449982643127, 0.885418176651001, 0.43271297216415405, 0.1696879118680954, -0.023540854454040527, 0.08567386865615845, 0.14172863960266113, -0.7556498829060017, 0.11763166503378958, 0.36858783262645833,0.5284874649433962,0.862762451171875,0.5160064697265625,0.3051910400390625
20220117-1511,2022-01-17 15:11:21Z,u01, 195,40,movements,el-ex, rt, d,188755.264685875, 1.7722231284562764, -0.45383380080741226, 2.4649374096834507, -0.09887782484292984, 0.44863367080688477, -0.325324147939682, 0.8806015849113464, 0.43841445446014404, 0.17981523275375366, -0.027330219745635986, 0.08972278237342834, 0.13027380406856537, -0.7591985204656625, 0.11629797669079023, 0.36891860916079244,0.5234418690675228,0.8546295166015625,0.526580810546875,0.310150146484375
20220117-1511,2022-01-17 15:11:21Z,u01, 196,40,movements,el-ex, rt, d,188755.289631875, 1.787036260269903, -0.4627417674423942, 2.4699516813350924, -0.10575191676616669, 0.5471758246421814, -0.4353296160697937, 0.8739922046661377, 0.4464032053947449, 0.19199392199516296, -0.005446791648864746, 0.1243060827255249, 0.12970709800720215, -0.7635020108522245, 0.11428752551381038, 0.3697302019041884,0.5170131294387847,0.8603668212890625,0.5747833251953125,0.3209991455078125
20220117-1511,2022-01-17 15:11:21Z,u01, 197,40,movements,el-ex, rt, d,188755.31457787502, 1.805633001585241, -0.47330139271969374, 2.476847748798796, -0.1777762770652771, 0.6912660002708435, -0.5110496282577515, 0.8656378388404846, 0.4558272361755371, 0.20710474252700806, -0.005530595779418945, 0.10349896550178528, 0.12782561779022217, -0.768807072610713, 0.11174997709236023, 0.3704551830734054,0.5091271764989873,0.8596954345703125,0.5598602294921875,0.332977294921875
20220117-1511,2022-01-17 15:11:21Z,u01, 198,40,movements,el-ex, rt, d,188755.339523875, 1.8291985547781064, -0.48604431518124425, 2.4857790793332977, -0.1659492701292038, 0.8514575362205505, -0.650001585483551, 0.854832112789154, 0.46713197231292725, 0.22594189643859863, -0.014103472232818604, 0.12597715854644775, 0.12208056449890137, -0.7753441033409716, 0.10868517953608026, 0.3712211921827452,0.4992232644454023,0.8405609130859375,0.5765533447265625,0.3584136962890625
20220117-1511,2022-01-17 15:11:21Z,u01, 199,40,movements,el-ex, rt, d,188755.364470875, 1.855869837852084, -0.5019262892774792, 2.493802853222242, -0.020088139921426773, 0.9884305000305176, -0.7132353186607361, 0.8412761688232422, 0.4811151325702667, 0.24654054641723633, 0.006562948226928711, 0.131235271692276, 0.10827204585075378, -0.7823779528148338, 0.10561729064075165, 0.3732467255686744,0.487253987978162,0.8482818603515625,0.6128692626953125,0.3528594970703125
20220117-1511,2022-01-17 15:11:21Z,u01, 200,40,movements,el-ex, rt, d,188755.389416875, 1.884948510425089, -0.5198054256489083, 2.5000450998961266, 0.004213670268654823, 1.1033189296722412, -0.7700789570808411, 0.8254387378692627, 0.49671128392219543, 0.2681948244571686, 0.02624565362930298, 0.09201857447624207, 0.11071130633354187, -0.7895909584918602, 0.10316752326946793, 0.3764068303850825,0.4735191065543447,0.85394287109375,0.59375,0.3693695068359375
20220117-1511,2022-01-17 15:11:21Z,u01, 201,40,movements,el-ex, rt, d,188755.41436287502, 1.9180090293191077, -0.538718820770222, 2.5087446401032256, -0.10121215879917145, 1.2007871866226196, -0.8705391883850098, 0.8071433305740356, 0.5130366683006287, 0.29208338260650635, 0.03356999158859253, 0.09034156799316406, 0.11621114611625671, -0.7974852908330996, 0.10029409126456684, 0.37930285945577924,0.4583530782580464,0.8412017822265625,0.6038818359375,0.4071807861328125
20220117-1511,2022-01-17 15:11:21Z,u01, 202,40,movements,el-ex, rt, d,188755.43930875, 1.9564487058228777, -0.5582069981217042, 2.5228478819371487, -0.22204628586769104, 1.2912460565567017, -0.912594199180603, 0.785908043384552, 0.5296661853790283, 0.31906428933143616, 0.05506473779678345, 0.0719572901725769, 0.10455009341239929, -0.8063954065544464, 0.0962216044296354, 0.3811351232955854,0.4418187112037117,0.840545654296875,0.6007232666015625,0.425537109375
20220117-1511,2022-01-17 15:11:21Z,u01, 203,40,movements,el-ex, rt, d,188755.46425475, 1.9987999846846352, -0.5782374277426832, 2.540324461881918, -0.19333025813102722, 1.3551064729690552, -0.9909407496452332, 0.7618879675865173, 0.5465487837791443, 0.34757861495018005, 0.07081449031829834, 0.07030302286148071, 0.07029852271080017, -0.8157338629971609, 0.0914744131422538, 0.3825614191421398,0.4240959053116357,0.8330841064453125,0.6174163818359375,0.4189300537109375
20220117-1511,2022-01-17 15:11:21Z,u01, 204,40,movements,el-ex, rt, d,188755.48920075002, 2.0426462283833065, -0.5991278687875924, 2.5567999667842756, -0.04196680337190628, 1.4180010557174683, -1.0030397176742554, 0.7355887293815613, 0.5639224648475647, 0.37536749243736267, 0.06545186042785645, 0.07363563776016235, 0.054777681827545166, -0.8246593033955978, 0.08729706110981716, 0.3848125251737258,0.40525992053535614,0.8128814697265625,0.6364593505859375,0.43231201171875
20220117-1511,2022-01-17 15:11:21Z,u01, 205,40,movements,el-ex, rt, d,188755.51414675, 2.0876458991887716, -0.6210961805000215, 2.572152365466804, -0.039798129349946976, 1.4955132007598877, -0.9975236058235168, 0.7070155143737793, 0.5819269418716431, 0.40185782313346863, 0.08981353044509888, 0.03925830125808716, 0.04379028081893921, -0.8330232369565619, 0.08367312146677947, 0.38799718405809136,0.38539479760463285,0.7960205078125,0.624053955078125,0.4443206787109375
20220117-1511,2022-01-17 15:11:21Z,u01, 206,40,movements,el-ex, rt, d,188755.53909275, 2.136795552647164, -0.6413338002630581, 2.5906845007839663, -0.16826573014259338, 1.5752993822097778, -1.0354342460632324, 0.6763385534286499, 0.598264753818512, 0.4297039210796356, 0.10411792993545532, 0.0058765411376953125, 0.05747866630554199, -0.8416799154188247, 0.080167847186076, 0.3901283445315907,0.3646202358041827,0.782958984375,0.59539794921875,0.4924468994140625
20220117-1511,2022-01-17 15:11:21Z,u01, 207,40,movements,el-ex, rt, d,188755.56403875002, 2.189971986564732, -0.6608428652495238, 2.612552747834516, -0.07975146919488907, 1.6263169050216675, -1.04013192653656, 0.6429147720336914, 0.6137824654579163, 0.45818302035331726, 0.13073629140853882, 0.02789539098739624, 0.0036699771881103516, -0.8504447332077103, 0.07638886551178203, 0.3916515367179026,0.34280835204106297,0.7772369384765625,0.63482666015625,0.4619598388671875
20220117-1511,2022-01-17 15:11:21Z,u01, 208,40,movements,el-ex, rt, d,188755.58898475, 2.2433220864688255, -0.6813910997773227, 2.633466594828986, -0.0013068625703454018, 1.6412495374679565, -1.029974102973938, 0.6075718402862549, 0.6298741102218628, 0.48385411500930786, 0.12390387058258057, 0.024590611457824707, 0.030458420515060425, -0.8582550476626536, 0.07297482172072045, 0.3941964821144263,0.3204402798791897,0.7501678466796875,0.6780242919921875,0.4924774169921875
20220117-1511,2022-01-17 15:11:21Z,u01, 209,40,movements,el-ex, rt, d,188755.61393075, 2.298739804173978, -0.7006907752567847, 2.6561919921497394, -0.09721901267766953, 1.6558356285095215, -1.0304579734802246, 0.5706559419631958, 0.6447458863258362, 0.5085804462432861, 0.13541382551193237, -0.009293735027313232, 0.0011544227600097656, -0.8656981509368612, 0.06969175516436632, 0.3963496398206061,0.29768537887547253,0.7074127197265625,0.637847900390625,0.5107269287109375
20220117-1511,2022-01-17 15:11:21Z,u01, 210,40,movements,el-ex, rt, d,188755.63887675002, 2.3575516613726677, -0.7177853774449723, 2.68231058269148, -0.054311491549015045, 1.6982003450393677, -1.0289504528045654, 0.5319148302078247, 0.6577180624008179, 0.5333606004714966, 0.13002663850784302, -0.006228804588317871, 0.03270983695983887, -0.8730900837615481, 0.0662872996010469, 0.39749706662656326,0.2744372164507947,0.6768951416015625,0.6530609130859375,0.5530242919921875
20220117-1511,2022-01-17 15:11:21Z,u01, 211,40,movements,el-ex, rt, d,188755.66382275, 2.4178593549778173, -0.7356716670720457, 2.7090424950110106, -0.009184759110212326, 1.7156298160552979, -1.0647716522216797, 0.49093204736709595, 0.6710852384567261, 0.5555447936058044, 0.1506541669368744, 0.03826528787612915, -0.0071288347244262695, -0.8796658657829324, 0.06293147576431346, 0.39936225294667854,0.25047415453499355,0.641021728515625,0.7067718505859375,0.547607421875
20220117-1511,2022-01-17 15:11:21Z,u01, 212,40,movements,el-ex, rt, d,188755.68876875, 2.479695941820642, -0.7530949634100098, 2.737463072530481, -0.02541336417198181, 1.712106466293335, -1.1134519577026367, 0.44840753078460693, 0.6839000582695007, 0.5755096673965454, 0.1432519257068634, 0.03150832653045654, 0.013448953628540039, -0.8855622052307084, 0.0594509230945654, 0.4013268124455246,0.22623426725419687,0.60943603515625,0.7183990478515625,0.5739593505859375
20220117-1511,2022-01-17 15:11:21Z,u01, 213,40,movements,el-ex, rt, d,188755.71371475002, 2.5447030296239994, -0.7682852900921059, 2.7694061989261827, -0.06812983751296997, 1.728988766670227, -1.1019593477249146, 0.4041881263256073, 0.6949031949043274, 0.5947613716125488, 0.15440550446510315, 0.011105656623840332, 0.030070602893829346, -0.891225184089392, 0.055662871929213875, 0.4024511274120287,0.20162410021061908,0.56097412109375,0.7081756591796875,0.6201629638671875
20220117-1511,2022-01-17 15:11:21Z,u01, 214,40,movements,el-ex, rt, d,188755.73866075, 2.612482270499701, -0.7816433172988588, 2.8042191540340378, -0.10473325848579407, 1.7600222826004028, -1.1573078632354736, 0.3582606911659241, 0.7044467329978943, 0.612701952457428, 0.14743074774742126, 0.05010032653808594, 0.01798933744430542, -0.8964849021120527, 0.05163145569771943, 0.40306478555998904,0.17660032841415413,0.5187835693359375,0.7254638671875,0.62347412109375
20220117-1511,2022-01-17 15:11:22Z,u01, 215,40,movements,el-ex, rt, d,188755.76360775, 2.683477882643015, -0.7929990831964364, 2.842472206423289, -0.09113095700740814, 1.7448756694793701, -1.177230954170227, 0.31033751368522644, 0.712460994720459, 0.6293564438819885, 0.15475022792816162, 0.07063525915145874, 0.0039746761322021484, -0.9013632326401704, 0.047143764356670725, 0.4031141303005525,0.1510650044310003,0.4665069580078125,0.784698486328125,0.63873291015625
20220117-1511,2022-01-17 15:11:22Z,u01, 216,40,movements,el-ex, rt, d,188755.78855375, 2.7555527951315795, -0.8027322174942749, 2.8823053268744605, -0.12906982004642487, 1.756593108177185, -1.170944333076477, 0.26158687472343445, 0.7192569375038147, 0.6436160206794739, 0.12313291430473328, 0.0617184042930603, 0.028731882572174072, -0.9055402130723638, 0.04248456312289389, 0.4030317894163168,0.12552817877269934,0.4017181396484375,0.7857513427734375,0.6545562744140625
20220117-1511,2022-01-17 15:11:22Z,u01, 217,40,movements,el-ex, rt, d,188755.81349975002, 2.8292562429611774, -0.8086478696598469, 2.9236353724452258, -0.20130230486392975, 1.7474565505981445, -1.1463239192962646, 0.21217170357704163, 0.7233542203903198, 0.6570703983306885, 0.1402909755706787, 0.0123024582862854, 0.016009867191314697, -0.9094475196534633, 0.037952697776656885, 0.4018569107600243,0.09987854782999749,0.3550872802734375,0.73773193359375,0.672943115234375
20220117-1511,2022-01-17 15:11:22Z,u01, 218,40,movements,el-ex, rt, d,188755.83844575, 2.902918707395635, -0.8115828769273089, 2.965279434796056, -0.16681253910064697, 1.7370843887329102, -1.1345309019088745, 0.16273601353168488, 0.7253776788711548, 0.6688376069068909, 0.11057934165000916, 0.05179816484451294, -0.01850825548171997, -0.9128506501679857, 0.03350364987813076, 0.4000471427021704,0.07445354342284685,0.291595458984375,0.76971435546875,0.6595001220703125
20220117-1511,2022-01-17 15:11:22Z,u01, 219,40,movements,el-ex, rt, d,188755.86339175, 2.9761085631432596, -0.815519939871356, 3.006775850917859, 0.00953233614563942, 1.7135798931121826, -1.182911992073059, 0.11292058974504471, 0.7280821204185486, 0.6761249899864197, 0.11535082012414932, 0.046881139278411865, -0.055931687355041504, -0.9150005056998041, 0.028923443310853225, 0.39941028194520495,0.04907972661859189,0.2298583984375,0.7741851806640625,0.62237548828125
20220117-1511,2022-01-17 15:11:22Z,u01, 220,40,movements,el-ex, rt, d,188755.88833775002, 3.0494211559223086, -0.8207027657052793, 3.049264306989377, 0.09039619565010071, 1.6856462955474854, -1.1803038120269775, 0.06274503469467163, 0.7316250801086426, 0.6788134574890137, 0.1316213607788086, 0.0315433144569397, 0.002582848072052002, -0.9158793059287977, 0.023912717020940166, 0.40003294460444494,0.023809517308944095,0.2039642333984375,0.78533935546875,0.661529541015625
20220117-1511,2022-01-17 15:11:22Z,u01, 221,40,movements,el-ex, rt, d,188755.91328375, 3.1228552158565956, -0.822631790898485, 3.092888540225625, -0.08612967282533646, 1.6520881652832031, -1.2026565074920654, 0.012746233493089676, 0.7329387664794922, 0.680175244808197, 0.14071136713027954, -0.003889024257659912, -0.0073084235191345215, -0.9163747369791082, 0.018573204178878866, 0.3998888229251554,-0.0011502938674507468,0.1562652587890625,0.727996826171875,0.6709747314453125
20220117-1511,2022-01-17 15:11:22Z,u01, 222,40,movements,el-ex, rt, d,188755.93822975, -3.08812814686826, -0.818619232037828, 3.1363493231342767, -0.15571337938308716, 1.5971871614456177, -1.1674013137817383, -0.03651115298271179, 0.7302031517028809, 0.6822537183761597, 0.1337553858757019, -0.00911855697631836, -0.013583183288574219, -0.9170369585866152, 0.013041735518436681, 0.3977682351038272,-0.025564035674327162,0.1097564697265625,0.73358154296875,0.6678314208984375
20220117-1511,2022-01-17 15:11:22Z,u01, 223,40,movements,el-ex, rt, d,188755.96317575002, -3.0179920205847366, -0.8122858049123776, -3.1047716714468376, -0.12905655801296234, 1.5671508312225342, -1.1835196018218994, -0.08480127900838852, 0.7258613109588623, 0.682593584060669, 0.13883262872695923, 0.02268904447555542, -0.020057082176208496, -0.9171915316028841, 0.007516128631201102, 0.3952924213576946,-0.049468085396556866,0.055999755859375,0.7460784912109375,0.66326904296875
20220117-1511,2022-01-17 15:11:22Z,u01, 224,40,movements,el-ex, rt, d,188755.98812175, -2.948752456048704, -0.8054132035401828, -3.0631115610684, -0.044579703360795975, 1.5563032627105713, -1.1776446104049683, -0.13277576863765717, 0.7211169600486755, 0.6799713969230652, 0.14653916656970978, 0.020628035068511963, 0.015798866748809814, -0.9165056208244404, 0.001775876215635408, 0.39326381656309084,-0.07319788804334804,0.02459716796875,0.748046875,0.6945953369140625
20220117-1511,2022-01-17 15:11:22Z,u01, 225,40,movements,el-ex, rt, d,188756.01306775, -2.8809853463899486, -0.7980941696948778, -3.022217353648901, -0.039931852370500565, 1.5409164428710938, -1.1631040573120117, -0.17987047135829926, 0.7160269618034363, 0.6745009422302246, 0.15321333706378937, 0.0004341006278991699, -0.030229270458221436, -0.9150047199403479, -0.004104267351572433, 0.3917025551602026,-0.0965323825084545,-0.0239105224609375,0.71649169921875,0.64178466796875
20220117-1511,2022-01-17 15:11:22Z,u01, 226,40,movements,el-ex, rt, d,188756.03801375002, -2.8146414407249787, -0.7887625496858796, -2.9828072356462454, -0.03722471743822098, 1.5288605690002441, -1.1633621454238892, -0.2263270914554596, 0.7094817757606506, 0.6673914790153503, 0.1349727064371109, 0.00493466854095459, 0.010968267917633057, -0.9130156493096608, -0.009907881804597118, 0.38983668420243944,-0.11971436445471889,-0.08087158203125,0.721771240234375,0.6882171630859375
20220117-1511,2022-01-17 15:11:22Z,u01, 227,40,movements,el-ex, rt, d,188756.06295975, -2.7501993466612396, -0.7776125487281328, -2.9452504034488594, -0.047711774706840515, 1.5260257720947266, -1.1493103504180908, -0.2718367278575897, 0.7015801668167114, 0.6587033867835999, 0.14431899785995483, -0.00724416971206665, -0.0011259913444519043, -0.9105537169931326, -0.015608854456119703, 0.3876940644640775,-0.14262410661322225,-0.12396240234375,0.696258544921875,0.65533447265625
20220117-1511,2022-01-17 15:11:22Z,u01, 228,40,movements,el-ex, rt, d,188756.08790575, -2.6870267009006352, -0.7652246281285947, -2.9095206897453187, 0.016508253291249275, 1.5291112661361694, -1.1316957473754883, -0.31667086482048035, 0.6926990151405334, 0.6479876041412354, 0.1305135190486908, 0.013477921485900879, 0.0032880306243896484, -0.907496213928529, -0.021081525386235644, 0.38549904098202703,-0.16551972263942147,-0.1737060546875,0.711669921875,0.67169189453125
20220117-1511,2022-01-17 15:11:22Z,u01, 229,40,movements,el-ex, rt, d,188756.11285175002, -2.6245169914332567, -0.7533640664172456, -2.8739016390305276, 0.06189540773630142, 1.5062000751495361, -1.1148172616958618, -0.36056753993034363, 0.6840963363647461, 0.6340370178222656, 0.12958002090454102, 0.003083169460296631, -0.01816195249557495, -0.9034944562806757, -0.026763377724452253, 0.38415730787499747,-0.1881609976651302,-0.2294158935546875,0.688140869140625,0.61883544921875
20220117-1511,2022-01-17 15:11:22Z,u01, 230,40,movements,el-ex, rt, d,188756.13779775, -2.5651558501143916, -0.7395760189491142, -2.841465132261875, -0.03714059293270111, 1.4933586120605469, -1.0843453407287598, -0.40265050530433655, 0.6739747524261475, 0.6193788647651672, 0.09491127729415894, -0.042276203632354736, 0.017354905605316162, -0.8992557979856705, -0.032069150952986514, 0.38223814568448794,-0.21024852043834508,-0.2956695556640625,0.63037109375,0.64862060546875
20220117-1511,2022-01-17 15:11:22Z,u01, 231,40,movements,el-ex, rt, d,188756.16274375, -2.5102276550173666, -0.722883832119704, -2.8139700175981046, -0.10499697178602219, 1.434755563735962, -1.0263986587524414, -0.44262680411338806, 0.661549985408783, 0.6053368449211121, 0.10987842082977295, -0.03015667200088501, -0.026433885097503662, -0.8951661811701057, -0.03668673700501285, 0.3790081440466949,-0.23169868281716238,-0.3310546875,0.632293701171875,0.582977294921875
20220117-1511,2022-01-17 15:11:22Z,u01, 232,40,movements,el-ex, rt, d,188756.18769075, -2.458978975005569, -0.705181130981243, -2.789534382833863, -0.10808956623077393, 1.4127233028411865, -1.0137914419174194, -0.4803681969642639, 0.6481717824935913, 0.5908635854721069, 0.09111645817756653, 0.017508208751678467, 0.012682497501373291, -0.8909238954026923, -0.04106598782972504, 0.37539265551930123,-0.2522866813223561,-0.376953125,0.6651763916015625,0.5811920166015625
20220117-1511,2022-01-17 15:11:22Z,u01, 233,40,movements,el-ex, rt, d,188756.21263675002, -2.4099387414701474, -0.686517242849242, -2.7668527044985898, -0.15261122584342957, 1.3519395589828491, -1.0039268732070923, -0.5167482495307922, 0.6338472366333008, 0.5755072832107544, 0.10825526714324951, -0.020337224006652832, -0.006415665149688721, -0.8863870649661518, -0.04551498056312864, 0.3715335425349966,-0.2724134745189223,-0.4071807861328125,0.6157684326171875,0.5725555419921875
20220117-1511,2022-01-17 15:11:22Z,u01, 234,40,movements,el-ex, rt, d,188756.23758275, -2.3657004550701317, -0.6655192749158638, -2.748350093317299, -0.24104328453540802, 1.2786288261413574, -0.9965950846672058, -0.550895094871521, 0.6174677014350891, 0.561469554901123, 0.09621375799179077, -0.018987536430358887, -0.030341804027557373, -0.8821913279347214, -0.04973159952814943, 0.3663994135040396,-0.29157612985716524,-0.4410858154296875,0.60369873046875,0.5135040283203125
20220117-1511,2022-01-17 15:11:22Z,u01, 235,40,movements,el-ex, rt, d,188756.26252875, -2.3244968083071935, -0.6438198189341227, -2.732305871746672, -0.23684564232826233, 1.2584134340286255, -0.9698469042778015, -0.5831897258758545, 0.6002549529075623, 0.5473424196243286, 0.07990908622741699, -0.024586617946624756, 0.014959096908569336, -0.8779361290561619, -0.053845869135287217, 0.3608689552532015,-0.31000381499727153,-0.5007781982421875,0.57635498046875,0.562164306640625
20220117-1511,2022-01-17 15:11:22Z,u01, 236,40,movements,el-ex, rt, d,188756.28747475002, -2.285106467238598, -0.6217436211715314, -2.7182799423656374, -0.28125667572021484, 1.2296333312988281, -0.9660854935646057, -0.6141554713249207, 0.5824533700942993, 0.532504141330719, 0.0890548825263977, 0.06296283006668091, -0.008807480335235596, -0.8734508331762466, -0.05775560949048136, 0.3551150662159286,-0.3280869941733716,-0.5263519287109375,0.6308135986328125,0.54266357421875
20220117-1511,2022-01-17 15:11:22Z,u01, 237,40,movements,el-ex, rt, d,188756.31242075, -2.248695806712578, -0.5991792771956267, -2.706723700465018, -0.31907257437705994, 1.1791514158248901, -0.901477575302124, -0.6432079076766968, 0.5639649033546448, 0.5179065465927124, 0.11005055904388428, 0.009017884731292725, -0.025825977325439453, -0.8690065885906871, -0.061488496240503177, 0.3489273442382592,-0.34539314846631813,-0.5300445556640625,0.57684326171875,0.49127197265625
20220117-1511,2022-01-17 15:11:22Z,u01, 238,40,movements,el-ex, rt, d,188756.33736675, -2.2142977799938097, -0.5765299127463854, -2.6987064607854405, -0.393978089094162, 1.2095555067062378, -0.854488730430603, -0.6706873774528503, 0.5451180338859558, 0.5030158758163452, 0.08401739597320557, -0.02976769208908081, 0.01836162805557251, -0.864506834580659, -0.06431073042870777, 0.34223901263422185,-0.36244251876673533,-0.5827789306640625,0.517242431640625,0.547210693359375
20220117-1511,2022-01-17 15:11:22Z,u01, 239,40,movements,el-ex, rt, d,188756.36231275002, -2.181455972988845, -0.55371092010612, -2.694315129066572, -0.4009075164794922, 1.2620439529418945, -0.8052346706390381, -0.696853756904602, 0.5258472561836243, 0.4877287745475769, 0.08210772275924683, -0.002867579460144043, 0.04097282886505127, -0.8599369634384914, -0.06612723291890593, 0.33492429820617026,-0.37942230929585463,-0.612060546875,0.5196990966796875,0.526458740234375
20220117-1511,2022-01-17 15:11:22Z,u01, 240,40,movements,el-ex, rt, d,188756.38725875, -2.1462261757831897, -0.5328395978681747, -2.688566413493462, -0.21598763763904572, 1.3294047117233276, -0.8148919343948364, -0.7226521372795105, 0.5079813003540039, 0.4687526524066925, 0.06788218021392822, 0.03893953561782837, 0.05326563119888306, -0.8542634800025317, -0.0678987074347358, 0.32886207024000275,-0.39682926428114024,-0.6516265869140625,0.5415802001953125,0.512420654296875
20220117-1511,2022-01-17 15:11:22Z,u01, 241,40,movements,el-ex, rt, d,188756.41220475, -2.1079043831517352, -0.5136263749512785, -2.679382298621827, -0.12898080050945282, 1.3694523572921753, -0.8272697329521179, -0.7483289241790771, 0.49133893847465515, 0.4456338882446289, 0.09401684999465942, 0.03933119773864746, 0.027266234159469604, -0.8472641497161465, -0.07043016492446863, 0.324424318600791,-0.41464662261768537,-0.654022216796875,0.531005859375,0.4739990234375
20220117-1511,2022-01-17 15:11:22Z,u01, 242,40,movements,el-ex, rt, d,188756.43715075002, -2.0702207232962966, -0.49327883966496716, -2.6723654388444555, -0.2404208481311798, 1.3599351644515991, -0.7903475165367126, -0.7732044458389282, 0.4735163748264313, 0.4218257963657379, 0.10412180423736572, -0.019109636545181274, 0.004428386688232422, -0.8400209652485023, -0.07264761466061609, 0.3192621385983653,-0.432618461010508,-0.6658935546875,0.4960479736328125,0.4454345703125
20220117-1511,2022-01-17 15:11:22Z,u01, 243,40,movements,el-ex, rt, d,188756.46209675, -2.0346192301357933, -0.4724359589102315, -2.6698366595758727, -0.3874879777431488, 1.384543776512146, -0.7790954113006592, -0.7963839173316956, 0.455056756734848, 0.3983664810657501, 0.07908356189727783, -0.0039459168910980225, 0.014078497886657715, -0.8329199074876578, -0.07367271653285301, 0.31300636143819116,-0.4503817633571975,-0.716888427734375,0.44659423828125,0.4136505126953125
20220117-1511,2022-01-17 15:11:22Z,u01, 244,40,movements,el-ex, rt, d,188756.48704275, -2.001351307857526, -0.4512256429612896, -2.670337624312269, -0.35055723786354065, 1.3032910823822021, -0.7620064616203308, -0.8177820444107056, 0.4360688328742981, 0.37560150027275085, 0.08023315668106079, 0.05221244692802429, -0.06572622060775757, -0.8260165456283326, -0.07414456247543033, 0.30592738154934607,-0.46755501510164726,-0.7162322998046875,0.491424560546875,0.3256988525390625
20220117-1511,2022-01-17 15:11:22Z,u01, 245,40,movements,el-ex, rt, d,188756.51198875002, -1.9691820492639236, -0.43101423249809995, -2.6691039851590466, -0.24522356688976288, 1.2228288650512695, -0.7578792572021484, -0.837393045425415, 0.41779249906539917, 0.35245177149772644, 0.06737357378005981, 0.04842454195022583, -0.04994642734527588, -0.8188605520323283, -0.07545384834283508, 0.2996767254368349,-0.4837023477571053,-0.76837158203125,0.4653778076171875,0.3042144775390625
20220117-1511,2022-01-17 15:11:22Z,u01, 246,40,movements,el-ex, rt, d,188756.53693475, -1.9401961518398732, -0.41113598797708967, -2.668713069662051, -0.3690659701824188, 1.0871163606643677, -0.7120459079742432, -0.8548328876495361, 0.399650901556015, 0.33096808195114136, 0.08005261421203613, -0.007820487022399902, -0.09015405178070068, -0.812129583015141, -0.07700377698737598, 0.29331558742482083,-0.49847959168744865,-0.77099609375,0.419769287109375,0.2575225830078125
20220117-1511,2022-01-17 15:11:22Z,u01, 247,40,movements,el-ex, rt, d,188756.56188075, -1.9156327801373958, -0.3914875181222041, -2.6733401004997956, -0.46113789081573486, 1.03620183467865, -0.6369646191596985, -0.8699271082878113, 0.38156381249427795, 0.3124672770500183, 0.07181620597839355, -0.04629772901535034, -0.07633769512176514, -0.8063869522242557, -0.07728987020142775, 0.28566398546749594,-0.5120179915949271,-0.79693603515625,0.337158203125,0.234344482421875
20220117-1511,2022-01-17 15:11:22Z,u01, 248,40,movements,el-ex, rt, d,188756.58682675002, -1.8926744717335928, -0.37371232450316794, -2.6794836366083654, -0.4094729721546173, 0.9493148922920227, -0.544272243976593, -0.8831658959388733, 0.3650740385055542, 0.29451385140419006, 0.08178979158401489, -0.010871827602386475, -0.125782310962677, -0.8008462077975617, -0.0768262544892887, 0.2782654552364642,-0.5247010661732127,-0.8135833740234375,0.3560333251953125,0.214569091796875
20220117-1511,2022-01-17 15:11:22Z,u01, 249,40,movements,el-ex, rt, d,188756.61177375002, -1.871103548374293, -0.3593160119215223, -2.683086534330886, -0.17050038278102875, 0.8656537532806396, -0.4770447909832001, -0.894241213798523, 0.3516339957714081, 0.2769222855567932, 0.07900995016098022, -0.007700920104980469, -0.09552597999572754, -0.7953461567110445, -0.07671786372088935, 0.2727456797356669,-0.5358624682430281,-0.8139801025390625,0.34588623046875,0.179931640625
20220117-1511,2022-01-17 15:11:22Z,u01, 250,40,movements,el-ex, rt, d,188756.63671975, -1.8515695093520952, -0.34800075736387637, -2.6826563596568334, -0.12180038541555405, 0.6896650195121765, -0.3960573077201843, -0.9032451510429382, 0.3410190939903259, 0.2604883313179016, 0.06730765104293823, -0.04939311742782593, -0.14667320251464844, -0.790071398990239, -0.07766176637848238, 0.2694011777259005,-0.5451410986886774,-0.83599853515625,0.3042755126953125,0.115203857421875
20220117-1511,2022-01-17 15:11:22Z,u01, 251,40,movements,el-ex, rt, d,188756.66166575, -1.8366869240799197, -0.338765490903805, -2.6842842833642884, -0.22028765082359314, 0.5254061222076416, -0.2898053824901581, -0.9100216627120972, 0.33232298493385315, 0.24783436954021454, 0.06448644399642944, -0.10760682821273804, -0.10888791084289551, -0.7860387580417226, -0.07784765670991467, 0.2661104875999614,-0.5525106270272613,-0.8445281982421875,0.2266845703125,0.1436920166015625
20220117-1511,2022-01-17 15:11:22Z,u01, 252,40,movements,el-ex, rt, d,188756.68661175002, -1.8281513345974254, -0.3317694817278718, -2.6885395279089117, -0.18323194980621338, 0.2726464867591858, -0.16829639673233032, -0.9143298864364624, 0.3257165253162384, 0.2406437247991562, 0.07378429174423218, -0.0814233124256134, -0.23545587062835693, -0.783812549738615, -0.07719939820566918, 0.262675263742377,-0.557386544406515,-0.843353271484375,0.2406158447265625,0.0123443603515625
