SessionID,LoggingTime,UID,RecNo,Hertz,Activity,MoveType,Wrist,Side,TimeStamp,DMRoll,DMPitch,DMYaw,DMRotX,DMRotY,DMRotZ,DMGrvX,DMGrvY,DMGrvZ,DMUAccelX,DMUAccelY,DMUAccelZ,DMQuatX,DMQuatY,DMQuatW,DMQuatZ,AccelroX,AceelroY,AceelroZ
20220117-1830,2022-01-17 18:30:06Z,u01, 1,40,movements,el-ex, rt, d,191348.46414904168, 2.056900367107837, -0.5797042688049793, 2.7859231521266197, -0.1976235806941986, 1.0434483289718628, -0.6071053743362427, 0.7397097945213318, 0.5477765202522278, 0.3908582925796509, -0.0015200376510620117, 0.10154592990875244, 0.15685582160949707, -0.8339239466432806, 0.0, 0.3284331544483748,0.4435115282104329,0.7322540283203125,0.652801513671875,0.5532073974609375
20220117-1830,2022-01-17 18:30:06Z,u01, 2,40,movements,el-ex, rt, d,191348.4890970417, 2.0923634762620043, -0.5915253921626934, 2.8002441113775363, -0.18502622842788696, 1.152570128440857, -0.6713992953300476, 0.7197217345237732, 0.5576278567314148, 0.4135842025279999, 0.026585698127746582, 0.0847671627998352, 0.11890161037445068, -0.8407030149874455, -0.003247503669879026, 0.32998539591011505,0.4293222334966812,0.7446746826171875,0.649078369140625,0.5431060791015625
20220117-1830,2022-01-17 18:30:06Z,u01, 3,40,movements,el-ex, rt, d,191348.5140440417, 2.13138266229022, -0.6037869297718998, 2.815653919605715, -0.20335885882377625, 1.2712819576263428, -0.7092382311820984, 0.6971966028213501, 0.5677639245986938, 0.4376767575740814, 0.023415029048919678, 0.06164586544036865, 0.12926340103149414, -0.8478191818299565, -0.006404193814536385, 0.33171305373611376,0.4136762354700736,0.7323760986328125,0.6155853271484375,0.5454254150390625
20220117-1830,2022-01-17 18:30:06Z,u01, 4,40,movements,el-ex, rt, d,191348.53899204166, 2.174914942022597, -0.6159752959656384, 2.833515956628393, -0.1885993629693985, 1.3890759944915771, -0.754774272441864, 0.6717436909675598, 0.5777548551559448, 0.46363765001296997, 0.03995680809020996, 0.07674038410186768, 0.11689817905426025, -0.8554085186310154, -0.009751671215830648, 0.3331875130717762,0.39644331045063375,0.713775634765625,0.65350341796875,0.57666015625
20220117-1830,2022-01-17 18:30:06Z,u01, 5,40,movements,el-ex, rt, d,191348.56394004167, 2.221464809931758, -0.6289318175121495, 2.851585486454783, -0.12900620698928833, 1.4922263622283936, -0.7780987620353699, 0.6434310078620911, 0.5882812738418579, 0.48981812596321106, 0.06579756736755371, 0.03305661678314209, 0.12076228857040405, -0.8629866605396292, -0.012770607894780628, 0.33525025671379916,0.3777542254725256,0.7126007080078125,0.6560821533203125,0.5973968505859375
20220117-1830,2022-01-17 18:30:06Z,u01, 6,40,movements,el-ex, rt, d,191348.58888804168, 2.270893760401903, -0.6422433093061313, 2.8699746197057037, -0.1187819242477417, 1.5861225128173828, -0.8049991130828857, 0.612400233745575, 0.5989933013916016, 0.5159196257591248, 0.08216458559036255, 0.011404037475585938, 0.08100414276123047, -0.8704727103863277, -0.015397033057409415, 0.3377343738694887,0.3577369221432376,0.697845458984375,0.608489990234375,0.60626220703125
20220117-1830,2022-01-17 18:30:06Z,u01, 7,40,movements,el-ex, rt, d,191348.61383504167, 2.323011658222785, -0.6560815123438822, 2.8893122386823387, -0.047354914247989655, 1.6596637964248657, -0.8489647507667542, 0.5785838961601257, 0.6100165843963623, 0.5414057970046997, 0.07905465364456177, 0.09335249662399292, 0.06162136793136597, -0.8777135717092872, -0.017938741498400967, 0.34062461292815116,0.33655891576918456,0.675537109375,0.6623992919921875,0.5797576904296875
20220117-1830,2022-01-17 18:30:06Z,u01, 8,40,movements,el-ex, rt, d,191348.63878304168, 2.3776581269039094, -0.6723481042379966, 2.908132912002657, 0.1351492553949356, 1.1650737524032593, -0.5110517144203186, 0.5412126183509827, 0.6228247880935669, 0.5649587512016296, 0.05182027816772461, 0.09208005666732788, 0.11054784059524536, -0.8843502101367458, -0.020101807674785643, 0.3450032539276338,0.31383665528967625,0.6930084228515625,0.7030181884765625,0.629913330078125
20220117-1830,2022-01-17 18:30:06Z,u01, 9,40,movements,el-ex, rt, d,191348.66373104168, 2.4324236149206744, -0.6873244710655982, 2.927555459974857, -0.07560256868600845, 1.7186191082000732, -0.8458504676818848, 0.5033453106880188, 0.6344714164733887, 0.5865915417671204, 0.10136061906814575, -0.023402631282806396, 0.06903272867202759, -0.890399697058947, -0.0220032753499097, 0.34908664311305115,0.29127783457088213,0.65106201171875,0.613861083984375,0.6652374267578125
20220117-1830,2022-01-17 18:30:06Z,u01, 10,40,movements,el-ex, rt, d,191348.68867804168, 2.489050270940425, -0.6990740248926457, 2.9499432247165815, 0.004253817722201347, 1.6724213361740112, -0.8277457356452942, 0.4647805392742157, 0.6435092091560364, 0.6081733107566833, 0.0842459499835968, 0.03153955936431885, -0.0302620530128479, -0.8963846039153851, -0.024110063829011374, 0.35171945489258705,0.26871305468385687,0.5681304931640625,0.657989501953125,0.5946807861328125
20220117-1830,2022-01-17 18:30:06Z,u01, 11,40,movements,el-ex, rt, d,191348.7136260417, 2.5442787163343517, -0.7132535832622776, 2.971975036784993, 0.1120963916182518, 1.626981496810913, -0.9185896515846252, 0.42532554268836975, 0.6542977094650269, 0.6252941489219666, 0.06229960918426514, 0.07740700244903564, 0.029597759246826172, -0.9010801041154101, -0.02648984165915641, 0.3558173446646343,0.24646901066087373,0.49267578125,0.7341156005859375,0.5937652587890625
20220117-1830,2022-01-17 18:30:06Z,u01, 12,40,movements,el-ex, rt, d,191348.73857404166, 2.601719288583036, -0.7263951947170553, 2.996885737009909, -0.11855878680944443, 1.6581699848175049, -0.8995267152786255, 0.3842732906341553, 0.6641790866851807, 0.6412490606307983, 0.11879381537437439, -0.02665156126022339, 0.12529140710830688, -0.9054072689308421, -0.02936329549993444, 0.3595243837772042,0.22386994138973365,0.498321533203125,0.6600799560546875,0.7636871337890625
20220117-1830,2022-01-17 18:30:06Z,u01, 13,40,movements,el-ex, rt, d,191348.76352204167, 2.6640006960200187, -0.7308944905516043, 3.0270299055285648, -0.3137291371822357, 1.7198928594589233, -0.854906439781189, 0.3422389328479767, 0.6675359010696411, 0.6612622737884521, 0.12150615453720093, 0.03743523359298706, 0.020271241664886475, -0.9108122250041849, -0.032438234340247174, 0.35930403710984976,0.2006721523249894,0.487884521484375,0.680694580078125,0.7054443359375
20220117-1830,2022-01-17 18:30:06Z,u01, 14,40,movements,el-ex, rt, d,191348.78846904167, 2.7283662061463354, -0.7348163199667018, 3.057561947620804, -0.16009114682674408, 1.7942016124725342, -0.9351773262023926, 0.297943651676178, 0.6704508662223816, 0.6795035004615784, 0.1176447868347168, 0.04520159959793091, -0.006713151931762695, -0.9157012091007763, -0.035257032892483164, 0.35928955676293295,0.17651970000833578,0.4228363037109375,0.7264556884765625,0.6717071533203125
20220117-1830,2022-01-17 18:30:06Z,u01, 15,40,movements,el-ex, rt, d,191348.81341704167, 2.793636732761488, -0.7421778111358777, 3.088112747463724, 0.007798884063959122, 1.7970247268676758, -0.9669377207756042, 0.25129935145378113, 0.675894558429718, 0.6928309798240662, 0.12734746932983398, 0.03052622079849243, -0.006780743598937988, -0.9192146624037901, -0.03820874527909435, 0.36134165245851735,0.1517122080600521,0.405548095703125,0.6959991455078125,0.651580810546875
20220117-1830,2022-01-17 18:30:06Z,u01, 16,40,movements,el-ex, rt, d,191348.83836504168, 2.8604480010125948, -0.7500502255089689, 3.1196246725559234, -0.02285935916006565, 1.8408095836639404, -0.970507025718689, 0.20300167798995972, 0.6816754937171936, 0.702928900718689, 0.13783396780490875, 0.04548221826553345, 0.08102196455001831, -0.9218281262478196, -0.04119899030459723, 0.36409282382128466,0.1263804938606305,0.34637451171875,0.721893310546875,0.77142333984375
20220117-1830,2022-01-17 18:30:06Z,u01, 17,40,movements,el-ex, rt, d,191348.86331204168, 2.9291458546836218, -0.7526249162991416, -3.130387665648017, -0.29556819796562195, 1.8456902503967285, -0.9697351455688477, 0.15390042960643768, 0.6835570335388184, 0.7134872078895569, 0.1571347415447235, -0.00449526309967041, 0.07823014259338379, -0.9245512171282857, -0.04414348986512673, 0.3648639936111189,0.1006505468461644,0.3191986083984375,0.701812744140625,0.8172149658203125
20220117-1830,2022-01-17 18:30:06Z,u01, 18,40,movements,el-ex, rt, d,191348.88826004168, 2.9992936911407506, -0.7486606240971838, -3.0957550368701057, -0.26255378127098083, 1.8809471130371094, -1.0008347034454346, 0.10389692336320877, 0.6806581616401672, 0.7251964807510376, 0.1627657413482666, 0.03561997413635254, 0.0055315494537353516, -0.9275583278302506, -0.04726289645579518, 0.36311206947962343,0.07450764803769766,0.2799835205078125,0.6982269287109375,0.746124267578125
20220117-1830,2022-01-17 18:30:06Z,u01, 19,40,movements,el-ex, rt, d,191348.9132080417, 3.07112468509172, -0.7493788344138397, -3.0603210640856564, 0.13812756538391113, 1.9604860544204712, -1.0765446424484253, 0.05154777690768242, 0.6811841130256653, 0.7302953004837036, 0.12176159769296646, 0.10813784599304199, 0.03938847780227661, -0.9287522584113015, -0.05066441755703299, 0.36412262489770886,0.047614365379700097,0.2027435302734375,0.78076171875,0.72216796875
20220117-1830,2022-01-17 18:30:06Z,u01, 20,40,movements,el-ex, rt, d,191348.93815604167, -3.1365331369640046, -0.7566451281773207, -3.0230416420092934, 0.30106332898139954, 2.037353038787842, -1.1230909824371338, -0.0036789760924875736, 0.6864858269691467, 0.7271336317062378, 0.15246745944023132, 0.09874659776687622, 0.08895206451416016, -0.927705758785087, -0.05411867507739909, 0.3688515843889345,0.019534503133786713,0.1548919677734375,0.7899322509765625,0.81842041015625
20220117-1830,2022-01-17 18:30:06Z,u01, 21,40,movements,el-ex, rt, d,191348.96310304166, -3.0595558686931508, -0.7601271103283774, -2.9845092904035972, 0.024824507534503937, 1.9994183778762817, -1.1132514476776123, -0.059389352798461914, 0.6890136003494263, 0.7223109006881714, 0.1323874592781067, -0.008288443088531494, 0.05736732482910156, -0.9261931016295211, -0.05763495337914398, 0.37251260619211596,-0.008880362541688946,0.1134796142578125,0.7156982421875,0.7985076904296875
20220117-1830,2022-01-17 18:30:06Z,u01, 22,40,movements,el-ex, rt, d,191348.98805104167, -2.9830196593142944, -0.753189683965462, -2.9462343831162943, -0.23907148838043213, 2.030856132507324, -1.1606736183166504, -0.11519654840230942, 0.6839691400527954, 0.7203583121299744, 0.1317676156759262, 0.031240880489349365, 0.027276575565338135, -0.9254227230887249, -0.061416025241814165, 0.37203616630532077,-0.037549641194922545,0.0246734619140625,0.7028045654296875,0.759918212890625
20220117-1830,2022-01-17 18:30:06Z,u01, 23,40,movements,el-ex, rt, d,191349.01299904168, -2.9054582212405315, -0.7447343558319617, -2.9079065614569077, 0.029721759259700775, 2.0880117416381836, -1.2095444202423096, -0.1720130294561386, 0.6777765154838562, 0.7148638367652893, 0.11523514986038208, 0.12175339460372925, 0.09411132335662842, -0.9236730474157131, -0.06526873810751588, 0.37161608232344223,-0.06685439298519391,-0.0245819091796875,0.756805419921875,0.7890625
20220117-1830,2022-01-17 18:30:06Z,u01, 24,40,movements,el-ex, rt, d,191349.03794604167, -2.825644348599218, -0.7398885131545169, -2.8661493090525556, 0.14964590966701508, 2.0300021171569824, -1.2791928052902222, -0.22947873175144196, 0.6742056012153625, 0.7019871473312378, 0.14866825938224792, 0.10356533527374268, -0.00910097360610962, -0.919828630391281, -0.07006323384512309, 0.37381693603656774,-0.09626634352359421,-0.0780487060546875,0.7911224365234375,0.7099761962890625
20220117-1830,2022-01-17 18:30:06Z,u01, 25,40,movements,el-ex, rt, d,191349.06289404168, -2.7490800776334514, -0.7260553857851819, -2.8272139018776414, -0.39215710759162903, 2.0148236751556396, -1.2591547966003418, -0.2860414385795593, 0.663925051689148, 0.6909295916557312, 0.1386568546295166, -0.06642138957977295, 0.023807287216186523, -0.9164163056882859, -0.07513949222458427, 0.3725316177258909,-0.12552033773876037,-0.119293212890625,0.6582489013671875,0.717315673828125
20220117-1830,2022-01-17 18:30:06Z,u01, 26,40,movements,el-ex, rt, d,191349.08784204168, -2.678721364686276, -0.7013735272142416, -2.7971599829949043, -0.553271472454071, 2.0604395866394043, -1.234952688217163, -0.3411211371421814, 0.6452676057815552, 0.6835684776306152, 0.11367371678352356, -0.010029017925262451, 0.01211017370223999, -0.9140795827685451, -0.07901103592061154, 0.3663517702975646,-0.15492605312544477,-0.2121429443359375,0.602294921875,0.692535400390625
20220117-1830,2022-01-17 18:30:06Z,u01, 27,40,movements,el-ex, rt, d,191349.1127900417, -2.6095610168523753, -0.6777624448125954, -2.767895105290094, -0.23793432116508484, 1.973684549331665, -1.254759669303894, -0.3951638638973236, 0.627051591873169, 0.6713060140609741, 0.15659275650978088, 0.09555882215499878, -0.0881609320640564, -0.91034976784907, -0.08316430254738538, 0.36121440016045253,-0.18404111016244548,-0.2425689697265625,0.7143096923828125,0.6491851806640625
20220117-1830,2022-01-17 18:30:06Z,u01, 28,40,movements,el-ex, rt, d,191349.1377370417, -2.5428541748544626, -0.6583235864597022, -2.73664449759396, -0.07883547991514206, 1.845629334449768, -1.2493374347686768, -0.4458187222480774, 0.6117916107177734, 0.6534187197685242, 0.17013835906982422, 0.030313313007354736, -0.11310523748397827, -0.9049232838681822, -0.08844888618327906, 0.3586851070311096,-0.21127101816115545,-0.25872802734375,0.6670379638671875,0.547393798828125
20220117-1830,2022-01-17 18:30:06Z,u01, 29,40,movements,el-ex, rt, d,191349.16268504167, -2.4782141519850747, -0.6389744046174326, -2.705650351191009, -0.011309761554002762, 1.8328900337219238, -1.2400197982788086, -0.494293212890625, 0.5963724851608276, 0.6324664950370789, 0.13034066557884216, -0.05398362874984741, -0.04259234666824341, -0.8985257621142888, -0.0942586802771121, 0.35678985618574327,-0.23762932514014004,-0.3405914306640625,0.5738525390625,0.5809173583984375
20220117-1830,2022-01-17 18:30:06Z,u01, 30,40,movements,el-ex, rt, d,191349.18763304167, -2.417045767017633, -0.6180993169476159, -2.678482033220963, -0.19645492732524872, 1.7806764841079712, -1.1615984439849854, -0.5401666760444641, 0.5794872045516968, 0.6102580428123474, 0.14491820335388184, -0.020725488662719727, -0.0032938718795776367, -0.8917544607525192, -0.09951384153139747, 0.3542999511472187,-0.2633298845480255,-0.3941650390625,0.544158935546875,0.596527099609375
20220117-1830,2022-01-17 18:30:06Z,u01, 31,40,movements,el-ex, rt, d,191349.21258004167, -2.363275850494263, -0.5943807150900507, -2.658829276684482, -0.2940199375152588, 1.6506298780441284, -1.0731490850448608, -0.5816713571548462, 0.5599957704544067, 0.5899683237075806, 0.1775120496749878, 0.024324238300323486, -0.09129607677459717, -0.8855805296728488, -0.10359193475080036, 0.34980434552741724,-0.28749365551370315,-0.3836212158203125,0.5901336669921875,0.543426513671875
20220117-1830,2022-01-17 18:30:06Z,u01, 32,40,movements,el-ex, rt, d,191349.23752804167, -2.314065638662533, -0.5720014709892787, -2.64090602500828, -0.16170282661914825, 1.5470104217529297, -1.0641833543777466, -0.6190617084503174, 0.541316032409668, 0.5689811706542969, 0.16016894578933716, 0.008488714694976807, -0.07107162475585938, -0.879139266636062, -0.10772534486502405, 0.3458172693747663,-0.30970926166613477,-0.4397430419921875,0.5357666015625,0.4639129638671875
20220117-1830,2022-01-17 18:30:06Z,u01, 33,40,movements,el-ex, rt, d,191349.26247604168, -2.265648416810429, -0.5532504992145565, -2.6209081465131114, 0.10574635118246078, 1.494592547416687, -0.9956708550453186, -0.653556764125824, 0.5254555940628052, 0.5447567105293274, 0.11000829935073853, 0.03115445375442505, -0.008913815021514893, -0.8716424987455786, -0.11232853656779995, 0.3440169603362771,-0.33056610124778146,-0.5102081298828125,0.5182952880859375,0.4399566650390625
20220117-1830,2022-01-17 18:30:06Z,u01, 34,40,movements,el-ex, rt, d,191349.2874240417, -2.2184660108604017, -0.5369164957616336, -2.6006384642153564, 0.2088417410850525, 1.443786859512329, -0.8908548951148987, -0.6852768659591675, 0.5114887952804565, 0.5184351205825806, 0.1328170895576477, -0.0028980374336242676, -0.04039257764816284, -0.8634628819803645, -0.11683072836733521, 0.3435859565631896,-0.35033008172710417,-0.5535888671875,0.524627685546875,0.4894561767578125
20220117-1830,2022-01-17 18:30:06Z,u01, 35,40,movements,el-ex, rt, d,191349.31237104168, -2.173482782052787, -0.5217938829519481, -2.581799287187918, 0.18751046061515808, 1.41640043258667, -0.8478848338127136, -0.7141875624656677, 0.4984360933303833, 0.4914238452911377, 0.09809881448745728, -0.0197068452835083, 0.02607792615890503, -0.8550446748802443, -0.12087400245996177, 0.34363930184661773,-0.3690529182233064,-0.5750274658203125,0.5313720703125,0.543182373046875
20220117-1830,2022-01-17 18:30:06Z,u01, 36,40,movements,el-ex, rt, d,191349.3373190417, -2.1286364195547867, -0.5080339645323242, -2.5623088655616844, 0.34893035888671875, 1.4132992029190063, -0.8230172991752625, -0.741249680519104, 0.48646044731140137, 0.46249884366989136, 0.07643955945968628, -0.04534411430358887, -0.023228883743286133, -0.8459586184293897, -0.12491369677985442, 0.34469610999820344,-0.3872146714900667,-0.66119384765625,0.440673828125,0.45220947265625
20220117-1830,2022-01-17 18:30:06Z,u01, 37,40,movements,el-ex, rt, d,191349.36226662502, -2.084711875378682, -0.4948265050368685, -2.542037020867532, 0.27627527713775635, 1.326810598373413, -0.8079114556312561, -0.766371488571167, 0.4748789668083191, 0.432624876499176, 0.08628743886947632, -0.07033804059028625, -0.047554224729537964, -0.8364183589037584, -0.1292933508015443, 0.3464160326087743,-0.40457797850039534,-0.6797027587890625,0.429168701171875,0.4283599853515625
20220117-1830,2022-01-17 18:30:06Z,u01, 38,40,movements,el-ex, rt, d,191349.387213625, -2.046561126686852, -0.47868076239064195, -2.5282901254730104, 0.010514309629797935, 1.2402961254119873, -0.7871910333633423, -0.7890284061431885, 0.4606086313724518, 0.4065386652946472, 0.08710896968841553, -0.033667683601379395, -0.024229764938354492, -0.8280388581158169, -0.13274405019365193, 0.34562907847361024,-0.4210358121387263,-0.6917877197265625,0.4262237548828125,0.381683349609375
20220117-1830,2022-01-17 18:30:06Z,u01, 39,40,movements,el-ex, rt, d,191349.41216162502, -2.0116720105731205, -0.46122453803820496, -2.518505397365741, 0.030405793339014053, 1.190523386001587, -0.7675122618675232, -0.8098782300949097, 0.44504502415657043, 0.382141649723053, 0.07039159536361694, -0.04195356369018555, -0.0314183235168457, -0.8201795007691458, -0.13555960777442377, 0.34352744170115596,-0.4369417594394301,-0.7368621826171875,0.42620849609375,0.375701904296875
20220117-1830,2022-01-17 18:30:06Z,u01, 40,40,movements,el-ex, rt, d,191349.43710962503, -1.978411279395154, -0.44463790951035825, -2.5079738882675358, 0.11693745851516724, 1.0907161235809326, -0.7394031286239624, -0.8288019895553589, 0.4301310181617737, 0.3578754961490631, 0.08296751976013184, -0.045121192932128906, -0.08964130282402039, -0.8122004624444639, -0.13880976972635883, 0.3420036918999123,-0.4517696713033704,-0.74493408203125,0.3928985595703125,0.2902069091796875
20220117-1830,2022-01-17 18:30:07Z,u01, 41,40,movements,el-ex, rt, d,191349.462057625, -1.9478703369016361, -0.428676682107546, -2.4981551903358463, 0.04370158910751343, 1.0371299982070923, -0.6982682347297668, -0.8456196188926697, 0.4156675934791565, 0.3348855674266815, 0.04827147722244263, -0.06106847524642944, -0.03138825297355652, -0.8045135894959462, -0.1421290699078459, 0.3405515500149424,-0.4653837275279021,-0.7846832275390625,0.3504486083984375,0.283050537109375
20220117-1830,2022-01-17 18:30:07Z,u01, 42,40,movements,el-ex, rt, d,191349.487004625, -1.9198167296065196, -0.41361612537840475, -2.4912373877661507, 0.0075979819521307945, 0.9624112248420715, -0.6157490015029907, -0.8604657053947449, 0.40192314982414246, 0.3131396174430847, 0.07851392030715942, -0.03371328115463257, -0.03813055157661438, -0.7972992769260101, -0.14451184606484352, 0.33873055777867356,-0.4782172634328625,-0.7907867431640625,0.3691558837890625,0.28155517578125
20220117-1830,2022-01-17 18:30:07Z,u01, 43,40,movements,el-ex, rt, d,191349.511952625, -1.895955706090833, -0.39971447835577906, -2.48735645748728, -0.15107904374599457, 0.8424208164215088, -0.5383914113044739, -0.8729025721549988, 0.3891553580760956, 0.29427748918533325, 0.07358622550964355, -0.09679687023162842, -0.08349251747131348, -0.7910668938719403, -0.14612293528623838, 0.33640312707460024,-0.4895857374393628,-0.7861785888671875,0.314208984375,0.2270965576171875
20220117-1830,2022-01-17 18:30:07Z,u01, 44,40,movements,el-ex, rt, d,191349.536900625, -1.876930528056591, -0.386416147272384, -2.489019652193904, -0.24746747314929962, 0.7699632048606873, -0.4317687749862671, -0.8831995129585266, 0.3768712282180786, 0.27915310859680176, 0.07320207357406616, -0.10460871458053589, -0.10843780636787415, -0.7862492251117359, -0.1462488103387351, 0.3326275732030749,-0.49978218704946087,-0.8068695068359375,0.2692413330078125,0.1802215576171875
20220117-1830,2022-01-17 18:30:07Z,u01, 45,40,movements,el-ex, rt, d,191349.561847625, -1.8566619601969712, -0.3776957156201621, -2.486023219426048, 0.18248207867145538, 0.6857362985610962, -0.31903550028800964, -0.8917950987815857, 0.36877956986427307, 0.26211264729499817, 0.06647777557373047, -0.043630003929138184, -0.16608905792236328, -0.7807308082182436, -0.14668241113912822, 0.33176771873269495,-0.5087964469103105,-0.840179443359375,0.310455322265625,0.1488494873046875
20220117-1830,2022-01-17 18:30:07Z,u01, 46,40,movements,el-ex, rt, d,191349.58679562501, -1.8415655019549944, -0.3723399461015515, -2.4801547963730273, 0.09682716429233551, 0.337198406457901, -0.19534379243850708, -0.8975406885147095, 0.36379602551460266, 0.24914507567882538, 0.10893595218658447, -0.11776328086853027, -0.2289271354675293, -0.7763005347565053, -0.14808788302836778, 0.3324913646759895,-0.5146620018985686,-0.7943267822265625,0.2710418701171875,0.049957275390625
20220117-1830,2022-01-17 18:30:07Z,u01, 47,40,movements,el-ex, rt, d,191349.61174362502, -1.8371424671325243, -0.3706673969246163, -2.4772325612837713, 0.08934590965509415, -0.05581153184175491, 0.01894499734044075, -0.8992196321487427, 0.3622375726699829, 0.24533262848854065, 0.1236153244972229, -0.17171630263328552, -0.3511523902416229, -0.774897687148626, -0.14899627334216714, 0.3329852879037409,-0.5161923572483319,-0.7735443115234375,0.1990966796875,-0.1010284423828125
20220117-1830,2022-01-17 18:30:07Z,u01, 48,40,movements,el-ex, rt, d,191349.63669062502, -1.8419164194514894, -0.3743988161133519, -2.4761573949822444, 0.05862834304571152, -0.33902567625045776, 0.251412570476532, -0.896729588508606, 0.36571305990219116, 0.24925890564918518, 0.08717453479766846, -0.16885939240455627, -0.22244930267333984, -0.7761492950328732, -0.14906952678964341, 0.3342165406804817,-0.5134879389180307,-0.8022003173828125,0.1954803466796875,-0.0138397216796875
20220117-1830,2022-01-17 18:30:07Z,u01, 49,40,movements,el-ex, rt, d,191349.66163862502, -1.8536286096350736, -0.38276734477807756, -2.4760935579105885, 0.20207637548446655, -0.6135221123695374, 0.3686522841453552, -0.8907787203788757, 0.37348899245262146, 0.2588810622692108, 0.10060226917266846, -0.05226084589958191, -0.16468855738639832, -0.7793490158296164, -0.14851142770411846, 0.3363058698212118,-0.5074030954490147,-0.8006134033203125,0.26568603515625,0.07562255859375
20220117-1830,2022-01-17 18:30:07Z,u01, 50,40,movements,el-ex, rt, d,191349.686586625, -1.8701947533154561, -0.39623489706300163, -2.4706759784913372, 0.45821911096572876, -0.8867234587669373, 0.5504780411720276, -0.881481409072876, 0.38594770431518555, 0.2720932364463806, 0.08716994524002075, -0.08164167404174805, -0.2161850929260254, -0.7834135661218408, -0.14936468529127522, 0.3411847840825812,-0.49754021730432996,-0.792999267578125,0.3272705078125,0.08642578125
20220117-1830,2022-01-17 18:30:07Z,u01, 51,40,movements,el-ex, rt, d,191349.711534625, -1.891577436819551, -0.41398191649981747, -2.4639343762456787, 0.4768572747707367, -1.030733585357666, 0.6336542367935181, -0.8688248991966248, 0.4022580683231354, 0.2886727452278137, 0.07913672924041748, -0.08691984415054321, -0.16969987750053406, -0.7884929379382049, -0.1503837013104612, 0.34751626871983166,-0.48466086873183734,-0.79852294921875,0.2702789306640625,0.0656890869140625
20220117-1830,2022-01-17 18:30:07Z,u01, 52,40,movements,el-ex, rt, d,191349.736481625, -1.9150960469243004, -0.4338873820086554, -2.456538792972554, 0.503605306148529, -1.0830538272857666, 0.6986551880836487, -0.8540886044502258, 0.42040112614631653, 0.3062608242034912, 0.06658244132995605, -0.055105626583099365, -0.03714153170585632, -0.7938289158682474, -0.15154558606032126, 0.35456926694276886,-0.4702661966148291,-0.783660888671875,0.36102294921875,0.240081787109375
20220117-1830,2022-01-17 18:30:07Z,u01, 53,40,movements,el-ex, rt, d,191349.761429625, -1.9409589460706589, -0.4547433580252137, -2.452930632278747, 0.2766753137111664, -1.1471118927001953, 0.7765554785728455, -0.8375253677368164, 0.4392317533493042, 0.32500192523002625, 0.06764346361160278, -0.06545251607894897, -0.020894348621368408, -0.7997156634168083, -0.15151180689431076, 0.360871553687929,-0.45526980011598667,-0.77703857421875,0.38128662109375,0.331207275390625
20220117-1830,2022-01-17 18:30:07Z,u01, 54,40,movements,el-ex, rt, d,191349.78637762502, -1.9726959105956718, -0.47443023032112286, -2.458209582893294, 0.04660709947347641, -1.2039334774017334, 0.8252580165863037, -0.8186732530593872, 0.456831693649292, 0.3479641079902649, 0.05550497770309448, -0.06671017408370972, -0.06471514701843262, -0.8072415838893587, -0.14947599945549167, 0.3643609885572952,-0.439612387795929,-0.7660064697265625,0.3831787109375,0.2935943603515625
20220117-1830,2022-01-17 18:30:07Z,u01, 55,40,movements,el-ex, rt, d,191349.811324625, -2.0049956638946558, -0.49477665712087643, -2.463466836060809, 0.2874603569507599, -1.1721140146255493, 0.8037480115890503, -0.7984100580215454, 0.4748350977897644, 0.3702334761619568, 0.02199721336364746, -0.03609916567802429, -0.00362589955329895, -0.8144689354163128, -0.14750286307635674, 0.368189958866506,-0.4234611463564376,-0.7725982666015625,0.42108154296875,0.320892333984375
20220117-1830,2022-01-17 18:30:07Z,u01, 56,40,movements,el-ex, rt, d,191349.83627262502, -2.03430179284999, -0.5161951190481997, -2.464792212872721, 0.35250818729400635, -1.155297040939331, 0.80951988697052, -0.7779417037963867, 0.4935745894908905, 0.3888326585292816, 0.047198355197906494, 0.031999170780181885, 0.06729841232299805, -0.8203486313265067, -0.14643922073875465, 0.37356871524924595,-0.4074679155892618,-0.7479705810546875,0.508880615234375,0.454498291015625
20220117-1830,2022-01-17 18:30:07Z,u01, 57,40,movements,el-ex, rt, d,191349.86122062503, -2.0659915259493196, -0.5372530460904569, -2.469189794777219, 0.1751541644334793, -1.2220242023468018, 0.8567741513252258, -0.7559170126914978, 0.5117779970169067, 0.4082556664943695, 0.04449129104614258, -0.04615598917007446, -0.036734700202941895, -0.8265303185487853, -0.1448290919895735, 0.378112296348968,-0.39102842982553104,-0.714813232421875,0.5420074462890625,0.4647216796875
20220117-1830,2022-01-17 18:30:07Z,u01, 58,40,movements,el-ex, rt, d,191349.88616762502, -2.103069076881044, -0.5574607434200036, -2.480871492185394, -0.0017760447226464748, -1.2200322151184082, 0.8986719846725464, -0.731202244758606, 0.5290330648422241, 0.4306591749191284, 0.04353445768356323, -0.10345017910003662, -0.13007628917694092, -0.8338328251750731, -0.14160651494937937, 0.38071133247123207,-0.37380385457019855,-0.69171142578125,0.4080810546875,0.302459716796875
20220117-1830,2022-01-17 18:30:07Z,u01, 59,40,movements,el-ex, rt, d,191349.911115625, -2.1377643189468687, -0.5798290047100508, -2.4882596291238213, 0.5545386075973511, -1.230191707611084, 0.8783373236656189, -0.7056631445884705, 0.5478808879852295, 0.44929513335227966, 0.05345672369003296, 0.09845095872879028, -0.09512335062026978, -0.8397857768072794, -0.13931049122348071, 0.38529686166160315,-0.3562285584697924,-0.6612396240234375,0.5829925537109375,0.30133056640625
20220117-1830,2022-01-17 18:30:07Z,u01, 60,40,movements,el-ex, rt, d,191349.936063625, -2.16607640325279, -0.6082972280112166, -2.4837677943797116, 0.8242542147636414, -1.240801453590393, 0.863467812538147, -0.6794684529304504, 0.5714709758758545, 0.4601564407348633, 0.04917353391647339, 0.10495126247406006, 0.03787529468536377, -0.8429944796967468, -0.13942209345212864, 0.3948068615400212,-0.33771208968103444,-0.6347808837890625,0.687225341796875,0.4655914306640625
20220117-1830,2022-01-17 18:30:07Z,u01, 61,40,movements,el-ex, rt, d,191349.961011625, -2.196142007930782, -0.6367274153786363, -2.4820474333982823, 0.4749579131603241, -1.2646183967590332, 0.9751918911933899, -0.6518886685371399, 0.5945672988891602, 0.47067025303840637, 0.06506633758544922, -0.10489761829376221, 0.009981513023376465, -0.8461784781515724, -0.13898599078812096, 0.40370263994066063,-0.31888699211777743,-0.60760498046875,0.559112548828125,0.5092010498046875
20220117-1830,2022-01-17 18:30:07Z,u01, 62,40,movements,el-ex, rt, d,191349.985958625, -2.236870787118894, -0.6600422327523118, -2.4966314493038015, -0.09644366055727005, -1.282320261001587, 1.0395058393478394, -0.621113657951355, 0.6131502389907837, 0.4881235957145691, 0.059452950954437256, -0.1472383737564087, -0.07108569145202637, -0.851910083090571, -0.13531815658671825, 0.4074908909232731,-0.29981557746579346,-0.5692596435546875,0.4290924072265625,0.407623291015625
20220117-1830,2022-01-17 18:30:07Z,u01, 63,40,movements,el-ex, rt, d,191350.01090662502, -2.2823522405519383, -0.6805531518921817, -2.517644067661304, 0.22687038779258728, -1.2939655780792236, 1.0487545728683472, -0.5886287093162537, 0.6292230486869812, 0.5075379014015198, 0.07889366149902344, 0.054645419120788574, 0.0251312255859375, -0.8582981640428173, -0.13074096976043947, 0.409289134578339,-0.28055926943875975,-0.5063323974609375,0.6000213623046875,0.432861328125
20220117-1830,2022-01-17 18:30:07Z,u01, 64,40,movements,el-ex, rt, d,191350.03585462502, -2.321961430184195, -0.7070652102681004, -2.528704233543134, 0.6385833024978638, -1.3085697889328003, 0.9795790910720825, -0.5556781888008118, 0.6496053338050842, 0.5188784003257751, 0.05442690849304199, 0.11809492111206055, 0.07429176568984985, -0.8619976542002141, -0.12805959135187667, 0.4155159366771793,-0.2605903635951823,-0.5056915283203125,0.761016845703125,0.5868988037109375
20220117-1830,2022-01-17 18:30:07Z,u01, 65,40,movements,el-ex, rt, d,191350.06080162502, -2.3610135476534246, -0.7351141193735201, -2.5374941146962873, 0.4075177311897278, -1.3676892518997192, 1.0653365850448608, -0.521965742111206, 0.670671820640564, 0.5270208716392517, 0.07950669527053833, -0.09483557939529419, -0.07708501815795898, -0.8646280932071913, -0.1262089750700524, 0.42288776158649266,-0.2401155279043392,-0.4640960693359375,0.6719512939453125,0.569915771484375
20220117-1830,2022-01-17 18:30:07Z,u01, 66,40,movements,el-ex, rt, d,191350.08574962502, -2.4102617003239613, -0.7567419504119393, -2.559923101689149, 0.10714304447174072, -1.3999814987182617, 1.0903809070587158, -0.4855860769748688, 0.6865562200546265, 0.5411531329154968, 0.06302449107170105, -0.13859784603118896, -0.1600954532623291, -0.8692622483015611, -0.12230992087717268, 0.42577820165200086,-0.21939999671694274,-0.440460205078125,0.5394287109375,0.42706298828125
20220117-1830,2022-01-17 18:30:07Z,u01, 67,40,movements,el-ex, rt, d,191350.110697625, -2.4587730522556375, -0.7805487881896429, -2.5820242011871435, 0.48740407824516296, -1.260801076889038, 1.1028895378112793, -0.4483308792114258, 0.7036694288253784, 0.5512250661849976, 0.040966957807540894, 0.06041449308395386, 0.12390011548995972, -0.8727181202706356, -0.11821847044990247, 0.4300511237156375,-0.19860416992587565,-0.4252166748046875,0.6655731201171875,0.5957794189453125
20220117-1830,2022-01-17 18:30:07Z,u01, 68,40,movements,el-ex, rt, d,191350.135645625, -2.5041444343873356, -0.8080559802392034, -2.601303233749787, 0.4585183560848236, -1.247941017150879, 1.094909429550171, -0.4111899435520172, 0.7229453921318054, 0.5552231669425964, 0.0834922194480896, 0.10818558931350708, 0.1380140781402588, -0.8743831563968638, -0.1143051884446511, 0.43667844472079237,-0.17804592331400565,-0.334075927734375,0.8187408447265625,0.662689208984375
20220117-1830,2022-01-17 18:30:07Z,u01, 69,40,movements,el-ex, rt, d,191350.160592625, -2.558039619128092, -0.8286503124262681, -2.6302149030124014, -0.03272071108222008, -1.373635172843933, 1.1879390478134155, -0.3723997473716736, 0.7370198369026184, 0.5640211701393127, 0.09337764978408813, -0.12253320217132568, -0.07839512825012207, -0.8774841951072178, -0.10969076360767821, 0.43961813558651636,-0.1572425186684047,-0.2901153564453125,0.718017578125,0.5456695556640625
20220117-1830,2022-01-17 18:30:07Z,u01, 70,40,movements,el-ex, rt, d,191350.185540625, -2.6216441631494387, -0.8403842416182529, -2.67095183392777, -0.19941829144954681, -1.2857227325439453, 1.188524842262268, -0.3314768373966217, 0.7448995113372803, 0.5790054798126221, 0.011881619691848755, -0.1632651686668396, -0.05569016933441162, -0.8824620492771487, -0.10374710841794826, 0.43808292402405974,-0.1363101980179428,-0.31756591796875,0.534912109375,0.522125244140625
20220117-1830,2022-01-17 18:30:07Z,u01, 71,40,movements,el-ex, rt, d,191350.21048862502, -2.6810998227673823, -0.8565495825063164, -2.7080947519361183, 0.3240402638912201, -1.2718563079833984, 1.1366394758224487, -0.29109665751457214, 0.7555868625640869, 0.5868142247200012, 0.05666071176528931, 0.18348467350006104, 0.10767418146133423, -0.8853366852979451, -0.09790847625807325, 0.43952820432509887,-0.11579187716991513,-0.26763916015625,0.816497802734375,0.6361846923828125
20220117-1830,2022-01-17 18:30:07Z,u01, 72,40,movements,el-ex, rt, d,191350.235435625, -2.7378839178203322, -0.8769824075638256, -2.7405215431367997, 0.40848612785339355, -1.3145174980163574, 1.0864287614822388, -0.2512055039405823, 0.7688127160072327, 0.5880666971206665, 0.07078570127487183, 0.13412600755691528, 0.07674336433410645, -0.8861905550670313, -0.09327185233235463, 0.4437754249963027,-0.09502582900161247,-0.1875152587890625,0.9652862548828125,0.7133331298828125
20220117-1830,2022-01-17 18:30:07Z,u01, 73,40,movements,el-ex, rt, d,191350.26038362502, -2.8013942489146046, -0.8912237926382179, -2.780145604678413, 0.030665650963783264, -1.2800981998443604, 1.2053788900375366, -0.2097010463476181, 0.7778414487838745, 0.5924425721168518, 0.030959635972976685, -0.2363375425338745, -0.08580493927001953, -0.8879549799174755, -0.088075197783541, 0.44532697690688894,-0.07390944760001408,-0.1759185791015625,0.639404296875,0.4922943115234375
20220117-1830,2022-01-17 18:30:07Z,u01, 74,40,movements,el-ex, rt, d,191350.28533162503, -2.8701187884572072, -0.9000199370693466, -2.8280540947079604, 0.14096689224243164, -1.2839351892471313, 1.2869383096694946, -0.16668157279491425, 0.7833393216133118, 0.5988296866416931, 0.04317699372768402, -0.06815969944000244, -0.07638400793075562, -0.8904095654042572, -0.08115202035279034, 0.44471237882413833,-0.053067128378937206,-0.148345947265625,0.6636810302734375,0.538787841796875
20220117-1830,2022-01-17 18:30:07Z,u01, 75,40,movements,el-ex, rt, d,191350.31027862502, -2.9401020189547356, -0.9172514806271677, -2.8749016149463404, 0.5696354508399963, -1.3710298538208008, 1.2891244888305664, -0.12168001383543015, 0.7939335107803345, 0.5957044363021851, 0.09557227790355682, 0.16770601272583008, -0.034394681453704834, -0.8901154258312653, -0.07447645066740449, 0.4485509639205807,-0.03082018480695023,-0.0592193603515625,0.9391937255859375,0.6075592041015625
20220117-1830,2022-01-17 18:30:07Z,u01, 76,40,movements,el-ex, rt, d,191350.335226625, -3.0142572831690035, -0.9370093418485281, -2.923191554655312, 0.45813727378845215, -1.4530088901519775, 1.2852891683578491, -0.07520447671413422, 0.8057906627655029, 0.5874060988426208, 0.0868317112326622, 0.008937239646911621, -0.03859323263168335, -0.8882640153721063, -0.06848429585293309, 0.45414033867259734,-0.007318497423778353,0.001068115234375,0.8587493896484375,0.5594024658203125
20220117-1830,2022-01-17 18:30:07Z,u01, 77,40,movements,el-ex, rt, d,191350.36017575001, -3.0959785099138544, -0.9479546255967246, -2.9785938603887727, 0.17647229135036469, -1.4717967510223389, 1.3523164987564087, -0.0265995804220438, 0.8122240304946899, 0.5827387571334839, 0.08145496249198914, -0.14552175998687744, -0.05624961853027344, -0.8874233757998917, -0.0620414581738587, 0.45644732342376465,0.016924128150893003,0.0493927001953125,0.6434326171875,0.505126953125
20220117-1830,2022-01-17 18:30:07Z,u01, 78,40,movements,el-ex, rt, d,191350.38512375002, 3.1042548890664277, -0.9506670165216597, -3.035159286011285, 0.058343350887298584, -1.4938565492630005, 1.2944680452346802, 0.021693438291549683, 0.8138033151626587, 0.5807352662086487, 0.09909519553184509, 0.06304287910461426, 0.01896566152572632, -0.8872722476644694, -0.05581745680889949, 0.4560246380925961,0.040912870653821515,0.09808349609375,0.8230133056640625,0.56890869140625
20220117-1830,2022-01-17 18:30:07Z,u01, 79,40,movements,el-ex, rt, d,191350.41007075002, 3.020959529586706, -0.9517914381685383, -3.0903091743088464, 0.17383041977882385, -1.5361690521240234, 1.2487847805023193, 0.0698247030377388, 0.8144562244415283, 0.5760082006454468, 0.12100175023078918, 0.08756709098815918, 0.13233518600463867, -0.8862665444989417, -0.050355842602526735, 0.455777605873267,0.0652889547591444,0.188934326171875,0.9512939453125,0.6478424072265625
20220117-1830,2022-01-17 18:30:07Z,u01, 80,40,movements,el-ex, rt, d,191350.43501875002, 2.9409146069260657, -0.9468232628634898, 3.1405079041492057, -0.19375476241111755, -1.4872092008590698, 1.2354087829589844, 0.11646364629268646, 0.8115635514259338, 0.5725391507148743, 0.10771852731704712, -0.006998121738433838, 0.020188570022583008, -0.8855661623222075, -0.045190080450067616, 0.4536804185237181,0.08890773027348414,0.2103271484375,0.81878662109375,0.624908447265625
20220117-1830,2022-01-17 18:30:08Z,u01, 81,40,movements,el-ex, rt, d,191350.45996675, 2.864763007471866, -0.9334869997996271, 3.092135904710697, -0.1751541793346405, -1.4845713376998901, 1.258978009223938, 0.16262753307819366, 0.8036997318267822, 0.5723803639411926, 0.088516965508461, 0.0476035475730896, -0.0480579137802124, -0.8857620680221411, -0.0401963480890411, 0.4485871836919402,0.11215803826986703,0.250152587890625,0.8162384033203125,0.5244140625
20220117-1830,2022-01-17 18:30:08Z,u01, 82,40,movements,el-ex, rt, d,191350.48491375, 2.789065258310034, -0.9269495296953418, 3.04173154216998, 0.322130411863327, -1.3107846975326538, 1.1535197496414185, 0.20725789666175842, 0.7997925281524658, 0.5633611083030701, 0.03297647833824158, 0.14152204990386963, 0.16021054983139038, -0.8834597622297811, -0.034342355746148245, 0.44741218320484955,0.13469106928573948,0.235504150390625,0.906890869140625,0.67657470703125
20220117-1830,2022-01-17 18:30:08Z,u01, 83,40,movements,el-ex, rt, d,191350.50986175, 2.7193381604112847, -0.9238841907398206, 2.993806672362917, 0.2598380148410797, -1.2479748725891113, 1.07777738571167, 0.2470075786113739, 0.7979487180709839, 0.5497861504554749, 0.1181657463312149, 0.10674482583999634, 0.14429014921188354, -0.8798178610837208, -0.02852388664784472, 0.4484515018500852,0.15491316747027212,0.33929443359375,0.96954345703125,0.74102783203125
20220117-1830,2022-01-17 18:30:08Z,u01, 84,40,movements,el-ex, rt, d,191350.53480975, 2.657099981851495, -0.9129516194266446, 2.95460634163808, -0.14826199412345886, -1.2082977294921875, 1.0491359233856201, 0.28477129340171814, 0.7913118600845337, 0.5410460829734802, 0.07513779401779175, -0.02092611789703369, -0.0114593505859375, -0.8774683302789084, -0.023924521437214186, 0.44615022265210547,0.1744331649869571,0.3653106689453125,0.8010406494140625,0.5458526611328125
20220117-1830,2022-01-17 18:30:08Z,u01, 85,40,movements,el-ex, rt, d,191350.55975675, 2.6027486203596797, -0.8949174214572453, 2.9232053834183938, -0.20589864253997803, -1.1662287712097168, 1.0241413116455078, 0.3210144639015198, 0.7801574468612671, 0.5369397401809692, 0.0173187255859375, 0.07686781883239746, 0.06320375204086304, -0.8764009958855357, -0.019777641782755984, 0.4407341583582347,0.19308958949487845,0.336700439453125,0.819000244140625,0.5731353759765625
20220117-1830,2022-01-17 18:30:08Z,u01, 86,40,movements,el-ex, rt, d,191350.58470475, 2.548452582425485, -0.8818821203654752, 2.889297038938881, 0.13861924409866333, -1.0861713886260986, 0.9469001293182373, 0.35533538460731506, 0.7719367146492004, 0.5271154046058655, -0.012333005666732788, 0.1539972424507141, 0.19581550359725952, -0.8736904661177377, -0.014922555093806356, 0.43816676796526766,0.2108369743176665,0.337158203125,0.90673828125,0.7295989990234375
20220117-1830,2022-01-17 18:30:08Z,u01, 87,40,movements,el-ex, rt, d,191350.60965275002, 2.497257767983038, -0.8708802273861993, 2.858106357717334, 0.017177805304527283, -1.1293175220489502, 0.8625887632369995, 0.38692155480384827, 0.7648962140083313, 0.5150002837181091, 0.012965530157089233, 0.07554250955581665, -0.013642370700836182, -0.8702788298723527, -0.010718770465527605, 0.4366505347332563,0.22767545920671367,0.395538330078125,0.8961944580078125,0.6019439697265625
20220117-1830,2022-01-17 18:30:08Z,u01, 88,40,movements,el-ex, rt, d,191350.63460075003, 2.450055774580906, -0.8559140045907554, 2.8330414054113713, -0.09939461201429367, -1.115322470664978, 0.8938314318656921, 0.41804492473602295, 0.7551704049110413, 0.5049320459365845, -0.026305973529815674, -0.030789732933044434, -0.04375046491622925, -0.8674159721897452, -0.007453659149437464, 0.43319623016075276,0.2446938647737896,0.38818359375,0.7420196533203125,0.4327392578125
20220117-1830,2022-01-17 18:30:08Z,u01, 89,40,movements,el-ex, rt, d,191350.65954775002, 2.4047666591633052, -0.8392531357370265, 2.80906598208268, -0.0861184224486351, -1.0621662139892578, 0.8994407057762146, 0.4488688111305237, 0.7441443800926208, 0.4947379231452942, 0.01057329773902893, 0.0575675368309021, 0.16592174768447876, -0.864497102090627, -0.0037043812061677284, 0.4292711738540552,0.2614521129027976,0.432403564453125,0.7421112060546875,0.5888519287109375
20220117-1830,2022-01-17 18:30:08Z,u01, 90,40,movements,el-ex, rt, d,191350.68449575, 2.3663298803607167, -0.8219049913769235, 2.7917288279532206, -0.3152827024459839, -0.9908495545387268, 0.7328401207923889, 0.476513534784317, 0.7324441075325012, 0.48627209663391113, 0.05937519669532776, 0.13169163465499878, 0.1710764765739441, -0.8620528256998413, -0.000985524475506483, 0.42450902364566756,0.2768683441906019,0.516815185546875,0.8699798583984375,0.6813507080078125
20220117-1830,2022-01-17 18:30:08Z,u01, 91,40,movements,el-ex, rt, d,191350.70944375, 2.339292987261802, -0.8003170157167939, 2.788838483673468, -0.7122416496276855, -0.9829680919647217, 0.6180476546287537, 0.500738263130188, 0.7175769209861755, 0.48409155011177063, 0.07038295269012451, 0.012159407138824463, -0.04083895683288574, -0.8614202299972296, -0.0009829575302791604, 0.4161758547859459,0.2911217983860226,0.5754547119140625,0.7886505126953125,0.5062103271484375
20220117-1830,2022-01-17 18:30:08Z,u01, 92,40,movements,el-ex, rt, d,191350.73439075, 2.317863867477822, -0.7774092614903996, 2.7917470996565528, -0.5778013467788696, -0.8817746639251709, 0.5947641730308533, 0.5229212641716003, 0.7014352679252625, 0.4842950999736786, 0.029675781726837158, 0.04638266563415527, 0.012271583080291748, -0.8614779381512334, -0.0018196780326049655, 0.4064686749514973,0.3043609754053066,0.5589447021484375,0.72589111328125,0.4705047607421875
20220117-1830,2022-01-17 18:30:08Z,u01, 93,40,movements,el-ex, rt, d,191350.75933875, 2.291413476448244, -0.7635048328095757, 2.7833156177673466, 0.16399197280406952, -0.7970111966133118, 0.5229262709617615, 0.5428231954574585, 0.6914576292037964, 0.4766857922077179, -0.0068125128746032715, 0.15394026041030884, 0.0757739245891571, -0.859268646223915, -0.000541917092337918, 0.4021530531532769,0.3161171054994455,0.52813720703125,0.8043975830078125,0.5820770263671875
20220117-1830,2022-01-17 18:30:08Z,u01, 94,40,movements,el-ex, rt, d,191350.78428675001, 2.256684403148114, -0.7600831175269765, 2.7618803816925057, 0.540957510471344, -0.7926251888275146, 0.4922219514846802, 0.5608749985694885, 0.6889817118644714, 0.45904624462127686, -0.008140623569488525, 0.13007956743240356, 0.013075828552246094, -0.854117880851345, 0.0024009377834223744, 0.40424915344146334,0.3271994905804513,0.555206298828125,0.8401947021484375,0.491302490234375
20220117-1830,2022-01-17 18:30:08Z,u01, 95,40,movements,el-ex, rt, d,191350.80923375, 2.2216755885772166, -0.7571179703584614, 2.739333469156022, 0.3120047152042389, -0.7611867189407349, 0.5367967486381531, 0.5782214403152466, 0.6868295669555664, 0.44036924839019775, -0.009083867073059082, -0.0664377212524414, -0.0033118724822998047, -0.8486185467204013, 0.005585005922240982, 0.4068996147713862,0.338006041224186,0.5505218505859375,0.6917724609375,0.4252166748046875
20220117-1830,2022-01-17 18:30:08Z,u01, 96,40,movements,el-ex, rt, d,191350.83418175002, 2.191484756427468, -0.7482195198640567, 2.7228020998754143, 0.09164039045572281, -0.7602276802062988, 0.5925673246383667, 0.596199095249176, 0.6803349256515503, 0.4262518286705017, 0.005973696708679199, -0.06307131052017212, 0.04414597153663635, -0.8444243700505512, 0.008567144018073403, 0.4063792253527269,0.34889806609704244,0.59637451171875,0.6020050048828125,0.465576171875
20220117-1830,2022-01-17 18:30:08Z,u01, 97,40,movements,el-ex, rt, d,191350.85912975002, 2.161466902102957, -0.7383641358264065, 2.7080916917367706, 0.14081542193889618, -0.8500049114227295, 0.5365011692047119, 0.6142632961273193, 0.6730789542198181, 0.4118802845478058, 0.01903754472732544, 0.06897115707397461, 0.05329906940460205, -0.8401292651601069, 0.011088721275536562, 0.40533517328759544,0.3602266962449814,0.6202850341796875,0.7091827392578125,0.45721435546875
20220117-1830,2022-01-17 18:30:08Z,u01, 98,40,movements,el-ex, rt, d,191350.88407775, 2.1332267605858397, -0.7277890619506767, 2.697860891654766, -0.1499013900756836, -0.8446818590164185, 0.5083667039871216, 0.631634533405304, 0.6652204990386963, 0.39814481139183044, 0.01318657398223877, 0.022050559520721436, 0.06941491365432739, -0.8360146238315721, 0.012326818839270004, 0.4033345371128928,0.37181817830002406,0.6401824951171875,0.7090301513671875,0.478118896484375
20220117-1830,2022-01-17 18:30:08Z,u01, 99,40,movements,el-ex, rt, d,191350.90902475, 2.111391483203738, -0.7127881521832622, 2.695827873264271, -0.37157610058784485, -0.7901650071144104, 0.552619993686676, 0.6486606001853943, 0.6539456844329834, 0.38935133814811707, 0.027425825595855713, -0.0690305233001709, -0.011299610137939453, -0.8333760684384786, 0.012649128079290473, 0.3981625376776713,0.3831330287835335,0.670074462890625,0.5777130126953125,0.404296875
20220117-1830,2022-01-17 18:30:08Z,u01, 100,40,movements,el-ex, rt, d,191350.93397275, 2.09367411028939, -0.696534801413187, 2.6978614998262715, -0.26990827918052673, -0.7534263134002686, 0.5062414407730103, 0.6645784974098206, 0.6415634751319885, 0.38305598497390747, 0.03843975067138672, 0.05478668212890625, -0.01199275255203247, -0.8314871457064188, 0.012534472663935592, 0.3917281373845005,0.3937272525771574,0.6960296630859375,0.6654205322265625,0.3791351318359375
20220117-1830,2022-01-17 18:30:08Z,u01, 101,40,movements,el-ex, rt, d,191350.95892075, 2.0706294978601467, -0.6851093831872295, 2.6913292667938333, 0.0976111963391304, -0.7580084800720215, 0.488282710313797, 0.6796175241470337, 0.6327577233314514, 0.3711295425891876, 0.007668673992156982, 0.05846524238586426, 0.05286625027656555, -0.8278739536578926, 0.013765657666501452, 0.38887573643758505,0.4039934352177254,0.6986846923828125,0.716339111328125,0.4111785888671875
20220117-1830,2022-01-17 18:30:08Z,u01, 102,40,movements,el-ex, rt, d,191350.98386775, 2.04601520246034, -0.6753812426298409, 2.682106298324365, -0.003134556580334902, -0.7489438056945801, 0.48663750290870667, 0.6939868927001953, 0.6251949071884155, 0.35709017515182495, 0.0031108856201171875, -0.0013241171836853027, 0.032954901456832886, -0.8235942579046234, 0.01541401894916572, 0.3873022366209317,0.4140674237134913,0.6908416748046875,0.6401519775390625,0.4050445556640625
20220117-1830,2022-01-17 18:30:08Z,u01, 103,40,movements,el-ex, rt, d,191351.00881575, 2.0261619736884264, -0.6625911829403516, 2.67984443209632, -0.29978883266448975, -0.7368000149726868, 0.4826633036136627, 0.7080628871917725, 0.6151617765426636, 0.3467313349246979, 0.026586711406707764, 0.002620697021484375, 0.007058829069137573, -0.8204323109493821, 0.016015199371273936, 0.3831784262921013,0.42403836159018365,0.723480224609375,0.6010894775390625,0.3529205322265625
20220117-1830,2022-01-17 18:30:08Z,u01, 104,40,movements,el-ex, rt, d,191351.03376375002, 2.007977772584593, -0.6495184430963683, 2.6805554111272705, -0.13525837659835815, -0.7696216702461243, 0.42928552627563477, 0.7214750051498413, 0.6048029661178589, 0.3371754586696625, 0.02156698703765869, 0.04792225360870361, 0.015516161918640137, -0.8175179051004465, 0.01588097911595787, 0.3783310464554445,0.4339100578583187,0.7422332763671875,0.6504974365234375,0.3596954345703125
20220117-1830,2022-01-17 18:30:08Z,u01, 105,40,movements,el-ex, rt, d,191351.05871075002, 1.9853814615504315, -0.6399887262339432, 2.6757064967945103, 0.07044441998004913, -0.8100956082344055, 0.39855125546455383, 0.7341510653495789, 0.5971863865852356, 0.32309505343437195, 0.008906126022338867, 0.041805803775787354, 0.004144877195358276, -0.8131929697115441, 0.01627029830877652, 0.37606718840617503,0.44387596783869293,0.7482147216796875,0.637847900390625,0.3316192626953125
20220117-1830,2022-01-17 18:30:08Z,u01, 106,40,movements,el-ex, rt, d,191351.08365875002, 1.960349368678747, -0.6312862884240332, 2.6676332121126958, 0.12078408896923065, -0.8043965697288513, 0.45235466957092285, 0.7467875480651855, 0.5901836156845093, 0.3065805733203888, -0.012122631072998047, 0.03287851810455322, -0.008103489875793457, -0.8080780572811371, 0.01732462802320678, 0.37491163021901297,0.45403851883841145,0.7333984375,0.6316070556640625,0.29962158203125
20220117-1830,2022-01-17 18:30:08Z,u01, 107,40,movements,el-ex, rt, d,191351.10860675, 1.9356444496932959, -0.6209852319385163, 2.6592847860229347, 0.053515639156103134, -0.778285801410675, 0.5067304372787476, 0.759772002696991, 0.5818367600440979, 0.2901934087276459, 0.016350924968719482, -0.034992337226867676, 0.02499207854270935, -0.8029531269013894, 0.01905209784882328, 0.3733261026284195,0.46425295529568544,0.762542724609375,0.5644073486328125,0.301116943359375
20220117-1830,2022-01-17 18:30:08Z,u01, 108,40,movements,el-ex, rt, d,191351.13355475, 1.9135512618893211, -0.609159306866636, 2.6539855098430265, -0.02714904397726059, -0.7448901534080505, 0.4912743866443634, 0.7724244594573975, 0.5721781849861145, 0.2756316065788269, 0.01994931697845459, -0.0051310062408447266, 0.026644974946975708, -0.7983694089960357, 0.020544935298693168, 0.37054504197712984,0.4742158292574374,0.79156494140625,0.553375244140625,0.313507080078125
20220117-1830,2022-01-17 18:30:08Z,u01, 109,40,movements,el-ex, rt, d,191351.15850175, 1.8920446907368118, -0.5980992724504702, 2.6484241232593004, 0.06320755183696747, -0.7096356153488159, 0.45832669734954834, 0.7841299772262573, 0.5630727410316467, 0.26093918085098267, 0.018543362617492676, 0.03565162420272827, 0.02002084255218506, -0.793713949807147, 0.022085267118004848, 0.3681671519434056,0.48371822635477085,0.8015594482421875,0.608612060546875,0.2794342041015625
20220117-1830,2022-01-17 18:30:08Z,u01, 110,40,movements,el-ex, rt, d,191351.18344975, 1.8723646792285722, -0.5880048126328491, 2.643772848307533, -0.012124955654144287, -0.6532486081123352, 0.4201166033744812, 0.7945002317428589, 0.5547020435333252, 0.24713367223739624, 0.025125622749328613, 0.010254621505737305, 0.040082454681396484, -0.7893168201813174, 0.02336230086250468, 0.36595675915877474,0.4924518515452275,0.81536865234375,0.5728759765625,0.29278564453125
20220117-1830,2022-01-17 18:30:08Z,u01, 111,40,movements,el-ex, rt, d,191351.20839775002, 1.8557251849608807, -0.5780694633861232, 2.64143803430592, -0.07454102486371994, -0.5671887993812561, 0.3897797763347626, 0.8037516474723816, 0.5464081168174744, 0.23541752994060516, 0.015797913074493408, 0.0018096566200256348, 0.04726672172546387, -0.7855693715355335, 0.024280210053637064, 0.36324296071211126,0.5003456288133371,0.8234100341796875,0.5497283935546875,0.282958984375
20220117-1830,2022-01-17 18:30:08Z,u01, 112,40,movements,el-ex, rt, d,191351.23334475, 1.8429430719294082, -0.5685851122069778, 2.641727645863839, -0.15801681578159332, -0.4793759882450104, 0.32906705141067505, 0.8116505146026611, 0.5384402871131897, 0.22650787234306335, 0.006052911281585693, 0.05201387405395508, 0.06679660081863403, -0.7827133474847843, 0.024774014767435404, 0.3600076872317197,0.5070904060273006,0.8173675537109375,0.572845458984375,0.2935638427734375
20220117-1830,2022-01-17 18:30:08Z,u01, 113,40,movements,el-ex, rt, d,191351.25829275002, 1.8322329251169878, -0.5604509876119786, 2.642640234445384, -0.0665854662656784, -0.413636177778244, 0.2790626585483551, 0.8182336091995239, 0.5315682291984558, 0.21892690658569336, -0.005977809429168701, 0.07269507646560669, 0.08423471450805664, -0.7802804803861495, 0.02501654587991442, 0.3570695674664627,0.5128721995222539,0.818389892578125,0.620086669921875,0.291748046875
20220117-1830,2022-01-17 18:30:08Z,u01, 114,40,movements,el-ex, rt, d,191351.28324075002, 1.8228061136225606, -0.5543376642722773, 2.642162349636901, -0.04091399163007736, -0.3266550898551941, 0.2119402289390564, 0.8233926296234131, 0.5263802409172058, 0.21201030910015106, -0.015851736068725586, 0.06830048561096191, 0.07819652557373047, -0.7780479258652995, 0.02542788751799102, 0.3551836212246443,0.5175320666305403,0.8056182861328125,0.596343994140625,0.29620361328125
20220117-1830,2022-01-17 18:30:08Z,u01, 115,40,movements,el-ex, rt, d,191351.30818775002, 1.8160878712490591, -0.5495522016854661, 2.642747691000961, -0.11811617016792297, -0.23315589129924774, 0.14270055294036865, 0.8272323608398438, 0.522305428981781, 0.2070831060409546, -0.020896971225738525, 0.07084935903549194, 0.09015795588493347, -0.7764605264804466, 0.02550695813355275, 0.3534551326001487,0.5210832875253351,0.810882568359375,0.58197021484375,0.2901763916015625
20220117-1830,2022-01-17 18:30:08Z,u01, 116,40,movements,el-ex, rt, d,191351.33313575, 1.813776610175732, -0.5458512724663606, 2.646810805907751, -0.20337757468223572, -0.1251370757818222, 0.07255229353904724, 0.8295792937278748, 0.5191458463668823, 0.20563426613807678, -0.029164373874664307, 0.09280776977539062, 0.12778541445732117, -0.7760205413102613, 0.024683081879869895, 0.3511383398218147,0.5233398389542728,0.80206298828125,0.608489990234375,0.3214569091796875
20220117-1830,2022-01-17 18:30:08Z,u01, 117,40,movements,el-ex, rt, d,191351.35808379168, 1.8146303934300665, -0.5442541521292439, 2.6517415280624927, -0.14554306864738464, -0.022653914988040924, -0.03055524453520775, 0.8302069306373596, 0.5177801251411438, 0.20654238760471344, -0.03366774320602417, 0.10032272338867188, 0.13084456324577332, -0.7763521791418495, 0.023419760467806916, 0.34928155272070355,0.5241479243955525,0.7949066162109375,0.6211395263671875,0.3441925048828125
20220117-1830,2022-01-17 18:30:08Z,u01, 118,40,movements,el-ex, rt, d,191351.38303079168, 1.8169708269542122, -0.5458401167252731, 2.6555799351178946, -0.11771826446056366, 0.05806483328342438, -0.151920884847641, 0.8289238810539246, 0.5191363096237183, 0.20828449726104736, -0.034414052963256836, 0.09612846374511719, 0.1059090793132782, -0.7769589562891897, 0.02184094976511347, 0.34880203759995704,0.5236361102858478,0.7949676513671875,0.6151275634765625,0.319671630859375
20220117-1830,2022-01-17 18:30:08Z,u01, 119,40,movements,el-ex, rt, d,191351.40797879169, 1.8231390713947984, -0.5498170785181916, 2.6622831511955485, -0.2529168725013733, 0.1619834452867508, -0.26093530654907227, 0.8256176710128784, 0.522531270980835, 0.2128763645887375, -0.02758312225341797, 0.09772318601608276, 0.14562879502773285, -0.7785079519475889, 0.019067056970764995, 0.3483758640017567,0.5217240834916392,0.7969207763671875,0.6180572509765625,0.341796875
20220117-1830,2022-01-17 18:30:08Z,u01, 120,40,movements,el-ex, rt, d,191351.4329267917, 1.8347385261959086, -0.5553216882554438, 2.6727741331517065, -0.30865830183029175, 0.3276554346084595, -0.36254510283470154, 0.8203040361404419, 0.5272166728973389, 0.22168485820293427, -0.03139394521713257, 0.11694842576980591, 0.20334869623184204, -0.7814146436005904, 0.015283379443921552, 0.3474806516454507,0.5180877456381922,0.7926025390625,0.63525390625,0.4150848388671875
20220117-1830,2022-01-17 18:30:09Z,u01, 121,40,movements,el-ex, rt, d,191351.45787479167, 1.8505685915846661, -0.5637611488114913, 2.6829850119781207, -0.16595003008842468, 0.5068358778953552, -0.47337040305137634, 0.8123863339424133, 0.5343691110610962, 0.23340491950511932, -0.03279966115951538, 0.13713961839675903, 0.17348584532737732, -0.785220796641746, 0.011435038584125978, 0.3477263484309656,0.5122341629313306,0.780853271484375,0.68023681640625,0.414398193359375
20220117-1830,2022-01-17 18:30:09Z,u01, 122,40,movements,el-ex, rt, d,191351.48282179167, 1.8694626570610777, -0.5748310252778082, 2.6913792733195034, -0.15298664569854736, 0.6518863439559937, -0.5209783315658569, 0.8021288514137268, 0.5436930060386658, 0.24695587158203125, -0.008275091648101807, 0.06798607110977173, 0.11348724365234375, -0.7895651697975452, 0.008048405377249157, 0.3494405132305471,0.5043940576568536,0.790618896484375,0.6255950927734375,0.3642730712890625
20220117-1830,2022-01-17 18:30:09Z,u01, 123,40,movements,el-ex, rt, d,191351.50776979167, 1.8936032979666275, -0.5866232527797844, 2.7019296323269435, -0.202780619263649, 0.8194406032562256, -0.5987975597381592, 0.7897985577583313, 0.553551971912384, 0.2641935646533966, -0.012882113456726074, 0.10437637567520142, 0.17214664816856384, -0.7950321372783912, 0.004548423561134163, 0.35096203672195236,0.49470069888210927,0.78558349609375,0.633087158203125,0.40435791015625
20220117-1830,2022-01-17 18:30:09Z,u01, 124,40,movements,el-ex, rt, d,191351.53271779168, 1.9219917118483223, -0.6007088334636217, 2.7132702851414496, -0.12614360451698303, 0.9405311346054077, -0.7033193707466125, 0.7745830416679382, 0.5652273297309875, 0.283794641494751, 0.0019063949584960938, 0.13093966245651245, 0.16696515679359436, -0.8011844894038103, 0.0008540650646711723, 0.35325972298271263,0.48302208229997406,0.7744598388671875,0.6894073486328125,0.4543609619140625
20220117-1830,2022-01-17 18:30:09Z,u01, 125,40,movements,el-ex, rt, d,191351.55766479168, 1.9527122423283698, -0.6171646167475583, 2.7235679852389696, -0.07670131325721741, 1.0516462326049805, -0.7667436003684998, 0.7567659616470337, 0.5787251591682434, 0.3039444386959076, 0.010583221912384033, 0.07184851169586182, 0.10052010416984558, -0.8074437583958309, -0.0026074532622229474, 0.3568517027961172,0.46977074201878344,0.7731475830078125,0.6663970947265625,0.4099578857421875
20220117-1830,2022-01-17 18:30:09Z,u01, 126,40,movements,el-ex, rt, d,191351.58261279168, 1.9876240764483095, -0.6344708891972313, 2.7359473681479156, -0.12208817154169083, 1.1681058406829834, -0.8179754614830017, 0.7364263534545898, 0.5927514433860779, 0.32606974244117737, 0.03221970796585083, 0.03626143932342529, 0.1043500006198883, -0.8142453523217392, -0.006274763606438083, 0.36048196228077367,0.454991996820149,0.77020263671875,0.6361083984375,0.4290313720703125
20220117-1830,2022-01-17 18:30:09Z,u01, 127,40,movements,el-ex, rt, d,191351.6075607917, 2.0281619082052824, -0.6516686129341648, 2.75228096204659, -0.21968422830104828, 1.2845872640609741, -0.8771695494651794, 0.7133544087409973, 0.6065139174461365, 0.35109302401542664, 0.036676108837127686, 0.07369232177734375, 0.1283533275127411, -0.8218509872585221, -0.010366666743436392, 0.3634605062509106,0.4385771619414524,0.7556915283203125,0.65936279296875,0.4473419189453125
20220117-1830,2022-01-17 18:30:09Z,u01, 128,40,movements,el-ex, rt, d,191351.63250779168, 2.0733451142235073, -0.6696348316533617, 2.772052461552253, -0.2201155722141266, 1.3573250770568848, -0.9546068906784058, 0.6871070265769958, 0.6206997036933899, 0.3776454031467438, 0.0550653338432312, 0.10235333442687988, 0.11030012369155884, -0.8298163000732384, -0.015086822481209017, 0.3663500632627564,0.42067210430666424,0.742218017578125,0.7169036865234375,0.4973602294921875
20220117-1830,2022-01-17 18:30:09Z,u01, 129,40,movements,el-ex, rt, d,191351.6574557917, 2.1221574023884613, -0.6869655488154485, 2.7944106981846795, -0.3088409900665283, 1.4390829801559448, -0.9392810463905334, 0.6585991978645325, 0.6341939568519592, 0.40502500534057617, 0.07588261365890503, 0.06555891036987305, 0.0760846734046936, -0.8379241080334323, -0.0198920142369432, 0.368894169074547,0.4017519668219094,0.7440948486328125,0.7118072509765625,0.4767608642578125
20220117-1830,2022-01-17 18:30:09Z,u01, 130,40,movements,el-ex, rt, d,191351.68240379167, 2.176306470883622, -0.7017257460903125, 2.8199069810164863, -0.3082481026649475, 1.5856209993362427, -0.9158232808113098, 0.6279474496841431, 0.6455366611480713, 0.43470078706741333, 0.08166271448135376, 0.03827089071273804, 0.05853959918022156, -0.8466181880663712, -0.02424943739218688, 0.37031812031339484,0.381463254957324,0.7137908935546875,0.6908416748046875,0.49530029296875
20220117-1830,2022-01-17 18:30:09Z,u01, 131,40,movements,el-ex, rt, d,191351.70735079166, 2.233883585586458, -0.7167127806082294, 2.8451985107428155, -0.15558229386806488, 1.6956695318222046, -0.9694583415985107, 0.5941998958587646, 0.6569097638130188, 0.4641079604625702, 0.10924559831619263, 0.03779244422912598, 0.0555301308631897, -0.8551493960100022, -0.02781163520904234, 0.3723976192861721,0.3595359441123356,0.7066802978515625,0.6882171630859375,0.508880615234375
20220117-1830,2022-01-17 18:30:09Z,u01, 132,40,movements,el-ex, rt, d,191351.73229879167, 2.2929131923763073, -0.7346168523443367, 2.8703645124402914, -0.14297138154506683, 1.7107348442077637, -1.0779216289520264, 0.5568686723709106, 0.6703028678894043, 0.4905011057853699, 0.12941068410873413, 0.0585637092590332, 0.05103325843811035, -0.8627039577534572, -0.03150301710125697, 0.3762022681832331,0.336483713382682,0.69122314453125,0.7244110107421875,0.5429229736328125
20220117-1830,2022-01-17 18:30:09Z,u01, 133,40,movements,el-ex, rt, d,191351.75724679168, 2.358046838848957, -0.748503904747826, 2.9029802508898737, -0.5034489035606384, 1.7285526990890503, -1.0435010194778442, 0.5171421766281128, 0.6805433034896851, 0.5190615653991699, 0.12362021207809448, 0.0006548166275024414, 0.11150789260864258, -0.870758325277645, -0.0362039076932863, 0.37777678536659137,0.3126562968742994,0.6582489013671875,0.7225494384765625,0.620330810546875
20220117-1830,2022-01-17 18:30:09Z,u01, 134,40,movements,el-ex, rt, d,191351.78219479168, 2.42978807003796, -0.7535778049777115, 2.9441612183229813, -0.8153526782989502, 1.7798811197280884, -1.0021021366119385, 0.4763438403606415, 0.6842522025108337, 0.5521730184555054, 0.12277722358703613, -0.01634460687637329, 0.0530361533164978, -0.8799712160646282, -0.04167937068797167, 0.37513121851736303,0.2884266522686913,0.610321044921875,0.6475982666015625,0.595703125
20220117-1830,2022-01-17 18:30:09Z,u01, 135,40,movements,el-ex, rt, d,191351.80714179168, 2.5035279344488788, -0.7559917416272762, 2.9863355259145057, -0.5070119500160217, 1.815374732017517, -1.049476981163025, 0.4333841800689697, 0.6860105991363525, 0.5844379663467407, 0.12250879406929016, 0.12923598289489746, 0.005436301231384277, -0.8888268140156161, -0.0469668141451805, 0.37198674996262693,0.26345190253889533,0.5713653564453125,0.7756805419921875,0.608642578125
20220117-1830,2022-01-17 18:30:09Z,u01, 136,40,movements,el-ex, rt, d,191351.8320897917, 2.5740511342372305, -0.7657183808206154, 3.0218160273056403, -0.052228834480047226, 1.8642157316207886, -1.090352177619934, 0.38751929998397827, 0.6930550336837769, 0.6078681945800781, 0.1331259310245514, 0.11715620756149292, -0.00427621603012085, -0.8951660506981078, -0.05110607249309229, 0.37353482615397987,0.2377766049227939,0.5299835205078125,0.8145904541015625,0.602020263671875
20220117-1830,2022-01-17 18:30:09Z,u01, 137,40,movements,el-ex, rt, d,191351.8570377917, 2.642637557061899, -0.7812126879641653, 3.052758076001998, 0.18360623717308044, 1.9169343709945679, -1.0740296840667725, 0.3397696614265442, 0.7041410207748413, 0.6234917640686035, 0.1076943576335907, 0.06116354465484619, 0.042600035667419434, -0.8993421103457464, -0.054126276777939686, 0.37873502867641284,0.21169291160815396,0.478485107421875,0.786376953125,0.6160888671875
20220117-1830,2022-01-17 18:30:09Z,u01, 138,40,movements,el-ex, rt, d,191351.8819847917, 2.7135835975686864, -0.7954116225735405, 3.084867307999136, -0.05829215049743652, 1.9291037321090698, -1.0394511222839355, 0.2905385196208954, 0.7141517996788025, 0.6368476748466492, 0.14282643795013428, -0.029474496841430664, 0.05864804983139038, -0.9028910205743794, -0.056671472926072275, 0.3838695550659502,0.18498768166766769,0.432830810546875,0.70538330078125,0.6998748779296875
20220117-1830,2022-01-17 18:30:09Z,u01, 139,40,movements,el-ex, rt, d,191351.90693279167, 2.7876424424875963, -0.8003538709895917, 3.1211130940493335, -0.2764779329299927, 1.8951985836029053, -1.0176351070404053, 0.2413945347070694, 0.7176026105880737, 0.6532800793647766, 0.166381374001503, 0.007342398166656494, 0.003396928310394287, -0.9072615743319234, -0.05929996381641456, 0.38513653462724795,0.15820779294654946,0.4196624755859375,0.68695068359375,0.695465087890625
20220117-1830,2022-01-17 18:30:09Z,u01, 140,40,movements,el-ex, rt, d,191351.93188079167, 2.861361243941616, -0.8021552179264262, -3.124075990281011, -0.21931006014347076, 1.8208065032958984, -1.0607527494430542, 0.19226574897766113, 0.7188559770584106, 0.668042004108429, 0.16529354453086853, 0.02354520559310913, -0.026120007038116455, -0.9111059270550536, -0.06250591491976126, 0.38544364960621236,0.13195544051889124,0.3718414306640625,0.7484893798828125,0.6540069580078125
20220117-1830,2022-01-17 18:30:09Z,u01, 141,40,movements,el-ex, rt, d,191351.95682779167, 2.934137574573011, -0.8046236564792862, -3.08554964672923, -0.1024765595793724, 1.795482873916626, -1.0665960311889648, 0.14281611144542694, 0.7205697298049927, 0.6785150766372681, 0.14357613027095795, 0.05108243227005005, 0.011426270008087158, -0.913717328309372, -0.06616773358448641, 0.38661985339835014,0.10614860323618777,0.3103179931640625,0.76776123046875,0.646209716796875
20220117-1830,2022-01-17 18:30:09Z,u01, 142,40,movements,el-ex, rt, d,191351.98177579168, 3.0079916777526408, -0.8072028477129689, -3.047020440882693, -0.14117538928985596, 1.894282341003418, -1.106989860534668, 0.09211339056491852, 0.7223557233810425, 0.6853594183921814, 0.13238918781280518, 0.020732104778289795, 0.0754285454750061, -0.9153366469010112, -0.06955958007417534, 0.3885172956170526,0.0798414399328917,0.2368621826171875,0.740509033203125,0.761962890625
20220117-1830,2022-01-17 18:30:09Z,u01, 143,40,movements,el-ex, rt, d,191352.00672379168, 3.085295891548167, -0.8054058049394003, -3.006601835374138, -0.15707240998744965, 1.9386976957321167, -1.121712565422058, 0.03898284211754799, 0.7211118340492249, 0.6917209625244141, 0.1681399941444397, 0.08780229091644287, -0.026880323886871338, -0.9168026993449276, -0.07302935540048938, 0.38911287306914855,0.05225560872467469,0.2229156494140625,0.7935333251953125,0.70806884765625
20220117-1830,2022-01-17 18:30:09Z,u01, 144,40,movements,el-ex, rt, d,191352.03167079168, -3.1185472323011827, -0.8069612560221202, -2.9654584555702685, 0.31551700830459595, 2.0291638374328613, -1.15516197681427, -0.015939010307192802, 0.7221886515617371, 0.6915121674537659, 0.16384249925613403, 0.12313288450241089, -0.06507807970046997, -0.9164727765176939, -0.07637882365779297, 0.39200641673035375,0.023973962169886454,0.1576385498046875,0.834930419921875,0.6297454833984375
20220117-1830,2022-01-17 18:30:09Z,u01, 145,40,movements,el-ex, rt, d,191352.05661879168, -3.035107599029106, -0.8202870821254624, -2.9194353455723756, 0.8382392525672913, 1.9723148345947266, -1.2881481647491455, -0.07248681783676147, 0.7313416600227356, 0.678148090839386, 0.17453767359256744, 0.11129438877105713, -0.01728999614715576, -0.9124725072210532, -0.08042360058112635, 0.4011319485206748,-0.0043649903253613065,0.121185302734375,0.868072509765625,0.6420440673828125
20220117-1830,2022-01-17 18:30:09Z,u01, 146,40,movements,el-ex, rt, d,191352.0815667917, -2.9473405865816855, -0.8381898288664715, -2.866373472810621, 0.8316715359687805, 1.9435213804244995, -1.3650777339935303, -0.12910212576389313, 0.7434336543083191, 0.6562308073043823, 0.1440252810716629, -0.018122434616088867, 0.1316414475440979, -0.9059711776217676, -0.0856248951463795, 0.4133384331466444,-0.032185355446706476,0.039520263671875,0.7473907470703125,0.7684173583984375
20220117-1830,2022-01-17 18:30:09Z,u01, 147,40,movements,el-ex, rt, d,191352.10651479167, -2.860895722208025, -0.840570391819516, -2.8140566044801347, -0.013217916712164879, 1.8462910652160645, -1.2748993635177612, -0.18478646874427795, 0.7450237274169922, 0.6409319043159485, 0.13412731885910034, -0.08810228109359741, 0.04398930072784424, -0.9012058662669575, -0.09107112233933767, 0.41942535326756625,-0.06013686456261652,-0.0301513671875,0.66497802734375,0.69482421875
20220117-1830,2022-01-17 18:30:09Z,u01, 148,40,movements,el-ex, rt, d,191352.13146179167, -2.7867876473902395, -0.8229591888424987, -2.7739936074360245, -0.5629996657371521, 1.7551344633102417, -1.2436785697937012, -0.2362561821937561, 0.733161449432373, 0.637697160243988, 0.1096998006105423, -0.0790475606918335, -0.017717301845550537, -0.89985039146475, -0.09548744979356039, 0.4166186107009084,-0.08706585513704418,-0.1075592041015625,0.64642333984375,0.620025634765625
20220117-1830,2022-01-17 18:30:09Z,u01, 149,40,movements,el-ex, rt, d,191352.15640979167, -2.718762004297425, -0.7981349871965987, -2.7403686093946136, -0.4206385910511017, 1.7434698343276978, -1.230419635772705, -0.28643742203712463, 0.7160554528236389, 0.6365671753883362, 0.10092112421989441, 0.007302582263946533, -0.0029003024101257324, -0.89908794523579, -0.09962156356748114, 0.4108185715870582,-0.11377342833283666,-0.1705169677734375,0.720306396484375,0.6391143798828125
20220117-1830,2022-01-17 18:30:09Z,u01, 150,40,movements,el-ex, rt, d,191352.18135779168, -2.6493518383917176, -0.7784235466472176, -2.703559081375214, -0.13462774455547333, 1.7096366882324219, -1.2999241352081299, -0.3365025520324707, 0.7021577954292297, 0.6274872422218323, 0.11933952569961548, 0.06990635395050049, -0.00862133502960205, -0.895978644278323, -0.10471818855953507, 0.4082098635365695,-0.1400750762173426,-0.2110748291015625,0.7633819580078125,0.6402740478515625
20220117-1830,2022-01-17 18:30:09Z,u01, 151,40,movements,el-ex, rt, d,191352.20630479167, -2.582324800109799, -0.7603148983000109, -2.6667966031712598, -0.0819987803697586, 1.6354321241378784, -1.2567743062973022, -0.38445812463760376, 0.6891496777534485, 0.6142190098762512, 0.10525280237197876, -0.03764510154724121, -0.05921095609664917, -0.8915887740933024, -0.11035827742737525, 0.40692511075821736,-0.16523482230003672,-0.2460479736328125,0.7063446044921875,0.559661865234375
20220117-1830,2022-01-17 18:30:09Z,u01, 152,40,movements,el-ex, rt, d,191352.23125279168, -2.519991753391178, -0.7396876589428276, -2.6352722434484224, -0.2363567352294922, 1.6421616077423096, -1.1859674453735352, -0.4301605522632599, 0.6740572452545166, 0.6005073189735413, 0.09178167581558228, -0.08726519346237183, -0.019635677337646484, -0.8871049227143035, -0.11531918235473393, 0.4045999918071741,-0.18985594304286324,-0.3262786865234375,0.611572265625,0.5780487060546875
20220117-1830,2022-01-17 18:30:09Z,u01, 153,40,movements,el-ex, rt, d,191352.2562007917, -2.4622697853510855, -0.7159983964542725, -2.6106961515228, -0.35227397084236145, 1.6388518810272217, -1.145807147026062, -0.4739883244037628, 0.656370997428894, 0.5869518518447876, 0.10721278190612793, -0.03130984306335449, -0.025169074535369873, -0.8827857455954216, -0.11901790794004108, 0.4006725398570752,-0.21444269324595783,-0.3669891357421875,0.601837158203125,0.5929412841796875
20220117-1830,2022-01-17 18:30:09Z,u01, 154,40,movements,el-ex, rt, d,191352.28114779168, -2.4096213278555374, -0.690859126027657, -2.590516175795133, -0.39672642946243286, 1.542514443397522, -1.105768084526062, -0.5150866508483887, 0.6371995210647583, 0.5732905864715576, 0.137279212474823, 0.01697516441345215, -0.03523528575897217, -0.8784388356422335, -0.12243571060960246, 0.3958619163020421,-0.23800824375640092,-0.3710479736328125,0.6468658447265625,0.5349273681640625
20220117-1830,2022-01-17 18:30:09Z,u01, 155,40,movements,el-ex, rt, d,191352.3060957917, -2.3626691050795308, -0.6650022151419073, -2.574431375526019, -0.4786006808280945, 1.4117828607559204, -1.0585980415344238, -0.5528191924095154, 0.6170608997344971, 0.5600244998931885, 0.13535386323928833, 0.027745306491851807, -0.11547476053237915, -0.8741947874040098, -0.12568107116345884, 0.39032098648276037,-0.2600720503539353,-0.4027557373046875,0.6320037841796875,0.4636993408203125
20220117-1830,2022-01-17 18:30:09Z,u01, 156,40,movements,el-ex, rt, d,191352.33104379167, -2.3231649802396817, -0.637176529894861, -2.5648115030007244, -0.5762680768966675, 1.2917791604995728, -0.9438883066177368, -0.5868164896965027, 0.5949283838272095, 0.549278199672699, 0.14354872703552246, 0.03962361812591553, -0.13394927978515625, -0.8707321372040644, -0.12831462981673802, 0.3829656897296136,-0.2805319102270377,-0.43499755859375,0.644378662109375,0.4233856201171875
20220117-1830,2022-01-17 18:30:09Z,u01, 157,40,movements,el-ex, rt, d,191352.355989875, -2.2855202463825375, -0.6125035879276424, -2.5581262324499874, -0.39157289266586304, 1.4499595165252686, -0.8508444428443909, -0.6179739236831665, 0.574917733669281, 0.5362629890441895, 0.051231980323791504, -0.07461249828338623, 0.13498646020889282, -0.8667908178481134, -0.1296347737581044, 0.3765268794746841,-0.30016004911398625,-0.5247344970703125,0.54693603515625,0.6191558837890625
20220117-1830,2022-01-17 18:30:09Z,u01, 158,40,movements,el-ex, rt, d,191352.38093787502, -2.242424512569819, -0.5905253131347585, -2.550802995717613, -0.38523393869400024, 1.6041854619979858, -0.7998492121696472, -0.6502394080162048, 0.556797444820404, 0.5168803334236145, 0.08677816390991211, -0.020359396934509277, 0.009273171424865723, -0.8611487092406693, -0.12985792053753376, 0.3717657380009183,-0.3214810475653908,-0.578826904296875,0.5207366943359375,0.5787811279296875
20220117-1830,2022-01-17 18:30:09Z,u01, 159,40,movements,el-ex, rt, d,191352.40588587502, -2.201431811998204, -0.5692304886399524, -2.5450549286902904, -0.32203367352485657, 1.4225019216537476, -0.8076842427253723, -0.680298924446106, 0.5389840602874756, 0.4966784119606018, 0.11979794502258301, 0.05638331174850464, -0.0769091546535492, -0.85526022675777, -0.12988128163291812, 0.3670325578156475,-0.3419763782371343,-0.533416748046875,0.5837554931640625,0.4433441162109375
20220117-1830,2022-01-17 18:30:09Z,u01, 160,40,movements,el-ex, rt, d,191352.43083287502, -2.163279965925763, -0.5485295537099684, -2.537824263154065, -0.18829591572284698, 1.349339485168457, -0.8417715430259705, -0.7078539729118347, 0.5214330554008484, 0.4764980673789978, 0.08079403638839722, 0.05516612529754639, -0.0905727744102478, -0.8491479773850156, -0.13113638843979236, 0.3627497131670976,-0.36078200265366306,-0.6133575439453125,0.58526611328125,0.3986358642578125
20220117-1830,2022-01-17 18:30:10Z,u01, 161,40,movements,el-ex, rt, d,191352.45578087503, -2.1227417940132676, -0.5311772343159785, -2.524697967803165, 0.21191886067390442, 1.3769625425338745, -0.8289210200309753, -0.7341781854629517, 0.5065487027168274, 0.4520960748195648, 0.052186667919158936, -0.07646441459655762, 0.020438194274902344, -0.8415174864478843, -0.13377724067879448, 0.3611923153741011,-0.3788035298240222,-0.662994384765625,0.4899444580078125,0.42108154296875
20220117-1830,2022-01-17 18:30:10Z,u01, 162,40,movements,el-ex, rt, d,191352.480728875, -2.079835624006973, -0.5144767980699382, -2.508654686737171, 0.009916230104863644, 1.3973597288131714, -0.8413047194480896, -0.7601758241653442, 0.4920794367790222, 0.4242526888847351, 0.06529068946838379, -0.02677789330482483, 0.01927444338798523, -0.8326580712548857, -0.13713819066752297, 0.36087912006907275,-0.39703885841038616,-0.6989898681640625,0.465087890625,0.478118896484375
20220117-1830,2022-01-17 18:30:10Z,u01, 163,40,movements,el-ex, rt, d,191352.505675875, -2.044404574955047, -0.49571685172843316, -2.501543260336304, -0.3091505169868469, 1.1704381704330444, -0.733844518661499, -0.7828059792518616, 0.47566235065460205, 0.4011986553668976, 0.09361225366592407, -0.07872015237808228, -0.1172783374786377, -0.8254323244333897, -0.13878328915627508, 0.35774189065873296,-0.4140307711114126,-0.6715240478515625,0.4226837158203125,0.3139495849609375
20220117-1830,2022-01-17 18:30:10Z,u01, 164,40,movements,el-ex, rt, d,191352.530623875, -2.0172054345963346, -0.4767303058609858, -2.5033121878304256, -0.3354387879371643, 1.099521517753601, -0.5799086093902588, -0.8014300465583801, 0.45887652039527893, 0.3835916221141815, 0.06412523984909058, -0.09997439384460449, -0.08770838379859924, -0.8201385546719705, -0.13845055896627456, 0.3521998502861753,-0.429138181284629,-0.725189208984375,0.3736419677734375,0.2916259765625
20220117-1830,2022-01-17 18:30:10Z,u01, 165,40,movements,el-ex, rt, d,191352.555571875, -1.9895831097934202, -0.46218518825864213, -2.5017411139163657, -0.07710651308298111, 1.0437268018722534, -0.5212163925170898, -0.8177300691604614, 0.44590508937835693, 0.3639865219593048, 0.0745050311088562, -0.06930285692214966, -0.11485624313354492, -0.8141633603052291, -0.13831587908373927, 0.34908309934821713,-0.4428856987575979,-0.7559356689453125,0.3650970458984375,0.2868499755859375
20220117-1830,2022-01-17 18:30:10Z,u01, 166,40,movements,el-ex, rt, d,191352.580518875, -1.96357150143183, -0.45129119110081306, -2.496475902678704, -0.014687549322843552, 0.8287574648857117, -0.4415150284767151, -0.8313590884208679, 0.43612781167030334, 0.34443432092666626, 0.10575777292251587, -0.050980597734451294, -0.12107601761817932, -0.8080177893312821, -0.13901227234081787, 0.3480781056529935,-0.45455980349360825,-0.7252655029296875,0.383209228515625,0.222991943359375
20220117-1830,2022-01-17 18:30:10Z,u01, 167,40,movements,el-ex, rt, d,191352.60546687501, -1.9459658741974653, -0.4405999538707311, -2.496700861044891, -0.27644628286361694, 0.6067952513694763, -0.32716813683509827, -0.8415842056274414, 0.4264822006225586, 0.3314347267150879, 0.0657815933227539, -0.0782613754272461, -0.1564774513244629, -0.8039972901788021, -0.13894500666350457, 0.3453601204539119,-0.4636906622887028,-0.75677490234375,0.371795654296875,0.1977996826171875
20220117-1830,2022-01-17 18:30:10Z,u01, 168,40,movements,el-ex, rt, d,191352.63041487502, -1.9330223428624653, -0.4325404299172161, -2.499460932665273, -0.1274358332157135, 0.5269919037818909, -0.23762133717536926, -0.8489900827407837, 0.4191786050796509, 0.3217217028141022, 0.03337740898132324, -0.14244520664215088, -0.07326295971870422, -0.801143487530128, -0.1379491529384514, 0.34268914228278735,-0.4708536727985817,-0.8089599609375,0.291534423828125,0.2570343017578125
20220117-1830,2022-01-17 18:30:10Z,u01, 169,40,movements,el-ex, rt, d,191352.655362875, -1.9220881432240233, -0.4269855389632706, -2.5007044193072008, -0.07133302092552185, 0.35626092553138733, -0.14704270660877228, -0.8546303510665894, 0.4141288697719574, 0.3132161498069763, 0.07003861665725708, -0.06802892684936523, -0.1576070487499237, -0.7986131076098821, -0.13720490195109875, 0.34113821766021213,-0.4764626908515207,-0.8043975830078125,0.3349761962890625,0.192535400390625
20220117-1830,2022-01-17 18:30:10Z,u01, 170,40,movements,el-ex, rt, d,191352.68030987502, -1.917467373451618, -0.42331028874564003, -2.502634178912675, -0.1980120986700058, 0.07830685377120972, -0.07527923583984375, -0.857494056224823, 0.41078078746795654, 0.30977877974510193, 0.07322299480438232, -0.07726949453353882, -0.19774869084358215, -0.7976185256119863, -0.1367262677229562, 0.33966678326235217,-0.47930890841469725,-0.7789154052734375,0.3340911865234375,0.12335205078125
20220117-1830,2022-01-17 18:30:10Z,u01, 171,40,movements,el-ex, rt, d,191352.705257875, -1.918595708661906, -0.4219280425164806, -2.5053288372803313, 0.045223888009786606, -0.06601723283529282, 0.026114294305443764, -0.857677161693573, 0.4095201790332794, 0.31093940138816833, 0.0346638560295105, -0.08691883087158203, -0.15552854537963867, -0.7980639573746894, -0.1362483689658961, 0.3384446284636119,-0.47956812880037125,-0.8121795654296875,0.32037353515625,0.1245269775390625
20220117-1830,2022-01-17 18:30:10Z,u01, 172,40,movements,el-ex, rt, d,191352.730205875, -1.920530380870786, -0.4249986021314274, -2.5017740579638628, 0.212100088596344, -0.224524587392807, 0.11788921803236008, -0.8558884859085083, 0.41231951117515564, 0.312165766954422, 0.056923091411590576, -0.07291820645332336, -0.1641554832458496, -0.7983031458014392, -0.13709475578397273, 0.34027239309090285,-0.47763145529599055,-0.811798095703125,0.3348236083984375,0.1432037353515625
20220117-1830,2022-01-17 18:30:10Z,u01, 173,40,movements,el-ex, rt, d,191352.755152875, -1.9273025764093454, -0.43046357222890624, -2.498293042247531, 0.17810893058776855, -0.42249926924705505, 0.20916633307933807, -0.851630449295044, 0.41729211807250977, 0.3171636462211609, 0.05969935655593872, -0.08533719182014465, -0.12943485379219055, -0.7997037819636748, -0.13804233256408432, 0.3426082627355102,-0.4733262454922144,-0.783233642578125,0.3348236083984375,0.1923828125
20220117-1830,2022-01-17 18:30:10Z,u01, 174,40,movements,el-ex, rt, d,191352.780100875, -1.9394536279228443, -0.43763748266895175, -2.497324459784817, 0.1384451687335968, -0.5614048838615417, 0.3241425156593323, -0.8448996543884277, 0.4238007962703705, 0.326401025056839, 0.05174785852432251, -0.08694767951965332, -0.1330873966217041, -0.8025196862931424, -0.1384292849168161, 0.34459211248701954,-0.4669644910026631,-0.7956085205078125,0.3421630859375,0.192901611328125
20220117-1830,2022-01-17 18:30:10Z,u01, 175,40,movements,el-ex, rt, d,191352.80504887502, -1.9543485878033116, -0.4478249763389528, -2.4964672908731966, 0.17199048399925232, -0.6555444002151489, 0.4044935405254364, -0.8358970284461975, 0.43300601840019226, 0.3373158276081085, 0.050359368324279785, -0.07616391777992249, -0.09622693061828613, -0.8059165272881634, -0.13840690583405663, 0.3474576544925602,-0.4589283994185255,-0.79302978515625,0.3351898193359375,0.2362518310546875
20220117-1830,2022-01-17 18:30:10Z,u01, 176,40,movements,el-ex, rt, d,191352.829995875, -1.9728327517457198, -0.4594946128004721, -2.4976481009315767, 0.12046819925308228, -0.7878536581993103, 0.4855021834373474, -0.8248129487037659, 0.4434951841831207, 0.35070696473121643, 0.06243818998336792, -0.056425511837005615, -0.10835173726081848, -0.8101612699205265, -0.1378121762396738, 0.3501661850441361,-0.4494775747356333,-0.7637481689453125,0.387847900390625,0.234283447265625
20220117-1830,2022-01-17 18:30:10Z,u01, 177,40,movements,el-ex, rt, d,191352.85494387502, -1.995119415032634, -0.47223363437357463, -2.5008231960998795, 0.12447932362556458, -0.8672752380371094, 0.5553995370864868, -0.8115777969360352, 0.4548766016960144, 0.3666447401046753, 0.04158896207809448, -0.05326533317565918, -0.07741448283195496, -0.815229627083762, -0.1368320970638216, 0.35259987487229166,-0.4385781553940498,-0.7704925537109375,0.398468017578125,0.2943267822265625
20220117-1830,2022-01-17 18:30:10Z,u01, 178,40,movements,el-ex, rt, d,191352.87989187503, -2.0188295058942063, -0.4871915964961388, -2.503170201779967, 0.23815885186195374, -0.9387585520744324, 0.6055384874343872, -0.796435534954071, 0.46814608573913574, 0.38279208540916443, 0.04965519905090332, -0.05094027519226074, -0.09400415420532227, -0.8203221492749071, -0.135895620885781, 0.35599184519700344,-0.4264666572882121,-0.75445556640625,0.421478271484375,0.284332275390625
20220117-1830,2022-01-17 18:30:10Z,u01, 179,40,movements,el-ex, rt, d,191352.90483887502, -2.043223046321272, -0.5044202475459024, -2.504003024555827, 0.3269129693508148, -1.0020966529846191, 0.6576460003852844, -0.7795632481575012, 0.48329997062683105, 0.39837440848350525, 0.05692237615585327, -0.03919294476509094, -0.06532076001167297, -0.8251750341927022, -0.13517903356345606, 0.3605527082367917,-0.4132971262387708,-0.7300262451171875,0.431976318359375,0.3433380126953125
20220117-1830,2022-01-17 18:30:10Z,u01, 180,40,movements,el-ex, rt, d,191352.929786875, -2.069922332559071, -0.523103863980478, -2.505401125472145, 0.2638670802116394, -1.100433349609375, 0.719688355922699, -0.7605886459350586, 0.4995713233947754, 0.41464874148368835, 0.062392234802246094, -0.046904027462005615, -0.08580654859542847, -0.8302207567976991, -0.1343795775354535, 0.36543493431698176,-0.3989147929869713,-0.7073822021484375,0.4544219970703125,0.3329620361328125
20220117-1830,2022-01-17 18:30:10Z,u01, 181,40,movements,el-ex, rt, d,191352.954734875, -2.1006472455781373, -0.542105872172092, -2.5112353684727333, 0.1308082938194275, -1.1174108982086182, 0.7877448201179504, -0.7391660213470459, 0.5159410834312439, 0.43294191360473633, 0.06208771467208862, -0.051020920276641846, 0.015697062015533447, -0.8360062218404314, -0.13253134604988398, 0.3693747847823193,-0.3835249713534561,-0.6812744140625,0.45513916015625,0.390472412109375
20220117-1830,2022-01-17 18:30:10Z,u01, 182,40,movements,el-ex, rt, d,191352.979681875, -2.1330731574281994, -0.5605480278100954, -2.5208572617992044, 0.09693202376365662, -1.1001968383789062, 0.8345412015914917, -0.7165681719779968, 0.5316504240036011, 0.4515281319618225, 0.06007415056228638, -0.00943368673324585, 0.01142352819442749, -0.8419875361060634, -0.1296959953547614, 0.3724206609794033,-0.36815582358925103,-0.665191650390625,0.5071258544921875,0.48272705078125
20220117-1830,2022-01-17 18:30:10Z,u01, 183,40,movements,el-ex, rt, d,191353.004629875, -2.1667635486539014, -0.5800870007752654, -2.530966780489723, 0.15039578080177307, -1.167000412940979, 0.8319501876831055, -0.692221999168396, 0.5480967164039612, 0.46948766708374023, 0.06101179122924805, -0.008194983005523682, -0.048558712005615234, -0.8477497193167991, -0.12674479206754624, 0.37590269142620353,-0.352070066238514,-0.630096435546875,0.5393829345703125,0.4402313232421875
20220117-1830,2022-01-17 18:30:10Z,u01, 184,40,movements,el-ex, rt, d,191353.02957787502, -2.2029918456833335, -0.5992652114896417, -2.5424359097786318, 0.038745149970054626, -1.1961801052093506, 0.8477970361709595, -0.6661592721939087, 0.5640358924865723, 0.4879502058029175, 0.05077230930328369, -0.028406500816345215, -0.043675363063812256, -0.853589590446952, -0.12393513579245552, 0.37905548583271553,-0.33517436113922766,-0.6192169189453125,0.522064208984375,0.372955322265625
20220117-1830,2022-01-17 18:30:10Z,u01, 185,40,movements,el-ex, rt, d,191353.054524875, -2.2398199712192213, -0.6177271984405415, -2.5569565887265044, 0.15128687024116516, -1.113376259803772, 0.8937357664108276, -0.6394630670547485, 0.5791838765144348, 0.5056018829345703, 0.054105401039123535, -0.006323099136352539, 0.04524046182632446, -0.8592666582962136, -0.12025696792770241, 0.38162365646658747,-0.3186887718813221,-0.5995330810546875,0.5535125732421875,0.5452117919921875
20220117-1830,2022-01-17 18:30:10Z,u01, 186,40,movements,el-ex, rt, d,191353.07947287502, -2.2756754413471083, -0.6381144040542985, -2.5704168328733443, 0.27236491441726685, -1.1552889347076416, 0.9189878106117249, -0.6118046641349792, 0.5956819653511047, 0.5204399228096008, 0.07352054119110107, 0.013876080513000488, -0.0657280683517456, -0.864081376653504, -0.1165475204139475, 0.3854292438941471,-0.3020335009665732,-0.5507965087890625,0.607940673828125,0.48211669921875
20220117-1830,2022-01-17 18:30:10Z,u01, 187,40,movements,el-ex, rt, d,191353.10442087502, -2.312104809239327, -0.6609750375829849, -2.581207036640713, 0.4138612449169159, -1.2120579481124878, 0.9190621972084045, -0.5822455286979675, 0.613886833190918, 0.5330410599708557, 0.040558695793151855, -0.005183279514312744, -0.05873692035675049, -0.8680922939140437, -0.11373778799009099, 0.39081390343848943,-0.28415465290066266,-0.536956787109375,0.62164306640625,0.4643707275390625
20220117-1830,2022-01-17 18:30:10Z,u01, 188,40,movements,el-ex, rt, d,191353.12936787502, -2.348933970510818, -0.6836737988888038, -2.5939571094000873, 0.27873238921165466, -1.113561987876892, 0.9796881675720215, -0.5521554946899414, 0.6316454410552979, 0.544195294380188, 0.04817301034927368, 0.015830814838409424, 0.08294093608856201, -0.8717240575287935, -0.11043007004079686, 0.3960607123916298,-0.2665301326200278,-0.51995849609375,0.6504058837890625,0.62237548828125
20220117-1830,2022-01-17 18:30:10Z,u01, 189,40,movements,el-ex, rt, d,191353.154315875, -2.3881357504045306, -0.7049067219951397, -2.611884231513685, 0.09086444973945618, -1.1191444396972656, 0.9950579404830933, -0.5211085081100464, 0.6479628086090088, 0.5555087327957153, 0.06462669372558594, -0.02537369728088379, 0.0006740689277648926, -0.8755243696302022, -0.10588404736445606, 0.400180521703875,-0.249200961850345,-0.4733123779296875,0.615814208984375,0.6193084716796875
20220117-1830,2022-01-17 18:30:10Z,u01, 190,40,movements,el-ex, rt, d,191353.179263875, -2.4337946340227328, -0.7220962380250251, -2.6363233267651918, -0.015921324491500854, -1.2802064418792725, 1.0175719261169434, -0.4878961443901062, 0.6609591841697693, 0.5701671838760376, 0.06338134407997131, -0.009149372577667236, -0.12859302759170532, -0.8802957286086857, -0.10081187190483593, 0.4018841228578752,-0.23109662968471353,-0.4268035888671875,0.6403045654296875,0.4611358642578125
20220117-1830,2022-01-17 18:30:10Z,u01, 191,40,movements,el-ex, rt, d,191353.204211875, -2.4814957751806035, -0.7414300777584674, -2.659492064798842, 0.3951103687286377, -1.2554699182510376, 1.0078167915344238, -0.4522322416305542, 0.6753432750701904, 0.582578182220459, 0.013709992170333862, 0.008250415325164795, -0.00019603967666625977, -0.8842967804590376, -0.09647958277771046, 0.40493106174264304,-0.2115223657164133,-0.435821533203125,0.66339111328125,0.4858551025390625
20220117-1830,2022-01-17 18:30:10Z,u01, 192,40,movements,el-ex, rt, d,191353.229158875, -2.523130800402865, -0.7664372736109613, -2.67610723917275, 0.5584865808486938, -1.2361984252929688, 0.9859604835510254, -0.417667418718338, 0.6935731172561646, 0.5869500041007996, 0.06451806426048279, 0.06442254781723022, 0.036173105239868164, -0.8858989041813323, -0.09304904616402299, 0.41166969109268603,-0.19249176212904584,-0.3802490234375,0.7476348876953125,0.62799072265625
20220117-1830,2022-01-17 18:30:10Z,u01, 193,40,movements,el-ex, rt, d,191353.254106875, -2.5698944739078042, -0.7882669499982642, -2.696830146957938, 0.1820925921201706, -1.3365198373794556, 1.0049360990524292, -0.3814888298511505, 0.7091324329376221, 0.5929567813873291, 0.06464004516601562, -0.01597130298614502, -0.027160823345184326, -0.8879303823175835, -0.08976645169353148, 0.4167753479850031,-0.17268467465024998,-0.3135528564453125,0.74481201171875,0.631744384765625
20220117-1830,2022-01-17 18:30:10Z,u01, 194,40,movements,el-ex, rt, d,191353.27905487502, -2.6266900794421186, -0.8028197511593245, -2.728041332389798, 0.038940660655498505, -1.392003059387207, 1.0782526731491089, -0.3420957922935486, 0.7193177938461304, 0.6046093106269836, 0.01510000228881836, -0.13504350185394287, -0.16643786430358887, -0.8916347972988763, -0.0853934778239443, 0.41790951996697534,-0.15181232167380226,-0.324462890625,0.6096038818359375,0.4566497802734375
20220117-1830,2022-01-17 18:30:10Z,u01, 195,40,movements,el-ex, rt, d,191353.30400187502, -2.683113928259481, -0.8189219169147159, -2.75973110489988, 0.3771072030067444, -1.309335708618164, 1.0583351850509644, -0.30228909850120544, 0.7304099202156067, 0.6124723553657532, 0.04272192716598511, 0.03776329755783081, 0.021881163120269775, -0.8942719285921003, -0.080708768098804, 0.4202133779758283,-0.13108948724071062,-0.297607421875,0.6815032958984375,0.5799560546875
20220117-1830,2022-01-17 18:30:10Z,u01, 196,40,movements,el-ex, rt, d,191353.32894987502, -2.7357813489047422, -0.8419785128268739, -2.786350817780903, 0.5985609292984009, -1.3410694599151611, 1.001829743385315, -0.2629082500934601, 0.7459622621536255, 0.6118980050086975, 0.07980290055274963, 0.14220601320266724, 0.12664252519607544, -0.8944473239873062, -0.07689595195557386, 0.4264789166530745,-0.11030233470505536,-0.195587158203125,0.8706512451171875,0.6947784423828125
20220117-1830,2022-01-17 18:30:10Z,u01, 197,40,movements,el-ex, rt, d,191353.353897875, -2.7918606596185507, -0.8618931218789302, -2.8151332096363713, 0.14754019677639008, -1.445346474647522, 1.0422089099884033, -0.22306308150291443, 0.7590763568878174, 0.6115928292274475, 0.0805155485868454, -0.042004942893981934, -0.06906658411026001, -0.8946321116081177, -0.07368716942659109, 0.4315798323748251,-0.08912003167277913,-0.1558380126953125,0.798248291015625,0.66241455078125
20220117-1830,2022-01-17 18:30:10Z,u01, 198,40,movements,el-ex, rt, d,191353.378844875, -2.8610008678889476, -0.867080274487591, -2.856627950042596, -0.31010234355926514, -1.5090171098709106, 1.1411432027816772, -0.17918536067008972, 0.762442946434021, 0.6217500567436218, 0.03869776427745819, -0.18799537420272827, -0.19760161638259888, -0.897803890738569, -0.06944937983643712, 0.42976324115577574,-0.0665467044250842,-0.1405487060546875,0.59027099609375,0.4168853759765625
20220117-1830,2022-01-17 18:30:10Z,u01, 199,40,movements,el-ex, rt, d,191353.403792875, -2.930839530749316, -0.8736360865898762, -2.9007449326351216, 0.45310208201408386, -1.3847182989120483, 1.1255372762680054, -0.13431310653686523, 0.7666684985160828, 0.6278369426727295, 0.001225993037223816, 0.018365561962127686, 0.04031485319137573, -0.8998961539853103, -0.06407327463794898, 0.4291141927742969,-0.044073750302068254,-0.1555328369140625,0.6612701416015625,0.61480712890625
20220117-1830,2022-01-17 18:30:10Z,u01, 200,40,movements,el-ex, rt, d,191353.428740875, -2.9934570041906947, -0.8950494827635036, -2.9380307189505053, 0.7856118679046631, -1.396278977394104, 1.0609217882156372, -0.09231740981340408, 0.7802400588989258, 0.6186299324035645, 0.11535823345184326, 0.2719755172729492, 0.19110822677612305, -0.8976501180591712, -0.05949144627478414, 0.4360939083814578,-0.02251974224847092,-0.0135650634765625,1.012237548828125,0.79559326171875
20220117-1830,2022-01-17 18:30:11Z,u01, 201,40,movements,el-ex, rt, d,191353.453687875, -3.062141216966134, -0.9151108992057342, -2.9771521454446632, 0.28592362999916077, -1.566841721534729, 1.1199694871902466, -0.048390816897153854, 0.7926301956176758, 0.6077794432640076, 0.09938573092222214, -0.08836066722869873, -0.08464711904525757, -0.8948399006563112, -0.05613626879597322, 0.44284283690880205,0.0007421843453554733,0.06341552734375,0.863861083984375,0.648345947265625
20220117-1830,2022-01-17 18:30:11Z,u01, 202,40,movements,el-ex, rt, d,191353.478635875, -3.138663581912043, -0.9149907033636769, -3.0256704660765594, -0.36725056171417236, -1.4898552894592285, 1.2017186880111694, -0.0017861402593553066, 0.7925569415092468, 0.6097956299781799, 0.06750580668449402, -0.2489471435546875, -0.06807798147201538, -0.8956916415639428, -0.051325515122331744, 0.441036277557342,0.024275479401229094,0.0639190673828125,0.538665771484375,0.51275634765625
20220117-1830,2022-01-17 18:30:11Z,u01, 203,40,movements,el-ex, rt, d,191353.50358387502, 3.0703218336893845, -0.9074980525152452, -3.0737712112588373, 0.1425773650407791, -1.432027816772461, 1.178774356842041, 0.04384565353393555, 0.787965714931488, 0.6141558289527893, 0.04221396893262863, 0.05517381429672241, 0.03361022472381592, -0.8971935124184259, -0.04606218451288813, 0.4367224504382641,0.04685635449971809,0.075408935546875,0.7754974365234375,0.6155548095703125
20220117-1830,2022-01-17 18:30:11Z,u01, 204,40,movements,el-ex, rt, d,191353.52853087502, 2.998306320188505, -0.9144852070825548, -3.120186129210403, 0.498616099357605, -1.4071162939071655, 1.0508778095245361, 0.08713418245315552, 0.792248547077179, 0.6039448976516724, 0.06858181208372116, 0.23108196258544922, 0.1728035807609558, -0.894581884995377, -0.04117877842649287, 0.43963052877556497,0.06893783582219018,0.1319122314453125,0.9858856201171875,0.735595703125
20220117-1830,2022-01-17 18:30:11Z,u01, 205,40,movements,el-ex, rt, d,191353.55347887502, 2.924855415121027, -0.9218378515685424, 3.116465738961044, 0.2717858850955963, -1.4940541982650757, 1.0900903940200806, 0.12996357679367065, 0.7967137098312378, 0.5902177095413208, 0.09232653677463531, -0.04401278495788574, -0.07433336973190308, -0.8909243126728907, -0.03691508896324436, 0.4433443104491941,0.09130728578063604,0.216888427734375,0.8762359619140625,0.615478515625
20220117-1830,2022-01-17 18:30:11Z,u01, 206,40,movements,el-ex, rt, d,191353.578426875, 2.8513619920222872, -0.9156181032869513, 3.070432302742327, -0.12611737847328186, -1.423030138015747, 1.2255481481552124, 0.1743655800819397, 0.7929393649101257, 0.5838184952735901, 0.06475497782230377, -0.1629495620727539, -0.06602686643600464, -0.8893064844619619, -0.03229919494577038, 0.44167575202596454,0.11407603826844051,0.239715576171875,0.6292572021484375,0.4582061767578125
20220117-1830,2022-01-17 18:30:11Z,u01, 207,40,movements,el-ex, rt, d,191353.603373875, 2.7792008482715636, -0.9077702497695859, 3.0229502447316743, 0.33959850668907166, -1.3420097827911377, 1.1828103065490723, 0.21820364892482758, 0.7881332635879517, 0.5755286812782288, 0.051007241010665894, 0.10021829605102539, 0.04776233434677124, -0.8871663132953634, -0.026462873996381753, 0.4401259072416824,0.13610618126312907,0.22674560546875,0.7936248779296875,0.5871124267578125
20220117-1830,2022-01-17 18:30:11Z,u01, 208,40,movements,el-ex, rt, d,191353.628321875, 2.706273293072841, -0.9074361520697998, 2.973370826587926, 0.5176121592521667, -1.3562953472137451, 1.097056269645691, 0.25966930389404297, 0.7879275679588318, 0.558338463306427, 0.09445670247077942, 0.18059349060058594, 0.16862070560455322, -0.882465552343149, -0.020586284305930902, 0.44276217176556504,0.15745597391626923,0.341705322265625,0.9756927490234375,0.7332000732421875
20220117-1830,2022-01-17 18:30:11Z,u01, 209,40,movements,el-ex, rt, d,191353.653269875, 2.6378689503465504, -0.9020791454781049, 2.9290676500116626, -0.02363087609410286, -1.3372912406921387, 1.0453261137008667, 0.2992583215236664, 0.7846176624298096, 0.5429732799530029, 0.11314105987548828, -0.02762901782989502, -0.036640822887420654, -0.8782050575592537, -0.015572983964160791, 0.44355585208785364,0.17824611957827455,0.384002685546875,0.8209381103515625,0.6214599609375
20220117-1830,2022-01-17 18:30:11Z,u01, 210,40,movements,el-ex, rt, d,191353.678216875, 2.5811887975985988, -0.8819777425932667, 2.8992586611343496, -0.5060392618179321, -1.3392982482910156, 1.0372557640075684, 0.3378530442714691, 0.7719975113868713, 0.5384007096290588, 0.08949995040893555, -0.003396928310394287, -0.04714399576187134, -0.87695676920727, -0.012131337428316902, 0.43740868148509315,0.1986789761046766,0.4337310791015625,0.731231689453125,0.473846435546875
20220117-1830,2022-01-17 18:30:11Z,u01, 211,40,movements,el-ex, rt, d,191353.703164875, 2.525922747421166, -0.8636694996107486, 2.8688825644364426, 0.2442273497581482, -1.212777853012085, 1.0312186479568481, 0.37517786026000977, 0.7602315545082092, 0.5303676128387451, -0.014002233743667603, 0.10135602951049805, 0.10320788621902466, -0.8747113806500852, -0.007987392014983608, 0.4325669984163758,0.2184080535243693,0.3669891357421875,0.8411712646484375,0.6070556640625
20220117-1830,2022-01-17 18:30:11Z,u01, 212,40,movements,el-ex, rt, d,191353.72811287502, 2.4654437003299625, -0.8582560597808709, 2.8285140357674927, 0.5662274360656738, -1.227688193321228, 0.9092364311218262, 0.40911775827407837, 0.7567036151885986, 0.5099236965179443, 0.04965299367904663, 0.19626867771148682, 0.12374323606491089, -0.8688815898193267, -0.002573259494662583, 0.43474585491512596,0.23671532892386812,0.432861328125,0.9383392333984375,0.6347198486328125
20220117-1830,2022-01-17 18:30:11Z,u01, 213,40,movements,el-ex, rt, d,191353.75305987502, 2.4082827763773094, -0.8511995850670474, 2.7932644062728116, 0.011634035967290401, -1.182700514793396, 0.8799395561218262, 0.44114452600479126, 0.7520715594291687, 0.4896731376647949, 0.04884573817253113, -0.009075403213500977, 0.019237875938415527, -0.8630377263607443, 0.0015644363607742462, 0.4361737269384947,0.2547859669023739,0.48223876953125,0.8206024169921875,0.590240478515625
20220117-1830,2022-01-17 18:30:11Z,u01, 214,40,movements,el-ex, rt, d,191353.77800787502, 2.36893563159855, -0.829167734231489, 2.77870389695298, -0.6653534770011902, -1.1076550483703613, 0.8656803965568542, 0.4715188443660736, 0.7373694181442261, 0.48368993401527405, 0.06284388899803162, -0.039539337158203125, 0.021452099084854126, -0.8612962464010028, 0.0037076630153898837, 0.42922833511582364,0.27187855914061154,0.52825927734375,0.6824493408203125,0.4777679443359375
20220117-1830,2022-01-17 18:30:11Z,u01, 215,40,movements,el-ex, rt, d,191353.802955875, 2.336234520683307, -0.8054244938688363, 2.770482033976464, -0.17454294860363007, -1.0277068614959717, 0.7910646796226501, 0.49956727027893066, 0.7211248278617859, 0.48001229763031006, 0.0003565549850463867, 0.1399897336959839, 0.11465317010879517, -0.8602203324808666, 0.005208029551816817, 0.4208937864437704,0.28782347362445787,0.5135040283203125,0.8307342529296875,0.58465576171875
20220117-1830,2022-01-17 18:30:11Z,u01, 216,40,movements,el-ex, rt, d,191353.82790287503, 2.295595636782062, -0.7930054878449175, 2.75049543080366, 0.2641715407371521, -1.108307123184204, 0.7307390570640564, 0.525320827960968, 0.7124654650688171, 0.46522149443626404, 0.019570589065551758, 0.14768773317337036, -0.0023310184478759766, -0.8558901654716691, 0.007922886281736652, 0.4190180386611642,0.3030068360851353,0.532989501953125,0.87286376953125,0.484710693359375
20220117-1830,2022-01-17 18:30:11Z,u01, 217,40,movements,el-ex, rt, d,191353.852850875, 2.2513205097077424, -0.7831047028065826, 2.72796096770222, 0.09398350864648819, -1.0983158349990845, 0.7127487063407898, 0.5508530139923096, 0.7054831981658936, 0.4459313154220581, -0.020793139934539795, 0.01943141222000122, 0.03449159860610962, -0.8502091698843541, 0.010489640375562992, 0.41882109088870234,0.318784171524468,0.5269622802734375,0.7716827392578125,0.4649658203125
20220117-1830,2022-01-17 18:30:11Z,u01, 218,40,movements,el-ex, rt, d,191353.877798875, 2.215566168422049, -0.7679500255953832, 2.7135170825071198, -0.160747691988945, -0.9766088128089905, 0.7106441259384155, 0.5749208927154541, 0.6946620941162109, 0.43233147263526917, 0.0206754207611084, -0.010519027709960938, 0.11713743209838867, -0.8461703842081416, 0.012705003465706743, 0.4154812354073456,0.3334810089264675,0.575469970703125,0.6795654296875,0.5488739013671875
20220117-1830,2022-01-17 18:30:11Z,u01, 219,40,movements,el-ex, rt, d,191353.902745875, 2.1837740816266105, -0.7530030214548188, 2.702546157023866, 0.08035258203744888, -0.9924643635749817, 0.6231438517570496, 0.5967993140220642, 0.6838329434394836, 0.41976505517959595, 0.047441959381103516, 0.1179247498512268, 0.0354960560798645, -0.8424227489157445, 0.014368217146533913, 0.4117944570712409,0.34719257052834573,0.647369384765625,0.78253173828125,0.516571044921875
20220117-1830,2022-01-17 18:30:11Z,u01, 220,40,movements,el-ex, rt, d,191353.927693875, 2.1470099307354777, -0.7435388772152658, 2.685468866287714, 0.24382202327251434, -1.0077046155929565, 0.5944437384605408, 0.6172242164611816, 0.6768970489501953, 0.40105384588241577, 0.005654692649841309, 0.05921727418899536, -0.03560599684715271, -0.8368156565908675, 0.016324162350949745, 0.41148575870577087,0.3607663592227548,0.6249542236328125,0.7593536376953125,0.37353515625
20220117-1830,2022-01-17 18:30:11Z,u01, 221,40,movements,el-ex, rt, d,191353.95264187502, 2.1126325870462037, -0.7334256300862899, 2.6697213224008753, 0.10349811613559723, -0.8775662779808044, 0.5777255296707153, 0.6364769339561462, 0.6694183945655823, 0.3831135630607605, 0.012677669525146484, 0.02842700481414795, 0.13977453112602234, -0.8313950036339217, 0.018415637833789134, 0.4108644869790423,0.3736757419198301,0.6332550048828125,0.7015838623046875,0.4833526611328125
20220117-1830,2022-01-17 18:30:11Z,u01, 222,40,movements,el-ex, rt, d,191353.97758887502, 2.085533872243203, -0.7222097913444642, 2.659265771107937, -0.03047436848282814, -0.7493790984153748, 0.5031042098999023, 0.6531182527542114, 0.6610444188117981, 0.3694005012512207, 0.049045443534851074, 0.041805922985076904, 0.07696473598480225, -0.827220976362256, 0.020142239941781048, 0.40892715553326375,0.3848094179352983,0.69268798828125,0.692535400390625,0.4692230224609375
20220117-1830,2022-01-17 18:30:11Z,u01, 223,40,movements,el-ex, rt, d,191354.00253687502, 2.064167866807211, -0.711582440394278, 2.653472153471682, -0.03441864252090454, -0.6622146368026733, 0.42105889320373535, 0.6670114398002625, 0.6530330181121826, 0.35866987705230713, 0.019832611083984375, 0.08999389410018921, 0.018207043409347534, -0.8239496745834046, 0.021020668336088733, 0.406344013552173,0.3943979885095433,0.6990203857421875,0.7324676513671875,0.3841552734375
20220117-1830,2022-01-17 18:30:11Z,u01, 224,40,movements,el-ex, rt, d,191354.027484875, 2.044103479386445, -0.7027650322718951, 2.647093143598961, 0.03575631603598595, -0.6094241142272949, 0.40770474076271057, 0.6791718602180481, 0.6463300585746765, 0.34782660007476807, -0.002474963665008545, 0.07415950298309326, 0.05483749508857727, -0.8206282127595158, 0.021968822484561723, 0.4045900807695688,0.40298096435500347,0.6796722412109375,0.7276611328125,0.395263671875
20220117-1830,2022-01-17 18:30:11Z,u01, 225,40,movements,el-ex, rt, d,191354.05243187502, 2.023927764296712, -0.6945830163460381, 2.6388642014693686, 0.15324223041534424, -0.5777947306632996, 0.39109811186790466, 0.6907823085784912, 0.6400651335716248, 0.33635783195495605, -0.037065207958221436, 0.010218679904937744, 0.09000325202941895, -0.8170838143841184, 0.023514984227365587, 0.40350763191232886,0.41109940405078516,0.66119384765625,0.6640472412109375,0.428436279296875
20220117-1830,2022-01-17 18:30:11Z,u01, 226,40,movements,el-ex, rt, d,191354.077379875, 2.0032258984825497, -0.6882542319863928, 2.6291942828635033, 0.14374805986881256, -0.6168074011802673, 0.34474578499794006, 0.7012608051300049, 0.6351897716522217, 0.3236773908138275, -0.014005005359649658, 0.04503166675567627, 0.04753836989402771, -0.8131490061339433, 0.02504767944130648, 0.4034736213800635,0.4187723698843786,0.6742706298828125,0.68267822265625,0.3844757080078125
20220117-1830,2022-01-17 18:30:11Z,u01, 227,40,movements,el-ex, rt, d,191354.102327875, 1.9846282672832092, -0.6798188826949262, 2.6247575631190143, -0.17463180422782898, -0.647293746471405, 0.39010336995124817, 0.7120395302772522, 0.6286521553993225, 0.31272393465042114, -0.004291057586669922, -0.02766948938369751, 0.02586856484413147, -0.8097605084867189, 0.025492936497442775, 0.40161504795510866,0.42701689284906824,0.701629638671875,0.6243133544921875,0.333648681640625
20220117-1830,2022-01-17 18:30:11Z,u01, 228,40,movements,el-ex, rt, d,191354.127274875, 1.9697001173639466, -0.6681354583280109, 2.627208101322556, -0.24941320717334747, -0.6578986644744873, 0.41381752490997314, 0.723347544670105, 0.6195234656333923, 0.3048921823501587, -0.003102123737335205, -0.003220856189727783, 0.042550355195999146, -0.8073585758488062, 0.024864101148686035, 0.397092536907568,0.4357424733696874,0.7177276611328125,0.61322021484375,0.343414306640625
20220117-1830,2022-01-17 18:30:11Z,u01, 229,40,movements,el-ex, rt, d,191354.152222875, 1.9533053692672668, -0.6577302463100284, 2.627117581748022, -0.10489463806152344, -0.663089394569397, 0.3629511594772339, 0.7341893315315247, 0.6113221645355225, 0.29538267850875854, 0.016176819801330566, 0.030462324619293213, 0.022518813610076904, -0.8044146934075288, 0.02466470387207209, 0.3936019173256363,0.44428153293080824,0.7324066162109375,0.6235198974609375,0.350555419921875
20220117-1830,2022-01-17 18:30:11Z,u01, 230,40,movements,el-ex, rt, d,191354.17717087502, 1.9352289040728154, -0.648428834225038, 2.6251731306596584, -0.07808579504489899, -0.6787953972816467, 0.3925633728504181, 0.7446892261505127, 0.6039348840713501, 0.28407803177833557, 0.01472538709640503, 0.011589288711547852, -0.02559429407119751, -0.8008952258993514, 0.02461405032312597, 0.3909562881578609,0.4528951856109256,0.7600860595703125,0.6301727294921875,0.268035888671875
20220117-1830,2022-01-17 18:30:11Z,u01, 231,40,movements,el-ex, rt, d,191354.20211887502, 1.9176709805152057, -0.6383821459070804, 2.623287308545497, -0.10981569439172745, -0.6248324513435364, 0.39389562606811523, 0.7552304267883301, 0.5958969593048096, 0.273008793592453, 0.002765178680419922, -0.01906895637512207, 0.03190755844116211, -0.7974232274443331, 0.024911839941001934, 0.3880540931089489,0.46142132206201886,0.757080078125,0.5680999755859375,0.2876129150390625
20220117-1830,2022-01-17 18:30:11Z,u01, 232,40,movements,el-ex, rt, d,191354.22706587502, 1.9021835356787342, -0.6285622020486246, 2.622042719119717, -0.05726047605276108, -0.5635001063346863, 0.3697647452354431, 0.7648645639419556, 0.5879823565483093, 0.2631712257862091, 0.013333797454833984, 0.010513126850128174, 0.04002097249031067, -0.7943195520966402, 0.025338827458952384, 0.3850837149540691,0.4691748052387672,0.770721435546875,0.5962066650390625,0.3110198974609375
20220117-1830,2022-01-17 18:30:11Z,u01, 233,40,movements,el-ex, rt, d,191354.25201387503, 1.8879023627346512, -0.6196510114670893, 2.6205524474585085, -0.11431829631328583, -0.5225300788879395, 0.3396156132221222, 0.7734923958778381, 0.5807510614395142, 0.2538452744483948, 0.03038620948791504, 0.024046242237091064, 0.04029831290245056, -0.791361837917581, 0.025866624367669233, 0.3824968643223627,0.4762073286802591,0.7961273193359375,0.603302001953125,0.306732177734375
20220117-1830,2022-01-17 18:30:11Z,u01, 234,40,movements,el-ex, rt, d,191354.276961875, 1.8757145848192485, -0.6104698340620716, 2.621297096940519, -0.136298269033432, -0.47397735714912415, 0.33254098892211914, 0.7815819978713989, 0.5732524991035461, 0.24598994851112366, 0.008411228656768799, 0.0028888583183288574, 0.03593134880065918, -0.7888709476293492, 0.02603085094162555, 0.37927070168790755,0.482865126808232,0.7977294921875,0.58087158203125,0.278778076171875
20220117-1830,2022-01-17 18:30:11Z,u01, 235,40,movements,el-ex, rt, d,191354.301908875, 1.8660084730486393, -0.6020380720709058, 2.6229919936956736, -0.1463925838470459, -0.39348119497299194, 0.27250829339027405, 0.788529098033905, 0.5663233995437622, 0.23979009687900543, -0.0006874203681945801, 0.04384493827819824, 0.05163736641407013, -0.7869014725080881, 0.026098289339523073, 0.37604750490570465,0.4885622453332636,0.780731201171875,0.6030426025390625,0.30023193359375
20220117-1830,2022-01-17 18:30:11Z,u01, 236,40,movements,el-ex, rt, d,191354.326856875, 1.85818407702969, -0.5953639250428204, 2.624991237286983, -0.13901874423027039, -0.3330802917480469, 0.20501354336738586, 0.7939885258674622, 0.5608100891113281, 0.23467929661273956, -0.009534060955047607, 0.06475448608398438, 0.05755701661109924, -0.785283011396274, 0.02588894062691477, 0.37333595113291457,0.49323490967881706,0.7862091064453125,0.621826171875,0.2967529296875
20220117-1830,2022-01-17 18:30:11Z,u01, 237,40,movements,el-ex, rt, d,191354.351805125, 1.85198276990855, -0.5898387113667418, 2.6279107318622574, -0.19166389107704163, -0.28237324953079224, 0.16321702301502228, 0.7983931303024292, 0.5562269687652588, 0.2306073158979416, -0.02715301513671875, 0.059587180614471436, 0.055510133504867554, -0.7840052503637683, 0.025286851901913376, 0.37077118480420085,0.49721722671129215,0.779388427734375,0.62823486328125,0.2894744873046875
20220117-1830,2022-01-17 18:30:11Z,u01, 238,40,movements,el-ex, rt, d,191354.376752125, 1.8495340764134547, -0.5850387087212973, 2.6336235087456457, -0.25487658381462097, -0.1567607820034027, 0.08984633535146713, 0.8015131950378418, 0.5522316694259644, 0.22938361763954163, -0.03691047430038452, 0.08630287647247314, 0.11683821678161621, -0.7836531702643457, 0.024073134187719114, 0.36770704889306144,0.5000997201722049,0.766876220703125,0.6291656494140625,0.329864501953125
20220117-1830,2022-01-17 18:30:11Z,u01, 239,40,movements,el-ex, rt, d,191354.40170012502, 1.8504308012427735, -0.5828106705380389, 2.639178574547215, -0.15623672306537628, -0.01501357089728117, -0.030400248244404793, 0.8024876713752747, 0.5503727793693542, 0.23044124245643616, -0.017606139183044434, 0.10837960243225098, 0.10119315981864929, -0.784030126988482, 0.022746058331003904, 0.36552926099525457,0.5011663017598021,0.78277587890625,0.6466827392578125,0.3412322998046875
20220117-1830,2022-01-17 18:30:11Z,u01, 240,40,movements,el-ex, rt, d,191354.42664712502, 1.8536569497372883, -0.5842435506473701, 2.643218568539898, -0.06748537719249725, 0.09023036062717438, -0.13931308686733246, 0.8009820580482483, 0.5515685677528381, 0.2328086793422699, -0.013125002384185791, 0.13429874181747437, 0.09530091285705566, -0.7848249534142144, 0.02131038695184717, 0.36498283741991233,0.5003830611840985,0.7864837646484375,0.6830902099609375,0.3291473388671875
20220117-1830,2022-01-17 18:30:12Z,u01, 241,40,movements,el-ex, rt, d,191354.45159512502, 1.8592730566747635, -0.5878604103762866, 2.6460076733300957, -0.06550489366054535, 0.23471838235855103, -0.1931227147579193, 0.7977441549301147, 0.554581880569458, 0.23673425614833832, -0.030104994773864746, 0.06965512037277222, 0.14337728917598724, -0.7861054801725643, 0.020132114736889584, 0.3654949542824957,0.4980424209767435,0.775543212890625,0.6468048095703125,0.3550872802734375
20220117-1830,2022-01-17 18:30:12Z,u01, 242,40,movements,el-ex, rt, d,191354.476543125, 1.8694511867173753, -0.5928403610774527, 2.6510328753069974, -0.12223830819129944, 0.3486391603946686, -0.2840515077114105, 0.7926441431045532, 0.5587189197540283, 0.2440258115530014, -0.024959087371826172, 0.09447932243347168, 0.14481380581855774, -0.7884610349002898, 0.018496017622946948, 0.36589986709836014,0.494069293644821,0.7649383544921875,0.6449432373046875,0.396942138671875
20220117-1830,2022-01-17 18:30:12Z,u01, 243,40,movements,el-ex, rt, d,191354.501491125, 1.88363292118946, -0.5991729136578308, 2.658829578388933, -0.24250400066375732, 0.4388260245323181, -0.35677656531333923, 0.7857213020324707, 0.5639596581459045, 0.25414785742759705, -0.021530747413635254, 0.06746417284011841, 0.1499353051185608, -0.7917164381993469, 0.0160938379663933, 0.36609830213700817,0.48877188586894005,0.767974853515625,0.6485137939453125,0.4023590087890625
20220117-1830,2022-01-17 18:30:12Z,u01, 244,40,movements,el-ex, rt, d,191354.526438125, 1.9024245789587897, -0.6057834697342482, 2.67119152719716, -0.3593205213546753, 0.5117199420928955, -0.3981868624687195, 0.7772650718688965, 0.5694063305854797, 0.26764747500419617, -0.011457085609436035, 0.04805576801300049, 0.13565748929977417, -0.7960300929720013, 0.012642265830493937, 0.3653152454615062,0.4824115648442416,0.7657928466796875,0.615753173828125,0.400146484375
20220117-1830,2022-01-17 18:30:12Z,u01, 245,40,movements,el-ex, rt, d,191354.551386125, 1.9255832232385666, -0.6124939491616083, 2.686869790390662, -0.41776490211486816, 0.6321398019790649, -0.45705097913742065, 0.7672587037086487, 0.5749098658561707, 0.2842407822608948, -0.019227147102355957, 0.07453477382659912, 0.15345752239227295, -0.8012777866348904, 0.008619947555707164, 0.36385404935550625,0.4748577462177837,0.7539825439453125,0.643463134765625,0.4332275390625
20220117-1830,2022-01-17 18:30:12Z,u01, 246,40,movements,el-ex, rt, d,191354.576334125, 1.952843839981166, -0.6199906648555635, 2.703791362458302, -0.395382821559906, 0.7670037746429443, -0.5062212944030762, 0.7552053332328796, 0.5810275673866272, 0.30343306064605713, -0.004167795181274414, 0.05051839351654053, 0.15501710772514343, -0.8072765863624809, 0.004587454594167595, 0.3625152921388388,0.46568877765781014,0.7483367919921875,0.635589599609375,0.453765869140625
20220117-1830,2022-01-17 18:30:12Z,u01, 247,40,movements,el-ex, rt, d,191354.601281125, 1.983932160845378, -0.6281695849492572, 2.7224085686335453, -0.4324243664741516, 0.8549314141273499, -0.5382794737815857, 0.7410317063331604, 0.5876647233963013, 0.32484200596809387, 0.022991180419921875, 0.08419501781463623, 0.09251633286476135, -0.8138924313102462, 0.00033912681116560206, 0.3612107627201918,0.455088843657373,0.76300048828125,0.6642913818359375,0.4416351318359375
20220117-1830,2022-01-17 18:30:12Z,u01, 248,40,movements,el-ex, rt, d,191354.62622912502, 2.016516752218098, -0.6370627716118485, 2.738424900636673, -0.18154276907444, 1.0186861753463745, -0.5509819984436035, 0.7253108024597168, 0.594836950302124, 0.34654462337493896, 0.003738880157470703, 0.06411385536193848, 0.06794500350952148, -0.8205269645507545, -0.0027951618448154303, 0.3609626971031684,0.44320830488208796,0.74346923828125,0.664947509765625,0.406829833984375
20220117-1830,2022-01-17 18:30:12Z,u01, 249,40,movements,el-ex, rt, d,191354.65117612501, 2.050459337228718, -0.6495714987075389, 2.7498082929869287, -0.02025122568011284, 1.1472915410995483, -0.6494715213775635, 0.7064762115478516, 0.6048452258110046, 0.3674966096878052, 0.03763395547866821, 0.06390172243118286, 0.11169028282165527, -0.8268772167193296, -0.004730446092058305, 0.36328484051289844,0.4292736426376668,0.738128662109375,0.6602935791015625,0.4680938720703125
20220117-1830,2022-01-17 18:30:12Z,u01, 250,40,movements,el-ex, rt, d,191354.67612412502, 2.085789727412993, -0.665079865379049, 2.7586929885894262, 0.1107078269124031, 1.2319307327270508, -0.7114894390106201, 0.6848076581954956, 0.6171219944953918, 0.38755518198013306, 0.054907917976379395, 0.08714741468429565, 0.05105865001678467, -0.8329110807008346, -0.006059686934757558, 0.3674506227724716,0.41376622143660474,0.7405853271484375,0.7061920166015625,0.44854736328125
20220117-1830,2022-01-17 18:30:12Z,u01, 251,40,movements,el-ex, rt, d,191354.701072125, 2.1227964153351326, -0.6819078362181759, 2.768124920429963, 0.039060067385435104, 1.2775194644927979, -0.7357928156852722, 0.6610628366470337, 0.6302753686904907, 0.40712249279022217, 0.04364901781082153, 0.012348473072052002, 0.0650605857372284, -0.8387522321428527, -0.007479309213458851, 0.37217838114610835,0.397393937621798,0.7218017578125,0.6690826416015625,0.453033447265625
20220117-1830,2022-01-17 18:30:12Z,u01, 252,40,movements,el-ex, rt, d,191354.72601912502, 2.1645527396942983, -0.6967715849720535, 2.782527320852354, -0.12363041192293167, 1.329961895942688, -0.75011146068573, 0.6356561183929443, 0.6417450904846191, 0.42907413840293884, 0.05010443925857544, 0.015328943729400635, 0.1003294587135315, -0.8452503184491209, -0.00943220358853214, 0.375375639629149,0.38020534384626453,0.6895751953125,0.6634063720703125,0.5155792236328125
