SessionID,LoggingTime,UID,RecNo,Hertz,Activity,MoveType,Wrist,Side,TimeStamp,DMRoll,DMPitch,DMYaw,DMRotX,DMRotY,DMRotZ,DMGrvX,DMGrvY,DMGrvZ,DMUAccelX,DMUAccelY,DMUAccelZ,DMQuatX,DMQuatY,DMQuatW,DMQuatZ,AccelroX,AceelroY,AceelroZ
20220117-1835,2022-01-17 18:35:10Z,u01, 1,40,movements,el-ex, rt, d,191639.01147725002, 2.3694867855702784, -0.6436505481583087, 2.872200669941941, -0.08351754397153854, -0.9751995801925659, 0.5247588157653809, 0.5580537915229797, 0.6001195311546326, 0.5730901956558228, 0.035513103008270264, 0.07604318857192993, 0.060637712478637695, -0.8868737762126853, 0.0, 0.33833424828203507,0.3146185055710453,0.591064453125,0.6512451171875,0.660888671875
20220117-1835,2022-01-17 18:35:10Z,u01, 2,40,movements,el-ex, rt, d,191639.03642425002, 2.339979376905799, -0.6342923811155344, 2.8604057406910504, 0.12063775956630707, -0.8301166296005249, 0.531916618347168, 0.5787288546562195, 0.5926076769828796, 0.5602583885192871, 0.012091577053070068, 0.031064927577972412, 0.10795450210571289, -0.8832466973619728, 0.00211667256460657, 0.3362543996133209,0.3268086733384681,0.5908203125,0.6236724853515625,0.668212890625
20220117-1835,2022-01-17 18:35:10Z,u01, 3,40,movements,el-ex, rt, d,191639.06137025, 2.310140179105223, -0.6284161936913613, 2.844212055879277, 0.2897067368030548, -1.1856837272644043, 0.758425235748291, 0.5977489948272705, 0.5878642797470093, 0.5450795888900757, -0.13154715299606323, 0.06083261966705322, 0.06386804580688477, -0.878925526694037, 0.005450177272831702, 0.3365177769883135,0.3379585730813123,0.86407470703125,0.5915374755859375,0.5211181640625
20220117-1835,2022-01-17 18:35:10Z,u01, 4,40,movements,el-ex, rt, d,191639.08631725, 2.2816581302852823, -0.623526134578515, 2.829796622818792, 0.07023736089468002, -0.8269838094711304, 0.4345036745071411, 0.6152004599571228, 0.5839014053344727, 0.5297049880027771, 0.027118265628814697, 0.05554860830307007, 0.05250924825668335, -0.874521664868234, 0.008021223787830545, 0.33703824308790387,0.34864402932184163,0.6423187255859375,0.6394500732421875,0.58221435546875
20220117-1835,2022-01-17 18:35:10Z,u01, 5,40,movements,el-ex, rt, d,191639.11126425, 2.2574239089692294, -0.6141865896879799, 2.822891037987838, -0.17115062475204468, -0.7699647545814514, 0.43647465109825134, 0.6320457458496094, 0.5762939453125, 0.5180765986442566, 0.02269357442855835, 0.024520814418792725, 0.08113592863082886, -0.871181306342677, 0.009024315112970804, 0.33447607302247606,0.35928737222636226,0.6567535400390625,0.5997161865234375,0.5940704345703125
20220117-1835,2022-01-17 18:35:10Z,u01, 6,40,movements,el-ex, rt, d,191639.13621125, 2.2366575781633284, -0.6033325541398246, 2.8183676569739458, -0.10114534199237823, -0.6934665441513062, 0.4468071460723877, 0.6475483179092407, 0.5673897862434387, 0.5086749196052551, 0.013431966304779053, 0.04154270887374878, 0.03330188989639282, -0.8684686559756472, 0.009982208541030546, 0.33090245382948086,0.3690070264297664,0.660980224609375,0.6089324951171875,0.5419769287109375
20220117-1835,2022-01-17 18:35:10Z,u01, 7,40,movements,el-ex, rt, d,191639.16115825, 2.215210137821395, -0.595600959238238, 2.810386524462173, 0.15569016337394714, -0.6736124753952026, 0.3733270466327667, 0.6617956757545471, 0.5610063076019287, 0.4972911775112152, -0.006644189357757568, 0.07391196489334106, -0.015021979808807373, -0.8651642579484884, 0.011678831043248794, 0.3293224714210504,0.3780226996795278,0.6562957763671875,0.644866943359375,0.4718170166015625
20220117-1835,2022-01-17 18:35:10Z,u01, 8,40,movements,el-ex, rt, d,191639.18610525, 2.1916983157328476, -0.5915624482884437, 2.7983332203111124, 0.22900809347629547, -0.6475498676300049, 0.3695680499076843, 0.6751410365104675, 0.5576586723327637, 0.4829092025756836, 0.01026850938796997, 0.014515340328216553, 0.07672199606895447, -0.8609645240402611, 0.013953079544704372, 0.33012446513918015,0.386734012759484,0.6854095458984375,0.572174072265625,0.55963134765625
20220117-1835,2022-01-17 18:35:10Z,u01, 9,40,movements,el-ex, rt, d,191639.21105225, 2.1706928628360282, -0.5868041624280789, 2.7882522636382436, 0.12762762606143951, -0.573001503944397, 0.3616085350513458, 0.6873176693916321, 0.5537026524543762, 0.47011494636535645, 0.018935441970825195, -0.0015785694122314453, 0.10607212781906128, -0.8572064182000894, 0.015957145981395804, 0.33031776319712214,0.39475663443303466,0.7119140625,0.55670166015625,0.55584716796875
20220117-1835,2022-01-17 18:35:10Z,u01, 10,40,movements,el-ex, rt, d,191639.23599925, 2.151489508859669, -0.5821104508587688, 2.778786846055952, 0.2045433670282364, -0.5400100946426392, 0.3362061083316803, 0.6983832716941833, 0.5497880578041077, 0.45825088024139404, 0.009609341621398926, 0.047807157039642334, 0.0030374526977539062, -0.8536990860950091, 0.017980935678883092, 0.3304720235053079,0.4020730845571557,0.7079925537109375,0.59759521484375,0.4612884521484375
20220117-1835,2022-01-17 18:35:10Z,u01, 11,40,movements,el-ex, rt, d,191639.26094625003, 2.131087049805681, -0.5790609407914908, 2.767141611693349, 0.32485777139663696, -0.5754845142364502, 0.3078061044216156, 0.7090038061141968, 0.5472382307052612, 0.4447968304157257, -0.014606773853302002, 0.053363025188446045, -0.027026355266571045, -0.8496972764701501, 0.02032108340312133, 0.33180758352499773,0.40927426003592915,0.6922149658203125,0.590545654296875,0.4095458984375
20220117-1835,2022-01-17 18:35:10Z,u01, 12,40,movements,el-ex, rt, d,191639.28589325002, 2.109595919942864, -0.5771542583740744, 2.7532308366597933, 0.3897562026977539, -0.5701912641525269, 0.2971563935279846, 0.7192928791046143, 0.5456413626670837, 0.42999258637428284, 0.005591273307800293, 0.007444024085998535, 0.011245787143707275, -0.8452583687846607, 0.023121117530724544, 0.33415472693142934,0.41634653647919123,0.724884033203125,0.5530853271484375,0.4412384033203125
20220117-1835,2022-01-17 18:35:10Z,u01, 13,40,movements,el-ex, rt, d,191639.31084025002, 2.0879068482582457, -0.5758363059505271, 2.7384295248450123, 0.40921086072921753, -0.5421819686889648, 0.28474071621894836, 0.729073166847229, 0.5445364117622375, 0.41464683413505554, 0.00673598051071167, 0.0084114670753479, 0.07471767067909241, -0.840621347064322, 0.02606077381393679, 0.33700931053593414,0.4232034592001308,0.7462921142578125,0.5445098876953125,0.4849700927734375
20220117-1835,2022-01-17 18:35:10Z,u01, 14,40,movements,el-ex, rt, d,191639.33578725002, 2.066864816129402, -0.5738446120614464, 2.7237047646062384, 0.35217517614364624, -0.5328105092048645, 0.33003929257392883, 0.7385885715484619, 0.5428648591041565, 0.39973047375679016, 0.021588921546936035, -0.016558706760406494, 0.013813108205795288, -0.8360698191535505, 0.029197424325767052, 0.3396638149697333,0.4298408856668806,0.7601776123046875,0.52630615234375,0.413543701171875
20220117-1835,2022-01-17 18:35:10Z,u01, 15,40,movements,el-ex, rt, d,191639.36073325, 2.046406735947913, -0.5695343567924382, 2.711035912206785, 0.24487467110157013, -0.5671636462211609, 0.34486350417137146, 0.7486845254898071, 0.5392399430274963, 0.3856056034564972, 0.011264204978942871, -0.025491774082183838, -0.0006264448165893555, -0.8317265759829624, 0.032151360504615256, 0.3410576790849892,0.436894521103439,0.756591796875,0.5126953125,0.37420654296875
20220117-1835,2022-01-17 18:35:10Z,u01, 16,40,movements,el-ex, rt, d,191639.38568025, 2.0259284901697474, -0.5643267679142475, 2.699836005109972, 0.20577608048915863, -0.5704339146614075, 0.38098835945129395, 0.7589356303215027, 0.53484708070755, 0.37142351269721985, 0.013388097286224365, -0.00045371055603027344, 0.037725597620010376, -0.8273491162517557, 0.03471600200284203, 0.3418728574434752,0.4443098369645381,0.7723236083984375,0.534393310546875,0.409149169921875
20220117-1835,2022-01-17 18:35:10Z,u01, 17,40,movements,el-ex, rt, d,191639.41062725, 2.008633074243837, -0.557260840575979, 2.6925758135440727, 0.024771742522716522, -0.4882257580757141, 0.3569665253162384, 0.768649160861969, 0.5288634300231934, 0.35983580350875854, 0.0029267072677612305, 0.0017303824424743652, 0.09734794497489929, -0.8237538936228285, 0.036707292452399176, 0.3411208518148566,0.45135198327383796,0.77081298828125,0.5439910888671875,0.4494781494140625
20220117-1835,2022-01-17 18:35:10Z,u01, 18,40,movements,el-ex, rt, d,191639.43557425, 1.9944246653517324, -0.549521911037487, 2.687808539381885, 0.010001386515796185, -0.47068893909454346, 0.328573614358902, 0.7773921489715576, 0.5222795605659485, 0.35055065155029297, 0.006268858909606934, 0.047437846660614014, 0.003850013017654419, -0.8208533702904603, 0.03840660601707202, 0.33954443240348564,0.4576399791880063,0.783660888671875,0.5697174072265625,0.354400634765625
20220117-1835,2022-01-17 18:35:10Z,u01, 19,40,movements,el-ex, rt, d,191639.46052125, 1.9803310007955555, -0.5419793753995076, 2.6841780220273828, -0.03842630237340927, -0.5098754167556763, 0.33911874890327454, 0.7858464121818542, 0.5158327221870422, 0.3411186933517456, 0.005169212818145752, 0.028173625469207764, -0.035164833068847656, -0.8179173610218888, 0.03963001847329456, 0.33781621098713194,0.4640267426540986,0.7894439697265625,0.53076171875,0.305084228515625
20220117-1835,2022-01-17 18:35:10Z,u01, 20,40,movements,el-ex, rt, d,191639.48546825, 1.9663926533957203, -0.5335742050941036, 2.6811369489888563, -0.020403124392032623, -0.47007986903190613, 0.347284197807312, 0.7944972515106201, 0.5086139440536499, 0.33179157972335815, 0.003506779670715332, 0.011435985565185547, 0.023875445127487183, -0.8149981438139493, 0.04091227038459083, 0.33565621211979135,0.4705730618609631,0.798004150390625,0.520050048828125,0.3556671142578125
20220117-1835,2022-01-17 18:35:10Z,u01, 21,40,movements,el-ex, rt, d,191639.51041525, 1.9540601400003959, -0.5261810855777923, 2.6780878540116517, 0.003739328123629093, -0.38833901286125183, 0.2682417631149292, 0.8019941449165344, 0.502234697341919, 0.3233657777309418, 0.0003738999366760254, 0.07289952039718628, 0.0875684916973114, -0.8123432077438142, 0.04220669554290751, 0.3338732622818139,0.47628316703884926,0.8040008544921875,0.588348388671875,0.41217041015625
20220117-1835,2022-01-17 18:35:10Z,u01, 22,40,movements,el-ex, rt, d,191639.53536225003, 1.9433669253621348, -0.5209902186155768, 2.6743923207784444, 0.06072937697172165, -0.33337482810020447, 0.22831326723098755, 0.807823657989502, 0.4977392256259918, 0.315716415643692, -0.007118523120880127, 0.10888922214508057, 0.05176094174385071, -0.8099214889111734, 0.043421010417786676, 0.333055216707835,0.48084934923404776,0.8007049560546875,0.60662841796875,0.3674774169921875
20220117-1835,2022-01-17 18:35:10Z,u01, 23,40,movements,el-ex, rt, d,191639.56030925002, 1.9341474709119195, -0.5155142631068792, 2.6724865303978165, -0.13230198621749878, -0.3352683484554291, 0.24000027775764465, 0.8132352828979492, 0.4929823577404022, 0.3092193901538849, -0.020358145236968994, 0.03042462468147278, 0.02273544669151306, -0.8078685537611918, 0.04425043474673557, 0.33168691718750587,0.48515361599439494,0.792816162109375,0.49615478515625,0.3367156982421875
20220117-1835,2022-01-17 18:35:10Z,u01, 24,40,movements,el-ex, rt, d,191639.58525625002, 1.9287616579674922, -0.5080023165384838, 2.6763763965157508, -0.2783854603767395, -0.24325193464756012, 0.19429504871368408, 0.8183343410491943, 0.486432820558548, 0.30612391233444214, 0.0033971071243286133, 0.027315348386764526, 0.0831124484539032, -0.8069246562545211, 0.043983505085689545, 0.32807594991639294,0.4891872471251146,0.8217315673828125,0.5137481689453125,0.3892364501953125
20220117-1835,2022-01-17 18:35:10Z,u01, 25,40,movements,el-ex, rt, d,191639.61020325002, 1.9260387364662874, -0.5020502162091688, 2.680071616958735, -0.11197169125080109, -0.11330132186412811, 0.17669321596622467, 0.821864902973175, 0.4812237620353699, 0.30489617586135864, 0.011982083320617676, 0.06850463151931763, 0.09877502918243408, -0.8065547965188092, 0.04378863053049842, 0.32502331167807735,0.49184523214116477,0.8339080810546875,0.5522003173828125,0.40142822265625
20220117-1835,2022-01-17 18:35:10Z,u01, 26,40,movements,el-ex, rt, d,191639.63514925, 1.9244194559826318, -0.49728804953365846, 2.6795020653317456, -0.0074660214595496655, -0.008145544677972794, 0.18917125463485718, 0.8244979977607727, 0.4770438075065613, 0.30435505509376526, -0.007450997829437256, 0.05704423785209656, 0.08434721827507019, -0.8063120022991423, 0.04514960141622687, 0.32343333798668455,0.4931665535550774,0.817047119140625,0.534088134765625,0.388702392578125
20220117-1835,2022-01-17 18:35:10Z,u01, 27,40,movements,el-ex, rt, d,191639.660095875, 1.923973369474157, -0.4935744052763905, 2.679194034191446, -0.10397112369537354, -0.007472829893231392, 0.098260797560215, 0.8262901306152344, 0.4737766981124878, 0.3045978546142578, -0.027904629707336426, 0.07170966267585754, 0.07290440797805786, -0.8063226619118128, 0.04628929202657528, 0.32214161847984474,0.4938883531229827,0.7947998046875,0.5474090576171875,0.3783111572265625
20220117-1835,2022-01-17 18:35:10Z,u01, 28,40,movements,el-ex, rt, d,191639.685042875, 1.9257586555846007, -0.49165608881774425, 2.681611983255972, -0.09031842648983002, 0.0550113171339035, -0.03638783097267151, 0.8265957236289978, 0.47208645939826965, 0.30638784170150757, -0.033764421939849854, 0.1220601499080658, 0.07589048147201538, -0.8068847178274545, 0.046162507871222, 0.32079070814956545,0.49386156048317187,0.7928314208984375,0.594146728515625,0.3822784423828125
20220117-1835,2022-01-17 18:35:10Z,u01, 29,40,movements,el-ex, rt, d,191639.709989875, 1.9302018908935765, -0.49355073235908414, 2.684512604361509, -0.04232087731361389, 0.1735982894897461, -0.15095743536949158, 0.8243876099586487, 0.4737558364868164, 0.3097425103187561, -0.01632791757583618, 0.1109914779663086, 0.08672654628753662, -0.8079806079712386, 0.04515074409127279, 0.32067925342127745,0.4922332346032939,0.81195068359375,0.5800323486328125,0.4016571044921875
20220117-1835,2022-01-17 18:35:10Z,u01, 30,40,movements,el-ex, rt, d,191639.734936875, 1.9382214332177217, -0.49779758201061153, 2.687986250155207, -0.060684867203235626, 0.2830171287059784, -0.20332056283950806, 0.8199920654296875, 0.4774915874004364, 0.315618097782135, -0.0100555419921875, 0.06216597557067871, 0.08196485042572021, -0.809870872447594, 0.043797497706892785, 0.32123312748784666,0.4888764757485286,0.8099365234375,0.5396575927734375,0.3975830078125
20220117-1835,2022-01-17 18:35:10Z,u01, 31,40,movements,el-ex, rt, d,191639.759883875, 1.949134680333377, -0.5028995527712434, 2.692730762711119, -0.08558928966522217, 0.38378846645355225, -0.2693973183631897, 0.8142241835594177, 0.48196810483932495, 0.3236437439918518, -0.01258862018585205, 0.05556836724281311, 0.09618642926216125, -0.8124315500491486, 0.04215265705845411, 0.32175411201878307,0.4844091707061269,0.8028717041015625,0.5450592041015625,0.4275970458984375
20220117-1835,2022-01-17 18:35:10Z,u01, 32,40,movements,el-ex, rt, d,191639.78483087503, 1.9632885239335673, -0.5100396576248868, 2.6993451160316457, -0.12087264657020569, 0.4768104553222656, -0.3650973439216614, 0.8063618540763855, 0.48821187019348145, 0.33381059765815735, -0.008464574813842773, 0.08153599500656128, 0.1074124276638031, -0.8156774640264766, 0.03969347638779391, 0.32255757863434464,0.4785929763553,0.7978973388671875,0.5697479248046875,0.44122314453125
20220117-1835,2022-01-17 18:35:10Z,u01, 33,40,movements,el-ex, rt, d,191639.80977787502, 1.9799731124763595, -0.5179932272684833, 2.707275503487824, -0.1468723714351654, 0.5454505085945129, -0.4282621145248413, 0.7970925569534302, 0.49513763189315796, 0.3456614315509796, 0.0024068355560302734, 0.07638019323348999, 0.07868531346321106, -0.8194326510544037, 0.03688964718326199, 0.32336246452748707,0.4718112415172546,0.7989654541015625,0.566009521484375,0.4195098876953125
20220117-1835,2022-01-17 18:35:10Z,u01, 34,40,movements,el-ex, rt, d,191639.83472487502, 1.9993712708827993, -0.5266101654120298, 2.716825771736553, -0.18631434440612793, 0.6251272559165955, -0.4627077281475067, 0.786328136920929, 0.502605676651001, 0.35927125811576843, 0.007830917835235596, 0.0352209210395813, 0.07151475548744202, -0.8237113835611096, 0.03369245872706178, 0.3240672819711525,0.4640526479490153,0.794158935546875,0.5378265380859375,0.4307861328125
20220117-1835,2022-01-17 18:35:11Z,u01, 35,40,movements,el-ex, rt, d,191639.85967187502, 2.021773084564431, -0.5357324516563925, 2.728016451650329, -0.17269393801689148, 0.7197657227516174, -0.5183287262916565, 0.7739241123199463, 0.510470986366272, 0.37478071451187134, 0.012803733348846436, 0.05089974403381348, 0.083059161901474, -0.8285403902867738, 0.03018577948007828, 0.32463893594502263,0.45521325041166216,0.7870330810546875,0.566375732421875,0.462982177734375
20220117-1835,2022-01-17 18:35:11Z,u01, 36,40,movements,el-ex, rt, d,191639.88461887502, 2.0458148110195147, -0.5461702507399603, 2.7383101198153983, -0.1195596307516098, 0.7840825915336609, -0.548437237739563, 0.7599112391471863, 0.519418478012085, 0.39081889390945435, 0.01769191026687622, 0.030782997608184814, 0.08643007278442383, -0.8334753033456581, 0.026988378795460066, 0.32601744068267824,0.4453124450810921,0.7776031494140625,0.550201416015625,0.4772491455078125
20220117-1835,2022-01-17 18:35:11Z,u01, 37,40,movements,el-ex, rt, d,191639.90956587502, 2.072945814557972, -0.5568133639406583, 2.750437107548656, -0.20370890200138092, 0.8739213943481445, -0.5978442430496216, 0.7441414594650269, 0.5284836292266846, 0.4086056649684906, 0.017409443855285645, 0.04707789421081543, 0.08936476707458496, -0.8388979417610544, 0.023517598961870834, 0.32716341047413156,0.43435155872231007,0.76025390625,0.5845947265625,0.4994354248046875
20220117-1835,2022-01-17 18:35:11Z,u01, 38,40,movements,el-ex, rt, d,191639.934511875, 2.1031339538115748, -0.5680586168048041, 2.7643272123679106, -0.15027117729187012, 0.9510695338249207, -0.6516170501708984, 0.7263023853302002, 0.5379965901374817, 0.42783674597740173, 0.021393537521362305, 0.08010637760162354, 0.08043330907821655, -0.8447073480859709, 0.019694342362344686, 0.3282964352951501,0.4222593919320811,0.7476959228515625,0.61810302734375,0.508270263671875
20220117-1835,2022-01-17 18:35:11Z,u01, 39,40,movements,el-ex, rt, d,191639.959458875, 2.1351381443207345, -0.5802411533359665, 2.7785038008353515, -0.15537029504776, 1.0063624382019043, -0.6774703860282898, 0.706649661064148, 0.5482256412506104, 0.44731950759887695, 0.033920347690582275, 0.04763001203536987, 0.06606230139732361, -0.8505339656363202, 0.015865977871076686, 0.32991762297805505,0.4092609955082489,0.7381134033203125,0.5930938720703125,0.5164337158203125
20220117-1835,2022-01-17 18:35:11Z,u01, 40,40,movements,el-ex, rt, d,191639.984405875, 2.1694471283355643, -0.5923683930914403, 2.7938356609095862, -0.1541779339313507, 1.0604231357574463, -0.6931938529014587, 0.6853470206260681, 0.5583274364471436, 0.46751490235328674, 0.040681540966033936, 0.048774003982543945, 0.04189974069595337, -0.85651223427238, 0.012010452303959418, 0.33147576073379853,0.39543198635015797,0.7260284423828125,0.6071014404296875,0.5094146728515625
20220117-1835,2022-01-17 18:35:11Z,u01, 41,40,movements,el-ex, rt, d,191640.009352875, 2.204939132281234, -0.6047093539517506, 2.809373184517685, -0.13839465379714966, 1.092686653137207, -0.7075843811035156, 0.6627241969108582, 0.5685229897499084, 0.48741984367370605, 0.05919957160949707, 0.006550192832946777, 0.00673598051071167, -0.8623463384546173, 0.00828933515430419, 0.33330015692908194,0.38105255101294894,0.71832275390625,0.575408935546875,0.4970550537109375
20220117-1835,2022-01-17 18:35:11Z,u01, 42,40,movements,el-ex, rt, d,191640.034299875, 2.242971922085212, -0.6166836183105802, 2.8256141777549124, -0.10161006450653076, 1.2028794288635254, -0.6946529746055603, 0.6383386254310608, 0.5783328413963318, 0.5079907774925232, 0.07540643215179443, 0.014318466186523438, 0.020955026149749756, -0.8683154779200728, 0.004860586687668811, 0.3350670700762003,0.36569736880831744,0.7137451171875,0.5926513671875,0.5289459228515625
20220117-1835,2022-01-17 18:35:11Z,u01, 43,40,movements,el-ex, rt, d,191640.05924687503, 2.283279731855001, -0.6289519200529017, 2.842322955014634, -0.1817820966243744, 1.229286551475525, -0.757003128528595, 0.6119343042373657, 0.5882975459098816, 0.528623104095459, 0.07701534032821655, 0.008351564407348633, 0.0018333196640014648, -0.8742476009138889, 0.0016400986695392916, 0.3371147245914487,0.34934523914020077,0.678741455078125,0.5892333984375,0.535186767578125
20220117-1835,2022-01-17 18:35:11Z,u01, 44,40,movements,el-ex, rt, d,191640.08419387502, 2.3262732009603986, -0.6388386433703109, 2.861633735891222, -0.15358151495456696, 1.3085052967071533, -0.6970900297164917, 0.5843858122825623, 0.5962635278701782, 0.5504207611083984, 0.022898733615875244, 0.051838219165802, 0.09089082479476929, -0.8804587523374185, -0.0016673740851818608, 0.33797988802750173,0.3325044351211524,0.6072845458984375,0.648101806640625,0.6413116455078125
20220117-1835,2022-01-17 18:35:11Z,u01, 45,40,movements,el-ex, rt, d,191640.10914087502, 2.370014125031862, -0.6507649454991103, 2.8791060408391567, -0.007521448656916618, 1.3634628057479858, -0.768002986907959, 0.5547606348991394, 0.6057952046394348, 0.5703096985816956, 0.04796159267425537, 0.08127766847610474, 0.10031408071517944, -0.8860788692661035, -0.004368446034148321, 0.3402888470063175,0.3147201265000034,0.6087188720703125,0.6824951171875,0.67333984375
20220117-1835,2022-01-17 18:35:11Z,u01, 46,40,movements,el-ex, rt, d,191640.13408787502, 2.4150853501509943, -0.6643188999429386, 2.8965118452678715, 0.06482765078544617, 1.3913332223892212, -0.787254810333252, 0.5229986310005188, 0.616523027420044, 0.5885335206985474, 0.08625435829162598, 0.036476850509643555, 0.07557463645935059, -0.8911890924323955, -0.006982557385949717, 0.34357898021485145,0.2961194040114036,0.6092529296875,0.6529998779296875,0.6641082763671875
20220117-1835,2022-01-17 18:35:11Z,u01, 47,40,movements,el-ex, rt, d,191640.15903487502, 2.4604173041284656, -0.6794728356642947, 2.913423396383328, 0.1342056542634964, 1.408238410949707, -0.8071435689926147, 0.489851176738739, 0.6283830404281616, 0.6043015718460083, 0.0742509663105011, 0.008137285709381104, 0.04814881086349487, -0.895579101599041, -0.009426334375219114, 0.34790791113868924,0.27714479768416966,0.5500335693359375,0.6333160400390625,0.6472320556640625
20220117-1835,2022-01-17 18:35:11Z,u01, 48,40,movements,el-ex, rt, d,191640.18398187502, 2.5076397893005877, -0.6935592642881477, 2.9323277042977387, 0.016834590584039688, 1.4073617458343506, -0.8071909546852112, 0.45549049973487854, 0.6392782330513, 0.619557797908783, 0.04840052127838135, -0.0025594234466552734, 0.010050296783447266, -0.8997967951013226, -0.012025574528240268, 0.3517892113812071,0.2578090123023263,0.5038909912109375,0.63671875,0.629608154296875
20220117-1835,2022-01-17 18:35:11Z,u01, 49,40,movements,el-ex, rt, d,191640.208928875, 2.5582010564999575, -0.7046460056772313, 2.955456344521408, -0.10600142180919647, 1.4589648246765137, -0.8562686443328857, 0.4196658730506897, 0.6477642059326172, 0.6358316540718079, 0.0524258017539978, 0.012559890747070312, 0.05365180969238281, -0.9042581290482371, -0.01526660464367563, 0.35415572824293523,0.23802903516676777,0.475616455078125,0.6733245849609375,0.709442138671875
20220117-1835,2022-01-17 18:35:11Z,u01, 50,40,movements,el-ex, rt, d,191640.233874875, 2.611828539180658, -0.7125863986593207, 2.982120385684052, -0.18444392085075378, 1.4513638019561768, -0.8606056571006775, 0.3823695778846741, 0.6537930369377136, 0.6529533267021179, 0.09594765305519104, 0.012970209121704102, 0.03068608045578003, -0.9089094842288201, -0.018979086169273407, 0.3551108444012347,0.21776037678158505,0.4783172607421875,0.6667633056640625,0.6836395263671875
20220117-1835,2022-01-17 18:35:11Z,u01, 51,40,movements,el-ex, rt, d,191640.258821875, 2.666003440726456, -0.7191226870208228, 3.010066027934592, -0.17721886932849884, 1.4310780763626099, -0.8565661907196045, 0.3444880545139313, 0.658724844455719, 0.6688863039016724, 0.07663923501968384, -0.0030548572540283203, -0.03499072790145874, -0.9131909228754016, -0.022923333331532014, 0.35571311535090155,0.19754703802912726,0.4087677001953125,0.6593170166015625,0.633148193359375
20220117-1835,2022-01-17 18:35:11Z,u01, 52,40,movements,el-ex, rt, d,191640.283768875, 2.7212980570206797, -0.7230895560147503, 3.039360991423749, -0.34648430347442627, 1.458711862564087, -0.8785025477409363, 0.30592620372772217, 0.6617042422294617, 0.6845120191574097, 0.043942660093307495, 0.02294236421585083, -0.0032376646995544434, -0.9173492356684025, -0.0269518525050213, 0.35545523580223626,0.1771879948416325,0.3498687744140625,0.6846466064453125,0.6812744140625
20220117-1835,2022-01-17 18:35:11Z,u01, 53,40,movements,el-ex, rt, d,191640.308715875, 2.778459203050088, -0.7213235606827542, 3.0714885551369804, -0.5023278594017029, 1.4729313850402832, -0.8636821508407593, 0.26673486828804016, 0.66037917137146, 0.7019625306129456, 0.06984350085258484, 0.019399821758270264, 0.03323620557785034, -0.9219508168445599, -0.03143191165467235, 0.3528004272917875,0.15668583070255923,0.3361968994140625,0.67822265625,0.758331298828125
20220117-1835,2022-01-17 18:35:11Z,u01, 54,40,movements,el-ex, rt, d,191640.33366287503, 2.834594596270263, -0.7163952448068028, 3.1029056029724416, -0.4642832577228546, 1.4265587329864502, -0.8099141120910645, 0.2279113531112671, 0.656670331954956, 0.7189162969589233, 0.11260385811328888, 0.0016091465950012207, 0.007417261600494385, -0.9263823339468318, -0.035691950464818656, 0.3491695236243235,0.13646440622808048,0.34051513671875,0.6582794189453125,0.7263336181640625
20220117-1835,2022-01-17 18:35:11Z,u01, 55,40,movements,el-ex, rt, d,191640.35860987502, 2.8889936065043806, -0.7142759935893529, 3.131517089185007, -0.16569280624389648, 1.3958687782287598, -0.7794414162635803, 0.18883247673511505, 0.6550705432891846, 0.7315905094146729, 0.13343316316604614, -0.0013688206672668457, -0.05654174089431763, -0.9296486163334848, -0.03935344536539731, 0.3473998203235705,0.11626717716264492,0.315185546875,0.6487274169921875,0.6585693359375
20220117-1835,2022-01-17 18:35:11Z,u01, 56,40,movements,el-ex, rt, d,191640.38355687502, 2.9416026950647485, -0.715341213741958, -3.126091679636208, -0.1364547610282898, 1.4438433647155762, -0.782356858253479, 0.149961918592453, 0.655875027179718, 0.7398235201835632, 0.07183986902236938, 0.048623085021972656, 0.007948458194732666, -0.9317367148345652, -0.04217185513325655, 0.34760920034464815,0.0962077425850899,0.2218017578125,0.704498291015625,0.747772216796875
20220117-1835,2022-01-17 18:35:11Z,u01, 57,40,movements,el-ex, rt, d,191640.40850387502, 2.9953942706553374, -0.7156411690423674, -3.0998912855380927, -0.07339267432689667, 1.4324755668640137, -0.7509931921958923, 0.109939344227314, 0.656101405620575, 0.7466221451759338, 0.11740142107009888, 0.07027816772460938, 0.04694181680679321, -0.9334246453613297, -0.045049933909990014, 0.3477961652403662,0.07567602575737492,0.214874267578125,0.71905517578125,0.7851409912109375
20220117-1835,2022-01-17 18:35:11Z,u01, 58,40,movements,el-ex, rt, d,191640.43345087502, 3.046241853206304, -0.7181997627539698, -3.076353238302361, 0.08234842121601105, 1.3767852783203125, -0.6649556756019592, 0.07168960571289062, 0.6580301523208618, 0.7495711445808411, 0.08021169900894165, -0.06707251071929932, -0.03591763973236084, -0.9341060514081674, -0.047238292008456084, 0.34939046466485263,0.05604225536145879,0.1519012451171875,0.5909576416015625,0.713653564453125
20220117-1835,2022-01-17 18:35:11Z,u01, 59,40,movements,el-ex, rt, d,191640.45839787502, 3.095001377075798, -0.7208466055233439, -3.0553037543776664, -0.03868972137570381, 1.3737982511520386, -0.6408575177192688, 0.03498891368508339, 0.6600209474563599, 0.7504321932792664, 0.0894923284649849, -0.10008424520492554, -0.04163080453872681, -0.9342689069655128, -0.04855614206134101, 0.3513064389465502,0.036983508910409385,0.1064453125,0.5757293701171875,0.703125
20220117-1835,2022-01-17 18:35:11Z,u01, 60,40,movements,el-ex, rt, d,191640.483344875, -3.139945459258864, -0.7180430544205904, -3.0327896494137763, -0.1518562287092209, 1.2872506380081177, -0.6980307102203369, -0.0012404929148033261, 0.6579121947288513, 0.7530937790870667, 0.0670364499092102, 0.03999441862106323, -0.048748016357421875, -0.9348714470624879, -0.05061884006854772, 0.35088031209012804,0.018335042739911267,0.0657958984375,0.697906494140625,0.704345703125
20220117-1835,2022-01-17 18:35:11Z,u01, 61,40,movements,el-ex, rt, d,191640.508290875, -3.0922916524620434, -0.715811175705851, -3.008698767888592, 0.0004946663975715637, 1.2617945671081543, -0.7770340442657471, -0.03718555346131325, 0.6562297344207764, 0.7536443471908569, 0.053695615381002426, 0.08286029100418091, -0.013043761253356934, -0.9348550141763291, -0.05355621993171117, 0.35096692358637605,0.00021787920523677617,0.0092315673828125,0.737274169921875,0.767242431640625
20220117-1835,2022-01-17 18:35:11Z,u01, 62,40,movements,el-ex, rt, d,191640.533237875, -3.0440360657779695, -0.7150311509890661, -2.983779567723718, 0.01436697319149971, 1.2963508367538452, -0.7481006383895874, -0.07354555279016495, 0.6556409597396851, 0.7514826655387878, 0.04147162288427353, 0.003386199474334717, 0.027982115745544434, -0.9340886510976685, -0.05674270845171697, 0.35204454967588444,-0.017982035413991154,-0.032073974609375,0.659027099609375,0.7794647216796875
20220117-1835,2022-01-17 18:35:11Z,u01, 63,40,movements,el-ex, rt, d,191640.558184875, -2.996819809253147, -0.7116638358086763, -2.9600572442030195, -0.10524877160787582, 1.2360514402389526, -0.693975567817688, -0.1092504933476448, 0.6530946493148804, 0.749354362487793, 0.07124088704586029, -0.0637391209602356, -0.03232854604721069, -0.9333375243960664, -0.05965092569202213, 0.35217258847320454,-0.03601893758331773,-0.0509033203125,0.5822601318359375,0.71075439453125
20220117-1835,2022-01-17 18:35:11Z,u01, 64,40,movements,el-ex, rt, d,191640.583131875, -2.9502847921654998, -0.7050909835712826, -2.9371921184714513, -0.0924319177865982, 1.29091215133667, -0.7437434196472168, -0.1448039561510086, 0.6481031179428101, 0.7476592063903809, 0.09602165222167969, 0.03233206272125244, 0.01907968521118164, -0.9326965197810146, -0.06250432894046115, 0.3510606682895242,-0.05410030164078239,-0.0487823486328125,0.6804351806640625,0.7667388916015625
20220117-1835,2022-01-17 18:35:11Z,u01, 65,40,movements,el-ex, rt, d,191640.60807887503, -2.901855012748519, -0.7017650386244001, -2.9126400208698797, 0.16421352326869965, 1.3039250373840332, -0.7854041457176208, -0.18133974075317383, 0.6455666422843933, 0.7418619990348816, 0.1108136922121048, 0.13000702857971191, 0.03716009855270386, -0.9309239712835707, -0.06566238898366134, 0.35185375525947804,-0.07257983914549837,-0.0837860107421875,0.76043701171875,0.767486572265625
20220117-1835,2022-01-17 18:35:11Z,u01, 66,40,movements,el-ex, rt, d,191640.63302587502, -2.85144934344953, -0.7028343816705123, -2.8852255168699075, 0.2691113352775574, 1.3036953210830688, -0.8177860379219055, -0.21829012036323547, 0.6463829278945923, 0.7311215400695801, 0.05364781618118286, 0.01525348424911499, 0.017413675785064697, -0.9277627347384745, -0.06940510335094557, 0.3551688635100647,-0.09107342483898234,-0.164642333984375,0.6616363525390625,0.74853515625
20220117-1835,2022-01-17 18:35:11Z,u01, 67,40,movements,el-ex, rt, d,191640.65797316667, -2.8009907702979047, -0.7004804953224619, -2.8579191614907846, 0.04339952394366264, 1.3159946203231812, -0.8246263265609741, -0.2553955614566803, 0.644585132598877, 0.7206131815910339, 0.046212852001190186, -0.05458873510360718, -0.041505515575408936, -0.9246270016855522, -0.07329058920435366, 0.3572673351009949,-0.10978854129913451,-0.215087890625,0.5958709716796875,0.678466796875
20220117-1835,2022-01-17 18:35:11Z,u01, 68,40,movements,el-ex, rt, d,191640.68292016667, -2.7526070467213244, -0.6915829922786189, -2.833824402525262, -0.11786636710166931, 1.3015512228012085, -0.8029069900512695, -0.2921124994754791, 0.6377572417259216, 0.7126961350440979, 0.0627882182598114, -0.006455421447753906, 0.009975254535675049, -0.922202277981317, -0.0767529872069142, 0.35649155487045137,-0.12870761141246126,-0.2293243408203125,0.6313018798828125,0.7226715087890625
20220117-1835,2022-01-17 18:35:11Z,u01, 69,40,movements,el-ex, rt, d,191640.70786716667, -2.705435828846688, -0.6813360909889703, -2.810730216197138, -0.021700717508792877, 1.3076571226119995, -0.8122196197509766, -0.32813760638237, 0.6298313736915588, 0.7040159106254578, 0.07117962837219238, 0.06963157653808594, 0.026330769062042236, -0.9195487743524731, -0.08023711478335382, 0.35533088861993073,-0.14741803673531342,-0.25494384765625,0.704986572265625,0.7079620361328125
20220117-1835,2022-01-17 18:35:11Z,u01, 70,40,movements,el-ex, rt, d,191640.73281416667, -2.6594485169766156, -0.6729589570126703, -2.7869230027795635, -0.0012875543907284737, 1.2130542993545532, -0.8188592791557312, -0.3625887632369995, 0.6233025789260864, 0.6928370594978333, 0.055826157331466675, -0.011928677558898926, -0.0403255820274353, -0.9161571795142021, -0.08411034158550867, 0.3553446439017061,-0.16526228006219962,-0.3067626953125,0.6113739013671875,0.6525115966796875
20220117-1835,2022-01-17 18:35:11Z,u01, 71,40,movements,el-ex, rt, d,191640.75776116666, -2.6167586608103597, -0.6618953080889706, -2.7658020814566515, -0.14245107769966125, 1.1910585165023804, -0.7763749957084656, -0.3952579200267792, 0.6146130561828613, 0.6826580762863159, 0.05140119791030884, -0.08456844091415405, -0.04461181163787842, -0.9130283265267467, -0.08779699021793125, 0.3541192184725344,-0.18240218861377339,-0.349609375,0.523590087890625,0.6517486572265625
20220117-1835,2022-01-17 18:35:11Z,u01, 72,40,movements,el-ex, rt, d,191640.78270716668, -2.5766076740768558, -0.6469349904228979, -2.7486407735271454, -0.27777567505836487, 1.1882377862930298, -0.7843627333641052, -0.4272167384624481, 0.6027435660362244, 0.6739329695701599, 0.08300909399986267, 0.02408742904663086, 0.028947770595550537, -0.910336014380249, -0.09085613387088054, 0.35097846648683495,-0.1996184112120364,-0.344207763671875,0.6268310546875,0.702880859375
20220117-1835,2022-01-17 18:35:11Z,u01, 73,40,movements,el-ex, rt, d,191640.80765416668, -2.5369428139884476, -0.6324126311712199, -2.7317401944343023, -0.046229831874370575, 1.1672290563583374, -0.7580507397651672, -0.458533376455307, 0.5910925269126892, 0.6635940074920654, 0.082984060049057, 0.07026922702789307, 0.026927292346954346, -0.9071734857626671, -0.09398543336358989, 0.3482333530156835,-0.21664854972085973,-0.386688232421875,0.6563262939453125,0.661773681640625
20220117-1835,2022-01-17 18:35:11Z,u01, 74,40,movements,el-ex, rt, d,191640.83260116668, -2.497231118691434, -0.6214047611927123, -2.7124358676443703, -0.01595824398100376, 1.1168254613876343, -0.7656509280204773, -0.4883965253829956, 0.5821778774261475, 0.6500294208526611, 0.05123218894004822, 0.010778844356536865, -0.0645189881324768, -0.9030308264466869, -0.09772425815715508, 0.3475409398578039,-0.2328105293758255,-0.437164306640625,0.59295654296875,0.58551025390625
20220117-1835,2022-01-17 18:35:12Z,u01, 75,40,movements,el-ex, rt, d,191640.85754816668, -2.4597110070637385, -0.6090117653962925, -2.69521077283143, -0.049518562853336334, 1.0924432277679443, -0.7514048218727112, -0.5169438719749451, 0.5720571875572205, 0.6368042826652527, 0.06911367177963257, -0.04349261522293091, -0.044946372509002686, -0.8989731370729845, -0.10123953604698638, 0.34616184395952515,-0.24853542202270748,-0.45452880859375,0.5466156005859375,0.6026153564453125
20220117-1835,2022-01-17 18:35:12Z,u01, 76,40,movements,el-ex, rt, d,191640.88249516668, -2.421095322716698, -0.5982435381105077, -2.675796258024159, 0.27314069867134094, 1.1425142288208008, -0.7815576791763306, -0.5451757311820984, 0.5631919503211975, 0.6209657192230225, 0.05095881223678589, 0.07355743646621704, 0.021704018115997314, -0.8940864308386445, -0.1053201115938322, 0.3460654475557589,-0.2641134169922261,-0.4942169189453125,0.636749267578125,0.642669677734375
20220117-1835,2022-01-17 18:35:12Z,u01, 77,40,movements,el-ex, rt, d,191640.90744216667, -2.3779954646239996, -0.5936970265937734, -2.649034246464321, 0.6293933391571045, 1.0940907001495361, -0.7631677389144897, -0.573189377784729, 0.5594292283058167, 0.5987427234649658, 0.06275248527526855, 0.09288400411605835, -0.02743840217590332, -0.8872022464799972, -0.1106504923549198, 0.35011922078638075,-0.2793656566025036,-0.50543212890625,0.643096923828125,0.5565338134765625
20220117-1835,2022-01-17 18:35:12Z,u01, 78,40,movements,el-ex, rt, d,191640.93238916667, -2.337174223182659, -0.5895773493029789, -2.622086055285231, 0.2995840609073639, 0.9945164918899536, -0.7093435525894165, -0.5988017320632935, 0.5560097694396973, 0.5764455199241638, 0.05658078193664551, -0.09327179193496704, -0.08189302682876587, -0.8801774560962996, -0.11623431261311884, 0.3545879423039043,-0.2933335644710534,-0.5422210693359375,0.462738037109375,0.4945526123046875
20220117-1835,2022-01-17 18:35:12Z,u01, 79,40,movements,el-ex, rt, d,191640.95733616667, -2.3038890143219177, -0.5791735483168665, -2.6057457955386396, -0.005443683825433254, 0.950210690498352, -0.6484401822090149, -0.6219189167022705, 0.5473324656486511, 0.5600395798683167, 0.07377743721008301, -0.07363855838775635, -0.0487479567527771, -0.8750271774700603, -0.1197798821078841, 0.35475007066910436,-0.306810505432837,-0.5493011474609375,0.4962158203125,0.52069091796875
20220117-1835,2022-01-17 18:35:12Z,u01, 80,40,movements,el-ex, rt, d,191640.98228316667, -2.2721356129123293, -0.5682244438727252, -2.5914175138444366, 0.21319182217121124, 0.9742749333381653, -0.6591600179672241, -0.6439253687858582, 0.53813636302948, 0.5438467860221863, 0.02675318717956543, -0.030537426471710205, 0.026129961013793945, -0.86995727361423, -0.12287280625833225, 0.3544889092039293,-0.3200222078715154,-0.6171722412109375,0.507598876953125,0.569976806640625
20220117-1835,2022-01-17 18:35:12Z,u01, 81,40,movements,el-ex, rt, d,191641.00723016667, -2.2393223331811605, -0.5594757588676299, -2.574231827455643, 0.13319142162799835, 0.9283895492553711, -0.5966057181358337, -0.6650901436805725, 0.5307419300079346, 0.5253266096115112, 0.032674431800842285, -0.09469151496887207, -0.01969623565673828, -0.8640910333205202, -0.1265306210736667, 0.3558343674557027,-0.33274401424409633,-0.630950927734375,0.418365478515625,0.495208740234375
20220117-1835,2022-01-17 18:35:12Z,u01, 82,40,movements,el-ex, rt, d,191641.03217716666, -2.2130474412738512, -0.5464611411043762, -2.5651036802654015, -0.22435079514980316, 0.794465184211731, -0.6331868171691895, -0.6841352581977844, 0.5196669697761536, 0.5117664933204651, 0.06789392232894897, -0.04667508602142334, -0.06572169065475464, -0.8598060443589834, -0.12890625666954397, 0.35389204554012393,-0.3447855969464937,-0.616241455078125,0.472991943359375,0.446044921875
20220117-1835,2022-01-17 18:35:12Z,u01, 83,40,movements,el-ex, rt, d,191641.0571241667, -2.1914432699276443, -0.5304524183847131, -2.559615665924242, -0.15193910896778107, 0.7282364368438721, -0.632449209690094, -0.7017094492912292, 0.5059236288070679, 0.5016423463821411, 0.027240514755249023, 0.0034605860710144043, -0.09015870094299316, -0.8564862531814235, -0.13134867628568198, 0.3499403496007973,-0.3559783057652218,-0.689300537109375,0.513946533203125,0.422454833984375
20220117-1835,2022-01-17 18:35:12Z,u01, 84,40,movements,el-ex, rt, d,191641.08207016668, -2.168030003539761, -0.5170750961260725, -2.549602687701329, 0.15636901557445526, 0.7420992255210876, -0.6343012452125549, -0.7187936305999756, 0.4943397343158722, 0.48883959650993347, 0.009793996810913086, 0.05783018469810486, -0.011956632137298584, -0.8521950879167111, -0.13484556771042144, 0.3480563141611385,-0.36665659764881137,-0.7089996337890625,0.5521697998046875,0.4768829345703125
20220117-1835,2022-01-17 18:35:12Z,u01, 85,40,movements,el-ex, rt, d,191641.10701716668, -2.141750377268895, -0.5077600681302401, -2.5333831737498196, 0.3087805211544037, 0.7230416536331177, -0.6007408499717712, -0.735232949256897, 0.4862211346626282, 0.47225141525268555, 0.020862281322479248, 0.039093196392059326, -0.009604960680007935, -0.8465612079414491, -0.1394985022154725, 0.34924730654623265,-0.37669690396065836,-0.7173309326171875,0.5078277587890625,0.4603271484375
20220117-1835,2022-01-17 18:35:12Z,u01, 86,40,movements,el-ex, rt, d,191641.13196416668, -2.116606360298996, -0.4991251414288624, -2.5183700892737257, 0.19799163937568665, 0.6949659585952759, -0.556771457195282, -0.7504341006278992, 0.478657603263855, 0.45577991008758545, 0.026954054832458496, -0.01146399974822998, 0.0016022324562072754, -0.8409842128339158, -0.14365062261585476, 0.35056385150648717,-0.38628351478141043,-0.723480224609375,0.467193603515625,0.4573822021484375
20220117-1835,2022-01-17 18:35:12Z,u01, 87,40,movements,el-ex, rt, d,191641.15691116668, -2.0937434782645736, -0.48978501668984437, -2.5076239171251773, 0.07266150414943695, 0.7404723763465881, -0.5149945020675659, -0.764497697353363, 0.4704361855983734, 0.44071897864341736, 0.02212703227996826, -0.03205108642578125, 0.02798527479171753, -0.8359854161635327, -0.1465874370460632, 0.35075789158552706,-0.3957391432006491,-0.7386627197265625,0.45501708984375,0.479248046875
20220117-1835,2022-01-17 18:35:12Z,u01, 88,40,movements,el-ex, rt, d,191641.18185816667, -2.070173312029598, -0.4800643190648032, -2.49782722620543, 0.2054441273212433, 0.7862436771392822, -0.5150489807128906, -0.7786499261856079, 0.46183621883392334, 0.4247486889362335, 0.02733778953552246, 0.03979644179344177, 0.04444378614425659, -0.8307459386586966, -0.14911584985661414, 0.3507829899398306,-0.4056807620795849,-0.751312255859375,0.5016326904296875,0.4691925048828125
20220117-1835,2022-01-17 18:35:12Z,u01, 89,40,movements,el-ex, rt, d,191641.20680516667, -2.0435509784949217, -0.4720367424942722, -2.4827623560840033, 0.4212053418159485, 0.7661936283111572, -0.5448057055473328, -0.792955756187439, 0.4547012448310852, 0.40554627776145935, 0.022554874420166016, 0.030131518840789795, -0.009580761194229126, -0.8242664945469282, -0.15283285142293768, 0.352876810670334,-0.41557761472479515,-0.7683258056640625,0.4734039306640625,0.3728485107421875
20220117-1835,2022-01-17 18:35:12Z,u01, 90,40,movements,el-ex, rt, d,191641.23175216667, -2.017319921453777, -0.4645730247755052, -2.4660444761453664, 0.3580247759819031, 0.7270997762680054, -0.5137982964515686, -0.806358277797699, 0.4480411112308502, 0.38606390357017517, 0.024528563022613525, -0.04407995939254761, -0.051667481660842896, -0.8175279886509299, -0.15709850748248727, 0.35565736928488184,-0.42482448987454396,-0.781829833984375,0.403961181640625,0.3343963623046875
20220117-1835,2022-01-17 18:35:12Z,u01, 91,40,movements,el-ex, rt, d,191641.25669916667, -1.9925212479638552, -0.4568877288818391, -2.4512470339753865, 0.39280304312705994, 0.7345032095909119, -0.5040488243103027, -0.8188008666038513, 0.44115719199180603, 0.3673493266105652, 0.026518702507019043, -0.032084256410598755, 0.005010873079299927, -0.8110510826223496, -0.16084403140091508, 0.3579921018908587,-0.4337822153965216,-0.791778564453125,0.421630859375,0.3721466064453125
20220117-1835,2022-01-17 18:35:12Z,u01, 92,40,movements,el-ex, rt, d,191641.28164616667, -1.9668798969266796, -0.44947141768662313, -2.4345521742585596, 0.47462067008018494, 0.7273544073104858, -0.5175719261169434, -0.8309456706047058, 0.43448951840400696, 0.3474884629249573, 0.024930715560913086, 0.0664108395576477, 0.01705920696258545, -0.8040482722927681, -0.1650775740764301, 0.361057668637727,-0.44259820630858926,-0.8060150146484375,0.5009002685546875,0.3645477294921875
20220117-1835,2022-01-17 18:35:12Z,u01, 93,40,movements,el-ex, rt, d,191641.30659316666, -1.9401740145070163, -0.4432272418337318, -2.414201819597041, 0.6706660985946655, 0.7177993655204773, -0.5171840786933899, -0.8424417972564697, 0.42885708808898926, 0.3261491656303406, 0.020527184009552002, 0.06883883476257324, 0.0006635189056396484, -0.796315557217647, -0.17016496427592703, 0.36561472267782374,-0.4508339585881228,-0.8279266357421875,0.4911651611328125,0.3141937255859375
20220117-1835,2022-01-17 18:35:12Z,u01, 94,40,movements,el-ex, rt, d,191641.3315401667, -1.9133427935406053, -0.4371830873875723, -2.389568326335375, 0.8258553743362427, 0.6053711175918579, -0.5170921683311462, -0.8533143997192383, 0.42338916659355164, 0.3042958080768585, 0.013928592205047607, -0.04297232627868652, -0.13690689206123352, -0.787978214360352, -0.17674342818352984, 0.3714181622855525,-0.4581490528663076,-0.839385986328125,0.3804168701171875,0.167388916015625
20220117-1835,2022-01-17 18:35:12Z,u01, 95,40,movements,el-ex, rt, d,191641.35648616668, -1.8881031700912196, -0.4327104243812102, -2.3624938417019083, 0.8692511916160583, 0.5148558020591736, -0.45217522978782654, -0.8625127077102661, 0.41933295130729675, 0.28325188159942627, 0.03183954954147339, -0.10954898595809937, -0.16542354226112366, -0.7796084430961288, -0.18394732141743714, 0.3783921265955743,-0.46388944666774545,-0.82635498046875,0.3001708984375,0.131134033203125
20220117-1835,2022-01-17 18:35:12Z,u01, 96,40,movements,el-ex, rt, d,191641.38143316668, -1.8666230377140696, -0.4287828703726738, -2.3384261699607025, 0.7114884257316589, 0.4166194498538971, -0.3488191068172455, -0.8699661493301392, 0.4157641530036926, 0.2651391327381134, 0.058397114276885986, -0.0774921178817749, -0.02859741449356079, -0.772224902736218, -0.19036352293553888, 0.3846796349148598,-0.46845692857017734,-0.8115692138671875,0.3382720947265625,0.236541748046875
20220117-1835,2022-01-17 18:35:12Z,u01, 97,40,movements,el-ex, rt, d,191641.40638016668, -1.85094513649157, -0.4270780463482387, -2.3209771387580087, 0.39839470386505127, 0.2529447078704834, -0.14568549394607544, -0.8746959567070007, 0.41421306133270264, 0.25166353583335876, 0.06900143623352051, -0.13059788942337036, -0.05862462520599365, -0.7667980643475005, -0.19455718390446158, 0.38971828153214705,-0.4714741787528541,-0.80487060546875,0.26416015625,0.1946868896484375
20220117-1835,2022-01-17 18:35:12Z,u01, 98,40,movements,el-ex, rt, d,191641.43132716668, -1.844801748358479, -0.4274008260675446, -2.3153195377619595, 0.05898650735616684, 0.05608377605676651, 0.06485756486654282, -0.8760966062545776, 0.41450682282447815, 0.2462490051984787, 0.08283811807632446, -0.18573179841041565, -0.0951564610004425, -0.7648094500789484, -0.19542519101357309, 0.3917596692639459,-0.47265185360094575,-0.7932586669921875,0.2287750244140625,0.151092529296875
20220117-1835,2022-01-17 18:35:12Z,u01, 99,40,movements,el-ex, rt, d,191641.45627416667, -1.8456074627035781, -0.4309768146814854, -2.316447371151445, -0.027296850457787514, -0.07469820976257324, 0.2210351824760437, -0.8744655847549438, 0.4177584946155548, 0.24655096232891083, 0.07255536317825317, -0.1799807846546173, -0.10305744409561157, -0.7652546666149318, -0.1940638386702851, 0.39259829706063476,-0.47179542727034335,-0.8051605224609375,0.2541046142578125,0.1534271240234375
20220117-1835,2022-01-17 18:35:12Z,u01, 100,40,movements,el-ex, rt, d,191641.48122116667, -1.8495755272705088, -0.4370304670373028, -2.3180285365753033, 0.06737343221902847, -0.20467785000801086, 0.2702801823616028, -0.8710330724716187, 0.4232509136199951, 0.2493184506893158, 0.057510972023010254, -0.0670192539691925, -0.07387295365333557, -0.7665783543157186, -0.19239764751271216, 0.3938464978276386,-0.46928198321256204,-0.8135223388671875,0.356231689453125,0.175445556640625
20220117-1835,2022-01-17 18:35:12Z,u01, 101,40,movements,el-ex, rt, d,191641.50616816667, -1.8570900127062286, -0.4446926884148315, -2.318258225208104, 0.0602756105363369, -0.38388827443122864, 0.3227689862251282, -0.8659985065460205, 0.43018049001693726, 0.2549333870410919, 0.04638814926147461, -0.06764692068099976, -0.10397818684577942, -0.7686397115520621, -0.19146720829186864, 0.39560993438464864,-0.4647859443617822,-0.8238067626953125,0.358184814453125,0.143524169921875
20220117-1835,2022-01-17 18:35:12Z,u01, 102,40,movements,el-ex, rt, d,191641.53111516667, -1.8691316073596072, -0.4536797268806128, -2.320278587348856, 0.0203472338616848, -0.5023525953292847, 0.4110985994338989, -0.8591360449790955, 0.4382759928703308, 0.26419565081596375, 0.025182247161865234, -0.11640703678131104, -0.13332104682922363, -0.7719206412829, -0.190358474179173, 0.39697819155485414,-0.4585961825729542,-0.833953857421875,0.321868896484375,0.1308746337890625
20220117-1835,2022-01-17 18:35:12Z,u01, 103,40,movements,el-ex, rt, d,191641.55606216667, -1.8844464250543538, -0.46415956367469224, -2.325013007129928, -0.07822085171937943, -0.5652068853378296, 0.48912930488586426, -0.8505733609199524, 0.44767144322395325, 0.2758893072605133, 0.02702617645263672, -0.09530025720596313, -0.1020611822605133, -0.7761716964955335, -0.18842014894785264, 0.3979460114674507,-0.4513249234870255,-0.819732666015625,0.3565673828125,0.17340087890625
20220117-1835,2022-01-17 18:35:12Z,u01, 104,40,movements,el-ex, rt, d,191641.58100916666, -1.9022531586597897, -0.4761439010786276, -2.3315138262604913, -0.013829278759658337, -0.6351187229156494, 0.5640244483947754, -0.8403926491737366, 0.4583553969860077, 0.2892240285873413, 0.03385889530181885, -0.059124380350112915, -0.08857095241546631, -0.7810683812445138, -0.18586069158863538, 0.3988468045572675,-0.4430679880390793,-0.8065338134765625,0.39923095703125,0.200653076171875
20220117-1835,2022-01-17 18:35:12Z,u01, 105,40,movements,el-ex, rt, d,191641.6059561667, -1.9206372087557317, -0.4902864787168469, -2.3353321837686307, 0.1035028025507927, -0.6881438493728638, 0.5869259834289551, -0.8287609219551086, 0.47087863087654114, 0.30237191915512085, 0.03202319145202637, -0.006538331508636475, -0.024616211652755737, -0.7857373090222216, -0.1838554897941173, 0.401082941182417,-0.43352804840522186,-0.793487548828125,0.48004150390625,0.2956390380859375
20220117-1835,2022-01-17 18:35:12Z,u01, 106,40,movements,el-ex, rt, d,191641.63090216668, -1.9401499910186348, -0.505576088316951, -2.3392663493673833, 0.04186560958623886, -0.7286959290504456, 0.6693600416183472, -0.8158934712409973, 0.4843115508556366, 0.3158484995365143, 0.047369301319122314, -0.034726500511169434, -0.004035234451293945, -0.7905021118298377, -0.181743378720299, 0.4036426144721915,-0.4232592725227077,-0.768524169921875,0.4495849609375,0.3118133544921875
20220117-1835,2022-01-17 18:35:12Z,u01, 107,40,movements,el-ex, rt, d,191641.655849125, -1.963093231071079, -0.521556867045407, -2.3471190070610763, -0.01320137269794941, -0.7984494566917419, 0.7302417755126953, -0.801177978515625, 0.49823060631752014, 0.33148136734962463, 0.042419612407684326, -0.08139100670814514, -0.08970585465431213, -0.7961369114547534, -0.1786244607272794, 0.40539040801589227,-0.41221095907074035,-0.75640869140625,0.4048919677734375,0.2327880859375
20220117-1835,2022-01-17 18:35:12Z,u01, 108,40,movements,el-ex, rt, d,191641.680796125, -1.9870999721834988, -0.5387362016780539, -2.3540823676005362, 0.15582317113876343, -0.8507148027420044, 0.7305415272712708, -0.785045325756073, 0.5130516290664673, 0.34710490703582764, 0.04365134239196777, -0.031591057777404785, -0.11446940898895264, -0.8016555275700605, -0.1757864310489105, 0.4077566440916366,-0.4002274916081804,-0.74139404296875,0.4814605712890625,0.232635498046875
20220117-1835,2022-01-17 18:35:12Z,u01, 109,40,movements,el-ex, rt, d,191641.705743125, -2.0084140264907933, -0.5581310037662556, -2.3555892807661705, 0.40309828519821167, -0.8153362274169922, 0.7270292639732361, -0.7683107852935791, 0.5296017527580261, 0.35947224497795105, 0.04116857051849365, 0.0668184757232666, 0.002435624599456787, -0.8058828072424198, -0.17403739869902202, 0.41230099592490976,-0.3876489035759759,-0.7216949462890625,0.614654541015625,0.392578125
20220117-1835,2022-01-17 18:35:12Z,u01, 110,40,movements,el-ex, rt, d,191641.730690125, -2.0275763353915717, -0.5797837504250664, -2.353599467529803, 0.42743396759033203, -0.8431130051612854, 0.8090388774871826, -0.7508126497268677, 0.5478430390357971, 0.3689829111099243, 0.0454140305519104, -0.014533042907714844, -0.0023295581340789795, -0.8091096240788339, -0.17272254673412996, 0.41852044811701505,-0.3746320560071532,-0.7053985595703125,0.5333099365234375,0.3666534423828125
20220117-1835,2022-01-17 18:35:12Z,u01, 111,40,movements,el-ex, rt, d,191641.75563712502, -2.052712109067578, -0.6022636083755466, -2.3588335571298074, 0.06930908560752869, -0.9497662782669067, 0.9456342458724976, -0.7302024960517883, 0.5665092468261719, 0.3819311559200287, 0.036507487297058105, -0.14918142557144165, -0.10820382833480835, -0.813752971804613, -0.1696221766276102, 0.4232172648543762,-0.36044624176260875,-0.6851959228515625,0.399139404296875,0.245513916015625
20220117-1835,2022-01-17 18:35:12Z,u01, 112,40,movements,el-ex, rt, d,191641.78058412502, -2.086135926704714, -0.6230048110593519, -2.374199998579324, -0.1064235270023346, -0.9917492866516113, 0.9503772258758545, -0.7066540122032166, 0.5834780931472778, 0.40024179220199585, 0.05579042434692383, -0.04159265756607056, -0.07139968872070312, -0.8203546616719797, -0.1647395774549461, 0.42497863602279046,-0.3453581929336775,-0.6508636474609375,0.5418853759765625,0.3288421630859375
20220117-1835,2022-01-17 18:35:12Z,u01, 113,40,movements,el-ex, rt, d,191641.80553112502, -2.1181936399117745, -0.6442223265545478, -2.3870507570834794, 0.3090020418167114, -0.9732331037521362, 0.9491012692451477, -0.6827359199523926, 0.6005768179893494, 0.416147917509079, 0.07249122858047485, 0.09479677677154541, 0.022740602493286133, -0.8260092281580226, -0.1605699800920256, 0.42771582785538703,-0.33012903004146477,-0.6096343994140625,0.71539306640625,0.4735870361328125
20220117-1835,2022-01-17 18:35:12Z,u01, 114,40,movements,el-ex, rt, d,191641.83047812502, -2.14465086503291, -0.6703499395550586, -2.391363214581628, 0.500174880027771, -0.9661797881126404, 0.9712736010551453, -0.6580823659896851, 0.6212602257728577, 0.42539772391319275, 0.03849935531616211, 0.017136991024017334, 0.059633344411849976, -0.8293803696786164, -0.15756605946868546, 0.43423143002795084,-0.3142358482706185,-0.6195831298828125,0.638397216796875,0.4850311279296875
20220117-1835,2022-01-17 18:35:13Z,u01, 115,40,movements,el-ex, rt, d,191641.85542512502, -2.1754868331873114, -0.6955796828572591, -2.401611911553316, 0.03239218145608902, -1.0126789808273315, 1.081689715385437, -0.6315554976463318, 0.6408305764198303, 0.43643319606781006, 0.04149818420410156, -0.10837507247924805, -0.06030404567718506, -0.8334656518923957, -0.1534653029852004, 0.43930488309990057,-0.29798430097920403,-0.5754547119140625,0.504425048828125,0.3347930908203125
20220117-1835,2022-01-17 18:35:13Z,u01, 116,40,movements,el-ex, rt, d,191641.88037212502, -2.2195670649221437, -0.7152900906629269, -2.428128353576172, -0.28652000427246094, -1.086033821105957, 1.109228491783142, -0.6015272736549377, 0.6558364629745483, 0.45611798763275146, 0.038554251194000244, -0.08766013383865356, -0.12344586849212646, -0.8404986347369918, -0.14704094277134372, 0.4393042095822398,-0.2809854881631155,-0.5629730224609375,0.56817626953125,0.332672119140625
20220117-1835,2022-01-17 18:35:13Z,u01, 117,40,movements,el-ex, rt, d,191641.905318125, -2.259857418504963, -0.7366036015452103, -2.4504212362816333, 0.33933472633361816, -0.9259977340698242, 1.0445866584777832, -0.5717463493347168, 0.6717758774757385, 0.4709811508655548, 0.0033565759658813477, 0.08542627096176147, 0.05633208155632019, -0.84589336739835, -0.14126209978352966, 0.44121358811421185,-0.26427258920673957,-0.5641937255859375,0.8162689208984375,0.575225830078125
20220117-1835,2022-01-17 18:35:13Z,u01, 118,40,movements,el-ex, rt, d,191641.930265125, -2.290090142023035, -0.7616525722685362, -2.4621512415405484, 0.3312930166721344, -0.9180269837379456, 0.9747545719146729, -0.5444160103797913, 0.6901183724403381, 0.4768100082874298, 0.07151573896408081, 0.11893314123153687, 0.1487698256969452, -0.8483137552143082, -0.1369992067541313, 0.44692373350886017,-0.2487049203186595,-0.472900390625,0.809051513671875,0.625579833984375
20220117-1835,2022-01-17 18:35:13Z,u01, 119,40,movements,el-ex, rt, d,191641.955212125, -2.334046645812347, -0.7777566372264396, -2.4899431765127735, -0.698853075504303, -1.0714337825775146, 1.0604801177978516, -0.5148398280143738, 0.7016828060150146, 0.49252524971961975, 0.05173569917678833, -0.08774542808532715, -0.001253366470336914, -0.8538368185105161, -0.13124522312096581, 0.44668785109940445,-0.2328246772080415,-0.4607696533203125,0.576934814453125,0.438690185546875
20220117-1835,2022-01-17 18:35:13Z,u01, 120,40,movements,el-ex, rt, d,191641.980159125, -2.3990478135268116, -0.7784283339754182, -2.5413271477727393, -1.0724241733551025, -1.195758581161499, 1.012672781944275, -0.4814414978027344, 0.7021612524986267, 0.5245792269706726, 0.008312344551086426, -0.09608221054077148, -0.10197192430496216, -0.8643299533061116, -0.12338293680655532, 0.43703904362825063,-0.21611837631441877,-0.4731292724609375,0.6060791015625,0.422607421875
20220117-1835,2022-01-17 18:35:13Z,u01, 121,40,movements,el-ex, rt, d,191642.005106125, -2.4530050652390543, -0.781651216295295, -2.578800798187034, -0.063300222158432, -0.9742894768714905, 0.7607061862945557, -0.4510096311569214, 0.7044523358345032, 0.5480306148529053, -0.026300549507141113, 0.20214873552322388, 0.147053062915802, -0.8718100651590894, -0.11816306430508, 0.43115511777480686,-0.20022504911099587,-0.463836669921875,0.9800567626953125,0.7140045166015625
20220117-1835,2022-01-17 18:35:13Z,u01, 122,40,movements,el-ex, rt, d,191642.03005312503, -2.4850210352717923, -0.7985111732121521, -2.5913493343296543, 0.479235976934433, -0.9377956986427307, 0.6569472551345825, -0.42592447996139526, 0.7163180112838745, 0.5526993274688721, 0.058538734912872314, 0.1801205277442932, 0.038136184215545654, -0.8733967358772691, -0.11630909020897767, 0.434835450914499,-0.18592573565864845,-0.3673858642578125,0.8964385986328125,0.5908355712890625
20220117-1835,2022-01-17 18:35:13Z,u01, 123,40,movements,el-ex, rt, d,191642.05500012502, -2.5211418825512344, -0.8132684763519795, -2.6065058951860616, -0.09157640486955643, -1.0914393663406372, 0.7358470559120178, -0.39949744939804077, 0.7265369296073914, 0.5590584874153137, 0.026435285806655884, -0.10229963064193726, -0.1371833086013794, -0.8754182808764699, -0.11476961790619933, 0.43736259948910716,-0.17083580009110985,-0.3708343505859375,0.577056884765625,0.38177490234375
20220117-1835,2022-01-17 18:35:13Z,u01, 124,40,movements,el-ex, rt, d,191642.07994712502, -2.5690866794374876, -0.8194502083095937, -2.634402911145181, -0.22301532328128815, -1.0503559112548828, 0.7581453323364258, -0.3698042631149292, 0.7307706475257874, 0.5737760663032532, 0.0001296699047088623, -0.10488563776016235, -0.026763737201690674, -0.8799843096353309, -0.1118733276600124, 0.4349017323202986,-0.15483029950848418,-0.3696746826171875,0.625885009765625,0.5470123291015625
20220117-1835,2022-01-17 18:35:13Z,u01, 125,40,movements,el-ex, rt, d,191642.10489412502, -2.606616791554086, -0.8313189746670554, -2.6549641425673207, 0.3915412127971649, -0.7937998175621033, 0.7163522839546204, -0.3435687720775604, 0.7388208508491516, 0.579744815826416, 0.03138929605484009, 0.1717625856399536, 0.2264990210533142, -0.8820400306669736, -0.10898532987232301, 0.4362182592332636,-0.14085868503459126,-0.2868499755859375,0.9578704833984375,0.8047943115234375
20220117-1835,2022-01-17 18:35:13Z,u01, 126,40,movements,el-ex, rt, d,191642.12984112502, -2.6374298720210816, -0.850183099119082, -2.6691369277311283, 0.4226970374584198, -0.8736433982849121, 0.7129830121994019, -0.3187546133995056, 0.7514012455940247, 0.577747106552124, 0.09847879409790039, 0.08973956108093262, 0.05001473426818848, -0.8817816541373604, -0.10646432846703024, 0.4414572078104495,-0.12744409033457874,-0.22027587890625,0.8411407470703125,0.6277618408203125
20220117-1835,2022-01-17 18:35:13Z,u01, 127,40,movements,el-ex, rt, d,191642.15478812502, -2.6783721778378666, -0.8624268290427107, -2.691713796715189, -0.04280180484056473, -1.024827241897583, 0.7928123474121094, -0.290706992149353, 0.7594236731529236, 0.5820353627204895, 0.025051534175872803, -0.12375777959823608, -0.17145192623138428, -0.8833264539399154, -0.1036921085034247, 0.4430767287950167,-0.11254042276969167,-0.271881103515625,0.592926025390625,0.3717498779296875
20220117-1835,2022-01-17 18:35:13Z,u01, 128,40,movements,el-ex, rt, d,191642.179735125, -2.7251310655023575, -0.8704393718104901, -2.720301584061053, 0.09802648425102234, -0.9145725965499878, 0.7839465737342834, -0.2607137858867645, 0.7646121978759766, 0.5894032120704651, -0.0314004123210907, -0.06336408853530884, -0.02888709306716919, -0.885803223247867, -0.10027098358543163, 0.4425799216900689,-0.0970632769905155,-0.2921142578125,0.7012481689453125,0.560516357421875
20220117-1835,2022-01-17 18:35:13Z,u01, 129,40,movements,el-ex, rt, d,191642.204681125, -2.761877918210662, -0.8879700640703487, -2.7419784316836706, 0.6859038472175598, -0.7089094519615173, 0.7752630710601807, -0.23387932777404785, 0.7757924795150757, 0.5860432982444763, 0.004036247730255127, 0.11854052543640137, 0.19819742441177368, -0.8852663744425857, -0.09656656716725859, 0.44725633664138914,-0.08330786907333168,-0.2057037353515625,0.934356689453125,0.791595458984375
20220117-1835,2022-01-17 18:35:13Z,u01, 130,40,movements,el-ex, rt, d,191642.229628125, -2.795938304206061, -0.9092790979214999, -2.7617905035643036, 0.4720451831817627, -0.8154213428497314, 0.7696490287780762, -0.2081373631954193, 0.7890610694885254, 0.5779802203178406, 0.09223169088363647, 0.04751718044281006, 0.05190247297286987, -0.8833796475040144, -0.09290053854837843, 0.4539832408271617,-0.07006432214137209,-0.11590576171875,0.836578369140625,0.6298828125
20220117-1835,2022-01-17 18:35:13Z,u01, 131,40,movements,el-ex, rt, d,191642.254575125, -2.8410518534862725, -0.9210191389743307, -2.7907336361072197, 0.04346516728401184, -0.9168965816497803, 0.8757615685462952, -0.17910486459732056, 0.7962186336517334, 0.577890157699585, 0.010434284806251526, -0.15238940715789795, -0.11361104249954224, -0.8837477258192115, -0.08907881082089675, 0.4560588972377324,-0.05536336176337636,-0.1873016357421875,0.6073150634765625,0.4599761962890625
20220117-1835,2022-01-17 18:35:13Z,u01, 132,40,movements,el-ex, rt, d,191642.279522125, -2.8896974895180523, -0.9275983210074161, -2.825093345498342, 0.08506973832845688, -0.7806839346885681, 0.8428843021392822, -0.14948344230651855, 0.8001818060874939, 0.5808303356170654, -0.03214186429977417, -0.0921739935874939, 0.0039017200469970703, -0.8850440202034812, -0.08433415560307139, 0.455964617555904,-0.04100172274721364,-0.1816253662109375,0.7080078125,0.5847320556640625
20220117-1835,2022-01-17 18:35:13Z,u01, 133,40,movements,el-ex, rt, d,191642.30446912503, -2.933554616276282, -0.9375638642473462, -2.857017529160394, 0.2303364872932434, -0.7028821110725403, 0.8341141939163208, -0.12222112715244293, 0.806118905544281, 0.5789940357208252, 0.05001663416624069, 0.16310405731201172, 0.16705381870269775, -0.884982730834361, -0.07938875654002886, 0.4579525205998602,-0.027971484483079817,-0.049560546875,1.003509521484375,0.7580108642578125
20220117-1835,2022-01-17 18:35:13Z,u01, 134,40,movements,el-ex, rt, d,191642.32941612502, -2.9797291152546763, -0.9466973399926546, -2.889947814089394, 0.10403907299041748, -0.8335435390472412, 0.8148604035377502, -0.09417503327131271, 0.811489999294281, 0.5767273902893066, 0.05477692931890488, 0.05841344594955444, 0.08490872383117676, -0.8847451691760158, -0.074764235758768, 0.45981489950883797,-0.0143655015702088,-0.039398193359375,0.869903564453125,0.6616363525390625
20220117-1835,2022-01-17 18:35:13Z,u01, 135,40,movements,el-ex, rt, d,191642.35436312502, -3.0298355964958694, -0.9477785270316714, -2.925367873042687, -0.225576713681221, -0.8525980710983276, 0.8560777902603149, -0.06507331877946854, 0.8121213316917419, 0.5798486471176147, -0.015554070472717285, -0.09704864025115967, -0.0714716911315918, -0.8859744934968713, -0.0705231615186035, 0.4583400716786251,-0.00024048975145732343,-0.0881805419921875,0.690216064453125,0.4847412109375
20220117-1835,2022-01-17 18:35:13Z,u01, 136,40,movements,el-ex, rt, d,191642.37931012502, -3.0802604987291398, -0.9431758347005617, -2.962234821644093, -0.16445434093475342, -0.7983497381210327, 0.8208210468292236, -0.03599289059638977, 0.8094270825386047, 0.5861158967018127, -0.028689049184322357, -0.017267227172851562, -0.07993626594543457, -0.8880984131866458, -0.06587221949566174, 0.4547094306672409,0.013462779837865091,-0.0646820068359375,0.7921600341796875,0.5061798095703125
20220117-1835,2022-01-17 18:35:13Z,u01, 137,40,movements,el-ex, rt, d,191642.40425712502, -3.1259252931784736, -0.9464013644474871, -2.9950681764064733, 0.29393211007118225, -0.7335233688354492, 0.7316530346870422, -0.009158872067928314, 0.811316967010498, 0.5845351219177246, 0.0206182599067688, 0.168251633644104, 0.09850937128067017, -0.887960646049856, -0.061590970421713465, 0.4550114698007252,0.026403379735344984,0.0306854248046875,1.0106201171875,0.7225189208984375
20220117-1835,2022-01-17 18:35:13Z,u01, 138,40,movements,el-ex, rt, d,191642.42920412502, 3.1136933134051796, -0.9539902769154806, -3.025644600607925, 0.2329643964767456, -0.7830325365066528, 0.7005659937858582, 0.016135800629854202, 0.815730094909668, 0.5782077312469482, 0.07030528783798218, 0.06935596466064453, 0.07795071601867676, -0.8864286672737254, -0.05786252123684027, 0.4575778483734895,0.03897043201593253,0.0864410400390625,0.8850860595703125,0.656158447265625
20220117-1835,2022-01-17 18:35:13Z,u01, 139,40,movements,el-ex, rt, d,191642.454150125, 3.0678932293377517, -0.9550153990662944, -3.057204833998443, -0.07249805331230164, -0.8008903861045837, 0.747263491153717, 0.04252999275922775, 0.8163226246833801, 0.5760284066200256, -0.0029333792626857758, -0.08281725645065308, -0.07619625329971313, -0.8860360510670763, -0.05435369663781214, 0.4574661307796684,0.05206331223670155,0.031219482421875,0.71759033203125,0.4749755859375
20220117-1835,2022-01-17 18:35:13Z,u01, 140,40,movements,el-ex, rt, d,191642.479097125, 3.022456030755648, -0.94902419819219, -3.0885752284926054, -0.17040474712848663, -0.7796624898910522, 0.7340284585952759, 0.06923025846481323, 0.8128474950790405, 0.5783478021621704, -0.00557052344083786, -0.015377283096313477, -0.10045784711837769, -0.8869051302152531, -0.05072672058841643, 0.4545302332697382,0.06502607186347911,0.06365966796875,0.7974700927734375,0.4778900146484375
20220117-1835,2022-01-17 18:35:13Z,u01, 141,40,movements,el-ex, rt, d,191642.504044125, 2.9798607089266422, -0.9477829920215523, -3.118528465285764, 0.2176791876554489, -0.6593567132949829, 0.645271360874176, 0.0939573273062706, 0.8121238946914673, 0.5758706331253052, 0.02236051857471466, 0.13035058975219727, 0.1815451979637146, -0.8864073583776464, -0.04708821229376392, 0.4540019488904779,0.07711669221188486,0.136383056640625,0.972564697265625,0.7919158935546875
20220117-1835,2022-01-17 18:35:13Z,u01, 142,40,movements,el-ex, rt, d,191642.528991125, 2.939967939864016, -0.9501019988834509, 3.1364379854891, 0.09005630761384964, -0.7297475934028625, 0.6330134868621826, 0.11647197604179382, 0.8134748339653015, 0.5698180198669434, 0.09412986785173416, 0.06257790327072144, 0.05005490779876709, -0.8848699399977457, -0.043751412615763374, 0.455290750122991,0.08832439498330394,0.210601806640625,0.8760528564453125,0.619873046875
20220117-1835,2022-01-17 18:35:13Z,u01, 143,40,movements,el-ex, rt, d,191642.553938125, 2.9004522688376726, -0.9434897135168364, 3.111304773820763, -0.3087945878505707, -0.7750563621520996, 0.6389212608337402, 0.1401735246181488, 0.8096113801002502, 0.569983184337616, 0.0016417205333709717, -0.029429495334625244, -0.12633395195007324, -0.8850361895819127, -0.041261721123643735, 0.45271285298228037,0.100296997217284,0.1270904541015625,0.7714080810546875,0.4283294677734375
20220117-1835,2022-01-17 18:35:13Z,u01, 144,40,movements,el-ex, rt, d,191642.57888512503, 2.8626320718210976, -0.9333160732090854, 3.0875591745370343, -0.06173165887594223, -0.6948323249816895, 0.658340334892273, 0.16388468444347382, 0.8035979866981506, 0.5721645355224609, -0.05191563069820404, -0.02359914779663086, -0.008077561855316162, -0.8857705903597782, -0.03863586728038765, 0.4487263406186581,0.11208237828516865,0.111968994140625,0.779998779296875,0.5640869140625
20220117-1835,2022-01-17 18:35:13Z,u01, 145,40,movements,el-ex, rt, d,191642.60383212502, 2.825179349999346, -0.932915013243293, 3.060395815737881, 0.35050690174102783, -0.6073083281517029, 0.5920827388763428, 0.18529407680034637, 0.8033592104911804, 0.5659328699111938, 0.011498600244522095, 0.08880692720413208, 0.1206057071685791, -0.8841615852988549, -0.03499619986565661, 0.4494539867631252,0.12257513262227895,0.2286224365234375,0.9130401611328125,0.66912841796875
20220117-1835,2022-01-17 18:35:13Z,u01, 146,40,movements,el-ex, rt, d,191642.62877912502, 2.7847551785142834, -0.9375393259017023, 3.0316110460082255, 0.376516729593277, -0.7633587718009949, 0.5776879787445068, 0.2067139893770218, 0.8061043620109558, 0.5544954538345337, 0.04542234539985657, 0.020815253257751465, -0.032324373722076416, -0.8810426956862005, -0.03180388155382963, 0.45264724037825876,0.13365178674234957,0.25213623046875,0.8269195556640625,0.5221710205078125
20220117-1835,2022-01-17 18:35:13Z,u01, 147,40,movements,el-ex, rt, d,191642.65372612502, 2.742679611696007, -0.9376151808653213, 3.0038399373565974, 0.12176922708749771, -0.7968425154685974, 0.6746810674667358, 0.2298310101032257, 0.8061492443084717, 0.5452530980110168, -0.016116395592689514, -0.08427125215530396, -0.1224474310874939, -0.8785089182704926, -0.029131076096375996, 0.45398006714897843,0.145861280428811,0.2101898193359375,0.70068359375,0.435028076171875
20220117-1835,2022-01-17 18:35:13Z,u01, 148,40,movements,el-ex, rt, d,191642.678672625, 2.6992547735906873, -0.9332648201827062, 2.9735469082932102, 0.15176986157894135, -0.7297031283378601, 0.7451781034469604, 0.2547832131385803, 0.8035674691200256, 0.537926197052002, -0.0024333596229553223, -0.08632820844650269, 0.03839820623397827, -0.8765427717486171, -0.025216515538599382, 0.453816654654983,0.15838962626351247,0.252349853515625,0.7172393798828125,0.576324462890625
20220117-1835,2022-01-17 18:35:13Z,u01, 149,40,movements,el-ex, rt, d,191642.703619625, 2.6575514126408692, -0.9280154676068987, 2.944101095402348, 0.05675620585680008, -0.7399582862854004, 0.7219456434249878, 0.2789478003978729, 0.8004319667816162, 0.5305628180503845, 0.07018861174583435, 0.05070328712463379, 0.0922093391418457, -0.8745480863590526, -0.021143907685591934, 0.4535051802787974,0.170445482351695,0.365753173828125,0.8586883544921875,0.62017822265625
20220117-1835,2022-01-17 18:35:13Z,u01, 150,40,movements,el-ex, rt, d,191642.728565625, 2.6175773101494593, -0.919080600620936, 2.917984074772575, -0.058594584465026855, -0.780949592590332, 0.7400610446929932, 0.3034943640232086, 0.7950443029403687, 0.5251622796058655, 0.06972038745880127, -0.013367116451263428, 0.01171797513961792, -0.8730818780335203, -0.017583565461237127, 0.4516255444227515,0.18290193217697417,0.3732147216796875,0.78167724609375,0.5368804931640625
20220117-1835,2022-01-17 18:35:13Z,u01, 151,40,movements,el-ex, rt, d,191642.753512625, 2.577408846582369, -0.9081643174053923, 2.8924247114683497, -0.025621891021728516, -0.7883031964302063, 0.8060932755470276, 0.3289603888988495, 0.7883757948875427, 0.5198544859886169, 0.012546628713607788, -0.06372064352035522, -0.06547832489013672, -0.8716272473293926, -0.013899218444551331, 0.4491203012961216,0.19586654711983806,0.337860107421875,0.7170562744140625,0.44451904296875
20220117-1835,2022-01-17 18:35:13Z,u01, 152,40,movements,el-ex, rt, d,191642.778459625, 2.5358938872158796, -0.8975001983878789, 2.8646283313318985, 0.11350208520889282, -0.7772318124771118, 0.8227764368057251, 0.3550192415714264, 0.7817705869674683, 0.5126367807388306, 0.004874676465988159, -0.010591208934783936, -0.009569764137268066, -0.8696144621594037, -0.009437634320426158, 0.4472246486460296,0.20897808766678622,0.359893798828125,0.77117919921875,0.5030670166015625
20220117-1835,2022-01-17 18:35:13Z,u01, 153,40,movements,el-ex, rt, d,191642.80340662503, 2.4944639988548096, -0.8901597839520496, 2.834391399941327, 0.24215814471244812, -0.6778360605239868, 0.7486914396286011, 0.37939637899398804, 0.777172327041626, 0.5020571947097778, 0.03220948576927185, 0.08618515729904175, 0.15703076124191284, -0.8666081595196615, -0.004348573529903033, 0.4472892371162257,0.2211417645438481,0.4356231689453125,0.8703460693359375,0.653717041015625
20220117-1835,2022-01-17 18:35:13Z,u01, 154,40,movements,el-ex, rt, d,191642.82835362502, 2.4548268707989793, -0.8819185589451519, 2.8062349177779287, 0.0552796870470047, -0.7654123902320862, 0.7630186080932617, 0.4030405580997467, 0.7719599008560181, 0.49156486988067627, 0.049458831548690796, 0.013425171375274658, -0.012439042329788208, -0.8635868441725935, 0.0004387400416630549, 0.4470682015875962,0.2331255140596755,0.4524993896484375,0.7853851318359375,0.4791259765625
20220117-1835,2022-01-17 18:35:14Z,u01, 155,40,movements,el-ex, rt, d,191642.85330062502, 2.4185026894031965, -0.8680587675532694, 2.7850035350867017, -0.1301557570695877, -0.7979955077171326, 0.7882630825042725, 0.42766568064689636, 0.7630757689476013, 0.48457974195480347, -0.021537750959396362, -0.03233230113983154, -0.08518099784851074, -0.8615526391620828, 0.004113031510957488, 0.4440239244233265,0.24607499562910473,0.3990478515625,0.7293548583984375,0.406829833984375
20220117-1835,2022-01-17 18:35:14Z,u01, 156,40,movements,el-ex, rt, d,191642.87824762502, 2.383043535610708, -0.8537237356134785, 2.7641221960884192, 0.06828220188617706, -0.7575426697731018, 0.7661998271942139, 0.4520546495914459, 0.7537328004837036, 0.4770050048828125, -0.01391369104385376, 0.03569602966308594, 0.034606993198394775, -0.8593237095326961, 0.008078824015103292, 0.4409954776858075,0.25888334922511796,0.438140869140625,0.7894287109375,0.5116119384765625
20220117-1835,2022-01-17 18:35:14Z,u01, 157,40,movements,el-ex, rt, d,191642.90319462502, 2.3466088140005144, -0.8435042952213797, 2.7402337096098, 0.2096906304359436, -0.7480146884918213, 0.7357197403907776, 0.4746040999889374, 0.7469775080680847, 0.4655914008617401, 0.04289776086807251, 0.10536307096481323, 0.08139035105705261, -0.8559450150867405, 0.01240286729553175, 0.4402715139872877,0.27086017148712166,0.5289154052734375,0.8485565185546875,0.524444580078125
20220117-1835,2022-01-17 18:35:14Z,u01, 158,40,movements,el-ex, rt, d,191642.92814162502, 2.308491145704671, -0.8340357674459757, 2.7150078713263914, 0.19067169725894928, -0.7895590662956238, 0.7457391619682312, 0.49721449613571167, 0.7406489849090576, 0.4519039988517761, 0.02401059865951538, 0.03902953863143921, -0.07997095584869385, -0.8518621027598723, 0.016821465235079824, 0.4403147069300315,0.28314502516255874,0.5212249755859375,0.7796783447265625,0.3719329833984375
20220117-1835,2022-01-17 18:35:14Z,u01, 159,40,movements,el-ex, rt, d,191642.953088625, 2.2704467096411522, -0.8222538061356556, 2.6905264120705645, 0.2578340172767639, -0.794432520866394, 0.8244375586509705, 0.5206830501556396, 0.7326815724372864, 0.438254177570343, 0.012657403945922852, -0.029480278491973877, -0.08875179290771484, -0.8477410145296062, 0.02150025415560236, 0.4396434521530968,0.2959501417469947,0.5424346923828125,0.6910400390625,0.3732757568359375
20220117-1835,2022-01-17 18:35:14Z,u01, 160,40,movements,el-ex, rt, d,191642.978035625, 2.2307585636180995, -0.8114198424495889, 2.6617156486059863, 0.3700844943523407, -0.6785603165626526, 0.7720046639442444, 0.5439012050628662, 0.7252654433250427, 0.42209145426750183, 0.025495707988739014, 0.042739808559417725, 0.16061106324195862, -0.8427874326369406, 0.027478677429208176, 0.44033051519466604,0.3083231670777295,0.56939697265625,0.76800537109375,0.58270263671875
20220117-1835,2022-01-17 18:35:14Z,u01, 161,40,movements,el-ex, rt, d,191643.002981625, 2.195623415329313, -0.8012797843289347, 2.6366209425144005, 0.20376339554786682, -0.7194651961326599, 0.7107321619987488, 0.5643287301063538, 0.71824711561203, 0.40700605511665344, 0.06848371028900146, 0.03973311185836792, 0.0696326196193695, -0.8381115543893827, 0.032742089475342406, 0.44097076146586245,0.31943964901810606,0.6277618408203125,0.75372314453125,0.4464874267578125
20220117-1835,2022-01-17 18:35:14Z,u01, 162,40,movements,el-ex, rt, d,191643.027928625, 2.16590669063568, -0.7883094690542094, 2.6212095403304825, -0.05637633800506592, -0.7621661424636841, 0.6646988391876221, 0.5838384628295898, 0.7091624140739441, 0.3952484130859375, -0.007941246032714844, 0.012227356433868408, -0.07073989510536194, -0.8344677488995897, 0.03588562482856866, 0.43915086751369103,0.3309415142750903,0.575897216796875,0.7213897705078125,0.3245086669921875
20220117-1835,2022-01-17 18:35:14Z,u01, 163,40,movements,el-ex, rt, d,191643.052875625, 2.1394047469420565, -0.7735127768881668, 2.6113557540190935, -0.05417497083544731, -0.7566254138946533, 0.6736292243003845, 0.6028838157653809, 0.6986528038978577, 0.38524699211120605, -0.014031946659088135, 0.03239572048187256, -0.025414258241653442, -0.8313733692260064, 0.037971297220652345, 0.4358310206427773,0.34267738472528414,0.592559814453125,0.724273681640625,0.4108428955078125
20220117-1835,2022-01-17 18:35:14Z,u01, 164,40,movements,el-ex, rt, d,191643.07782262503, 2.114259369692967, -0.7598460578035576, 2.5996995063751696, 0.011196312494575977, -0.6308717727661133, 0.6048866510391235, 0.6204946041107178, 0.688809871673584, 0.37486982345581055, 0.028843164443969727, 0.09257745742797852, 0.14281511306762695, -0.8281073283977602, 0.04090434177090402, 0.43334241548681685,0.35324130139965976,0.6493377685546875,0.7813873291015625,0.5176849365234375
20220117-1835,2022-01-17 18:35:14Z,u01, 165,40,movements,el-ex, rt, d,191643.10276962502, 2.092068074175323, -0.7467360130109414, 2.59088235638812, -0.10678565502166748, -0.6641361117362976, 0.5653321743011475, 0.6364368796348572, 0.6792469024658203, 0.36547496914863586, 0.0425029993057251, 0.07192808389663696, 0.04283490777015686, -0.8251475047151204, 0.04323280960788256, 0.4306148875007933,0.3630887022118524,0.6738128662109375,0.739898681640625,0.37774658203125
20220117-1835,2022-01-17 18:35:14Z,u01, 166,40,movements,el-ex, rt, d,191643.12771662502, 2.072023378301885, -0.7329839643400363, 2.5870598837283856, -0.23208904266357422, -0.7139714360237122, 0.5113513469696045, 0.6517650485038757, 0.669090211391449, 0.3571000099182129, -0.006074190139770508, 0.024635255336761475, -0.06722882390022278, -0.8225540874660682, 0.044212877011463425, 0.42677718185103247,0.37324413538256207,0.64569091796875,0.6937255859375,0.2898712158203125
20220117-1835,2022-01-17 18:35:14Z,u01, 167,40,movements,el-ex, rt, d,191643.15266362502, 2.053888398548925, -0.7182284330169829, 2.58574149079725, -0.20182867348194122, -0.6484380960464478, 0.5372486114501953, 0.6668046116828918, 0.6580517888069153, 0.34977057576179504, -0.02161717414855957, 0.001967132091522217, 0.03902328014373779, -0.8202845560688978, 0.04492807142413624, 0.42210725031142227,0.3833277507832154,0.6474456787109375,0.6677093505859375,0.415130615234375
20220117-1835,2022-01-17 18:35:14Z,u01, 168,40,movements,el-ex, rt, d,191643.17761062502, 2.0366704062408196, -0.7054451751520582, 2.5832241399764952, -0.13752612471580505, -0.6137190461158752, 0.446525901556015, 0.6801883578300476, 0.6483728289604187, 0.34198933839797974, 0.025256037712097168, 0.07635867595672607, 0.09636512398719788, -0.8178575773123232, 0.045865516053569644, 0.4183891785833971,0.3923721696380385,0.7054443359375,0.7247314453125,0.4383544921875
20220117-1835,2022-01-17 18:35:14Z,u01, 169,40,movements,el-ex, rt, d,191643.20255762502, 2.0203834304829367, -0.6940458495932624, 2.5818743856071498, -0.24643468856811523, -0.6285380721092224, 0.4204944372177124, 0.6922797560691833, 0.6396523118019104, 0.3340567946434021, 0.015346646308898926, 0.06394577026367188, 0.03326800465583801, -0.8154103050932748, 0.046199853484198916, 0.4149465865881699,0.40098759362110603,0.7066497802734375,0.6871337890625,0.339111328125
20220117-1835,2022-01-17 18:35:14Z,u01, 170,40,movements,el-ex, rt, d,191643.227504625, 2.006384092572049, -0.6808416052863024, 2.5849396472354305, -0.35505348443984985, -0.6412384510040283, 0.4610939919948578, 0.7044844627380371, 0.6294472217559814, 0.32786813378334045, -0.006410181522369385, -0.013190627098083496, -0.05111962556838989, -0.8135345772450779, 0.0457773360954532, 0.40992510746160316,0.4099112206818587,0.6980743408203125,0.6162567138671875,0.2767486572265625
20220117-1835,2022-01-17 18:35:14Z,u01, 171,40,movements,el-ex, rt, d,191643.252450625, 1.9926039407391263, -0.6671486669696772, 2.5868704796802597, -0.18845701217651367, -0.5701828598976135, 0.461247980594635, 0.7167325019836426, 0.6187485456466675, 0.32162827253341675, -0.011456012725830078, -0.00951087474822998, 0.04362130165100098, -0.8115984246444525, 0.04606655224274814, 0.40494951753600245,0.41857106714381875,0.7169952392578125,0.614349365234375,0.371063232421875
20220117-1835,2022-01-17 18:35:14Z,u01, 172,40,movements,el-ex, rt, d,191643.277397625, 1.9769874280921007, -0.6554905158690867, 2.585365309289907, -0.12424300611019135, -0.6170268058776855, 0.42877712845802307, 0.7282447218894958, 0.6095481514930725, 0.31322550773620605, 0.0276603102684021, 0.028497934341430664, 0.02039247751235962, -0.8089603249434367, 0.04686096557626124, 0.40147448560621557,0.42685513997821284,0.7559051513671875,0.6380462646484375,0.3336181640625
20220117-1835,2022-01-17 18:35:14Z,u01, 173,40,movements,el-ex, rt, d,191643.302344625, 1.9603289437118898, -0.6442287808074423, 2.5838466596822847, -0.08085405081510544, -0.6408078670501709, 0.46166595816612244, 0.7396653294563293, 0.6005820035934448, 0.3036390244960785, 0.00851893424987793, 0.02167147397994995, -0.002644270658493042, -0.8059610694686821, 0.04739485920590519, 0.39819460342718466,0.43545564701803285,0.7475738525390625,0.6058502197265625,0.3017120361328125
20220117-1835,2022-01-17 18:35:14Z,u01, 174,40,movements,el-ex, rt, d,191643.327291625, 1.9388837878236798, -0.6335068287095807, 2.5743595524051597, 0.35595589876174927, -0.6401668190956116, 0.5426793694496155, 0.7519711256027222, 0.5919747352600098, 0.2900085747241974, 0.0016145706176757812, -0.022867798805236816, -0.010742366313934326, -0.8015589277988209, 0.05007573341301558, 0.3970191753950577,0.44426494093798025,0.7535858154296875,0.5691070556640625,0.279266357421875
20220117-1835,2022-01-17 18:35:14Z,u01, 175,40,movements,el-ex, rt, d,191643.35223862503, 1.9131007920216274, -0.6240598658876125, 2.5588210242546756, 0.1995067000389099, -0.703609049320221, 0.5145745873451233, 0.7644317150115967, 0.5843346118927002, 0.27239134907722473, 0.013186633586883545, 0.01342839002609253, -0.005988270044326782, -0.79579160675493, 0.05395735125683859, 0.3978770217605623,0.4533190320261761,0.7862548828125,0.5976104736328125,0.2676239013671875
20220117-1835,2022-01-17 18:35:14Z,u01, 176,40,movements,el-ex, rt, d,191643.37718562502, 1.8924492546908416, -0.6115361802212402, 2.5544788803936727, -0.24205419421195984, -0.7522624135017395, 0.5152726173400879, 0.7767758369445801, 0.5741258859634399, 0.25884103775024414, 0.0058779120445251465, -0.008436858654022217, 0.04490026831626892, -0.7914271625502332, 0.055349441549145784, 0.39510386068613945,0.4631116645250142,0.78265380859375,0.5656890869140625,0.303741455078125
20220117-1835,2022-01-17 18:35:14Z,u01, 177,40,movements,el-ex, rt, d,191643.40213262502, 1.8769584353671722, -0.5973679060110686, 2.5603523989514576, -0.4228762090206146, -0.7574859261512756, 0.45149755477905273, 0.7883695363998413, 0.5624681711196899, 0.2492043823003769, 0.000341951847076416, 0.023499727249145508, 0.03334255516529083, -0.7884508419417305, 0.0542905363817654, 0.38927136682842167,0.47314429151202364,0.796173095703125,0.583648681640625,0.27593994140625
20220117-1835,2022-01-17 18:35:14Z,u01, 178,40,movements,el-ex, rt, d,191643.42707962502, 1.862827115228448, -0.5838647375267991, 2.568973930139159, -0.41159266233444214, -0.7547340989112854, 0.4231679141521454, 0.7990134358406067, 0.551252543926239, 0.24020402133464813, 0.010312676429748535, 0.02299666404724121, -0.0014803558588027954, -0.7857270980822684, 0.0522966342740781, 0.3829368130706421,0.4829671911105199,0.809326171875,0.574249267578125,0.2387237548828125
20220117-1835,2022-01-17 18:35:14Z,u01, 179,40,movements,el-ex, rt, d,191643.45202662502, 1.848478657115079, -0.5712033706666348, 2.5755204123330566, -0.34625864028930664, -0.6821799874305725, 0.41878700256347656, 0.8090255856513977, 0.5406447649002075, 0.23061005771160126, 0.008372604846954346, 0.01558387279510498, 0.02741602063179016, -0.7827606582653421, 0.05089968223275965, 0.3773531711815419,0.4922393857945118,0.822723388671875,0.56121826171875,0.259033203125
20220117-1835,2022-01-17 18:35:14Z,u01, 180,40,movements,el-ex, rt, d,191643.47697362502, 1.8366370033372994, -0.5592529711349676, 2.5832751377838483, -0.39351698756217957, -0.5989500880241394, 0.37148526310920715, 0.8178753852844238, 0.5305531024932861, 0.2226954847574234, 0.023478984832763672, 0.06875109672546387, -0.0004208087921142578, -0.7803280628521676, 0.04935441149139086, 0.3716144011036159,0.5005547047190843,0.8413543701171875,0.59930419921875,0.2222747802734375
20220117-1835,2022-01-17 18:35:14Z,u01, 181,40,movements,el-ex, rt, d,191643.501920625, 1.8256567486610047, -0.5486223200183223, 2.588847671760429, -0.14945702254772186, -0.5185561776161194, 0.3577306568622589, 0.8256825804710388, 0.5215122103691101, 0.21511153876781464, 0.006028115749359131, 0.07091015577316284, 0.0012427270412445068, -0.7779502473005261, 0.04846838916760521, 0.36682234894695653,0.507824251012925,0.83355712890625,0.58612060546875,0.22113037109375
20220117-1835,2022-01-17 18:35:14Z,u01, 182,40,movements,el-ex, rt, d,191643.526866625, 1.8125751431468127, -0.5400751368640697, 2.5865176877117206, 0.09000524133443832, -0.4446595311164856, 0.33820196986198425, 0.8327234983444214, 0.5142004489898682, 0.20535199344158173, 0.002115309238433838, 0.03680962324142456, 0.06591866910457611, -0.7747321684811949, 0.049659516065221454, 0.3648065160227653,0.5140429747578941,0.8348388671875,0.5510101318359375,0.271270751953125
20220117-1835,2022-01-17 18:35:14Z,u01, 183,40,movements,el-ex, rt, d,191643.551813625, 1.7994991156983362, -0.5330919645149252, 2.581569682672212, 0.07464492321014404, -0.3920767903327942, 0.28226569294929504, 0.8388143181800842, 0.5081986784934998, 0.19525538384914398, -0.002205491065979004, 0.042628347873687744, 0.07625937461853027, -0.7713535973507011, 0.05139377879619772, 0.36403159636882554,0.5194740956728758,0.836517333984375,0.5536651611328125,0.277252197265625
20220117-1835,2022-01-17 18:35:14Z,u01, 184,40,movements,el-ex, rt, d,191643.576760625, 1.7898559936376186, -0.5267030267414957, 2.5801817095088686, -0.12358216941356659, -0.318144291639328, 0.24430042505264282, 0.8438100814819336, 0.5026859641075134, 0.18785935640335083, 0.0009926557540893555, 0.01837104558944702, 0.06044682860374451, -0.7688980877372631, 0.05220546472657944, 0.3624720030130952,0.524103303136201,0.8448028564453125,0.52105712890625,0.2483062744140625
20220117-1835,2022-01-17 18:35:14Z,u01, 185,40,movements,el-ex, rt, d,191643.601707625, 1.7852940350366089, -0.5197149666240966, 2.5855552593051385, -0.3432905673980713, -0.25977736711502075, 0.21253237128257751, 0.8480700850486755, 0.49663275480270386, 0.1847512423992157, 0.024488508701324463, 0.0017192661762237549, 0.061327219009399414, -0.767931464603609, 0.05154497268044744, 0.3588041589276934,0.5280946276523381,0.873809814453125,0.4974212646484375,0.2509307861328125
20220117-1835,2022-01-17 18:35:14Z,u01, 186,40,movements,el-ex, rt, d,191643.626654625, 1.7841321469067963, -0.5131270819999627, 2.594348826769007, -0.32498079538345337, -0.17292742431163788, 0.16912204027175903, 0.851463258266449, 0.4909040033817291, 0.18445445597171783, -0.01438140869140625, 0.0397966206073761, 0.10477577149868011, -0.7679328961765524, 0.050062875781710314, 0.35426269865732707,0.5312915041503661,0.8370819091796875,0.53070068359375,0.2892303466796875
20220117-1835,2022-01-17 18:35:14Z,u01, 187,40,movements,el-ex, rt, d,191643.65160162502, 1.7837456906548457, -0.5089638789004423, 2.600368619313135, -0.12698982656002045, -0.09913603961467743, 0.07405146211385727, 0.8535248041152954, 0.487272709608078, 0.18455573916435242, -0.03226625919342041, 0.09587240219116211, 0.0920097827911377, -0.7680337017295933, 0.049011275149953126, 0.35124915726284706,0.5332412266239535,0.82061767578125,0.5828399658203125,0.26336669921875
20220117-1835,2022-01-17 18:35:14Z,u01, 188,40,movements,el-ex, rt, d,191643.67654866667, 1.782944612800463, -0.5074091098753168, 2.601919284491106, -0.054373111575841904, -0.01802940107882023, 0.0171674694865942, 0.8544120788574219, 0.4859144389629364, 0.18403127789497375, -0.025783419609069824, 0.06910881400108337, 0.09383119642734528, -0.7678782357197138, 0.04877142023724451, 0.350323519984247,0.5340954484101015,0.8286285400390625,0.555023193359375,0.277862548828125
20220117-1835,2022-01-17 18:35:14Z,u01, 189,40,movements,el-ex, rt, d,191643.70149566667, 1.7851499526794623, -0.5077773980697061, 2.6046812804669894, -0.12375438213348389, 0.08499591052532196, -0.09607692807912827, 0.8538288474082947, 0.4862362742424011, 0.18587693572044373, -0.024529099464416504, 0.1088564395904541, 0.12917111814022064, -0.7685287810208312, 0.047978943029521215, 0.3496588645858871,0.533666642571619,0.828887939453125,0.6026611328125,0.31597900390625
20220117-1835,2022-01-17 18:35:14Z,u01, 190,40,movements,el-ex, rt, d,191643.72644266667, 1.7910447905425002, -0.5104794108171649, 2.609663670751284, -0.17303940653800964, 0.1976129412651062, -0.1870068907737732, 0.8514332175254822, 0.4885956048965454, 0.19061915576457977, -0.04113054275512695, 0.0845855176448822, 0.11083339154720306, -0.7701766968994127, 0.04623235366668682, 0.3491197864100888,0.5317948364600372,0.810302734375,0.57318115234375,0.30145263671875
20220117-1835,2022-01-17 18:35:14Z,u01, 191,40,movements,el-ex, rt, d,191643.75138966666, 1.801490414933096, -0.5151182142863008, 2.6175408785699203, -0.2625175416469574, 0.32059866189956665, -0.29423603415489197, 0.847180187702179, 0.4926377236843109, 0.19898197054862976, -0.032131969928741455, 0.10942831635475159, 0.0849992036819458, -0.7730425600401232, 0.0435452496789861, 0.3483960650769778,0.5283268074222777,0.8194122314453125,0.6168212890625,0.279083251953125
20220117-1835,2022-01-17 18:35:14Z,u01, 192,40,movements,el-ex, rt, d,191643.77633566668, 1.8149503323318577, -0.5223866594020697, 2.625863351719113, -0.13171087205410004, 0.4285944998264313, -0.4000566005706787, 0.8409286141395569, 0.49894991517066956, 0.20949548482894897, -0.02516305446624756, 0.15069305896759033, 0.07984164357185364, -0.7766062892875534, 0.040378378861165576, 0.34844526284464866,0.523295595993589,0.815765380859375,0.6496429443359375,0.289337158203125
20220117-1835,2022-01-17 18:35:14Z,u01, 193,40,movements,el-ex, rt, d,191643.80128266668, 1.8297931304809347, -0.5327317345091225, 2.6308392170284343, -0.0067048571072518826, 0.5587634444236755, -0.4875413477420807, 0.8326921463012695, 0.5078884363174438, 0.2206198126077652, -0.008793830871582031, 0.14561498165130615, 0.11980366706848145, -0.7803080919744214, 0.03780458209809329, 0.3504686813540929,0.5165866415677391,0.8292388916015625,0.6480560302734375,0.3470001220703125
20220117-1835,2022-01-17 18:35:14Z,u01, 194,40,movements,el-ex, rt, d,191643.82622966668, 1.847329868835392, -0.5457345454832387, 2.634588433904196, 0.004814446903765202, 0.6947265267372131, -0.5824776291847229, 0.8222723603248596, 0.5190460681915283, 0.23336496949195862, 0.0018395185470581055, 0.1054808497428894, 0.12219521403312683, -0.7844929904111653, 0.0354010078145246, 0.3537454793832709,0.5081157242910992,0.8241119384765625,0.6245269775390625,0.355560302734375
20220117-1835,2022-01-17 18:35:15Z,u01, 195,40,movements,el-ex, rt, d,191643.85117666668, 1.8697852629852654, -0.5604668481898565, 2.6416173128508915, -0.144124835729599, 0.8056479692459106, -0.6821839213371277, 0.809429407119751, 0.531581699848175, 0.2494894415140152, 0.005878269672393799, 0.10472506284713745, 0.09233784675598145, -0.7897552345752581, 0.03211524787348108, 0.3567972851452399,0.4979467672369925,0.8130950927734375,0.6448974609375,0.3416900634765625
20220117-1835,2022-01-17 18:35:15Z,u01, 196,40,movements,el-ex, rt, d,191643.87612366668, 1.8968668833752755, -0.5764981313918478, 2.6527404977002784, -0.14143399894237518, 0.8859161138534546, -0.7692142724990845, 0.7942013740539551, 0.5450913906097412, 0.26855146884918213, 0.007541358470916748, 0.11500388383865356, 0.0843537449836731, -0.7959317542413251, 0.027719643631951396, 0.3593630552440379,0.4863975533577517,0.8017425537109375,0.66009521484375,0.3529052734375
20220117-1835,2022-01-17 18:35:15Z,u01, 197,40,movements,el-ex, rt, d,191643.90107066667, 1.9267562778990608, -0.5942677117165288, 2.6641167604003786, -0.08091410994529724, 1.0092546939849854, -0.8321855664253235, 0.776618242263794, 0.5599021315574646, 0.28874462842941284, 0.013542771339416504, 0.10831069946289062, 0.105023592710495, -0.8023897409724159, 0.023302783759958312, 0.36264524779680807,0.4734089345599411,0.786041259765625,0.6692352294921875,0.4066009521484375
20220117-1835,2022-01-17 18:35:15Z,u01, 198,40,movements,el-ex, rt, d,191643.92601766667, 1.9593975071298586, -0.6141854874665489, 2.6748166889975065, -0.03318370133638382, 1.104285717010498, -0.9205499887466431, 0.7563095092773438, 0.5762930512428284, 0.3096487522125244, 0.0294419527053833, 0.08244413137435913, 0.11819234490394592, -0.808985329335475, 0.01916030947198144, 0.3670478442740943,0.4587499911242927,0.7857513427734375,0.6587371826171875,0.4278411865234375
20220117-1835,2022-01-17 18:35:15Z,u01, 199,40,movements,el-ex, rt, d,191643.95096466667, 1.9957888444728058, -0.6349623890014687, 2.6885417784177386, -0.14391860365867615, 1.1675211191177368, -0.9613879323005676, 0.7334742546081543, 0.5931472182273865, 0.33195146918296814, 0.0534977912902832, 0.05007171630859375, 0.07875391840934753, -0.8159462660426344, 0.01440242935626923, 0.3712898633192332,0.44290864020755133,0.784088134765625,0.64495849609375,0.4039306640625
20220117-1835,2022-01-17 18:35:15Z,u01, 200,40,movements,el-ex, rt, d,191643.97591166667, 2.037049243857977, -0.6549192897390754, 2.707816165696772, -0.24951793253421783, 1.2070341110229492, -1.0094839334487915, 0.7084411382675171, 0.6090952157974243, 0.35653072595596313, 0.054238975048065186, 0.057637572288513184, 0.03603199124336243, -0.8235229352343925, 0.008679831799327853, 0.374302649037597,0.42618326793318534,0.7626800537109375,0.6667327880859375,0.3925628662109375
20220117-1835,2022-01-17 18:35:15Z,u01, 201,40,movements,el-ex, rt, d,191644.00085866667, 2.0813933028246896, -0.6746424231188659, 2.7299177258335736, -0.22877267003059387, 1.2512884140014648, -1.040822982788086, 0.6813250184059143, 0.6246181130409241, 0.3816392719745636, 0.0635175108909607, 0.06030315160751343, 0.03907597064971924, -0.8311515617129743, 0.0025912879048815562, 0.3770288257148075,0.4086926382122274,0.7381439208984375,0.6867523193359375,0.4304351806640625
20220117-1835,2022-01-17 18:35:15Z,u01, 202,40,movements,el-ex, rt, d,191644.02580566666, 2.1283628092038724, -0.6943400323332974, 2.7538613113115558, -0.2993772029876709, 1.2960436344146729, -1.0807721614837646, 0.6520869135856628, 0.6398783922195435, 0.4066183269023895, 0.050214171409606934, 0.05287063121795654, 0.06576329469680786, -0.8386276024426309, -0.003593037039084812, 0.37983062802346285,0.39040951129677776,0.702301025390625,0.6927490234375,0.472381591796875
20220117-1835,2022-01-17 18:35:15Z,u01, 203,40,movements,el-ex, rt, d,191644.05075166668, 2.182851847980262, -0.7098910687894178, 2.7876233420282577, -0.7976072430610657, 1.3197596073150635, -1.085679531097412, 0.6207535266876221, 0.6517511606216431, 0.4357583522796631, 0.07089686393737793, 0.028928101062774658, 0.055574655532836914, -0.8472020366845553, -0.011308752866229621, 0.37969130190148204,0.37142333075253176,0.6860809326171875,0.6720428466796875,0.5005950927734375
20220117-1835,2022-01-17 18:35:15Z,u01, 204,40,movements,el-ex, rt, d,191644.07569866668, 2.2485858559006644, -0.7144251161172147, 2.8385247104953653, -1.2712583541870117, 1.2962145805358887, -1.0171163082122803, 0.5884814262390137, 0.6551831960678101, 0.4737345576286316, 0.07056093215942383, -0.02137899398803711, -0.004816800355911255, -0.8581354375117695, -0.02169907154072398, 0.3728394870717384,0.3523114963712021,0.6590423583984375,0.6338043212890625,0.4689178466796875
20220117-1835,2022-01-17 18:35:15Z,u01, 205,40,movements,el-ex, rt, d,191644.10064566668, 2.3150993533670317, -0.7139744892144808, 2.890033026919222, -1.128122091293335, 1.3102864027023315, -1.0044407844543457, 0.5559107661247253, 0.654842734336853, 0.5120000839233398, 0.07806140184402466, 0.030292153358459473, -0.0013647675514221191, -0.8689088922669952, -0.031581255504428696, 0.36471049696542385,0.33314584321873564,0.6327972412109375,0.6825103759765625,0.512451171875
20220117-1835,2022-01-17 18:35:15Z,u01, 206,40,movements,el-ex, rt, d,191644.12559266668, 2.3801527567812144, -0.7133859913559081, 2.9381645671293266, -0.933441698551178, 1.3973972797393799, -1.0020657777786255, 0.5217167139053345, 0.6543978452682495, 0.5473341941833496, 0.09429579973220825, 0.008611679077148438, 0.06393265724182129, -0.878639255332111, -0.04074509416021377, 0.3578556131282211,0.3134838428313366,0.6160125732421875,0.6630096435546875,0.61126708984375
20220117-1835,2022-01-17 18:35:15Z,u01, 207,40,movements,el-ex, rt, d,191644.15053966668, 2.4435325875202767, -0.7151142947915382, 2.980302796599685, -0.7232600450515747, 1.4819321632385254, -0.9943879842758179, 0.48527494072914124, 0.6557037234306335, 0.5784122943878174, 0.11343416571617126, 0.009152233600616455, 0.04056030511856079, -0.8870539036053818, -0.048389183923412404, 0.35362274427802537,0.2928220927759199,0.5886993408203125,0.6822052001953125,0.6318206787109375
20220117-1835,2022-01-17 18:35:15Z,u01, 208,40,movements,el-ex, rt, d,191644.17548666667, 2.5062872385607324, -0.7173283625531806, 3.018974694792841, -0.5397357940673828, 1.51199209690094, -0.9573585391044617, 0.4471828043460846, 0.6573737859725952, 0.6065369248390198, 0.11069381237030029, 0.09886705875396729, 0.009093999862670898, -0.8945675609693635, -0.05493042896097461, 0.3507552729432376,0.2714815024419084,0.5578765869140625,0.7562408447265625,0.615631103515625
20220117-1835,2022-01-17 18:35:15Z,u01, 209,40,movements,el-ex, rt, d,191644.20043366667, 2.566080050189907, -0.7224610332257774, 3.0513878784817905, -0.24474918842315674, 1.5943835973739624, -0.8837194442749023, 0.40829697251319885, 0.6612328886985779, 0.6293365955352783, 0.09727248549461365, 0.033164024353027344, 0.05324995517730713, -0.9006094213605322, -0.05975762007485591, 0.3505191709268619,0.24993596377505545,0.4932708740234375,0.676483154296875,0.6957244873046875
20220117-1835,2022-01-17 18:35:15Z,u01, 210,40,movements,el-ex, rt, d,191644.22538066667, 2.6249382694443986, -0.730888912518675, 3.078243241419892, -0.057004909962415695, 1.678360939025879, -0.8672450184822083, 0.3678037226200104, 0.6675317883491516, 0.6473959684371948, 0.09644493460655212, -0.03479558229446411, 0.07423776388168335, -0.9054130650794145, -0.06265113572938574, 0.3528894533369677,0.2275323728028285,0.4642486572265625,0.6327362060546875,0.7216339111328125
20220117-1835,2022-01-17 18:35:15Z,u01, 211,40,movements,el-ex, rt, d,191644.25032766667, 2.685058834975478, -0.7392628834118182, 3.105363299599685, -0.11983663588762283, 1.6696521043777466, -0.8707098960876465, 0.32576510310173035, 0.6737433671951294, 0.6632847189903259, 0.11933374404907227, -0.014594316482543945, 0.006942152976989746, -0.9096043337660971, -0.06528651719522749, 0.3556648019446534,0.20459737923488447,0.436492919921875,0.6713409423828125,0.6560821533203125
20220117-1835,2022-01-17 18:35:15Z,u01, 212,40,movements,el-ex, rt, d,191644.27527466667, 2.7456314263539774, -0.7445569254078587, 3.134408015589812, -0.199811652302742, 1.6464697122573853, -0.8756865859031677, 0.2836357057094574, 0.6776460409164429, 0.6784884333610535, 0.10190814733505249, 0.02349531650543213, 0.029778718948364258, -0.9135559523834369, -0.06826236537332053, 0.3572892806032196,0.18193441564918464,0.3855438232421875,0.701141357421875,0.7082672119140625
20220117-1835,2022-01-17 18:35:15Z,u01, 213,40,movements,el-ex, rt, d,191644.3002206667, 2.8064263236096725, -0.748080719005166, -3.1194516218693695, -0.16414260864257812, 1.6259034872055054, -0.8488211035728455, 0.24110150337219238, 0.6802331805229187, 0.6922085285186768, 0.1148402988910675, -0.027843713760375977, 0.018148958683013916, -0.9170871174197823, -0.07110200868901856, 0.3585198122714337,0.15924575802945862,0.33953857421875,0.6501922607421875,0.7236785888671875
20220117-1835,2022-01-17 18:35:15Z,u01, 214,40,movements,el-ex, rt, d,191644.32516766668, 2.8680458001437827, -0.7500857570888886, -3.0894873829828002, -0.2098875641822815, 1.6480439901351929, -0.8581141829490662, 0.19764861464500427, 0.6817014813423157, 0.7044276595115662, 0.0974411815404892, 0.006042659282684326, 0.03220564126968384, -0.9201882851534106, -0.07394145731290974, 0.359463375787621,0.13628031603382346,0.2950897216796875,0.687744140625,0.73663330078125
20220117-1835,2022-01-17 18:35:15Z,u01, 215,40,movements,el-ex, rt, d,191644.35011466668, 2.929587419029659, -0.7498740011056401, -3.0581201848212007, -0.24078156054019928, 1.6049134731292725, -0.891907274723053, 0.15398050844669342, 0.6815465688705444, 0.7153909206390381, 0.09438683092594147, 0.04736572504043579, -0.013471424579620361, -0.9228851125967906, -0.07732087139478044, 0.35973332417132375,0.11356250610088611,0.247283935546875,0.7338409423828125,0.6982879638671875
20220117-1835,2022-01-17 18:35:15Z,u01, 216,40,movements,el-ex, rt, d,191644.37506166668, 2.990392521520522, -0.7484909617897153, -3.0271275971264373, -0.17197830975055695, 1.607098937034607, -0.8677772283554077, 0.11036521196365356, 0.6805338263511658, 0.7243571281433105, 0.10017561912536621, 0.05457359552383423, 0.012703418731689453, -0.9250260743645509, -0.08065556723217121, 0.35990803138832655,0.09103656175168828,0.210540771484375,0.735107421875,0.737060546875
20220117-1835,2022-01-17 18:35:15Z,u01, 217,40,movements,el-ex, rt, d,191644.40000866668, 3.050651431282414, -0.7491634428953294, -2.9980741011207765, -0.00023979973047971725, 1.6350717544555664, -0.8648288249969482, 0.06650075316429138, 0.6810263991355896, 0.7292328476905823, 0.0960817039012909, 0.011264801025390625, 0.01745593547821045, -0.9261136965908764, -0.08324566835985031, 0.36153141600614824,0.06840013456676602,0.15643310546875,0.69610595703125,0.741973876953125
20220117-1835,2022-01-17 18:35:15Z,u01, 218,40,movements,el-ex, rt, d,191644.42495566668, 3.111784240356408, -0.7505204106170108, -2.9676833553166277, -0.0037265438586473465, 1.5851209163665771, -0.8881591558456421, 0.021796677261590958, 0.6820194721221924, 0.7310090661048889, 0.11505943536758423, 0.04875445365905762, -0.03267538547515869, -0.9263196743765534, -0.08623454853012935, 0.3638850972679842,0.04564062124374674,0.1368560791015625,0.73077392578125,0.698333740234375
20220117-1835,2022-01-17 18:35:15Z,u01, 219,40,movements,el-ex, rt, d,191644.44990266667, -3.1114215827346374, -0.7504924822659538, -2.9368461488464117, -0.03096252679824829, 1.5373995304107666, -0.912468433380127, -0.022062359377741814, 0.6819990277290344, 0.7310202717781067, 0.12258732318878174, 0.06508660316467285, -0.025926947593688965, -0.9260058367319133, -0.08957303435095249, 0.36597564764043206,0.023488372007793468,0.0826873779296875,0.7360687255859375,0.7097930908203125
20220117-1835,2022-01-17 18:35:15Z,u01, 220,40,movements,el-ex, rt, d,191644.47484966667, -3.0519561643153534, -0.748528284710908, -2.906145526317485, 0.02272883430123329, 1.529120683670044, -0.8530886769294739, -0.06558797508478165, 0.6805611848831177, 0.7297499179840088, 0.11063196510076523, -0.0384865403175354, -0.021650493144989014, -0.9253302554774043, -0.0929455451323164, 0.36759069059849936,0.001482638221324939,0.0450439453125,0.6420745849609375,0.708099365234375
20220117-1835,2022-01-17 18:35:15Z,u01, 221,40,movements,el-ex, rt, d,191644.49979666667, -2.9927796915224083, -0.7467428939190728, -2.8760234643006566, 0.007257531397044659, 1.5727431774139404, -0.8880289196968079, -0.10881193727254868, 0.6792519688606262, 0.7257937788963318, 0.10005346685647964, -0.00847560167312622, 0.010900437831878662, -0.9239427624573913, -0.09605549672463021, 0.3697092472865182,-0.020448627667879915,-0.00811767578125,0.6776580810546875,0.7311553955078125
20220117-1835,2022-01-17 18:35:15Z,u01, 222,40,movements,el-ex, rt, d,191644.52474366667, -2.934645968080639, -0.7417780151714756, -2.845554209621527, -0.09936685115098953, 1.4661136865615845, -0.9221558570861816, -0.1514885425567627, 0.6755998730659485, 0.7215372323989868, 0.10649043321609497, 0.03697037696838379, -0.04249072074890137, -0.9224048322506728, -0.09968929032851137, 0.3707606974163703,-0.04204596286943926,-0.0449981689453125,0.7125701904296875,0.679046630859375
20220117-1835,2022-01-17 18:35:15Z,u01, 223,40,movements,el-ex, rt, d,191644.5496896667, -2.8797908364355593, -0.7324663287137148, -2.8168684385132647, -0.24055856466293335, 1.4254752397537231, -0.8962480425834656, -0.19244079291820526, 0.6687054634094238, 0.7181918621063232, 0.08903202414512634, 0.031138896942138672, -0.025809049606323242, -0.9210762106007659, -0.10351106072184774, 0.3700683555834399,-0.06287669742885854,-0.1191253662109375,0.6873321533203125,0.70330810546875
20220117-1835,2022-01-17 18:35:15Z,u01, 224,40,movements,el-ex, rt, d,191644.5746366667, -2.8257183689177046, -0.7200630956680086, -2.79033790934509, -0.22123131155967712, 1.4658485651016235, -0.8875919580459595, -0.23353374004364014, 0.6594321131706238, 0.7145707011222839, 0.10099594295024872, 0.008643507957458496, 0.02332901954650879, -0.9197017832801171, -0.10692978980613044, 0.3682861238382382,-0.084142610734185,-0.132537841796875,0.6680755615234375,0.7378997802734375
20220117-1835,2022-01-17 18:35:15Z,u01, 225,40,movements,el-ex, rt, d,191644.59958366668, -2.7722691615884174, -0.7099067822185479, -2.764481057246351, -0.0679452121257782, 1.4320731163024902, -0.8786036968231201, -0.27377885580062866, 0.6517630815505981, 0.7072833776473999, 0.08543971180915833, -0.03373640775680542, -0.07856041193008423, -0.9173456943923217, -0.11008440387891577, 0.36785388628846805,-0.10507974477436414,-0.19451904296875,0.6211090087890625,0.6192779541015625
20220117-1835,2022-01-17 18:35:15Z,u01, 226,40,movements,el-ex, rt, d,191644.62453066668, -2.7210536551802873, -0.6981878950397842, -2.7395036405960336, -0.1717308908700943, 1.3835768699645996, -0.9474393129348755, -0.31272485852241516, 0.6428306698799133, 0.6992653012275696, 0.07990634441375732, 0.056952714920043945, -0.07327353954315186, -0.9147331933493223, -0.11355985553855247, 0.36694183373416217,-0.12538363401696867,-0.232818603515625,0.6997833251953125,0.6259918212890625
20220117-1835,2022-01-17 18:35:15Z,u01, 227,40,movements,el-ex, rt, d,191644.64947766668, -2.67116345521216, -0.6872117417327382, -2.713995034719743, 0.04456828534603119, 1.348975419998169, -0.9242172837257385, -0.3503849506378174, 0.634384274482727, 0.6890478730201721, 0.08747607469558716, 0.04605090618133545, -0.035513997077941895, -0.9114311455562385, -0.11754659117966676, 0.3667060931682188,-0.14492309485691607,-0.2750244140625,0.68597412109375,0.6887969970703125
20220117-1835,2022-01-17 18:35:15Z,u01, 228,40,movements,el-ex, rt, d,191644.674424375, -2.619679238525859, -0.6775271623381, -2.687529362536493, 0.050114717334508896, 1.427093267440796, -0.8650924563407898, -0.3884250223636627, 0.6268683075904846, 0.675398051738739, 0.07780182361602783, -0.0016850829124450684, 0.07577687501907349, -0.9071497828990664, -0.121566047183021, 0.36760381981282,-0.16482874633548883,-0.3106231689453125,0.62518310546875,0.7511749267578125
20220117-1835,2022-01-17 18:35:15Z,u01, 229,40,movements,el-ex, rt, d,191644.699371375, -2.570625041511206, -0.6665988286923336, -2.6634733542180116, -0.011508401483297348, 1.3382731676101685, -0.8604329228401184, -0.42475271224975586, 0.6183164715766907, 0.6612640023231506, 0.08497002720832825, -0.0190579891204834, -0.030099451541900635, -0.9027516338418732, -0.1251858321547441, 0.36800847974527157,-0.184222220975112,-0.3526763916015625,0.59136962890625,0.6051788330078125
20220117-1835,2022-01-17 18:35:15Z,u01, 230,40,movements,el-ex, rt, d,191644.72431837503, -2.5244924447630313, -0.654534347447799, -2.6410322113275138, 0.051826830953359604, 1.299501657485962, -0.8698230981826782, -0.4590791165828705, 0.6087899208068848, 0.6470091938972473, 0.058154523372650146, 0.004750728607177734, -0.055761754512786865, -0.89827357839988, -0.1288765976152611, 0.3679544900416219,-0.2027431720523234,-0.4009246826171875,0.6135406494140625,0.59124755859375
20220117-1835,2022-01-17 18:35:15Z,u01, 231,40,movements,el-ex, rt, d,191644.74926537502, -2.4789076171307793, -0.644253862977502, -2.617387645366554, 0.17315928637981415, 1.2110679149627686, -0.833774209022522, -0.49191051721572876, 0.6006020307540894, 0.6303181648254395, 0.08338707685470581, -0.0057991743087768555, -0.06093651056289673, -0.8930202357068486, -0.13294335788160394, 0.36909728615051823,-0.22047230711271212,-0.4219207763671875,0.5903472900390625,0.568817138671875
20220117-1835,2022-01-17 18:35:15Z,u01, 232,40,movements,el-ex, rt, d,191644.77421237502, -2.4348986718978938, -0.6348314524950853, -2.594144637087498, 0.20597298443317413, 1.1777158975601196, -0.7955629825592041, -0.5228163599967957, 0.5930418372154236, 0.6123430728912354, 0.08978736400604248, -0.01188039779663086, -0.017067313194274902, -0.8873622524655314, -0.13696631394917164, 0.3707964865051168,-0.2373568944183361,-0.4330291748046875,0.5811614990234375,0.59527587890625
20220117-1835,2022-01-17 18:35:15Z,u01, 233,40,movements,el-ex, rt, d,191644.799158375, -2.3937821031048365, -0.6245391573123726, -2.572952685919896, 0.07021842151880264, 1.1402980089187622, -0.7708998322486877, -0.551666796207428, 0.5847234725952148, 0.5947793126106262, 0.08064329624176025, -0.03545278310775757, -0.0035469532012939453, -0.8817983814677159, -0.14078801475294417, 0.37201153691992983,-0.2534124016593643,-0.4794769287109375,0.5431976318359375,0.6052093505859375
20220117-1835,2022-01-17 18:35:15Z,u01, 234,40,movements,el-ex, rt, d,191644.824105375, -2.3564071506137454, -0.6116074175669238, -2.5566270797939596, -0.08636156469583511, 1.0792146921157837, -0.7182821035385132, -0.5788037180900574, 0.574184238910675, 0.5790500044822693, 0.07619452476501465, -0.0430561900138855, -0.027246415615081787, -0.8768478529801476, -0.14374571772884787, 0.37153527955391413,-0.26914049864608486,-0.5026092529296875,0.5311279296875,0.5518035888671875
20220117-1835,2022-01-17 18:35:15Z,u01, 235,40,movements,el-ex, rt, d,191644.849052375, -2.3226077243027476, -0.5968936632025584, -2.544100562660124, -0.13247667253017426, 1.0577555894851685, -0.7059547305107117, -0.6041472554206848, 0.5620759725570679, 0.5648689866065979, 0.07045584917068481, -0.020495712757110596, -0.02531808614730835, -0.8723925607290322, -0.14617014942571382, 0.36978124200202683,-0.2843016397217853,-0.544403076171875,0.5571136474609375,0.538360595703125
20220117-1835,2022-01-17 18:35:16Z,u01, 236,40,movements,el-ex, rt, d,191644.873999375, -2.2898534738559206, -0.5821558002284793, -2.5320461930087856, -0.06450293958187103, 1.0425852537155151, -0.7105748057365417, -0.6284866333007812, 0.54982590675354, 0.5501779317855835, 0.0540238618850708, 0.024240195751190186, 0.010765612125396729, -0.8677451643448163, -0.14868520800663992, 0.3680580352805631,-0.2990722934530633,-0.574462890625,0.574066162109375,0.560943603515625
20220117-1835,2022-01-17 18:35:16Z,u01, 237,40,movements,el-ex, rt, d,191644.898946375, -2.2560762688316713, -0.5696909967425084, -2.5179062550619102, 0.11323443055152893, 1.0254504680633545, -0.6759313344955444, -0.6519641876220703, 0.5393718481063843, 0.532936155796051, 0.04152113199234009, -0.010258018970489502, -0.016410768032073975, -0.8622788059995441, -0.15147054295549406, 0.3678185257509704,-0.313435086895299,-0.6214141845703125,0.528900146484375,0.5009918212890625
20220117-1835,2022-01-17 18:35:16Z,u01, 238,40,movements,el-ex, rt, d,191644.923893375, -2.222647055342362, -0.5587150984102417, -2.5023276117900064, 0.13557203114032745, 0.9822143912315369, -0.6813685297966003, -0.6740778684616089, 0.5300971269607544, 0.5144082307815552, 0.03128618001937866, -0.010504841804504395, -0.0647318959236145, -0.8563272293799471, -0.1546214314523442, 0.36856870717584417,-0.32703655133544934,-0.642791748046875,0.51959228515625,0.449676513671875
20220117-1835,2022-01-17 18:35:16Z,u01, 239,40,movements,el-ex, rt, d,191644.948840375, -2.1907267314565644, -0.5471037705390978, -2.4872377388829374, 0.16182902455329895, 0.9454970955848694, -0.6820154786109924, -0.695115327835083, 0.5202159285545349, 0.4961760640144348, 0.03790390491485596, 0.007463693618774414, -0.05698215961456299, -0.8503651867388825, -0.15800976632789432, 0.3690799109718563,-0.34013556177367643,-0.658416748046875,0.5308990478515625,0.4641876220703125
20220117-1835,2022-01-17 18:35:16Z,u01, 240,40,movements,el-ex, rt, d,191644.973787375, -2.1587288325292042, -0.5355844801089942, -2.471835395460449, 0.18616020679473877, 0.9699177145957947, -0.6625137329101562, -0.7155720591545105, 0.5103437900543213, 0.47697558999061584, 0.04790854454040527, 0.0013750195503234863, 0.026381254196166992, -0.8440400500786778, -0.1615060026450021, 0.3698908508212534,-0.3531188327880712,-0.66766357421875,0.51171875,0.50335693359375
20220117-1835,2022-01-17 18:35:16Z,u01, 241,40,movements,el-ex, rt, d,191644.99873437503, -2.128016753034456, -0.5234322589224659, -2.4582446987799504, 0.057076551020145416, 0.9310348629951477, -0.6585844159126282, -0.7350909113883972, 0.49985578656196594, 0.4580234885215759, 0.05149722099304199, 0.004355669021606445, 0.010421276092529297, -0.8377961517729962, -0.16464916741873142, 0.3702336530506666,-0.36594437754324827,-0.684722900390625,0.4964141845703125,0.443756103515625
20220117-1835,2022-01-17 18:35:16Z,u01, 242,40,movements,el-ex, rt, d,191645.02368137502, -2.1017444990393814, -0.5095749225177939, -2.449343260946275, -0.11387282609939575, 0.8259795904159546, -0.624605655670166, -0.7527704834938049, 0.4878062307834625, 0.44202032685279846, 0.051125526428222656, -0.031553059816360474, -0.09505075216293335, -0.8325131229405571, -0.1671289013367055, 0.36886773635573017,-0.3780562264478791,-0.7016448974609375,0.4562530517578125,0.3469696044921875
20220117-1835,2022-01-17 18:35:16Z,u01, 243,40,movements,el-ex, rt, d,191645.048627375, -2.0787219413708486, -0.49490452728684764, -2.4440351647404395, -0.09458141028881073, 0.8383464813232422, -0.5884966850280762, -0.7689170837402344, 0.47494763135910034, 0.4280088245868683, 0.039073824882507324, -0.01899963617324829, -0.017959296703338623, -0.8279171536078327, -0.16898991782860245, 0.3663538531627699,-0.3895902318717594,-0.7349090576171875,0.451995849609375,0.4153289794921875
20220117-1835,2022-01-17 18:35:16Z,u01, 244,40,movements,el-ex, rt, d,191645.073574375, -2.0545334505006587, -0.4820065477828217, -2.4374520773463884, -0.0018507796339690685, 0.8519867062568665, -0.5444018840789795, -0.7844019532203674, 0.46355804800987244, 0.4121013581752777, 0.03324234485626221, -0.013454228639602661, 0.0025714635848999023, -0.8227356742200103, -0.17075331316304287, 0.3649348290998594,-0.4009637071383701,-0.75115966796875,0.450103759765625,0.4146728515625
20220117-1835,2022-01-17 18:35:16Z,u01, 245,40,movements,el-ex, rt, d,191645.098521375, -2.0307913136868385, -0.47055211918942114, -2.4300972093593973, 0.03531476482748985, 0.7702986598014832, -0.519009530544281, -0.7986696362495422, 0.45337846875190735, 0.39569491147994995, 0.04029273986816406, -0.009042561054229736, -0.0389750599861145, -0.8173544058208899, -0.17256659638897004, 0.36425911466315714,-0.41166459542878275,-0.7580413818359375,0.4405364990234375,0.34503173828125
20220117-1835,2022-01-17 18:35:16Z,u01, 246,40,movements,el-ex, rt, d,191645.123468375, -2.0099644990319923, -0.4593655453594641, -2.423946163258974, 0.03202732652425766, 0.685003399848938, -0.47483041882514954, -0.8112770915031433, 0.4433795213699341, 0.3811093866825104, 0.042295098304748535, -0.01620960235595703, -0.07402616739273071, -0.8124943188989775, -0.17437794743765778, 0.36326751594823714,-0.4212862780795992,-0.76898193359375,0.4271697998046875,0.3070831298828125
20220117-1835,2022-01-17 18:35:16Z,u01, 247,40,movements,el-ex, rt, d,191645.148415375, -1.9905508990013165, -0.4501996161231757, -2.417166115823519, 0.09431556612253189, 0.6398448348045349, -0.40024468302726746, -0.8221991062164307, 0.4351452589035034, 0.3669295310974121, 0.03229743242263794, -0.06342586874961853, -0.06817770004272461, -0.8077323249773247, -0.17616259562480036, 0.3630923272272115,-0.4297664596860217,-0.79180908203125,0.3599395751953125,0.2892303466796875
20220117-1835,2022-01-17 18:35:16Z,u01, 248,40,movements,el-ex, rt, d,191645.173362375, -1.9728809259572373, -0.44252537992172236, -2.4114735219049424, 0.03396530821919441, 0.5729029178619385, -0.3016442656517029, -0.8316027522087097, 0.4282229542732239, 0.35364124178886414, 0.04421871900558472, -0.0850832462310791, -0.07574820518493652, -0.8033330714718979, -0.1774164478634983, 0.3631284587105499,-0.43739815535663396,-0.787384033203125,0.3431396484375,0.27789306640625
20220117-1835,2022-01-17 18:35:16Z,u01, 249,40,movements,el-ex, rt, d,191645.198309375, -1.9591082749172084, -0.43655326836248387, -2.409025935392994, -0.035874925553798676, 0.4636911451816559, -0.21670414507389069, -0.8387464880943298, 0.42281851172447205, 0.3431169092655182, 0.04327517747879028, -0.075421541929245, -0.08872243762016296, -0.8000101879303146, -0.17760112797287486, 0.3627542923394943,-0.44367892249136864,-0.800384521484375,0.3560333251953125,0.2690887451171875
20220117-1835,2022-01-17 18:35:16Z,u01, 250,40,movements,el-ex, rt, d,191645.223256375, -1.9471765985959937, -0.4327586770592155, -2.406289631211622, 0.14341486990451813, 0.4117170572280884, -0.13423390686511993, -0.8442665338516235, 0.41937676072120667, 0.33367234468460083, 0.02422875165939331, -0.07034716010093689, -0.041008830070495605, -0.7970494994241756, -0.17761833783118253, 0.3630736229417851,-0.4487108280341533,-0.820037841796875,0.349029541015625,0.29266357421875
20220117-1835,2022-01-17 18:35:16Z,u01, 251,40,movements,el-ex, rt, d,191645.248203375, -1.9355803641667186, -0.43148445563009374, -2.4006486142759447, 0.1534452736377716, 0.3154621422290802, -0.10170365124940872, -0.8485774993896484, 0.418219655752182, 0.3240501880645752, 0.025960981845855713, -0.07660585641860962, -0.0768425464630127, -0.793913336805318, -0.17811992222471323, 0.36492478490949964,-0.4525536598572141,-0.82012939453125,0.32818603515625,0.2303924560546875
20220117-1835,2022-01-17 18:35:16Z,u01, 252,40,movements,el-ex, rt, d,191645.27315037503, -1.9286096952021219, -0.4310332593800297, -2.3980960354156644, 0.032339148223400116, 0.15257883071899414, 0.0020556291565299034, -0.8509924411773682, 0.41780978441238403, 0.3181932866573334, 0.038431406021118164, -0.12345242500305176, -0.14817988872528076, -0.7920961897467003, -0.1779895003146209, 0.36596549072164214,-0.4549424661405983,-0.81256103515625,0.2943572998046875,0.170013427734375
