SessionID,LoggingTime,UID,RecNo,Hertz,Activity,MoveType,Wrist,Side,TimeStamp,DMRoll,DMPitch,DMYaw,DMRotX,DMRotY,DMRotZ,DMGrvX,DMGrvY,DMGrvZ,DMUAccelX,DMUAccelY,DMUAccelZ,DMQuatX,DMQuatY,DMQuatW,DMQuatZ,AccelroX,AceelroY,AceelroZ
20220117-1837,2022-01-17 18:37:30Z,u01, 1,40,movements,el-ex, rt, d,191779.25778912503, 2.593576045673741, -0.96828183706082, 2.8480879763913074, 0.16321326792240143, -0.7189467549324036, 0.8298108577728271, 0.2952563464641571, 0.8239132165908813, 0.48372578620910645, 0.013169556856155396, 0.07017552852630615, 0.09337687492370605, -0.8613146334886561, 1.1102230246251565e-16, 0.47828818152640623,0.17139865970203827,0.2635955810546875,0.84381103515625,0.5234375
20220117-1837,2022-01-17 18:37:30Z,u01, 2,40,movements,el-ex, rt, d,191779.28273612502, 2.5480871777285468, -0.959921509280166, 2.8153376453738725, -0.0011344561353325844, -0.7298603057861328, 0.7749027013778687, 0.3207886815071106, 0.8191465735435486, 0.47549283504486084, 0.1263396143913269, 0.005850374698638916, 0.02249285578727722, -0.858909715620978, 0.004529708120448506, 0.4778240816567006,0.18422184827158777,0.3569183349609375,0.9085235595703125,0.567840576171875
20220117-1837,2022-01-17 18:37:30Z,u01, 3,40,movements,el-ex, rt, d,191779.30768312502, 2.5065598222716075, -0.9436007860048242, 2.790642255087001, -0.3191617429256439, -0.9552303552627563, 0.8604505658149719, 0.34813740849494934, 0.8096765875816345, 0.4724661707878113, 0.24819135665893555, -0.06988465785980225, -0.14540934562683105, -0.8580028306013673, 0.008014144889693875, 0.47369156601674195,0.1984521097632486,0.33697509765625,0.7924957275390625,0.4562835693359375
20220117-1837,2022-01-17 18:37:30Z,u01, 4,40,movements,el-ex, rt, d,191779.332629125, 2.4686308135569446, -0.9272253597182161, 2.7688231959824634, 0.008289371617138386, -0.7791269421577454, 0.8211702704429626, 0.37401777505874634, 0.7999581098556519, 0.46923115849494934, 0.00369831919670105, 0.045500993728637695, -0.0056996941566467285, -0.8570218381372423, 0.011364329818852603, 0.4695190436415344,0.21198190492053892,0.3634033203125,0.7929534912109375,0.3605499267578125
20220117-1837,2022-01-17 18:37:30Z,u01, 5,40,movements,el-ex, rt, d,191779.357576125, 2.425517350157448, -0.9184751348034773, 2.737867169497414, 0.33592867851257324, -0.7351109385490417, 0.7675414681434631, 0.3984737992286682, 0.7946768999099731, 0.45793798565864563, 0.03382295370101929, 0.10942161083221436, 0.1308223009109497, -0.8536442000436425, 0.01614243526753667, 0.4697069879783448,0.22451354287205907,0.3880615234375,0.8664703369140625,0.530548095703125
20220117-1837,2022-01-17 18:37:30Z,u01, 6,40,movements,el-ex, rt, d,191779.382523125, 2.3818955764391427, -0.9100662794231513, 2.706799542917361, 0.07271536439657211, -0.7919657826423645, 0.7954534292221069, 0.4226517677307129, 0.789544403553009, 0.44495511054992676, 0.05317828059196472, -0.02005898952484131, 0.017874449491500854, -0.8497319646190347, 0.020812230768550988, 0.4703934707060263,0.23717590521064302,0.4847869873046875,0.8744964599609375,0.54638671875
20220117-1837,2022-01-17 18:37:30Z,u01, 7,40,movements,el-ex, rt, d,191779.407470125, 2.3474553678044403, -0.8935731010730195, 2.6877507293306255, -0.27565187215805054, -0.7634501457214355, 0.7882789969444275, 0.44695061445236206, 0.779315710067749, 0.43920618295669556, -0.02550286054611206, -0.03866934776306152, -0.06129193305969238, -0.8479459943627305, 0.024304079211041996, 0.46670197885658443,0.25017224233884255,0.454071044921875,0.74407958984375,0.431610107421875
20220117-1837,2022-01-17 18:37:30Z,u01, 8,40,movements,el-ex, rt, d,191779.432417125, 2.3174483127476018, -0.8761979302463446, 2.6724259269253428, -0.10536781698465347, -0.6998907327651978, 0.7586941123008728, 0.4697951674461365, 0.7683108448982239, 0.4347307085990906, 0.008033722639083862, 0.05923426151275635, 0.05307739973068237, -0.8465238592472831, 0.0276171325190267, 0.4623640076497909,0.26240065664794626,0.426361083984375,0.7958221435546875,0.3892364501953125
20220117-1837,2022-01-17 18:37:30Z,u01, 9,40,movements,el-ex, rt, d,191779.45736312502, 2.287038831563305, -0.8618351833387774, 2.6552485623939837, -0.019676249474287033, -0.7053236365318298, 0.6902031302452087, 0.49106931686401367, 0.7590386271476746, 0.42744722962379456, 0.06061217188835144, 0.09203553199768066, 0.0839814841747284, -0.8442489814889692, 0.031101094888710046, 0.45962496068787945,0.27390002650599504,0.50445556640625,0.84222412109375,0.497772216796875
20220117-1837,2022-01-17 18:37:30Z,u01, 10,40,movements,el-ex, rt, d,191779.48231012502, 2.2566189992860948, -0.8485070834015337, 2.638565915715736, -0.025950822979211807, -0.7343108654022217, 0.6944422721862793, 0.511627197265625, 0.7502942681312561, 0.41868361830711365, 0.013107240200042725, 0.016505658626556396, -0.014402180910110474, -0.8415276729161496, 0.03424893962113407, 0.4574071801400645,0.28537133538535264,0.55322265625,0.8373870849609375,0.49017333984375
20220117-1837,2022-01-17 18:37:30Z,u01, 11,40,movements,el-ex, rt, d,191779.50725712502, 2.2281796700099705, -0.8337360867916034, 2.6249938965608823, -0.1398794800043106, -0.7263742685317993, 0.6833292245864868, 0.532041609287262, 0.7404475808143616, 0.4106939136981964, -0.021360397338867188, -0.006011486053466797, -0.06000107526779175, -0.8390344170641675, 0.0369891990532526, 0.45434436098533304,0.29702593163175733,0.504852294921875,0.7449188232421875,0.380584716796875
20220117-1837,2022-01-17 18:37:30Z,u01, 12,40,movements,el-ex, rt, d,191779.53220412502, 2.201069817640311, -0.8187779085701952, 2.6123629318601242, -0.0024090115912258625, -0.6785991787910461, 0.6879811882972717, 0.5518649220466614, 0.7303115725517273, 0.4026040732860565, 0.0025783777236938477, 0.038060009479522705, 0.0639181137084961, -0.8364916903422281, 0.039795497757780574, 0.4512045120270279,0.3084030108443161,0.5278167724609375,0.7635345458984375,0.36834716796875
20220117-1837,2022-01-17 18:37:30Z,u01, 13,40,movements,el-ex, rt, d,191779.55715112502, 2.1731959607990166, -0.8054121412319538, 2.597144237233895, 0.021177008748054504, -0.677124559879303, 0.669281542301178, 0.5708637833595276, 0.7211162447929382, 0.3925632834434509, 0.05087077617645264, 0.04174691438674927, 0.0807948112487793, -0.8333151233275218, 0.043215071496192525, 0.4492341579920836,0.3192288372546336,0.5710296630859375,0.7685394287109375,0.4850311279296875
20220117-1837,2022-01-17 18:37:30Z,u01, 14,40,movements,el-ex, rt, d,191779.582098125, 2.147570092713969, -0.791532866292216, 2.585180087628876, -0.1100020483136177, -0.7029966115951538, 0.6253156661987305, 0.5890683531761169, 0.7114313244819641, 0.38322848081588745, 0.030804693698883057, 0.00039130449295043945, -0.005222499370574951, -0.8303604418114335, 0.045997647936468156, 0.446665321709651,0.3299634971751319,0.6307220458984375,0.742950439453125,0.449462890625
20220117-1837,2022-01-17 18:37:30Z,u01, 15,40,movements,el-ex, rt, d,191779.607044125, 2.1256422416636673, -0.7753386684228163, 2.5790688874504117, -0.26720723509788513, -0.6902413368225098, 0.6430010199546814, 0.6070433855056763, 0.6999579668045044, 0.376240998506546, -0.0063964128494262695, -0.028723835945129395, -0.044194579124450684, -0.8281478866768778, 0.047870445913984205, 0.4423121845941596,0.34093911351315137,0.60577392578125,0.700592041015625,0.3440399169921875
20220117-1837,2022-01-17 18:37:30Z,u01, 16,40,movements,el-ex, rt, d,191779.631991125, 2.1057400794112713, -0.7585362819829972, 2.5750540052066353, -0.1667144000530243, -0.6775617003440857, 0.6250569224357605, 0.6244410276412964, 0.6878597736358643, 0.3700295686721802, 0.011301040649414062, 0.06188070774078369, 0.03219190239906311, -0.8261693115885506, 0.04958880888898548, 0.43740216981180235,0.35165945561697887,0.60888671875,0.7027130126953125,0.3469085693359375
20220117-1837,2022-01-17 18:37:30Z,u01, 17,40,movements,el-ex, rt, d,191779.656938125, 2.082420337119196, -0.7444960658828818, 2.5651799507181425, 0.07317099720239639, -0.660250723361969, 0.6054847836494446, 0.6412578821182251, 0.6776012778282166, 0.3600616753101349, 0.023491084575653076, 0.05343186855316162, 0.07051065564155579, -0.8229772590311999, 0.05233808637854148, 0.43469547568110767,0.36195146104124504,0.6466827392578125,0.7509765625,0.4213714599609375
20220117-1837,2022-01-17 18:37:30Z,u01, 18,40,movements,el-ex, rt, d,191779.681885125, 2.0586528888178153, -0.7320919991874164, 2.554026184958456, -0.006092695984989405, -0.6523385047912598, 0.5844169855117798, 0.6570084691047668, 0.668427050113678, 0.34863367676734924, 0.01567530632019043, 0.014693737030029297, 0.0064535439014434814, -0.8193144616626737, 0.05514213523510286, 0.43294248771110905,0.3718118955498078,0.667877197265625,0.730743408203125,0.41571044921875
20220117-1837,2022-01-17 18:37:30Z,u01, 19,40,movements,el-ex, rt, d,191779.706832125, 2.0382868058684322, -0.7177303629126123, 2.5485984787741627, -0.20856887102127075, -0.670146644115448, 0.6046451926231384, 0.6724728345870972, 0.657676637172699, 0.3394729495048523, -0.00010955333709716797, -0.005226016044616699, -0.04299470782279968, -0.8163908508158284, 0.0569425004031156, 0.4294327024854896,0.3819046358108812,0.6744537353515625,0.6681060791015625,0.3318939208984375
20220117-1837,2022-01-17 18:37:30Z,u01, 20,40,movements,el-ex, rt, d,191779.73177912502, 2.020076641360085, -0.7020320028581786, 2.545317535123702, -0.12813134491443634, -0.6212852001190186, 0.6038479804992676, 0.6877586841583252, 0.6457704901695251, 0.33161506056785583, 0.008332014083862305, 0.034649431705474854, 0.03889870643615723, -0.8138501139554788, 0.0587836968057332, 0.4250398058979169,0.39183373753407674,0.67431640625,0.6583251953125,0.3168487548828125
20220117-1837,2022-01-17 18:37:30Z,u01, 21,40,movements,el-ex, rt, d,191779.75672512501, 2.0004580913015877, -0.6884822218821166, 2.538706881116469, -0.020441673696041107, -0.6175192594528198, 0.5426170825958252, 0.7020223140716553, 0.6353658437728882, 0.3216748535633087, 0.02382296323776245, 0.06040436029434204, 0.07456538081169128, -0.8106158513159563, 0.06115033486304938, 0.4221662741533881,0.40117096972931937,0.70367431640625,0.6764984130859375,0.3921661376953125
20220117-1837,2022-01-17 18:37:30Z,u01, 22,40,movements,el-ex, rt, d,191779.781672125, 1.9818240230204662, -0.67588506908476, 2.5336887776994437, -0.14798305928707123, -0.6205064058303833, 0.5051121711730957, 0.7151750922203064, 0.625588059425354, 0.3117116391658783, 0.0025830864906311035, 0.028540968894958496, 0.023157715797424316, -0.807405258352131, 0.06286941296532889, 0.41934958020124946,0.4102317675889704,0.73687744140625,0.6799163818359375,0.3805084228515625
20220117-1837,2022-01-17 18:37:30Z,u01, 23,40,movements,el-ex, rt, d,191779.806618375, 1.967331366537155, -0.6615586154795126, 2.5351533117818543, -0.39319372177124023, -0.6041457653045654, 0.514728844165802, 0.7278103232383728, 0.6143473982810974, 0.30474498867988586, -0.018078267574310303, 0.009599745273590088, -0.013042688369750977, -0.8052035123727425, 0.06340183324832954, 0.4145018391425886,0.41930390591439065,0.713470458984375,0.6396636962890625,0.3151092529296875
20220117-1837,2022-01-17 18:37:30Z,u01, 24,40,movements,el-ex, rt, d,191779.831565375, 1.9568509560546883, -0.6449670822754541, 2.542541987575197, -0.45667532086372375, -0.5780465006828308, 0.539756715297699, 0.7403056621551514, 0.601172149181366, 0.3008975088596344, -0.006495296955108643, 0.03386813402175903, 0.03749653697013855, -0.8040314083009981, 0.06310503481546959, 0.4074712201328983,0.4283904164457882,0.725677490234375,0.6299591064453125,0.29144287109375
20220117-1837,2022-01-17 18:37:31Z,u01, 25,40,movements,el-ex, rt, d,191779.856512375, 1.9446017251465317, -0.6308105804366514, 2.5456307814274295, -0.19804303348064423, -0.5836935639381409, 0.438140332698822, 0.7517837882041931, 0.5897995233535767, 0.2948853373527527, 0.006761014461517334, 0.06712174415588379, 0.07217997312545776, -0.8021264029489343, 0.06352876284905717, 0.40223922461827283,0.436761764532191,0.734375,0.63446044921875,0.3622589111328125
20220117-1837,2022-01-17 18:37:31Z,u01, 26,40,movements,el-ex, rt, d,191779.881459375, 1.929585872368457, -0.6194436489087006, 2.545694835303747, -0.1742192953824997, -0.6216696500778198, 0.4137551784515381, 0.762355387210846, 0.5805822610855103, 0.28589969873428345, 0.012852251529693604, 0.02032417058944702, -0.003078073263168335, -0.7992955031565453, 0.06384782415084977, 0.39873369106766554,0.44504119553320326,0.7821044921875,0.6455078125,0.3293304443359375
20220117-1837,2022-01-17 18:37:31Z,u01, 27,40,movements,el-ex, rt, d,191779.90640537502, 1.9161730838433308, -0.6069638604679384, 2.5492611488596846, -0.38271233439445496, -0.6074233651161194, 0.4474422335624695, 0.7728791236877441, 0.5703762769699097, 0.27808037400245667, -0.005194246768951416, -0.011935055255889893, -0.013920307159423828, -0.796875911582565, 0.06347414842363475, 0.3940103887987833,0.4535588041327987,0.767974853515625,0.586578369140625,0.2737274169921875
20220117-1837,2022-01-17 18:37:31Z,u01, 28,40,movements,el-ex, rt, d,191779.93135237502, 1.9057328247870704, -0.5924505722412823, 2.556279167961338, -0.3909553587436676, -0.5486481785774231, 0.47749093174934387, 0.7834762334823608, 0.5583956241607666, 0.2726888358592987, 0.006898462772369385, 0.003921210765838623, 0.05685517191886902, -0.795222099755502, 0.06297801833075006, 0.3876755350453152,0.46191256146168624,0.779815673828125,0.5543975830078125,0.2766571044921875
20220117-1837,2022-01-17 18:37:31Z,u01, 29,40,movements,el-ex, rt, d,191779.95629937502, 1.894636265396541, -0.5794065752999982, 2.5607005063360915, -0.25761863589286804, -0.5568068623542786, 0.41350576281547546, 0.7932919263839722, 0.5475274920463562, 0.2662735879421234, 0.017651677131652832, 0.012683749198913574, 0.07044196128845215, -0.7932006107624987, 0.06300462174323052, 0.38244513798730356,0.46967960208327636,0.79742431640625,0.5628204345703125,0.345062255859375
20220117-1837,2022-01-17 18:37:31Z,u01, 30,40,movements,el-ex, rt, d,191779.981246375, 1.883176053005066, -0.5672074984851981, 2.566096095854062, -0.4452480673789978, -0.5919364094734192, 0.40247541666030884, 0.8025879859924316, 0.537278950214386, 0.25919851660728455, 0.004449367523193359, -0.0026720166206359863, 0.014498353004455566, -0.7910173346014372, 0.062376598102604985, 0.37727145466040474,0.4775635798199658,0.8158416748046875,0.5579986572265625,0.30877685546875
20220117-1837,2022-01-17 18:37:31Z,u01, 31,40,movements,el-ex, rt, d,191780.006193375, 1.8745179553499374, -0.5528713605018807, 2.577924103537135, -0.6448516845703125, -0.6006275415420532, 0.45744267106056213, 0.8120690584182739, 0.525132954120636, 0.25451764464378357, 0.00041562318801879883, -0.006440937519073486, -0.009736180305480957, -0.7896873789345799, 0.06043730949249737, 0.3696800553328483,0.4858784438635339,0.8033599853515625,0.5244903564453125,0.264862060546875
20220117-1837,2022-01-17 18:37:31Z,u01, 32,40,movements,el-ex, rt, d,191780.031139375, 1.8663225346353665, -0.5377724506457868, 2.5899629245634177, -0.4561724364757538, -0.5650902986526489, 0.443379282951355, 0.8216198682785034, 0.5122241377830505, 0.2501348555088043, 0.006367921829223633, 0.028715312480926514, 0.030077487230300903, -0.7884232948348365, 0.058788918800575185, 0.3616822423339687,0.4940835986141163,0.8132171630859375,0.5282745361328125,0.259613037109375
20220117-1837,2022-01-17 18:37:31Z,u01, 33,40,movements,el-ex, rt, d,191780.056086375, 1.8555869498328998, -0.5255040429270552, 2.595889282926132, -0.23155058920383453, -0.5420740246772766, 0.38449108600616455, 0.830226719379425, 0.5016490817070007, 0.24304743111133575, 0.011768639087677002, 0.06332290172576904, 0.021219521760940552, -0.7862103946636204, 0.058283192620730784, 0.356213278915019,0.5015859733530668,0.8360443115234375,0.5467071533203125,0.2786102294921875
20220117-1837,2022-01-17 18:37:31Z,u01, 34,40,movements,el-ex, rt, d,191780.081033375, 1.8432180216461993, -0.5155392920136012, 2.5972247557681305, -0.08703690767288208, -0.5113486051559448, 0.359932541847229, 0.8379420638084412, 0.49300411343574524, 0.23409342765808105, -0.005987286567687988, 0.06307187676429749, -0.0023429840803146362, -0.7833318255100894, 0.05863415336848199, 0.3527430191301498,0.508454062114792,0.83636474609375,0.5738372802734375,0.2489013671875
20220117-1837,2022-01-17 18:37:31Z,u01, 35,40,movements,el-ex, rt, d,191780.10598037502, 1.8304379194705482, -0.506623482855899, 2.596078695377847, -0.03964782506227493, -0.4715375006198883, 0.3542062044143677, 0.8450803160667419, 0.48522764444351196, 0.22448529303073883, -0.008639156818389893, 0.03430372476577759, 0.015352398157119751, -0.7801862803598797, 0.059598756618534976, 0.35029712780694855,0.5148294774955429,0.83209228515625,0.54583740234375,0.2339630126953125
20220117-1837,2022-01-17 18:37:31Z,u01, 36,40,movements,el-ex, rt, d,191780.13092737502, 1.8184999358380625, -0.49780777611158833, 2.5944259131981484, -0.026997080072760582, -0.42084091901779175, 0.34278005361557007, 0.8518139123916626, 0.4775005280971527, 0.2154213786125183, 0.0015186071395874023, 0.022194325923919678, 0.048631906509399414, -0.777174963144575, 0.060907855514769904, 0.34801396617563685,0.5207452427090505,0.847412109375,0.500091552734375,0.2514801025390625
20220117-1837,2022-01-17 18:37:31Z,u01, 37,40,movements,el-ex, rt, d,191780.15587437502, 1.8078209499344473, -0.4900198947677627, 2.592949612969145, -0.0018981178291141987, -0.3719173073768616, 0.2901749014854431, 0.8576543927192688, 0.47064343094825745, 0.20717965066432953, -0.004199981689453125, 0.05731061100959778, 0.05107530951499939, -0.7744268859096073, 0.062071121637252646, 0.3460251381832779,0.5260006329168218,0.85772705078125,0.5050201416015625,0.2615203857421875
20220117-1837,2022-01-17 18:37:31Z,u01, 38,40,movements,el-ex, rt, d,191780.180820375, 1.7970536581462737, -0.4840763473423903, 2.589394641311957, 0.15381620824337006, -0.35042911767959595, 0.2374200075864792, 0.8625463843345642, 0.46539103984832764, 0.1985572725534439, -0.017652034759521484, 0.07969874143600464, 0.08278417587280273, -0.7715254407177375, 0.0634596899111568, 0.3452467015201828,0.5305903547577455,0.8514251708984375,0.5333251953125,0.2625885009765625
20220117-1837,2022-01-17 18:37:31Z,u01, 39,40,movements,el-ex, rt, d,191780.205767375, 1.785561906100007, -0.480283941414107, 2.5817224813661053, 0.2683510184288025, -0.28044822812080383, 0.17403458058834076, 0.8664892315864563, 0.4620310068130493, 0.189006969332695, -0.023090243339538574, 0.0933431088924408, 0.11601613461971283, -0.7682422927573447, 0.06562976997884667, 0.34635562461983804,0.5343540503148918,0.8440093994140625,0.54925537109375,0.29083251953125
20220117-1837,2022-01-17 18:37:31Z,u01, 40,40,movements,el-ex, rt, d,191780.230714375, 1.7769899746889422, -0.4779647856063626, 2.576122964673562, 0.012484916485846043, -0.20305591821670532, 0.08772266656160355, 0.8691241145133972, 0.459973007440567, 0.1817915439605713, -0.028212249279022217, 0.06212177872657776, 0.09935164451599121, -0.7657693293025806, 0.06703062073522659, 0.3473464875326945,0.5370797496008183,0.84967041015625,0.5296630859375,0.3038177490234375
20220117-1837,2022-01-17 18:37:31Z,u01, 41,40,movements,el-ex, rt, d,191780.255661375, 1.7729255443283134, -0.475213581367846, 2.5779546858383053, -0.12823957204818726, -0.21249574422836304, 0.09209956973791122, 0.8710921406745911, 0.45752838253974915, 0.17851091921329498, -0.01994168758392334, 0.03058508038520813, -0.02635037899017334, -0.7647433736589109, 0.06650588311930816, 0.3460507142295148,0.5394380530439976,0.8360137939453125,0.5199432373046875,0.245849609375
20220117-1837,2022-01-17 18:37:31Z,u01, 42,40,movements,el-ex, rt, d,191780.280608375, 1.769585112765688, -0.47312727056504555, 2.579929877681292, -0.05610905587673187, -0.10954433679580688, 0.027555998414754868, 0.8726174235343933, 0.4556722342967987, 0.17578822374343872, -0.009076833724975586, 0.08882242441177368, 0.048958420753479004, -0.7639102040516692, 0.06584309316308018, 0.34491628495932514,0.5414227544281924,0.8603668212890625,0.466064453125,0.1312408447265625
20220117-1837,2022-01-17 18:37:31Z,u01, 43,40,movements,el-ex, rt, d,191780.30555437502, 1.7684126174926893, -0.47328386945809947, 2.579971677319939, 0.041100647300481796, 0.004627907648682594, -0.036403413861989975, 0.8727529644966125, 0.45581161975860596, 0.17475095391273499, -0.0228690505027771, 0.08346447348594666, 0.11434195935726166, -0.7635937687812158, 0.06557461659176378, 0.3449968376055294,0.5418502044679302,0.8617706298828125,0.5556640625,0.2559967041015625
20220117-1837,2022-01-17 18:37:31Z,u01, 44,40,movements,el-ex, rt, d,191780.33050137502, 1.769005939290419, -0.4753227039324727, 2.5786946659627388, 0.06349700689315796, 0.086784228682518, -0.08017919212579727, 0.8717360496520996, 0.4576253890991211, 0.17508536577224731, -0.003068685531616211, 0.05734339356422424, 0.04400023818016052, -0.7637087974367514, 0.06550993756606016, 0.3460173489343519,0.5410445186509654,0.8479156494140625,0.5179443359375,0.2655792236328125
20220117-1837,2022-01-17 18:37:31Z,u01, 45,40,movements,el-ex, rt, d,191780.35544837502, 1.7710641538447167, -0.4782398827889903, 2.577896148768532, 0.02369213104248047, 0.12903141975402832, -0.10175119340419769, 0.870061993598938, 0.4602172374725342, 0.17661291360855103, -0.008901774883270264, 0.04387208819389343, 0.045265063643455505, -0.7642321639431617, 0.06523536531433866, 0.3471588911591735,0.5396055872981238,0.870086669921875,0.51531982421875,0.210906982421875
20220117-1837,2022-01-17 18:37:31Z,u01, 46,40,movements,el-ex, rt, d,191780.38039537502, 1.7775491535221568, -0.48227816006876884, 2.579912784328589, -0.02913822792470455, 0.20441505312919617, -0.1397806704044342, 0.867072343826294, 0.4637987017631531, 0.18186849355697632, -0.015021681785583496, 0.006828099489212036, 0.08514498174190521, -0.7660288039966395, 0.06429713648577373, 0.34778270650850723,0.5367614587455354,0.8541259765625,0.489898681640625,0.2308807373046875
20220117-1837,2022-01-17 18:37:31Z,u01, 47,40,movements,el-ex, rt, d,191780.40534237502, 1.7857889424946851, -0.4866907743316493, 2.582469401327131, -0.047514770179986954, 0.27783429622650146, -0.2086368203163147, 0.8635366559028625, 0.4677034914493561, 0.18856830894947052, -0.009685337543487549, 0.031640440225601196, 0.0925137996673584, -0.7682915412341302, 0.0633424434874455, 0.3483444249502538,0.5332654416086406,0.8509063720703125,0.4801025390625,0.2731475830078125
20220117-1837,2022-01-17 18:37:31Z,u01, 48,40,movements,el-ex, rt, d,191780.430289375, 1.7956025550244143, -0.4926993869675411, 2.586247603430759, -0.09970676898956299, 0.32061418890953064, -0.24680638313293457, 0.8588893413543701, 0.47300592064857483, 0.19640347361564636, -0.005114376544952393, 0.03964358568191528, 0.054389938712120056, -0.7709707786296132, 0.06169115739046788, 0.34909596486854005,0.5290843130269116,0.8597564697265625,0.5122528076171875,0.2710113525390625
20220117-1837,2022-01-17 18:37:31Z,u01, 49,40,movements,el-ex, rt, d,191780.455235375, 1.8078095580020552, -0.4983065575505513, 2.592109296540397, -0.1380338817834854, 0.3669276535511017, -0.26669055223464966, 0.8538364171981812, 0.477938711643219, 0.20624706149101257, -0.009720265865325928, 0.04674997925758362, 0.061147913336753845, -0.7743055481601078, 0.059786715322411754, 0.34911477656799395,0.5243999459460226,0.849609375,0.5186309814453125,0.2506561279296875
20220117-1837,2022-01-17 18:37:31Z,u01, 50,40,movements,el-ex, rt, d,191780.480182375, 1.8215439619050802, -0.5041509867906672, 2.5979099753107624, -0.0970621109008789, 0.4443555474281311, -0.3200121521949768, 0.8482027053833008, 0.4830642342567444, 0.2172573357820511, -0.018323123455047607, 0.06768640875816345, 0.08224208652973175, -0.7779800689993757, 0.05810058040285432, 0.3492239505020503,0.5190508807599405,0.8372802734375,0.5393829345703125,0.2800445556640625
20220117-1837,2022-01-17 18:37:31Z,u01, 51,40,movements,el-ex, rt, d,191780.505129375, 1.8357492642116142, -0.5123584747632693, 2.6027029057349864, -0.06229102239012718, 0.4988098442554474, -0.407450795173645, 0.841176450252533, 0.49023422598838806, 0.22823810577392578, -0.001546323299407959, 0.07548540830612183, 0.05597209930419922, -0.7816424189000547, 0.05616211618301553, 0.3504451766166003,0.5129026632929913,0.830535888671875,0.5536956787109375,0.2985687255859375
20220117-1837,2022-01-17 18:37:31Z,u01, 52,40,movements,el-ex, rt, d,191780.530076375, 1.850355956595961, -0.5222850562411687, 2.606843915432509, -0.011831109412014484, 0.523949146270752, -0.43728047609329224, 0.8330343961715698, 0.4988618493080139, 0.23914551734924316, 0.0011330842971801758, 0.06261581182479858, 0.017080068588256836, -0.7852721063517172, 0.05404143807131129, 0.3524692379400075,0.5061548066551924,0.8440399169921875,0.573272705078125,0.265716552734375
20220117-1837,2022-01-17 18:37:31Z,u01, 53,40,movements,el-ex, rt, d,191780.55502337503, 1.866178398814065, -0.5332992538494442, 2.6107148787128964, 0.00569598563015461, 0.5923780798912048, -0.48336079716682434, 0.8238397836685181, 0.508377194404602, 0.25068095326423645, 8.916854858398438e-05, 0.06964105367660522, 0.032491713762283325, -0.789076898532592, 0.051943421680799906, 0.35496004497915273,0.4986612058524321,0.824615478515625,0.5702362060546875,0.2673797607421875
20220117-1837,2022-01-17 18:37:31Z,u01, 54,40,movements,el-ex, rt, d,191780.57997037502, 1.8841788532858128, -0.5456960204990966, 2.6142362768829077, 0.03537888079881668, 0.6832475066184998, -0.5498946309089661, 0.8131360411643982, 0.5190131664276123, 0.26350581645965576, 0.010106265544891357, 0.07061707973480225, 0.07603266835212708, -0.7932547212678309, 0.0499985253213342, 0.3580238653659822,0.489965371314263,0.8218841552734375,0.578338623046875,0.3074951171875
20220117-1837,2022-01-17 18:37:31Z,u01, 55,40,movements,el-ex, rt, d,191780.604916375, 1.9049817255932657, -0.5591262481300221, 2.620317936972221, -0.0834442749619484, 0.7178494334220886, -0.6020005941390991, 0.8008210062980652, 0.5304456949234009, 0.278051495552063, 0.018209636211395264, 0.04786229133605957, 0.049356162548065186, -0.7979909202186155, 0.04728892997575812, 0.3608311741547098,0.4803904098207691,0.822601318359375,0.5872802734375,0.3408050537109375
20220117-1837,2022-01-17 18:37:31Z,u01, 56,40,movements,el-ex, rt, d,191780.629863375, 1.9285112640003172, -0.5728296242562415, 2.6299103838148272, -0.14346416294574738, 0.7573330402374268, -0.6598958373069763, 0.7871745824813843, 0.5420121550559998, 0.2942429184913635, 0.010951519012451172, 0.06934648752212524, 0.04779800772666931, -0.80325347914768, 0.043649903213185404, 0.3629405477447715,0.4702687034347727,0.8079376220703125,0.58441162109375,0.3297119140625
20220117-1837,2022-01-17 18:37:31Z,u01, 57,40,movements,el-ex, rt, d,191780.654810375, 1.9544671862698308, -0.5871090669609121, 2.641581603121839, -0.14130553603172302, 0.8103374242782593, -0.6891876459121704, 0.772016704082489, 0.5539565086364746, 0.31164419651031494, 0.022920310497283936, 0.05979776382446289, 0.04280206561088562, -0.8088642277377729, 0.039506450390826564, 0.3648666634681174,0.4594018961699684,0.7960968017578125,0.615966796875,0.346771240234375
20220117-1837,2022-01-17 18:37:31Z,u01, 58,40,movements,el-ex, rt, d,191780.679757375, 1.9815281584980378, -0.6025342586005429, 2.6526446998836875, -0.06729080528020859, 0.8604845404624939, -0.726292610168457, 0.7553770542144775, 0.5667322874069214, 0.3289678692817688, 0.02520143985748291, 0.05828297138214111, 0.04558953642845154, -0.8143832037000922, 0.03555188401477288, 0.36749746035911596,0.4477293859556079,0.7844696044921875,0.6180267333984375,0.364898681640625
20220117-1837,2022-01-17 18:37:31Z,u01, 59,40,movements,el-ex, rt, d,191780.704704375, 2.0099635998484695, -0.6189142799399201, 2.663650528982356, -0.06586215645074844, 0.9058458805084229, -0.7636693120002747, 0.737216591835022, 0.5801512002944946, 0.3463175296783447, 0.0393945574760437, 0.043719589710235596, 0.04314759373664856, -0.8198500736376606, 0.03169586946856923, 0.37064339388599526,0.43527522542687846,0.7765350341796875,0.628936767578125,0.3751678466796875
20220117-1837,2022-01-17 18:37:31Z,u01, 60,40,movements,el-ex, rt, d,191780.72965037503, 2.040954740836363, -0.635297988895923, 2.6771169226655083, -0.12929369509220123, 0.9315614700317383, -0.7914255261421204, 0.7175610065460205, 0.5934174060821533, 0.3646395206451416, 0.03988522291183472, 0.04037165641784668, 0.02894565463066101, -0.8255716577648893, 0.027408042876414462, 0.3734140126390127,0.4221873950738134,0.768524169921875,0.621795654296875,0.39935302734375
20220117-1837,2022-01-17 18:37:31Z,u01, 61,40,movements,el-ex, rt, d,191780.75459737502, 2.073892339359087, -0.6511566196994044, 2.692779503854266, -0.15792131423950195, 0.9614786505699158, -0.7983698844909668, 0.696830689907074, 0.6061067581176758, 0.3834863603115082, 0.0420609712600708, 0.02345573902130127, 0.025952637195587158, -0.831397822164144, 0.02282180598246203, 0.375731051787423,0.4087579534816105,0.7518157958984375,0.6352996826171875,0.3963623046875
20220117-1837,2022-01-17 18:37:31Z,u01, 62,40,movements,el-ex, rt, d,191780.77954437502, 2.108804409632427, -0.6669246288823508, 2.7092643435959154, -0.12004096806049347, 1.0306591987609863, -0.8213634490966797, 0.6747288703918457, 0.6185725331306458, 0.40262770652770996, 0.0416254997253418, 0.03198599815368652, 0.05756211280822754, -0.8372428515562158, 0.018391965963635903, 0.37807965615224803,0.3946415293858313,0.7288818359375,0.6261444091796875,0.418701171875
20220117-1837,2022-01-17 18:37:31Z,u01, 63,40,movements,el-ex, rt, d,191780.80449166667, 2.1451622579683396, -0.6834110370862061, 2.7258744981047447, -0.09352120757102966, 1.0387243032455444, -0.8424122929573059, 0.6509965062141418, 0.6314417123794556, 0.42128947377204895, 0.05975782871246338, 0.039594054222106934, 0.0168512761592865, -0.8428792522917515, 0.014117358636725308, 0.3809353852667667,0.3797939644657806,0.714813232421875,0.6574554443359375,0.4587860107421875
20220117-1837,2022-01-17 18:37:31Z,u01, 64,40,movements,el-ex, rt, d,191780.82943866667, 2.1831293644697443, -0.6985857968778677, 2.744948106555211, -0.21513383090496063, 1.0340664386749268, -0.8215219974517822, 0.6266224980354309, 0.6431354284286499, 0.4401378929615021, 0.05190533399581909, -0.005531609058380127, 0.0059986114501953125, -0.8485148803776641, 0.009562897472790821, 0.38308989967641427,0.36492912501353036,0.70263671875,0.6595611572265625,0.435150146484375
20220117-1837,2022-01-17 18:37:32Z,u01, 65,40,movements,el-ex, rt, d,191780.85438566667, 2.2241107489252303, -0.7114686466065222, 2.767403363392008, -0.260033518075943, 1.0816664695739746, -0.8242788910865784, 0.6014342904090881, 0.6529468297958374, 0.4603663682937622, 0.058203160762786865, 0.004035592079162598, 0.013388395309448242, -0.8544940893479032, 0.004799274538571652, 0.384030796593037,0.349767279019256,0.66973876953125,0.6366119384765625,0.452392578125
20220117-1837,2022-01-17 18:37:32Z,u01, 66,40,movements,el-ex, rt, d,191780.87933166669, 2.266125052787924, -0.7240894149538671, 2.790063686298377, -0.17720335721969604, 1.0813555717468262, -0.8265436291694641, 0.5751935839653015, 0.6624535918235779, 0.4799037277698517, 0.059617817401885986, 0.025733113288879395, 0.025101065635681152, -0.8602045038740512, 0.0002848344094759092, 0.3851665390314686,0.33420783107790075,0.6592864990234375,0.6737518310546875,0.4929962158203125
20220117-1837,2022-01-17 18:37:32Z,u01, 67,40,movements,el-ex, rt, d,191780.90427866668, 2.308302449082246, -0.736852181748218, 2.812816393706575, -0.1925155073404312, 1.0850095748901367, -0.8324527740478516, 0.5481441617012024, 0.6719599962234497, 0.49800366163253784, 0.06356537342071533, 0.019629299640655518, 0.012860506772994995, -0.8654388360662941, -0.004178226059874612, 0.3866813073135308,0.31855252512150173,0.6261749267578125,0.6944427490234375,0.5045928955078125
20220117-1837,2022-01-17 18:37:32Z,u01, 68,40,movements,el-ex, rt, d,191780.92922566668, 2.352128233240588, -0.7481593036768623, 2.8371700355816567, -0.2308025062084198, 1.111980676651001, -0.8276767730712891, 0.5203717947006226, 0.6802908182144165, 0.5161569714546204, 0.04830813407897949, 0.010551035404205322, 0.017580270767211914, -0.8706344064947542, -0.008615046211267463, 0.38769174233820963,0.3026825920025627,0.596282958984375,0.6840972900390625,0.5273895263671875
20220117-1837,2022-01-17 18:37:32Z,u01, 69,40,movements,el-ex, rt, d,191780.95417266668, 2.3989440489401224, -0.7577581280591054, 2.8641341144575714, -0.2860526442527771, 1.1573760509490967, -0.8265773057937622, 0.4912073314189911, 0.6872947216033936, 0.5351086258888245, 0.06422784924507141, 0.023444414138793945, 0.014009356498718262, -0.8760023317716954, -0.013199709958223005, 0.3879777458938525,0.2862148323333326,0.5623321533203125,0.6997833251953125,0.539337158203125
20220117-1837,2022-01-17 18:37:32Z,u01, 70,40,movements,el-ex, rt, d,191780.97911966668, 2.4468034172778843, -0.7665391102102607, 2.891142101000086, -0.20595477521419525, 1.1818066835403442, -0.8226329684257507, 0.4611629545688629, 0.6936464905738831, 0.5533381700515747, 0.0682559609413147, 0.011111199855804443, 0.013952910900115967, -0.8811165503078571, -0.017398952748853558, 0.3882989736771113,0.26935990348802663,0.5482025146484375,0.709747314453125,0.563018798828125
20220117-1837,2022-01-17 18:37:32Z,u01, 71,40,movements,el-ex, rt, d,191781.00406666668, 2.494970494149959, -0.7757602469392015, 2.917821766409025, -0.15824098885059357, 1.1967413425445557, -0.8419921398162842, 0.430113822221756, 0.7002590298652649, 0.5697716474533081, 0.07289224863052368, 0.024915039539337158, 0.00521010160446167, -0.8856790366175925, -0.021411537617414267, 0.38922561671338896,0.2522254871925556,0.5238189697265625,0.7084808349609375,0.5651397705078125
20220117-1837,2022-01-17 18:37:32Z,u01, 72,40,movements,el-ex, rt, d,191781.02901266667, 2.543647018242149, -0.7853516286571365, 2.9443024111598364, -0.09910609573125839, 1.2088894844055176, -0.8267640471458435, 0.3980812430381775, 0.7070738673210144, 0.5844465494155884, 0.05948406457901001, 0.02630937099456787, 0.02364659309387207, -0.8897122226254304, -0.02520781616385387, 0.3907089905383705,0.23478326266556737,0.483795166015625,0.7428436279296875,0.5867767333984375
20220117-1837,2022-01-17 18:37:32Z,u01, 73,40,movements,el-ex, rt, d,191781.05395966666, 2.593767321694706, -0.7936828461773807, 2.9714006878946617, -0.18322709202766418, 1.249504566192627, -0.8176107406616211, 0.36522018909454346, 0.7129405736923218, 0.5986067056655884, 0.07816973328590393, 0.026408851146697998, 0.048686325550079346, -0.8935767012533526, -0.028706124843569325, 0.39195572392206246,0.2169501741351506,0.448394775390625,0.735443115234375,0.6274871826171875
20220117-1837,2022-01-17 18:37:32Z,u01, 74,40,movements,el-ex, rt, d,191781.0789066667, 2.6464916489674875, -0.7996593267879796, 3.0007442056923925, -0.2007347196340561, 1.3035353422164917, -0.8645455241203308, 0.3311357796192169, 0.7171186804771423, 0.6132616996765137, 0.05475902557373047, 0.035856783390045166, 0.05199098587036133, -0.8975451573844262, -0.03230406925192991, 0.39234141211959817,0.1985884639699218,0.4244537353515625,0.73211669921875,0.667327880859375
20220117-1837,2022-01-17 18:37:32Z,u01, 75,40,movements,el-ex, rt, d,191781.1038536667, 2.701531391781829, -0.805450489897461, 3.0322309792344266, -0.1830970048904419, 1.27754545211792, -0.9286587238311768, 0.29512348771095276, 0.7211428284645081, 0.6267815828323364, 0.07690101861953735, 0.07747173309326172, -0.0037958621978759766, -0.9011491768066153, -0.03634508209564302, 0.39288061702763044,0.1795940395021191,0.38580322265625,0.7642974853515625,0.646728515625
20220117-1837,2022-01-17 18:37:32Z,u01, 76,40,movements,el-ex, rt, d,191781.1288006667, 2.7575700730582473, -0.8112819305591241, 3.0653884664863087, -0.12834453582763672, 1.2903515100479126, -0.9419851899147034, 0.2579745948314667, 0.7251704931259155, 0.6384173035621643, 0.047430068254470825, 0.04179733991622925, 0.005228757858276367, -0.9041772809446879, -0.040891395073307635, 0.3937542117225463,0.16046460456356568,0.3483123779296875,0.7960357666015625,0.6094512939453125
20220117-1837,2022-01-17 18:37:32Z,u01, 77,40,movements,el-ex, rt, d,191781.15374666668, 2.8155294593634745, -0.8160805774905306, 3.1004010814705354, -0.20206107199192047, 1.3162871599197388, -0.9660648703575134, 0.2194426953792572, 0.7284663319587708, 0.6489851474761963, 0.052743569016456604, 0.03952383995056152, 0.04358077049255371, -0.9068629555844341, -0.0457400402220951, 0.39453465885240013,0.14088940304689185,0.2930908203125,0.7691650390625,0.6638336181640625
20220117-1837,2022-01-17 18:37:32Z,u01, 78,40,movements,el-ex, rt, d,191781.17869366668, 2.8743593691503646, -0.8178226158632774, 3.1358014455468157, -0.2115216851234436, 1.34237802028656, -0.9407405853271484, 0.18056993186473846, 0.7296586632728577, 0.6595396399497986, 0.07464854419231415, 0.004075467586517334, 0.019140660762786865, -0.9095252072845064, -0.05033604165721134, 0.3944188705055448,0.121094446213307,0.2738494873046875,0.7529144287109375,0.6917877197265625
20220117-1837,2022-01-17 18:37:32Z,u01, 79,40,movements,el-ex, rt, d,191781.20364066667, 2.9343852296661304, -0.8179450529620635, -3.11104401326609, -0.2545216977596283, 1.3726990222930908, -0.979039192199707, 0.14066073298454285, 0.7297423481941223, 0.6690970063209534, 0.09273770451545715, 0.03713393211364746, 0.043656349182128906, -0.9118754638058088, -0.05506025258753339, 0.3940390173082899,0.10091976214755943,0.2538299560546875,0.7467803955078125,0.693756103515625
20220117-1837,2022-01-17 18:37:32Z,u01, 80,40,movements,el-ex, rt, d,191781.22858766667, 2.9941474648762347, -0.8150416537955164, -3.0741851467279147, -0.33956024050712585, 1.3343126773834229, -0.9943093657493591, 0.10075745731592178, 0.7277541756629944, 0.6783960461616516, 0.08346188813447952, 0.017622292041778564, -0.007024943828582764, -0.9141085819788781, -0.060029478519936175, 0.39275467902178884,0.08090459735094122,0.2434539794921875,0.761474609375,0.68267822265625
20220117-1837,2022-01-17 18:37:32Z,u01, 81,40,movements,el-ex, rt, d,191781.25353466667, 3.0536086995941853, -0.8099876663788983, -3.037500426901617, -0.26288071274757385, 1.3690520524978638, -0.9727847576141357, 0.06058735400438309, 0.7242786884307861, 0.6868404150009155, 0.07539895921945572, 0.030726253986358643, -0.004681050777435303, -0.9160708484473004, -0.06507234814865587, 0.3909960935198398,0.060843232704182015,0.1804962158203125,0.744964599609375,0.6623382568359375
20220117-1837,2022-01-17 18:37:32Z,u01, 82,40,movements,el-ex, rt, d,191781.27848166667, 3.112940652111339, -0.8067326701642522, -3.0019717442330385, -0.15937642753124237, 1.3679759502410889, -0.9916279315948486, 0.019820498302578926, 0.722030520439148, 0.6915773153305054, 0.07586735486984253, 0.032989680767059326, 0.025097429752349854, -0.9170182248806575, -0.06975839306942361, 0.3906014043789919,0.040520432945382906,0.12091064453125,0.7430877685546875,0.6863555908203125
20220117-1837,2022-01-17 18:37:32Z,u01, 83,40,movements,el-ex, rt, d,191781.3034276667, -3.111435142933675, -0.8031560024237536, -2.9671815777475357, -0.1569594293832779, 1.314626693725586, -0.949106752872467, -0.020939385518431664, 0.7195513248443604, 0.6941235065460205, 0.11533024907112122, 0.011695623397827148, -0.020585298538208008, -0.9173567320952358, -0.07428588835932748, 0.39055047494791467,0.020213179042163187,0.1056060791015625,0.748870849609375,0.7042236328125
20220117-1837,2022-01-17 18:37:32Z,u01, 84,40,movements,el-ex, rt, d,191781.3283746667, -3.054183107652872, -0.7968919476660691, -2.933427514401004, -0.21650639176368713, 1.3163069486618042, -0.9482694864273071, -0.06101565062999725, 0.7151872515678406, 0.6962646245956421, 0.08950378745794296, -0.0013352036476135254, -0.032659947872161865, -0.9175631242820869, -0.07880499715934897, 0.389702028008939,0.00022084849835146692,0.0631561279296875,0.7300567626953125,0.6838226318359375
20220117-1837,2022-01-17 18:37:32Z,u01, 85,40,movements,el-ex, rt, d,191781.35332166668, -2.9986825100023644, -0.7889884110184929, -2.900990565930764, -0.18969053030014038, 1.318670630455017, -0.957895040512085, -0.10034691542387009, 0.7096409201622009, 0.6973811984062195, 0.07373557984828949, 0.011245429515838623, -0.014336764812469482, -0.9174730907825449, -0.08326899947522381, 0.3884997811628051,-0.019426695934185723,0.02374267578125,0.7080230712890625,0.6571197509765625
20220117-1837,2022-01-17 18:37:32Z,u01, 86,40,movements,el-ex, rt, d,191781.37826866668, -2.9441341911235215, -0.7820038180974537, -2.8699611917623553, -0.07544250786304474, 1.290798306465149, -0.9477885961532593, -0.13918867707252502, 0.7047025561332703, 0.6957158446311951, 0.06173507869243622, 0.017251789569854736, -0.02408510446548462, -0.9166394574578857, -0.08734996697310493, 0.38810529357021584,-0.038939360704950715,-0.02734375,0.7054901123046875,0.68231201171875
20220117-1837,2022-01-17 18:37:32Z,u01, 87,40,movements,el-ex, rt, d,191781.40321566668, -2.8908148408730394, -0.7756970473108589, -2.839550993449772, -0.0635264590382576, 1.23759925365448, -0.8987600803375244, -0.1771678477525711, 0.7002139091491699, 0.6916009783744812, 0.087003692984581, -0.009906291961669922, -0.019253075122833252, -0.9151190336329525, -0.09142021844552961, 0.3883751434534276,-0.05800183771712847,-0.070159912109375,0.708892822265625,0.6681060791015625
20220117-1837,2022-01-17 18:37:32Z,u01, 88,40,movements,el-ex, rt, d,191781.42816166667, -2.8405284447343067, -0.766772957641066, -2.8115609780005477, -0.20633134245872498, 1.2278293371200562, -0.8512925505638123, -0.21355195343494415, 0.6938148736953735, 0.6877620816230774, 0.07339993119239807, -0.02312999963760376, -0.019656002521514893, -0.9136748065059184, -0.09528577629894713, 0.38765514649339317,-0.07643634070695957,-0.10400390625,0.6768951416015625,0.6747589111328125
20220117-1837,2022-01-17 18:37:32Z,u01, 89,40,movements,el-ex, rt, d,191781.45310866667, -2.794148564663991, -0.7546681418666177, -2.7873249618206963, -0.23346330225467682, 1.1697900295257568, -0.7907541990280151, -0.24805068969726562, 0.6850469708442688, 0.6849679946899414, 0.09167864918708801, -0.0219915509223938, -0.03556936979293823, -0.9125516733608441, -0.09865824209936619, 0.3855343129009791,-0.09422941390583925,-0.1388092041015625,0.66546630859375,0.6543731689453125
20220117-1837,2022-01-17 18:37:32Z,u01, 90,40,movements,el-ex, rt, d,191781.47805566667, -2.7491986948423794, -0.7427265750177791, -2.764090140326717, -0.15654954314231873, 1.149355173110962, -0.798105001449585, -0.28168728947639465, 0.6762989163398743, 0.6806406378746033, 0.08840426802635193, 0.009141087532043457, -0.0335155725479126, -0.9109970889163721, -0.1020029885024854, 0.3836865917018457,-0.11164302080007851,-0.1949462890625,0.6688385009765625,0.64959716796875
20220117-1837,2022-01-17 18:37:32Z,u01, 91,40,movements,el-ex, rt, d,191781.50300266666, -2.7058903065121274, -0.7316308247242369, -2.741474409594013, -0.1156502515077591, 1.1320266723632812, -0.7818920016288757, -0.31403952836990356, 0.6680840253829956, 0.6745690703392029, 0.0712415874004364, 0.014808058738708496, -0.02837449312210083, -0.90893947007111, -0.10542093103660133, 0.3823994272627616,-0.12839892786214663,-0.2049560546875,0.6858062744140625,0.6448822021484375
20220117-1837,2022-01-17 18:37:32Z,u01, 92,40,movements,el-ex, rt, d,191781.5279496667, -2.6642040957990254, -0.7204218320871537, -2.7199856696839793, -0.1577754020690918, 1.0809903144836426, -0.7454425692558289, -0.34529778361320496, 0.6597017645835876, 0.6675050854682922, 0.056982964277267456, -0.031405746936798096, -0.029184281826019287, -0.9065985331299286, -0.10877340719070638, 0.3811945476162993,-0.14470028635411855,-0.258148193359375,0.6557159423828125,0.6473541259765625
20220117-1837,2022-01-17 18:37:32Z,u01, 93,40,movements,el-ex, rt, d,191781.5528966667, -2.6251984950780205, -0.7068864784001142, -2.7014202580075657, -0.24896016716957092, 1.057568907737732, -0.7320135831832886, -0.37543973326683044, 0.6494694352149963, 0.6612371802330017, 0.06469443440437317, -0.0067996978759765625, -0.000913083553314209, -0.9045018079651036, -0.1117813623856006, 0.37888234787388003,-0.16071596031473756,-0.301177978515625,0.6307525634765625,0.6443023681640625
20220117-1837,2022-01-17 18:37:32Z,u01, 94,40,movements,el-ex, rt, d,191781.57784266668, -2.5883540748702556, -0.6922677516365789, -2.6856766351931034, -0.26948246359825134, 1.0783942937850952, -0.7069931030273438, -0.4044881761074066, 0.6382845640182495, 0.6549673080444336, 0.061943650245666504, 0.025182902812957764, -0.012526631355285645, -0.9024585185137871, -0.11424654464294653, 0.3759812633431242,-0.1765062110192933,-0.3283233642578125,0.643218994140625,0.6549224853515625
20220117-1837,2022-01-17 18:37:32Z,u01, 95,40,movements,el-ex, rt, d,191781.60278966668, -2.5529347171378705, -0.6779237801970175, -2.6705706945832275, -0.1879415661096573, 1.005269169807434, -0.7216253876686096, -0.43246740102767944, 0.6271772384643555, 0.6477809548377991, 0.0816984474658966, 0.030995309352874756, -0.030746281147003174, -0.9001375857263926, -0.1168023914335451, 0.3732650589695028,-0.19178785403007678,-0.3394775390625,0.6616668701171875,0.6397705078125
20220117-1837,2022-01-17 18:37:32Z,u01, 96,40,movements,el-ex, rt, d,191781.62773666668, -2.5171293698643655, -0.6645813529388332, -2.654397564299544, -0.09729104489088058, 1.0175776481628418, -0.7254990339279175, -0.46023130416870117, 0.6167296171188354, 0.6386170387268066, 0.03841733932495117, 0.0018769502639770508, -0.03148519992828369, -0.8972029885741908, -0.11973020165003295, 0.3713102220527123,-0.206930427248547,-0.3993072509765625,0.6596221923828125,0.6366424560546875
20220117-1837,2022-01-17 18:37:32Z,u01, 97,40,movements,el-ex, rt, d,191781.65268366667, -2.48121679341321, -0.6518719987643523, -2.6370353786476053, -0.05047596991062164, 1.0020638704299927, -0.754697322845459, -0.48763301968574524, 0.6066756248474121, 0.6278207898139954, 0.038551509380340576, 0.03280514478683472, -0.02413731813430786, -0.8937226123126234, -0.12316775339581387, 0.3699795306847246,-0.22182158671083385,-0.43450927734375,0.62176513671875,0.605224609375
20220117-1837,2022-01-17 18:37:32Z,u01, 98,40,movements,el-ex, rt, d,191781.67763066667, -2.446138448773618, -0.6392670054453169, -2.6203754929233978, -0.07452062517404556, 1.0035628080368042, -0.7366965413093567, -0.5142105221748352, 0.5966073274612427, 0.6161551475524902, 0.04378211498260498, 0.02824002504348755, 0.0010933279991149902, -0.8899834029483509, -0.1265192106789207, 0.36879389505557114,-0.23646030485764485,-0.4576416015625,0.6449737548828125,0.617919921875
20220117-1837,2022-01-17 18:37:32Z,u01, 99,40,movements,el-ex, rt, d,191781.70257766667, -2.411956551177095, -0.6262307761207848, -2.6045834147758375, -0.028666216880083084, 0.9836615324020386, -0.7058001756668091, -0.5401062965393066, 0.5860949158668518, 0.6039684414863586, 0.06120920181274414, -0.010029852390289307, -0.003977656364440918, -0.8860758732027578, -0.1298220969184848, 0.3674899692025452,-0.2509320396142495,-0.471466064453125,0.611328125,0.6139373779296875
20220117-1837,2022-01-17 18:37:32Z,u01, 100,40,movements,el-ex, rt, d,191781.7275236667, -2.3790829065151278, -0.6133376644624201, -2.5895007034767814, -0.0500597208738327, 0.9449136853218079, -0.7112675309181213, -0.5648386478424072, 0.5755999684333801, 0.5913055539131165, 0.04957979917526245, 6.848573684692383e-05, -0.055340588092803955, -0.882006503131973, -0.13310638825242843, 0.3662819786846202,-0.2649241748410028,-0.4945831298828125,0.5691375732421875,0.585113525390625
20220117-1837,2022-01-17 18:37:32Z,u01, 101,40,movements,el-ex, rt, d,191781.7524706667, -2.3485390417374195, -0.6003897990579832, -2.575191466978918, -0.056320078670978546, 0.8639439344406128, -0.701617956161499, -0.5878941416740417, 0.5649641752243042, 0.578961193561554, 0.06323593854904175, 0.008491694927215576, -0.07307124137878418, -0.8779696889846762, -0.13656429684883054, 0.36499108276903347,-0.2780304627885204,-0.5157623291015625,0.5748291015625,0.5072479248046875
20220117-1837,2022-01-17 18:37:32Z,u01, 102,40,movements,el-ex, rt, d,191781.7774176667, -2.319550467491093, -0.587415336363354, -2.561752157094153, 0.021749887615442276, 0.8876770734786987, -0.6651906371116638, -0.6097464561462402, 0.554211437702179, 0.5666203498840332, 0.039525628089904785, 0.010729849338531494, 0.040358901023864746, -0.8739049244889321, -0.14000128307711124, 0.3636448457065289,-0.29060654410043274,-0.541229248046875,0.5888519287109375,0.527618408203125
20220117-1837,2022-01-17 18:37:32Z,u01, 103,40,movements,el-ex, rt, d,191781.80236466668, -2.2878191512446855, -0.5776641789722894, -2.5461285087904364, 0.20090626180171967, 0.9484763741493225, -0.6379620432853699, -0.6314600706100464, 0.5460686087608337, 0.55051589012146, 0.03572624921798706, -0.042223215103149414, 0.06447446346282959, -0.8687607172124422, -0.14322271751691895, 0.3642932013682242,-0.3033688747223514,-0.579345703125,0.549285888671875,0.61474609375
20220117-1837,2022-01-17 18:37:32Z,u01, 104,40,movements,el-ex, rt, d,191781.82731166668, -2.256454835187141, -0.5682549324626822, -2.5311309740728505, 0.07335732132196426, 0.8847931623458862, -0.5960993766784668, -0.6523612141609192, 0.5381620526313782, 0.5336727499961853, 0.06288361549377441, -0.025954902172088623, -0.0601009726524353, -0.8634062865306129, -0.14617102090962175, 0.3651423029291035,-0.3159664115409787,-0.5983734130859375,0.503936767578125,0.582977294921875
20220117-1837,2022-01-17 18:37:33Z,u01, 105,40,movements,el-ex, rt, d,191781.85225766667, -2.2286652075643985, -0.5572863720560105, -2.519265827964371, 0.05739186704158783, 0.8647250533103943, -0.5980614423751831, -0.6715685725212097, 0.5288851261138916, 0.5189181566238403, 0.04658389091491699, 0.008682012557983398, -0.028714478015899658, -0.8586710051108547, -0.14880589837090558, 0.36478045865839565,-0.327835446711253,-0.597808837890625,0.51800537109375,0.467315673828125
20220117-1837,2022-01-17 18:37:33Z,u01, 106,40,movements,el-ex, rt, d,191781.87720466667, -2.19958360815276, -0.5471515914543552, -2.5053272886489295, 0.20376978814601898, 0.8691050410270691, -0.6120583415031433, -0.690673291683197, 0.520256757736206, 0.5022983551025391, 0.03633064031600952, 0.01648646593093872, -0.012796342372894287, -0.8532699596979734, -0.15191956842950344, 0.3653377277360837,-0.3396752762715862,-0.6500396728515625,0.540771484375,0.5240631103515625
20220117-1837,2022-01-17 18:37:33Z,u01, 107,40,movements,el-ex, rt, d,191781.90215166667, -2.170615073364803, -0.5371856890867411, -2.490789806794461, 0.14325018227100372, 0.852258026599884, -0.6022737622261047, -0.7091768383979797, 0.5117201209068298, 0.4849852919578552, 0.037210285663604736, -0.01793038845062256, 0.0091400146484375, -0.8475745555413248, -0.15527401974012622, 0.3662242820356749,-0.35126502959460454,-0.659027099609375,0.532562255859375,0.495269775390625
20220117-1837,2022-01-17 18:37:33Z,u01, 108,40,movements,el-ex, rt, d,191781.92709866667, -2.1436048723452545, -0.5255994488121976, -2.4796010417624177, -0.015318651683628559, 0.8550959229469299, -0.6000957489013672, -0.72694993019104, 0.5017316341400146, 0.468837708234787, 0.02840268611907959, -0.006126224994659424, 0.030261904001235962, -0.8422932675565644, -0.1579902304446948, 0.3659057464437305,-0.3628966843640375,-0.6876373291015625,0.4548797607421875,0.49041748046875
20220117-1837,2022-01-17 18:37:33Z,u01, 109,40,movements,el-ex, rt, d,191781.95204566667, -2.1172843478081838, -0.5126091731779573, -2.4705280276180366, 0.05235204100608826, 0.9056230783462524, -0.6288372874259949, -0.7445427775382996, 0.49045273661613464, 0.45289304852485657, 0.03221672773361206, 0.051859915256500244, 0.07882988452911377, -0.8371003204584566, -0.16034205401714002, 0.3647478743568631,-0.37484988451808915,-0.69696044921875,0.5061187744140625,0.5112457275390625
20220117-1837,2022-01-17 18:37:33Z,u01, 110,40,movements,el-ex, rt, d,191781.9769926667, -2.0890572076561327, -0.50030899965797, -2.4589672931220203, 0.06521677225828171, 0.9052280187606812, -0.6430770754814148, -0.7622116804122925, 0.47969669103622437, 0.43465495109558105, 0.00558924674987793, 0.007638663053512573, 0.04192289710044861, -0.8310701962037359, -0.16324765757512, 0.3646109469938338,-0.38695162909417874,-0.71710205078125,0.536895751953125,0.50616455078125
20220117-1837,2022-01-17 18:37:33Z,u01, 111,40,movements,el-ex, rt, d,191782.00193866668, -2.063061161267233, -0.486165354277122, -2.451928121100224, -0.17886947095394135, 0.9031378626823425, -0.5968596935272217, -0.7791534066200256, 0.46723899245262146, 0.41786062717437744, -0.00800168514251709, -0.08795127272605896, 0.01606866717338562, -0.8256113246220844, -0.16521579611717735, 0.36286095250139605,-0.3992512338806718,-0.7708740234375,0.4513397216796875,0.4644012451171875
20220117-1837,2022-01-17 18:37:33Z,u01, 112,40,movements,el-ex, rt, d,191782.02688566668, -2.039791259704179, -0.4699960711061997, -2.4503454152985076, -0.26077061891555786, 0.8928419351577759, -0.5991132855415344, -0.7953011393547058, 0.4528827965259552, 0.4029808044433594, 0.03370434045791626, -0.026170670986175537, -0.0498008131980896, -0.8209242573767064, -0.1660534844708949, 0.3591246520127345,-0.4117513536548512,-0.7910919189453125,0.36846923828125,0.387725830078125
20220117-1837,2022-01-17 18:37:33Z,u01, 113,40,movements,el-ex, rt, d,191782.05183266668, -2.01751723242529, -0.4544837080999409, -2.4481982391290082, -0.15025490522384644, 0.8169653415679932, -0.6058332920074463, -0.8103176951408386, 0.4389984905719757, 0.38815611600875854, 0.049346745014190674, 0.027325332164764404, -0.040011703968048096, -0.8161600808781605, -0.16721476839004368, 0.35571656810564134,-0.4235416434530578,-0.755767822265625,0.4404449462890625,0.3488922119140625
20220117-1837,2022-01-17 18:37:33Z,u01, 114,40,movements,el-ex, rt, d,191782.07677966668, -1.9964307768891336, -0.43958984715642985, -2.444025266776987, -0.08870025724172592, 0.7251827716827393, -0.6066089272499084, -0.8241859078407288, 0.4255683422088623, 0.37364283204078674, 0.04881066083908081, -0.020264387130737305, -0.0963449776172638, -0.8112657835771375, -0.16931995303098368, 0.35293027888570294,-0.43430255289405034,-0.7658233642578125,0.4470672607421875,0.3222503662109375
20220117-1837,2022-01-17 18:37:33Z,u01, 115,40,movements,el-ex, rt, d,191782.10172666667, -1.9777427994539372, -0.42552795528730597, -2.4396960234966865, -0.08129183948040009, 0.6278752684593201, -0.5362268090248108, -0.8364376425743103, 0.41280171275138855, 0.36050933599472046, 0.06582295894622803, -0.04509532451629639, -0.10228487849235535, -0.8066971271481976, -0.17173939077541578, 0.35035058384755535,-0.44384665133636964,-0.7720489501953125,0.3929595947265625,0.2554473876953125
20220117-1837,2022-01-17 18:37:33Z,u01, 116,40,movements,el-ex, rt, d,191782.12667366667, -1.9621437416439504, -0.4138616815283284, -2.437077049872092, -0.10346169024705887, 0.5260112285614014, -0.39854609966278076, -0.8463534712791443, 0.40214797854423523, 0.3492315709590912, 0.07058143615722656, -0.042894989252090454, -0.12366092205047607, -0.8028420009858329, -0.17337966886252432, 0.34805127656970225,-0.4519341630513439,-0.7736968994140625,0.3710174560546875,0.2492218017578125
20220117-1837,2022-01-17 18:37:33Z,u01, 117,40,movements,el-ex, rt, d,191782.1516196667, -1.9499465332975099, -0.40506498965646903, -2.4365428542775414, -0.10722916573286057, 0.4312894642353058, -0.2606287896633148, -0.8538035750389099, 0.39407849311828613, 0.3401789963245392, 0.06786912679672241, -0.05116766691207886, -0.09985315799713135, -0.7998853361336892, -0.17399123208904987, 0.3460522417419509,-0.4584303870031148,-0.777862548828125,0.358245849609375,0.2411041259765625
20220117-1837,2022-01-17 18:37:33Z,u01, 118,40,movements,el-ex, rt, d,191782.1765666667, -1.940262999853236, -0.3997341457993214, -2.4359890551375902, 0.011076269671320915, 0.32463034987449646, -0.16312041878700256, -0.8590044379234314, 0.3891734480857849, 0.33264923095703125, 0.057155072689056396, -0.04415690898895264, -0.09665679931640625, -0.7975109461192267, -0.17407154985992873, 0.3451008077637078,-0.4632287209673362,-0.785400390625,0.3360443115234375,0.228759765625
20220117-1837,2022-01-17 18:37:33Z,u01, 119,40,movements,el-ex, rt, d,191782.2015136667, -1.9322483516518447, -0.3972374167212884, -2.433644340502673, 0.0560271330177784, 0.24457499384880066, -0.0815730169415474, -0.8625490069389343, 0.3868723511695862, 0.3260965645313263, 0.0390017032623291, -0.04188638925552368, -0.06079208850860596, -0.7953947790574531, -0.17434285346413564, 0.34544656203435165,-0.46649584048861226,-0.8095245361328125,0.350250244140625,0.25518798828125
20220117-1837,2022-01-17 18:37:33Z,u01, 120,40,movements,el-ex, rt, d,191782.2264606667, -1.9274465844266089, -0.3965387488620371, -2.433033058646692, -0.03190678358078003, 0.11544137448072433, 0.006666160188615322, -0.8643580079078674, 0.3862279951572418, 0.32204538583755493, 0.04122263193130493, -0.07551324367523193, -0.10770523548126221, -0.7942046941256096, -0.17395860805073904, 0.3457571193834825,-0.4684328752485868,-0.8238525390625,0.3288726806640625,0.2428436279296875
20220117-1837,2022-01-17 18:37:33Z,u01, 121,40,movements,el-ex, rt, d,191782.25140766668, -1.9259439518295116, -0.39674859996364614, -2.4341663451415196, -0.04024946689605713, 0.03818719834089279, 0.034838009625673294, -0.8647648096084595, 0.3864215612411499, 0.3207179605960846, 0.020007848739624023, -0.0698474645614624, -0.07860687375068665, -0.7939552474170266, -0.1731879095328558, 0.34569699302541396,-0.46918498019370847,-0.8309783935546875,0.3112335205078125,0.2260284423828125
20220117-1837,2022-01-17 18:37:33Z,u01, 122,40,movements,el-ex, rt, d,191782.27635366668, -1.9264749738356266, -0.3977367609079344, -2.4356110892375447, -0.01751762256026268, -0.035275496542453766, 0.06755714118480682, -0.8642361164093018, 0.3873327672481537, 0.32104405760765076, 0.017754852771759033, -0.0270422101020813, -0.041503071784973145, -0.7942252467827222, -0.17241891734256115, 0.3456660816501856,-0.4690340683241608,-0.839508056640625,0.328460693359375,0.2410888671875
20220117-1837,2022-01-17 18:37:33Z,u01, 123,40,movements,el-ex, rt, d,191782.30130066667, -1.9283990730351683, -0.39958828614664127, -2.435957958449374, 0.025443725287914276, -0.13731257617473602, 0.09327668696641922, -0.8629434704780579, 0.3890390992164612, 0.3224547207355499, 0.010908007621765137, -0.033219337463378906, -0.05986630916595459, -0.7947434769456818, -0.17207606359702748, 0.34608232129122546,-0.4679739748652043,-0.850341796875,0.3684844970703125,0.2765960693359375
20220117-1837,2022-01-17 18:37:33Z,u01, 124,40,movements,el-ex, rt, d,191782.32624766667, -1.9320946071305298, -0.4018417351502967, -2.4363037905371643, 0.014417638070881367, -0.213300421833992, 0.12885399162769318, -0.8609235882759094, 0.3911140263080597, 0.32533079385757446, 0.01696014404296875, -0.05770951509475708, -0.08984199166297913, -0.7956803826250323, -0.17192478346060336, 0.34649150680311713,-0.46613104546607664,-0.8524017333984375,0.334136962890625,0.23846435546875
20220117-1837,2022-01-17 18:37:33Z,u01, 125,40,movements,el-ex, rt, d,191782.35119466667, -1.9382783405618733, -0.40568128567476736, -2.4369686284348773, 0.020720474421977997, -0.30908939242362976, 0.20958971977233887, -0.8574876189231873, 0.3946448266506195, 0.33010631799697876, 0.03358942270278931, -0.04875865578651428, -0.09583821892738342, -0.7972447437997983, -0.17162161489221878, 0.34718422740307747,-0.4630441240666842,-0.8380126953125,0.3419342041015625,0.23541259765625
20220117-1837,2022-01-17 18:37:33Z,u01, 126,40,movements,el-ex, rt, d,191782.37614166667, -1.9471274818467834, -0.41117714165567215, -2.439016431477443, -0.0011013657785952091, -0.392988383769989, 0.26952993869781494, -0.8525031208992004, 0.39968863129615784, 0.3368792235851288, 0.04020148515701294, -0.03009018301963806, -0.07006406784057617, -0.7995506334729285, -0.17075827690398598, 0.34793215209653106,-0.4588067863524579,-0.820587158203125,0.3412322998046875,0.2465362548828125
20220117-1837,2022-01-17 18:37:33Z,u01, 127,40,movements,el-ex, rt, d,191782.40108866667, -1.9575956616246393, -0.4182589293184481, -2.440573324041465, 0.08773549646139145, -0.4661572277545929, 0.3301715850830078, -0.8462872505187988, 0.4061700701713562, 0.34470832347869873, 0.031132221221923828, -0.0365259051322937, -0.06852436065673828, -0.8021709925712044, -0.1699289929072748, 0.34924049350497766,-0.45351620271879933,-0.8109130859375,0.371185302734375,0.2661590576171875
20220117-1837,2022-01-17 18:37:33Z,u01, 128,40,movements,el-ex, rt, d,191782.42603466669, -1.9704799435341238, -0.4274657750111098, -2.441296400981032, 0.14910665154457092, -0.5446500778198242, 0.36896467208862305, -0.8382954597473145, 0.41456595063209534, 0.35411304235458374, 0.0376514196395874, -0.034591495990753174, -0.10064932703971863, -0.8052351694433708, -0.16927151076760555, 0.3513167660609189,-0.44667672682832704,-0.810150146484375,0.37457275390625,0.26165771484375
20220117-1837,2022-01-17 18:37:33Z,u01, 129,40,movements,el-ex, rt, d,191782.45098166668, -1.9847638825503278, -0.438717227885609, -2.440236209071256, 0.29407668113708496, -0.6178601980209351, 0.4179408550262451, -0.8288286924362183, 0.4247785210609436, 0.3641512095928192, 0.03648561239242554, -0.042240649461746216, -0.09817531704902649, -0.8083949508081086, -0.16903611111161182, 0.35442610062883745,-0.43852764552281126,-0.79541015625,0.3746795654296875,0.244110107421875
20220117-1837,2022-01-17 18:37:33Z,u01, 130,40,movements,el-ex, rt, d,191782.47592866668, -1.9986319096234315, -0.4531184225381046, -2.435390803677641, 0.46998023986816406, -0.6469695568084717, 0.4882856607437134, -0.8180478811264038, 0.43777137994766235, 0.3730330467224121, 0.04061269760131836, -0.02048930525779724, -0.009584009647369385, -0.8110553042932014, -0.16942792237241322, 0.35953756121089625,-0.4292040562522541,-0.7869415283203125,0.402587890625,0.3065185546875
20220117-1837,2022-01-17 18:37:33Z,u01, 131,40,movements,el-ex, rt, d,191782.50087566668, -2.0128905993489785, -0.47000303031654556, -2.430626743052558, 0.35682111978530884, -0.671714186668396, 0.587127685546875, -0.8058494925498962, 0.45288899540901184, 0.38144198060035706, 0.036226749420166016, -0.07215172052383423, 0.012707650661468506, -0.8136829347052172, -0.16923674247347298, 0.3654785239700899,-0.4191710580299732,-0.7757415771484375,0.4105987548828125,0.381683349609375
20220117-1837,2022-01-17 18:37:33Z,u01, 132,40,movements,el-ex, rt, d,191782.52582266668, -2.030608931598762, -0.48710030717215785, -2.43172628270521, 0.16694490611553192, -0.7104893326759338, 0.6704965233802795, -0.7919094562530518, 0.46806541085243225, 0.39216575026512146, 0.03510415554046631, -0.10223597288131714, -0.04238861799240112, -0.8173671550554671, -0.16731349989114908, 0.36998356054567105,-0.408692071340861,-0.76483154296875,0.3799896240234375,0.4050445556640625
20220117-1837,2022-01-17 18:37:33Z,u01, 133,40,movements,el-ex, rt, d,191782.55076966668, -2.0524007882590865, -0.5045963887452003, -2.4373985807765988, 0.10318948328495026, -0.8125707507133484, 0.7279598116874695, -0.7757990956306458, 0.483454167842865, 0.40547284483909607, 0.0401422381401062, -0.07955393195152283, -0.10177713632583618, -0.8220459679425436, -0.16424630232984877, 0.3734285464504841,-0.3972591447669587,-0.753204345703125,0.36956787109375,0.313690185546875
20220117-1837,2022-01-17 18:37:33Z,u01, 134,40,movements,el-ex, rt, d,191782.57571566667, -2.076634887451432, -0.5220213520179, -2.4440583593403695, 0.16219592094421387, -0.8539826273918152, 0.7041910886764526, -0.7582607865333557, 0.4986332952976227, 0.4200066328048706, 0.04256248474121094, -0.01608923077583313, -0.01303952932357788, -0.827027777735333, -0.16133311324215732, 0.37655891286527815,-0.3849676910193367,-0.733673095703125,0.446533203125,0.32147216796875
20220117-1837,2022-01-17 18:37:33Z,u01, 135,40,movements,el-ex, rt, d,191782.60066266666, -2.100540762777512, -0.5405744239521896, -2.4491012016408673, 0.21658195555210114, -0.8472426533699036, 0.7307204604148865, -0.7398926615715027, 0.5146285891532898, 0.4332617521286011, 0.05018037557601929, 0.00413966178894043, 0.03252783417701721, -0.8315088083237547, -0.15882056507866327, 0.38055043788517756,-0.3722234804847594,-0.706787109375,0.4878692626953125,0.419952392578125
20220117-1837,2022-01-17 18:37:33Z,u01, 136,40,movements,el-ex, rt, d,191782.6256096667, -2.126111205580244, -0.5582401070646322, -2.456120885611332, 0.09697716683149338, -0.9009436964988708, 0.7173930406570435, -0.7207352519035339, 0.5296943187713623, 0.4471743404865265, 0.00448763370513916, -0.02868717908859253, -0.028122246265411377, -0.8361862159216336, -0.15614028327002338, 0.38382305016864804,-0.3592948201862488,-0.6875762939453125,0.542938232421875,0.47552490234375
20220117-1837,2022-01-17 18:37:33Z,u01, 137,40,movements,el-ex, rt, d,191782.6505566667, -2.154314422032651, -0.5739129965383273, -2.4667656316906865, 0.020299531519412994, -0.8895421624183655, 0.7196033596992493, -0.7008237838745117, 0.5429222583770752, 0.46268969774246216, -0.018918097019195557, -0.011031270027160645, -0.05286902189254761, -0.8413791515136015, -0.1530554412301064, 0.3856377555208897,-0.34632179547869685,-0.724761962890625,0.4989013671875,0.4098358154296875
20220117-1837,2022-01-17 18:37:33Z,u01, 138,40,movements,el-ex, rt, d,191782.6755036667, -2.1826181530092175, -0.5902806256033505, -2.4768528722609453, 0.17139974236488342, -0.9142951965332031, 0.7233569025993347, -0.6800826787948608, 0.55659419298172, 0.4771691858768463, 0.03184354305267334, 0.055237531661987305, -0.04923653602600098, -0.8461949459027232, -0.1501289903652876, 0.3879632160949577,-0.3330164308569541,-0.6852264404296875,0.559661865234375,0.39691162109375
20220117-1837,2022-01-17 18:37:33Z,u01, 139,40,movements,el-ex, rt, d,191782.70044966668, -2.209425124387083, -0.6085784070705395, -2.4844151381814146, 0.1854102462530136, -0.8725391626358032, 0.7434073686599731, -0.6587600708007812, 0.57170170545578, 0.48907315731048584, 0.03308868408203125, 0.012954175472259521, 0.028169214725494385, -0.850147269500758, -0.14760148176962012, 0.3916963931145275,-0.3194329800214274,-0.6407012939453125,0.60345458984375,0.4485321044921875
20220117-1837,2022-01-17 18:37:33Z,u01, 140,40,movements,el-ex, rt, d,191782.72539666668, -2.239134095618732, -0.6241419696749693, -2.4978470162025617, -0.1480684131383896, -0.8975755572319031, 0.770343005657196, -0.6368805170059204, 0.5844012498855591, 0.5028504133224487, 0.07151186466217041, -0.006550848484039307, 0.023684561252593994, -0.8548171141824226, -0.1439197953427105, 0.3933963633196082,-0.30629094884993413,-0.6122894287109375,0.57025146484375,0.5524749755859375
20220117-1837,2022-01-17 18:37:33Z,u01, 141,40,movements,el-ex, rt, d,191782.75034366667, -2.2757458825587165, -0.6351141513883989, -2.5193608600692494, -0.31861868500709534, -1.0020558834075928, 0.7694559693336487, -0.6131266951560974, 0.593269407749176, 0.5216389298439026, 0.04559123516082764, -0.004188477993011475, -0.07371729612350464, -0.8610580060323664, -0.1392788001224134, 0.3918373214698037,-0.2926501190893431,-0.55853271484375,0.5808868408203125,0.4962310791015625
20220117-1837,2022-01-17 18:37:33Z,u01, 142,40,movements,el-ex, rt, d,191782.77529066667, -2.3131771237848993, -0.6451913275872164, -2.5397512286447173, -0.05882780998945236, -0.9831302762031555, 0.6826772689819336, -0.5887408256530762, 0.6013513207435608, 0.5401489734649658, 0.017589092254638672, 0.09013122320175171, -0.02154850959777832, -0.867017909968067, -0.13547851451793164, 0.39031555071303187,-0.2785306177270386,-0.5797882080078125,0.61199951171875,0.4400482177734375
20220117-1837,2022-01-17 18:37:33Z,u01, 143,40,movements,el-ex, rt, d,191782.80023766667, -2.3430058446372994, -0.6601852348078358, -2.5504216116364242, 0.34378737211227417, -0.8937496542930603, 0.6534238457679749, -0.5658459067344666, 0.6132631897926331, 0.5511139035224915, 0.019886493682861328, 0.08345311880111694, 0.046008169651031494, -0.8705027022660542, -0.13334913186146852, 0.39281597489969977,-0.2648369688942753,-0.560882568359375,0.6999359130859375,0.548248291015625
20220117-1837,2022-01-17 18:37:33Z,u01, 144,40,movements,el-ex, rt, d,191782.82518512502, -2.370137295404622, -0.6777873580266534, -2.5578390118404237, 0.26505863666534424, -0.9169797897338867, 0.6803812980651855, -0.5430763959884644, 0.6270710229873657, 0.5584355592727661, 0.04390031099319458, 0.024052143096923828, 0.0021265149116516113, -0.8728597325521268, -0.13165743582532208, 0.3970937758706504,-0.25119484298004646,-0.5252685546875,0.6847381591796875,0.587371826171875
20220117-1837,2022-01-17 18:37:34Z,u01, 145,40,movements,el-ex, rt, d,191782.85013112501, -2.4019342750263606, -0.6924358714759326, -2.5710764145055878, 0.028809525072574615, -0.9344529509544373, 0.7183961868286133, -0.5188007950782776, 0.6384139657020569, 0.5685716867446899, 0.018922746181488037, -0.018357574939727783, -0.02131521701812744, -0.8761373054658705, -0.1291095465095894, 0.39929345327929056,-0.23723200201606978,-0.4967041015625,0.6332550048828125,0.5501708984375
20220117-1837,2022-01-17 18:37:34Z,u01, 146,40,movements,el-ex, rt, d,191782.875078125, -2.435660762394481, -0.7048864036302736, -2.588182586779637, 0.0741114616394043, -0.8604735732078552, 0.7082350850105286, -0.4941379427909851, 0.6479473114013672, 0.5796477198600769, 0.005154907703399658, -0.0025312304496765137, 0.01829826831817627, -0.8797715258828906, -0.1258011711540028, 0.40022133103031693,-0.22360425034025383,-0.4988861083984375,0.5997772216796875,0.5348663330078125
20220117-1837,2022-01-17 18:37:34Z,u01, 147,40,movements,el-ex, rt, d,191782.900025125, -2.4669604086508388, -0.7196334975683014, -2.603152730358715, 0.20213483273983002, -0.8732820153236389, 0.736954391002655, -0.4697364270687103, 0.6591091156005859, 0.5873013734817505, 0.04653388261795044, 0.030893385410308838, 0.008111715316772461, -0.8823965553848001, -0.12258474491434079, 0.40268225709618516,-0.21022919338117285,-0.4692230224609375,0.6578216552734375,0.587677001953125
20220117-1837,2022-01-17 18:37:34Z,u01, 148,40,movements,el-ex, rt, d,191782.924972125, -2.5013991421710804, -0.7338843078475817, -2.6208164900290183, 0.005018876865506172, -0.9465809464454651, 0.802918553352356, -0.44357961416244507, 0.6697590947151184, 0.5955330729484558, 0.06474971771240234, -0.021199524402618408, 0.007158458232879639, -0.8852113054792845, -0.11902721395577531, 0.40467751664966645,-0.19613641441639046,-0.400146484375,0.6950836181640625,0.6155853271484375
20220117-1837,2022-01-17 18:37:34Z,u01, 149,40,movements,el-ex, rt, d,191782.949919125, -2.543486299751939, -0.7421304944150248, -2.6476213049184123, -0.3028643727302551, -0.935392439365387, 0.868667483329773, -0.41500598192214966, 0.6758596897125244, 0.6090843081474304, 0.014890044927597046, -0.07229822874069214, -0.021514177322387695, -0.8896705513555396, -0.11414235771282855, 0.4031250589137782,-0.18151589124517065,-0.38067626953125,0.6387176513671875,0.5908050537109375
20220117-1837,2022-01-17 18:37:34Z,u01, 150,40,movements,el-ex, rt, d,191782.974865125, -2.585301222417916, -0.7490473888903119, -2.6764447545408263, -0.16208578646183014, -0.8638939261436462, 0.849656343460083, -0.38670408725738525, 0.6809414625167847, 0.6219154596328735, -0.039870649576187134, -0.06764483451843262, -0.04118126630783081, -0.8939693782658487, -0.1085195540747102, 0.40119583998633285,-0.16758341701725238,-0.4324188232421875,0.5665130615234375,0.6062469482421875
20220117-1837,2022-01-17 18:37:34Z,u01, 151,40,movements,el-ex, rt, d,191782.99981212502, -2.6245789629073037, -0.7577534096967407, -2.7023501274347073, -0.009639794006943703, -0.8468326330184937, 0.7997273802757263, -0.35904064774513245, 0.6872913241386414, 0.6314431428909302, 0.012055754661560059, 0.03669250011444092, 0.04825949668884277, -0.8972345495616951, -0.10340082475033852, 0.4007412718614776,-0.15389882430288906,-0.4025421142578125,0.65216064453125,0.598785400390625
20220117-1837,2022-01-17 18:37:34Z,u01, 152,40,movements,el-ex, rt, d,191783.02475912502, -2.6619290078297317, -0.7681270905143408, -2.726043787426773, 0.0011997707188129425, -0.8837422728538513, 0.8137826919555664, -0.3319031596183777, 0.6947894096374512, 0.6380502581596375, 0.1056763231754303, 0.0020490288734436035, 0.01829129457473755, -0.8996027837218327, -0.09869128378570707, 0.40156915221814693,-0.140417758076637,-0.311798095703125,0.7145538330078125,0.746795654296875
20220117-1837,2022-01-17 18:37:34Z,u01, 153,40,movements,el-ex, rt, d,191783.04970612502, -2.706079476284076, -0.7752515010083546, -2.7536077675846453, -0.1411987543106079, -1.0873228311538696, 0.8193721771240234, -0.3013227581977844, 0.6998957395553589, 0.6475731134414673, 0.09146857261657715, -0.055364251136779785, -0.1416831612586975, -0.9027324137844807, -0.09413146801675892, 0.4006999867808326,-0.12511226166295786,-0.2058868408203125,0.673004150390625,0.5978240966796875
20220117-1837,2022-01-17 18:37:34Z,u01, 154,40,movements,el-ex, rt, d,191783.07465312502, -2.751926735922275, -0.7826462627740688, -2.7793831440982695, 0.21049614250659943, -1.0705640316009521, 0.790144145488739, -0.26935338973999023, 0.7051582336425781, 0.6558966040611267, -0.025293797254562378, -0.0087471604347229, -0.07266002893447876, -0.9053833271490779, -0.09071561890457908, 0.40031065989571957,-0.10864157644295702,-0.2443084716796875,0.6748504638671875,0.4853515625
20220117-1837,2022-01-17 18:37:34Z,u01, 155,40,movements,el-ex, rt, d,191783.09960012502, -2.789639892233372, -0.7991452757886535, -2.798852747401815, 0.46351295709609985, -0.8750683665275574, 0.7224836349487305, -0.24038803577423096, 0.7167603373527527, 0.6545748114585876, 0.0031749308109283447, 0.06261289119720459, 0.16946077346801758, -0.9053286281764541, -0.08756412513679024, 0.4049094787424751,-0.09359968468630295,-0.3015899658203125,0.72723388671875,0.687744140625
20220117-1837,2022-01-17 18:37:34Z,u01, 156,40,movements,el-ex, rt, d,191783.124546125, -2.8311287183356972, -0.8116422268457598, -2.8233810325698627, -0.04219866916537285, -1.0549259185791016, 0.896963894367218, -0.2102784663438797, 0.7254185080528259, 0.6554015874862671, 0.1348695009946823, -0.0349428653717041, 0.0046936869621276855, -0.9059358956747681, -0.08355200368245291, 0.4076061466069114,-0.07846352217820488,-0.137115478515625,0.7996673583984375,0.8029632568359375
20220117-1837,2022-01-17 18:37:34Z,u01, 157,40,movements,el-ex, rt, d,191783.149493125, -2.882520355728624, -0.8123638156256993, -2.8564910630032236, -0.29255926609039307, -1.0698763132095337, 0.8557417988777161, -0.1761993169784546, 0.7259150147438049, 0.6648317575454712, 0.00246274471282959, -0.058403968811035156, -0.13982272148132324, -0.9089506417394824, -0.07889616931105042, 0.4046789432861543,-0.061798779213953936,-0.1014862060546875,0.6592254638671875,0.5963287353515625
20220117-1837,2022-01-17 18:37:34Z,u01, 158,40,movements,el-ex, rt, d,191783.174440125, -2.9288107597360344, -0.8167367215473296, -2.8861117101451104, 0.2802053391933441, -0.9362845420837402, 0.7941451072692871, -0.1445745825767517, 0.7289156913757324, 0.66916424036026, -0.03166447579860687, 0.048855602741241455, 0.016382813453674316, -0.9105175301745492, -0.07443084359421226, 0.40406526692093936,-0.04636085300202311,-0.20135498046875,0.7070465087890625,0.5897064208984375
20220117-1837,2022-01-17 18:37:34Z,u01, 159,40,movements,el-ex, rt, d,191783.199387125, -2.9708037221794337, -0.8304235621890745, -2.9113364666612296, 0.4154687821865082, -0.9736459851264954, 0.7859450578689575, -0.11464869976043701, 0.7382171750068665, 0.6647491455078125, 0.05822168290615082, 0.0957062840461731, 0.08073431253433228, -0.9096135702661001, -0.0705530718575531, 0.4082183521260463,-0.031357590627125204,-0.1456146240234375,0.8116455078125,0.7052154541015625
20220117-1837,2022-01-17 18:37:34Z,u01, 160,40,movements,el-ex, rt, d,191783.224334125, -3.017407811388511, -0.8373039415258071, -2.94068246951561, -0.14854711294174194, -1.005253791809082, 0.8738044500350952, -0.08292421698570251, 0.7428408861160278, 0.6643121242523193, 0.0931323692202568, -0.05167895555496216, 0.08303266763687134, -0.9098097438014282, -0.06634969772257648, 0.40938588437802625,-0.01571699793694667,-0.0089111328125,0.78302001953125,0.7800750732421875
20220117-1837,2022-01-17 18:37:34Z,u01, 161,40,movements,el-ex, rt, d,191783.24928012502, -3.0675468289757917, -0.8305718861151914, -2.9748419713408762, -0.4558800756931305, -0.9520602226257324, 0.8448371291160583, -0.049894824624061584, 0.7383171916007996, 0.6726051568984985, 0.029905833303928375, -0.02843266725540161, -0.009412646293640137, -0.9124412439356115, -0.06126625686955994, 0.40459515114103206,-0.00017467609402646578,0.005157470703125,0.686370849609375,0.6994476318359375
20220117-1837,2022-01-17 18:37:34Z,u01, 162,40,movements,el-ex, rt, d,191783.27422712502, -3.111780590810659, -0.8253186021578495, -3.005316993850878, 0.02454620599746704, -0.7871428728103638, 0.7852201461791992, -0.02021920680999756, 0.7347639203071594, 0.6780214309692383, -0.023176787421107292, 0.0887223482131958, 0.06277745962142944, -0.9142373089675842, -0.056399029846093685, 0.4010014055167357,0.013679693923203007,-0.049774169921875,0.760101318359375,0.679901123046875
20220117-1837,2022-01-17 18:37:34Z,u01, 163,40,movements,el-ex, rt, d,191783.29917412502, 3.1307548096745847, -0.8301384300089565, -3.033392591300945, 0.2502858638763428, -0.8538569211959839, 0.7526273727416992, 0.007312946021556854, 0.7380247712135315, 0.6747338175773621, 0.04052335023880005, 0.133633553981781, 0.04862421751022339, -0.9136179691341666, -0.05166342203110513, 0.402389259217986,0.02675656559097292,-0.0190887451171875,0.849517822265625,0.7455902099609375
20220117-1837,2022-01-17 18:37:34Z,u01, 164,40,movements,el-ex, rt, d,191783.324121125, 3.0864842424431624, -0.8330102601513727, -3.0616205799637024, -0.0066540902480483055, -0.9660199880599976, 0.7502925395965576, 0.037049997597932816, 0.7399595975875854, 0.6716304421424866, 0.0005324222147464752, -0.0028684139251708984, -0.04576069116592407, -0.9129850591451304, -0.04768115286735414, 0.4030827880745075,0.04134180645619867,0.0660400390625,0.8320770263671875,0.7035369873046875
20220117-1837,2022-01-17 18:37:34Z,u01, 165,40,movements,el-ex, rt, d,191783.349068125, 3.042368531549243, -0.831258211758224, -3.0889719343175166, 0.0729641392827034, -0.8854988813400269, 0.7311123609542847, 0.06676210463047028, 0.7387799024581909, 0.6706318855285645, -0.04109680652618408, -0.022120356559753418, -0.04412126541137695, -0.9128938282058467, -0.04405446697218934, 0.40193562299791596,0.05596281820439036,0.0317230224609375,0.722564697265625,0.604034423828125
20220117-1837,2022-01-17 18:37:34Z,u01, 166,40,movements,el-ex, rt, d,191783.374015125, 3.0013947741933813, -0.8334487009962359, -3.1162821851742195, 0.2192583680152893, -0.8052825927734375, 0.7026207447052002, 0.0939503163099289, 0.7402544021606445, 0.6657302379608154, 0.0342387855052948, 0.02439403533935547, 0.04645848274230957, -0.9117421537435553, -0.039891724326416134, 0.40293038934027686,0.0691519484391761,0.03955078125,0.731597900390625,0.68450927734375
20220117-1837,2022-01-17 18:37:34Z,u01, 167,40,movements,el-ex, rt, d,191783.398961125, 2.9604094526619256, -0.8340001784966584, 3.140353080051585, 0.029965706169605255, -0.9276161789894104, 0.7256521582603455, 0.12107536941766739, 0.7406250834465027, 0.6609200239181519, 0.08523869514465332, 0.01137387752532959, 0.012190818786621094, -0.9105813853327573, -0.03607683359432534, 0.40340979743093985,0.08246537248342886,0.157806396484375,0.7749176025390625,0.71514892578125
20220117-1837,2022-01-17 18:37:34Z,u01, 168,40,movements,el-ex, rt, d,191783.423908125, 2.916153634289867, -0.8281388642483632, 3.1136001420193002, -0.1300261914730072, -0.9961134195327759, 0.7429260015487671, 0.15116454660892487, 0.7366740703582764, 0.6591359376907349, 0.03351254761219025, -0.031107723712921143, -0.06390601396560669, -0.910225506703515, -0.03251923676338686, 0.40118699335763097,0.09736990169670326,0.2121124267578125,0.7124176025390625,0.636932373046875
20220117-1837,2022-01-17 18:37:34Z,u01, 169,40,movements,el-ex, rt, d,191783.44885512503, 2.872471267118062, -0.8229736296340683, 3.087441594839648, 0.12649767100811005, -0.932343602180481, 0.7562645673751831, 0.18081317842006683, 0.733171284198761, 0.6555656790733337, 0.0032230764627456665, -0.0026262402534484863, -0.03552490472793579, -0.9093618104953922, -0.029050506078719174, 0.3995403198901176,0.11218135115746494,0.1804351806640625,0.717010498046875,0.5910186767578125
20220117-1837,2022-01-17 18:37:34Z,u01, 170,40,movements,el-ex, rt, d,191783.47380212502, 2.8294241025643236, -0.8219070658351199, 3.0592633448180453, 0.17344121634960175, -0.8852442502975464, 0.7310013175010681, 0.20909728109836578, 0.7324455380439758, 0.6479212045669556, 0.040368661284446716, 0.02191847562789917, 0.05558520555496216, -0.9073844612709168, -0.024779619338779257, 0.4001577010293558,0.12614762385130895,0.18878173828125,0.7481842041015625,0.67938232421875
20220117-1837,2022-01-17 18:37:34Z,u01, 171,40,movements,el-ex, rt, d,191783.49874912502, 2.786672575513943, -0.8176988089478066, 3.032566498807379, -0.06472867727279663, -0.9774824976921082, 0.771483302116394, 0.23766657710075378, 0.7295739650726318, 0.641277551651001, 0.05841502547264099, -0.0035606026649475098, 0.03071969747543335, -0.9056508065747265, -0.020865834857252297, 0.39955469634453356,0.14041872518271525,0.2712249755859375,0.746368408203125,0.6861419677734375
20220117-1837,2022-01-17 18:37:34Z,u01, 172,40,movements,el-ex, rt, d,191783.523695125, 2.7434671396337946, -0.8058527952155746, 3.008051149979914, -0.21542726457118988, -1.0539658069610596, 0.7932101488113403, 0.26847466826438904, 0.721421480178833, 0.6383357048034668, 0.019153475761413574, -0.030839145183563232, -0.1027827262878418, -0.9049154340707299, -0.01720176207139873, 0.39564979498839353,0.15586341651901645,0.3028564453125,0.703857421875,0.6235809326171875
20220117-1837,2022-01-17 18:37:34Z,u01, 173,40,movements,el-ex, rt, d,191783.548642125, 2.699839101991269, -0.7954295278578319, 2.983698188148166, 0.007608301937580109, -1.0413646697998047, 0.7927943468093872, 0.29925835132598877, 0.7141643166542053, 0.632782518863678, -0.009936481714248657, -0.008704721927642822, -0.07663023471832275, -0.9034406562534099, -0.013646860239468761, 0.392655574164057,0.17155270877495143,0.282318115234375,0.6952972412109375,0.5398406982421875
20220117-1837,2022-01-17 18:37:34Z,u01, 174,40,movements,el-ex, rt, d,191783.573589125, 2.654835452111452, -0.7875001687592362, 2.9574918207962027, 0.04397183656692505, -1.0637909173965454, 0.8093550801277161, 0.3300618529319763, 0.7085915803909302, 0.623664379119873, 0.02644449472427368, -0.011905789375305176, 0.04511308670043945, -0.9009653312031164, -0.009677964028856734, 0.39122746664737273,0.1873737105280267,0.3113250732421875,0.707366943359375,0.5960235595703125
20220117-1837,2022-01-17 18:37:34Z,u01, 175,40,movements,el-ex, rt, d,191783.598536125, 2.6095850015857853, -0.7771626515567198, 2.9320730250003657, -0.07018060237169266, -1.1022439002990723, 0.8729020357131958, 0.36163201928138733, 0.7012594938278198, 0.6143757104873657, 0.02513253688812256, -0.03838711977005005, 0.03233742713928223, -0.8984183561693722, -0.005683178728723759, 0.3889857721267344,0.20372099598221388,0.366729736328125,0.6882476806640625,0.6811676025390625
20220117-1837,2022-01-17 18:37:34Z,u01, 176,40,movements,el-ex, rt, d,191783.623483125, 2.564774350591962, -0.7652683285806033, 2.9065214821822063, 0.04685870558023453, -1.0425927639007568, 0.8408658504486084, 0.393311470746994, 0.6927305459976196, 0.6045082211494446, 0.025176018476486206, -0.025845229625701904, -0.002366006374359131, -0.8956856286294634, -0.0011707469679796412, 0.3864164169684938,0.2200639666229415,0.396575927734375,0.638824462890625,0.610931396484375
20220117-1837,2022-01-17 18:37:34Z,u01, 177,40,movements,el-ex, rt, d,191783.648430125, 2.5212524901950397, -0.755468319251573, 2.881689953000961, 0.06190762296319008, -1.0790836811065674, 0.804154098033905, 0.4231663644313812, 0.685629665851593, 0.5923193693161011, 0.08556163311004639, 0.017953157424926758, 0.038906097412109375, -0.8922724811569962, 0.003081888503985719, 0.3850186358881026,0.23579860042976258,0.4476470947265625,0.6894378662109375,0.596954345703125
20220117-1837,2022-01-17 18:37:34Z,u01, 178,40,movements,el-ex, rt, d,191783.67337612502, 2.4785233924800742, -0.7417883442003804, 2.8604506458457526, -0.2252495437860489, -1.1738018989562988, 0.8510627746582031, 0.4538131058216095, 0.675607442855835, 0.5810409188270569, 0.08526468276977539, 0.008520424365997314, 0.054365575313568115, -0.8890872375848503, 0.00665925518669952, 0.3818345409727427,0.2523529853071659,0.5357513427734375,0.7017059326171875,0.650054931640625
20220117-1837,2022-01-17 18:37:34Z,u01, 179,40,movements,el-ex, rt, d,191783.69832312502, 2.437597595819408, -0.7228671547619765, 2.8430358749848255, -0.23944692313671112, -1.1445896625518799, 0.8778753280639648, 0.4853941798210144, 0.6615375280380249, 0.5716297626495361, 0.00728154182434082, 0.0029979944229125977, 0.05599468946456909, -0.8864053256447326, 0.010024462441061865, 0.3762057625939512,0.26954467131951015,0.5284881591796875,0.673095703125,0.6195220947265625
20220117-1837,2022-01-17 18:37:34Z,u01, 180,40,movements,el-ex, rt, d,191783.72327012502, 2.3987523575947733, -0.7062227609158939, 2.8257806259010767, -0.056554704904556274, -1.066142201423645, 0.7780303359031677, 0.5146045684814453, 0.6489646434783936, 0.560381293296814, 0.030653059482574463, 0.121421217918396, 0.01829296350479126, -0.8831802677401644, 0.013537878141320625, 0.37178053096304253,0.2856372314089903,0.4980010986328125,0.684051513671875,0.595672607421875
20220117-1837,2022-01-17 18:37:34Z,u01, 181,40,movements,el-ex, rt, d,191783.74821712502, 2.360685285942821, -0.694017927148409, 2.8069047151200563, 0.09051563590765, -1.0234975814819336, 0.724260687828064, 0.5410940647125244, 0.6396308541297913, 0.5459758639335632, 0.049390554428100586, 0.10179376602172852, 0.05180239677429199, -0.8790287690316154, 0.017215378455610886, 0.369714079699325,0.30053880668973226,0.5647430419921875,0.7698516845703125,0.595550537109375
20220117-1837,2022-01-17 18:37:34Z,u01, 182,40,movements,el-ex, rt, d,191783.773164125, 2.3236092357833757, -0.6826711373313222, 2.7886859305569613, 0.08506926894187927, -1.0291208028793335, 0.7084968090057373, 0.5662202835083008, 0.6308677792549133, 0.5304716229438782, 0.03200042247772217, 0.0679084062576294, -0.0210113525390625, -0.8745323261355489, 0.0207130162346299, 0.36814951998389833,0.31500796771815315,0.596435546875,0.7174072265625,0.565277099609375
20220117-1837,2022-01-17 18:37:34Z,u01, 183,40,movements,el-ex, rt, d,191783.798110125, 2.288352973240147, -0.6705230159105827, 2.7720293203993145, 0.007716992869973183, -0.940048098564148, 0.6816439628601074, 0.5902978181838989, 0.6213958263397217, 0.5151849389076233, -1.1622905731201172e-05, 0.060794055461883545, 0.08282214403152466, -0.870063516229628, 0.02412355411860112, 0.3662219241756497,0.3290729212837786,0.5934295654296875,0.6847381591796875,0.51385498046875
20220117-1837,2022-01-17 18:37:34Z,u01, 184,40,movements,el-ex, rt, d,191783.82305591667, 2.2583843708310027, -0.6574944057395044, 2.7591535421536033, -0.03566403687000275, -0.8381254076957703, 0.6355882883071899, 0.6116747260093689, 0.6111355423927307, 0.5023618340492249, 0.053944170475006104, 0.09858131408691406, 0.07864701747894287, -0.866281564239572, 0.02715101646508189, 0.36344308918973944,0.34165509392028104,0.6169281005859375,0.699462890625,0.6185302734375
20220117-1837,2022-01-17 18:37:34Z,u01, 185,40,movements,el-ex, rt, d,191783.84800291667, 2.231021460768019, -0.6460050307437294, 2.7480101510536303, 0.002736215479671955, -0.8215869069099426, 0.5548937320709229, 0.6306946873664856, 0.6020012497901917, 0.48971280455589294, 0.016949355602264404, 0.09537118673324585, 0.025179743766784668, -0.8625413141506741, 0.02964585159838995, 0.36110882406261496,0.353191148289306,0.664459228515625,0.7112579345703125,0.5642242431640625
20220117-1837,2022-01-17 18:37:35Z,u01, 186,40,movements,el-ex, rt, d,191783.87294991667, 2.204483984550014, -0.6349133100075237, 2.7382223295851236, -0.0347861610352993, -0.8344939947128296, 0.5351953506469727, 0.6488081216812134, 0.5931077003479004, 0.47672995924949646, 0.0033983588218688965, 0.07483059167861938, -0.009353339672088623, -0.8586970894007661, 0.031690532376142944, 0.35880693285797877,0.36454448069858114,0.64984130859375,0.6787261962890625,0.47613525390625
20220117-1837,2022-01-17 18:37:35Z,u01, 187,40,movements,el-ex, rt, d,191783.8978969167, 2.178539799463716, -0.6245097650314492, 2.727986646115909, 0.1039610356092453, -0.7471684813499451, 0.5238655805587769, 0.6659862995147705, 0.5846996307373047, 0.4632369875907898, -0.018296539783477783, 0.06732362508773804, 0.09468528628349304, -0.8546734402404355, 0.033938253644557825, 0.3569686039852308,0.37543961085869587,0.6511688232421875,0.6617889404296875,0.4786834716796875
20220117-1837,2022-01-17 18:37:35Z,u01, 188,40,movements,el-ex, rt, d,191783.9228439167, 2.1546361382642334, -0.6161227928261738, 2.717141777232818, 0.07399790734052658, -0.6726751327514648, 0.43497031927108765, 0.6809359192848206, 0.5778751969337463, 0.4498741626739502, 0.03772252798080444, 0.07430082559585571, 0.06649857759475708, -0.8506554189336926, 0.03636544370408845, 0.3561241646254277,0.3850176467991691,0.6726837158203125,0.6599273681640625,0.5849151611328125
20220117-1837,2022-01-17 18:37:35Z,u01, 189,40,movements,el-ex, rt, d,191783.94778991668, 2.133147142650495, -0.6079878896977543, 2.70942036834686, -0.021406903862953186, -0.7067505121231079, 0.40251225233078003, 0.6943990588188171, 0.5712170600891113, 0.4376305937767029, 0.012403130531311035, 0.05077683925628662, 0.00826159119606018, -0.846983789604236, 0.03786496195647565, 0.35482341908087045,0.3940620481876559,0.7207489013671875,0.6489105224609375,0.491546630859375
20220117-1837,2022-01-17 18:37:35Z,u01, 190,40,movements,el-ex, rt, d,191783.97273691668, 2.1135795669363464, -0.5980190779175615, 2.7058987164991564, -0.1820351928472519, -0.7053214907646179, 0.39457201957702637, 0.7076700925827026, 0.5630064606666565, 0.42688021063804626, -0.008787035942077637, 0.01807880401611328, -0.016296863555908203, -0.8437787085333022, 0.03843958028863648, 0.3519954803187755,0.4033101074035321,0.69464111328125,0.5858612060546875,0.406402587890625
20220117-1837,2022-01-17 18:37:35Z,u01, 191,40,movements,el-ex, rt, d,191783.99768391668, 2.095442933010005, -0.5876947455767667, 2.7034647208385962, -0.050493914633989334, -0.6484123468399048, 0.41279688477516174, 0.7202883362770081, 0.5544440150260925, 0.41686558723449707, -0.0011110305786132812, 0.030623793601989746, 0.057652294635772705, -0.840782338717346, 0.03895963127039831, 0.34881848266881954,0.4121807832518968,0.7049102783203125,0.5864715576171875,0.424102783203125
20220117-1837,2022-01-17 18:37:35Z,u01, 192,40,movements,el-ex, rt, d,191784.02263091668, 2.0765793096580385, -0.5795850388674596, 2.6980921557452744, 0.008350091986358166, -0.6445198655128479, 0.34975960850715637, 0.7319323420524597, 0.5476768016815186, 0.40536993741989136, 0.03930771350860596, 0.03223341703414917, 0.03418987989425659, -0.8373052948000932, 0.04006016160637932, 0.34716410836318096,0.42046637747834065,0.7256317138671875,0.5902252197265625,0.4969482421875
20220117-1837,2022-01-17 18:37:35Z,u01, 193,40,movements,el-ex, rt, d,191784.04757791667, 2.0572010695003673, -0.572150851177457, 2.692762147497469, 0.00463621411472559, -0.680624783039093, 0.3456818163394928, 0.7432288527488708, 0.5414416193962097, 0.3930037021636963, 0.02193838357925415, 0.02287423610687256, -0.003156900405883789, -0.8335636072574578, 0.04090919661812392, 0.3458217026261137,0.4288420683949957,0.778900146484375,0.5741424560546875,0.4170379638671875
20220117-1837,2022-01-17 18:37:35Z,u01, 194,40,movements,el-ex, rt, d,191784.07252391666, 2.0383232333440744, -0.564001468845398, 2.688789814374932, -0.08276426792144775, -0.6706210374832153, 0.3619578778743744, 0.7544288039207458, 0.534572184085846, 0.38087984919548035, -0.0020180940628051758, -0.012858986854553223, -0.02403789758682251, -0.8298898350440207, 0.041506507016372096, 0.3439471860936576,0.4373331854804973,0.7457733154296875,0.543975830078125,0.3701171875
20220117-1837,2022-01-17 18:37:35Z,u01, 195,40,movements,el-ex, rt, d,191784.0974709167, 2.0212619279839297, -0.5545817669275421, 2.686694344631755, -0.10170740634202957, -0.6232855916023254, 0.38283559679985046, 0.7653166055679321, 0.5265877842903137, 0.37012964487075806, -0.006100296974182129, -0.004905045032501221, 0.03001689910888672, -0.8266186866062915, 0.04202815617312222, 0.34117367162633444,0.4455735207542856,0.751708984375,0.5200958251953125,0.3660888671875
20220117-1837,2022-01-17 18:37:35Z,u01, 196,40,movements,el-ex, rt, d,191784.1224179167, 2.0046035032886316, -0.5456689810212727, 2.6836809673223154, -0.005285259336233139, -0.605837881565094, 0.3459273874759674, 0.7756038308143616, 0.5189900398254395, 0.35928845405578613, 0.013840138912200928, 0.03511768579483032, 0.03592944145202637, -0.8232881510605303, 0.04290501867185753, 0.33882113065118086,0.4533829282393261,0.768524169921875,0.53448486328125,0.41326904296875
20220117-1837,2022-01-17 18:37:35Z,u01, 197,40,movements,el-ex, rt, d,191784.1473649167, 1.9864509331525586, -0.5381178140136287, 2.679381664274904, -0.008212671615183353, -0.6743335127830505, 0.3391931653022766, 0.7855605483055115, 0.5125207304954529, 0.346723347902298, 0.01451873779296875, 0.01724916696548462, -0.0031107962131500244, -0.8194208802662839, 0.043716148907140207, 0.33734608841258085,0.4613414470438729,0.795654296875,0.554046630859375,0.3780059814453125
20220117-1837,2022-01-17 18:37:35Z,u01, 198,40,movements,el-ex, rt, d,191784.17231191669, 1.9680431187611536, -0.5292552893964443, 2.6767609893450155, -0.10116644203662872, -0.6838239431381226, 0.3780444264411926, 0.7959670424461365, 0.5048906803131104, 0.3339492678642273, 0.0004197359085083008, -0.0181046724319458, -0.015284746885299683, -0.8154879442864134, 0.0442046762407452, 0.33503351212172533,0.46987020559778936,0.794952392578125,0.5015106201171875,0.3270416259765625
20220117-1837,2022-01-17 18:37:35Z,u01, 199,40,movements,el-ex, rt, d,191784.19725891668, 1.9507673858083365, -0.5193089747418332, 2.6751814143561643, -0.07889639586210251, -0.6409211754798889, 0.38991713523864746, 0.8062408566474915, 0.49628034234046936, 0.3219957947731018, -0.006604135036468506, -0.00554242730140686, 0.03396114706993103, -0.8117815591014994, 0.044817438157679634, 0.33207735777684877,0.4782537551707834,0.797149658203125,0.4888153076171875,0.3268280029296875
20220117-1837,2022-01-17 18:37:35Z,u01, 200,40,movements,el-ex, rt, d,191784.22220491667, 1.9344505924274304, -0.5099083438840567, 2.6736213717993107, -0.09275402128696442, -0.6160339117050171, 0.3615800440311432, 0.8157117366790771, 0.48809725046157837, 0.31044408679008484, 0.023842155933380127, 0.018998146057128906, 0.04871729016304016, -0.8081794795256203, 0.04547493982535561, 0.32932700622141453,0.4861293348888307,0.8132476806640625,0.49822998046875,0.368316650390625
20220117-1837,2022-01-17 18:37:35Z,u01, 201,40,movements,el-ex, rt, d,191784.24715191667, 1.9183792387935241, -0.5006561937223762, 2.6724791643155923, -0.09867502748966217, -0.6300327777862549, 0.37194693088531494, 0.8248060941696167, 0.480001300573349, 0.298820436000824, 0.0151139497756958, 0.02141779661178589, 0.01563262939453125, -0.8045455168587989, 0.04600792260253189, 0.32655053469188877,0.493917518382095,0.84344482421875,0.5104217529296875,0.348602294921875
20220117-1837,2022-01-17 18:37:35Z,u01, 202,40,movements,el-ex, rt, d,191784.27209891667, 1.9021211697724754, -0.49086487773062343, 2.671762182179505, -0.12874853610992432, -0.6275649070739746, 0.3857348561286926, 0.8339595198631287, 0.4713888168334961, 0.28688693046569824, -0.010549545288085938, 0.009751349687576294, 0.014657258987426758, -0.8007976107589216, 0.04654732501659453, 0.3234982167302235,0.5019018382777757,0.8287506103515625,0.489715576171875,0.2960357666015625
20220117-1837,2022-01-17 18:37:35Z,u01, 203,40,movements,el-ex, rt, d,191784.29704591667, 1.8871479467278864, -0.48047888081466106, 2.6718858281198776, -0.11845771968364716, -0.5788903832435608, 0.3888133764266968, 0.8427690863609314, 0.46220389008522034, 0.2758764326572418, -0.005427837371826172, 0.02629101276397705, 0.062380313873291016, -0.7973152365588554, 0.04718724662100715, 0.3200075964150295,0.509565411089907,0.8280792236328125,0.4837493896484375,0.308319091796875
20220117-1837,2022-01-17 18:37:35Z,u01, 204,40,movements,el-ex, rt, d,191784.32199291667, 1.8731086218111288, -0.4708346774214711, 2.6715729521583476, -0.09360693395137787, -0.5404303073883057, 0.3509398400783539, 0.8507750034332275, 0.4536302983760834, 0.26533257961273193, 0.02216506004333496, 0.050382792949676514, 0.057177066802978516, -0.7939549314261232, 0.047977656230971166, 0.31689708339578304,0.5166332484224815,0.8493499755859375,0.4988250732421875,0.340972900390625
20220117-1837,2022-01-17 18:37:35Z,u01, 205,40,movements,el-ex, rt, d,191784.3469389167, 1.8591359534861618, -0.4621517816695235, 2.6697878576882164, -0.0026668054051697254, -0.5214595794677734, 0.35041433572769165, 0.8581430912017822, 0.4458751976490021, 0.2545299232006073, 0.008815348148345947, 0.034730881452560425, 0.014238297939300537, -0.7904763852281411, 0.049112531233309, 0.3145396379852944,0.5232587667518375,0.874664306640625,0.4995574951171875,0.3112945556640625
20220117-1837,2022-01-17 18:37:35Z,u01, 206,40,movements,el-ex, rt, d,191784.37188591668, 1.8455845985048065, -0.45412350158554415, 2.6671482871556607, 0.027904119342565536, -0.4510701894760132, 0.3307843804359436, 0.8649312853813171, 0.43867480754852295, 0.24384145438671112, -0.012743055820465088, 0.0182497501373291, 0.02659013867378235, -0.7870020245707288, 0.05048309704640158, 0.31266233946305894,0.529454121529007,0.8567047119140625,0.461944580078125,0.2458648681640625
20220117-1837,2022-01-17 18:37:35Z,u01, 207,40,movements,el-ex, rt, d,191784.39683291668, 1.834063989285004, -0.4473414434068721, 2.6634067671777566, 0.0740455836057663, -0.3495873510837555, 0.26151248812675476, 0.8705354332923889, 0.43257009983062744, 0.2346297651529312, -0.011618256568908691, 0.05091989040374756, 0.08507227897644043, -0.7839550585044235, 0.052243152126192904, 0.31150637477144505,0.534461303005898,0.8528289794921875,0.465118408203125,0.2884521484375
20220117-1837,2022-01-17 18:37:35Z,u01, 208,40,movements,el-ex, rt, d,191784.42177991668, 1.8248921551760597, -0.44221472896923975, 2.659832863509789, 0.05896606296300888, -0.26870056986808777, 0.20562413334846497, 0.8747857213020325, 0.4279421865940094, 0.2271900624036789, -0.001738905906677246, 0.0529080331325531, 0.10174356400966644, -0.7814731619735994, 0.05380266528580019, 0.3108655766200816,0.5383005784871062,0.8675079345703125,0.4875640869140625,0.324310302734375
20220117-1837,2022-01-17 18:37:35Z,u01, 209,40,movements,el-ex, rt, d,191784.44672691668, 1.8178014044324948, -0.4378800654762365, 2.6576417145952203, 0.008243565447628498, -0.23639921844005585, 0.17651723325252533, 0.8781650066375732, 0.4240204989910126, 0.22143295407295227, -0.01857656240463257, 0.04616376757621765, 0.06987245380878448, -0.7795523331554322, 0.054905707457073016, 0.31009678824607323,0.5414086914761277,0.8682403564453125,0.4804229736328125,0.3252716064453125
20220117-1837,2022-01-17 18:37:35Z,u01, 210,40,movements,el-ex, rt, d,191784.47167391668, 1.8120576639690191, -0.43382975262356294, 2.6571868950072863, -0.05632051080465317, -0.19726088643074036, 0.14342108368873596, 0.8810829520225525, 0.4203488528728485, 0.2167939692735672, -0.017954349517822266, 0.04080227017402649, 0.048464760184288025, -0.7780239881905253, 0.05545864390265909, 0.308930815327759,0.5442101989876114,0.859619140625,0.4583587646484375,0.257598876953125
20220117-1837,2022-01-17 18:37:35Z,u01, 211,40,movements,el-ex, rt, d,191784.49661991667, 1.8084836653281575, -0.43064540145124436, 2.658320408785279, -0.06586791574954987, -0.12036948651075363, 0.07900033891201019, 0.8831485509872437, 0.41745737195014954, 0.21395768225193024, -0.014755666255950928, 0.06746700406074524, 0.0899667739868164, -0.777111704049236, 0.05546387675519515, 0.30758390512286604,0.5462721455949995,0.8652801513671875,0.4720001220703125,0.2768707275390625
20220117-1837,2022-01-17 18:37:35Z,u01, 212,40,movements,el-ex, rt, d,191784.52156691666, 1.8067730131614728, -0.4293397875536727, 2.6589001313903946, -0.014162673614919186, -0.04030614346265793, 0.01014797668904066, 0.8840425610542297, 0.4162706136703491, 0.21257388591766357, -0.010080099105834961, 0.07013392448425293, 0.08550646901130676, -0.7766720230651727, 0.05538512946548507, 0.3070068932515413,0.5472292763381852,0.869171142578125,0.48797607421875,0.31494140625
20220117-1837,2022-01-17 18:37:35Z,u01, 213,40,movements,el-ex, rt, d,191784.5465139167, 1.8071356594338364, -0.4299019139086129, 2.6601870399623238, -0.0709417313337326, 0.012874118983745575, -0.04457878693938255, 0.8837376832962036, 0.41678163409233093, 0.21283961832523346, -0.008829295635223389, 0.03995969891548157, 0.06117759644985199, -0.77680154167706, 0.05476469946345741, 0.30684539507939695,0.5471983683752815,0.8753204345703125,0.4774627685546875,0.2961273193359375
20220117-1837,2022-01-17 18:37:35Z,u01, 214,40,movements,el-ex, rt, d,191784.5714609167, 1.8112511382327252, -0.43149231872966615, 2.6640141566101656, -0.12012159824371338, 0.08299288153648376, -0.07581193745136261, 0.8822094202041626, 0.41822680830955505, 0.21631669998168945, -0.011832833290100098, 0.050813138484954834, 0.05126142501831055, -0.7780139717960071, 0.05340982111155368, 0.3062565412456866,0.5459382799134203,0.875946044921875,0.4500579833984375,0.2577056884765625
20220117-1837,2022-01-17 18:37:35Z,u01, 215,40,movements,el-ex, rt, d,191784.5964079167, 1.8176704371280548, -0.43390382548728706, 2.6680762582628748, -0.07257747650146484, 0.17826832830905914, -0.14288730919361115, 0.8798219561576843, 0.42041605710983276, 0.22172822058200836, -0.019501030445098877, 0.07811909914016724, 0.0856752097606659, -0.7798423979752072, 0.052057093751519457, 0.30584481743422764,0.5436862398293668,0.8647613525390625,0.4783782958984375,0.28033447265625
20220117-1837,2022-01-17 18:37:35Z,u01, 216,40,movements,el-ex, rt, d,191784.62135391668, 1.8261011996615435, -0.4383400663954019, 2.671914353400793, -0.07124433666467667, 0.2626848816871643, -0.222228541970253, 0.8761083483695984, 0.4244370460510254, 0.22866462171077728, -0.015771985054016113, 0.06434786319732666, 0.07207086682319641, -0.7821669860149832, 0.050468954801707044, 0.3061835721330132,0.5402956384341695,0.857269287109375,0.4965362548828125,0.316497802734375
20220117-1837,2022-01-17 18:37:35Z,u01, 217,40,movements,el-ex, rt, d,191784.64630091668, 1.8347679841341706, -0.44397763389934825, 2.6752017571668327, -0.04639830440282822, 0.2952336370944977, -0.2546273469924927, 0.8717697858810425, 0.4295348525047302, 0.2356208711862564, -0.02168738842010498, 0.06567388772964478, 0.036336421966552734, -0.7844949548605261, 0.04876579033185757, 0.30711723825240383,0.5365338140967908,0.8570098876953125,0.492156982421875,0.290069580078125
20220117-1837,2022-01-17 18:37:35Z,u01, 218,40,movements,el-ex, rt, d,191784.67124791667, 1.8449491520215069, -0.4506708494059133, 2.6785790554481306, -0.03778667747974396, 0.33922940492630005, -0.2689953148365021, 0.8665387034416199, 0.43556949496269226, 0.24370034039020538, -0.01749396324157715, 0.05527523159980774, 0.05323563516139984, -0.7871761510014026, 0.04694546411841416, 0.3083942115696802,0.5320177066434505,0.8484954833984375,0.495880126953125,0.2746734619140625
20220117-1837,2022-01-17 18:37:35Z,u01, 219,40,movements,el-ex, rt, d,191784.69619491667, 1.8565585548739998, -0.4573072131559391, 2.6819524285942187, -0.020330654457211494, 0.44082778692245483, -0.30069613456726074, 0.8608588576316833, 0.441533625125885, 0.25292328000068665, -0.010990142822265625, 0.042597293853759766, 0.08811068534851074, -0.7901913474553, 0.04537928720945156, 0.3096448212186503,0.5269330791007714,0.8489837646484375,0.4891510009765625,0.311614990234375
20220117-1837,2022-01-17 18:37:35Z,u01, 220,40,movements,el-ex, rt, d,191784.72114191667, 1.8700659628499008, -0.46497489927350694, 2.684943814042429, -0.008345164358615875, 0.5277268886566162, -0.35177621245384216, 0.8541039228439331, 0.4484003782272339, 0.2635219693183899, 0.011191606521606445, 0.024912118911743164, 0.07893100380897522, -0.7936171314075955, 0.04396395844602391, 0.3113582616166672,0.5208600036670585,0.8531341552734375,0.488525390625,0.350738525390625
20220117-1837,2022-01-17 18:37:35Z,u01, 221,40,movements,el-ex, rt, d,191784.7460879167, 1.8856648664698896, -0.4738066175950552, 2.6890565486222293, -0.06716343760490417, 0.5699897408485413, -0.40770280361175537, 0.8460906744003296, 0.45627686381340027, 0.2755751609802246, 0.018350064754486084, 0.025107383728027344, 0.045713871717453, -0.7975053086265311, 0.042105311625472264, 0.31319842420892935,0.513925141119753,0.8653717041015625,0.4720001220703125,0.3292999267578125
20220117-1837,2022-01-17 18:37:35Z,u01, 222,40,movements,el-ex, rt, d,191784.7710349167, 1.9030298448191891, -0.48317276240806695, 2.6950431107139283, -0.10868392139673233, 0.606891930103302, -0.4477691352367401, 0.8371015191078186, 0.46459105610847473, 0.28881874680519104, 0.004954814910888672, 0.048378974199295044, 0.06764176487922668, -0.8017714644525638, 0.03964704386312401, 0.3147723204471222,0.5064672421669605,0.8532867431640625,0.4927825927734375,0.32366943359375
20220117-1837,2022-01-17 18:37:35Z,u01, 223,40,movements,el-ex, rt, d,191784.7959819167, 1.9226886687639406, -0.49310618456422434, 2.7027400274936655, -0.13789494335651398, 0.6860224604606628, -0.49069473147392273, 0.826889157295227, 0.47336429357528687, 0.3036125898361206, 0.0036162734031677246, 0.060037314891815186, 0.08942320942878723, -0.8065093878353309, 0.036727353745751534, 0.3161539012640156,0.49823732076281035,0.8367462158203125,0.5215606689453125,0.3677978515625
20220117-1837,2022-01-17 18:37:35Z,u01, 224,40,movements,el-ex, rt, d,191784.82093037502, 1.94485865803267, -0.5038293478911785, 2.711370248496046, -0.11355793476104736, 0.7646666169166565, -0.5287790894508362, 0.815183162689209, 0.4827825725078583, 0.31999528408050537, 0.010439276695251465, 0.06337520480155945, 0.0515102744102478, -0.8117059058645875, 0.03363278280908377, 0.31764837259867035,0.488980291004233,0.82666015625,0.5385894775390625,0.3979339599609375
20220117-1837,2022-01-17 18:37:35Z,u01, 225,40,movements,el-ex, rt, d,191784.84587737502, 1.968851725178827, -0.515843476149899, 2.7203296664906227, -0.09343548864126205, 0.8163753151893616, -0.5984910130500793, 0.8018669486045837, 0.493268758058548, 0.33718734979629517, 0.01580578088760376, 0.06724759936332703, 0.02844366431236267, -0.8171116177119728, 0.03036914092442955, 0.3196318214114824,0.47879201633620133,0.825408935546875,0.5455474853515625,0.3673095703125
20220117-1837,2022-01-17 18:37:36Z,u01, 226,40,movements,el-ex, rt, d,191784.87082437502, 1.9946232806414417, -0.5296115607014981, 2.7291180403022843, -0.03233715146780014, 0.8997704982757568, -0.660944938659668, 0.7866464853286743, 0.5051981806755066, 0.354911744594574, 0.023610591888427734, 0.08266204595565796, 0.04727938771247864, -0.8226331288584026, 0.027029865230215444, 0.32242371918408796,0.4675330554653357,0.81463623046875,0.5690155029296875,0.3773193359375
20220117-1837,2022-01-17 18:37:36Z,u01, 227,40,movements,el-ex, rt, d,191784.895770375, 2.0225018861425195, -0.5445952713957811, 2.7382049805994217, -0.028020966798067093, 0.9642794728279114, -0.6886119842529297, 0.7695501446723938, 0.5180719494819641, 0.3733552098274231, 0.0346948504447937, 0.07032221555709839, 0.05917036533355713, -0.8283222750608257, 0.023660369857984476, 0.32572664181245903,0.4552192661821294,0.809814453125,0.59039306640625,0.4137725830078125
20220117-1837,2022-01-17 18:37:36Z,u01, 228,40,movements,el-ex, rt, d,191784.920717375, 2.052559530038271, -0.5600162422437723, 2.7481089202109525, -0.01697497069835663, 1.0321089029312134, -0.7256352305412292, 0.7508122324943542, 0.5311999320983887, 0.39256519079208374, 0.0245324969291687, 0.05272340774536133, 0.05599731206893921, -0.8341885986781088, 0.02029709615179509, 0.3291481534249226,0.44201678942120054,0.790740966796875,0.5850830078125,0.444305419921875
20220117-1837,2022-01-17 18:37:36Z,u01, 229,40,movements,el-ex, rt, d,191784.945664375, 2.0847167013600387, -0.5762628891885104, 2.7588995631220543, 0.0141823161393404, 1.0709971189498901, -0.7643580436706543, 0.7301899194717407, 0.5448941588401794, 0.41220465302467346, 0.05281472206115723, 0.05978107452392578, 0.0340995192527771, -0.8401307133710196, 0.016813970236282894, 0.3328552371872577,0.4279076245200121,0.7762908935546875,0.5927581787109375,0.4500732421875
20220117-1837,2022-01-17 18:37:36Z,u01, 230,40,movements,el-ex, rt, d,191784.970611375, 2.1174300889598694, -0.594046393541065, 2.7690360611114286, 0.11907227337360382, 1.1018420457839966, -0.8155924081802368, 0.7079261541366577, 0.5597187876701355, 0.4307611286640167, 0.051213741302490234, 0.070362389087677, 0.01835078001022339, -0.8456947939464556, 0.013449136652106286, 0.33749326696283694,0.41317989418152284,0.7840118408203125,0.6082916259765625,0.4306488037109375
20220117-1837,2022-01-17 18:37:36Z,u01, 231,40,movements,el-ex, rt, d,191784.995558375, 2.151052334706295, -0.6135826762191581, 2.7787989093365772, 0.14724592864513397, 1.1587821245193481, -0.8475821614265442, 0.6837688684463501, 0.5758002996444702, 0.4482339918613434, 0.05048394203186035, 0.042775630950927734, 0.0322955846786499, -0.8508902520930691, 0.010138077319704453, 0.34309025459712506,0.3977083351804646,0.7484283447265625,0.6278076171875,0.4565277099609375
20220117-1837,2022-01-17 18:37:36Z,u01, 232,40,movements,el-ex, rt, d,191785.02050437502, 2.1873135429409025, -0.6327881626623413, 2.79012061920593, 0.09758273512125015, 1.2172003984451294, -0.8507077097892761, 0.6579245924949646, 0.591395378112793, 0.4662476181983948, 0.0524330735206604, 0.013859868049621582, 0.060470521450042725, -0.8561986118794215, 0.006909356295413505, 0.34843892328294795,0.3814007746947261,0.7236480712890625,0.61053466796875,0.5084381103515625
20220117-1837,2022-01-17 18:37:36Z,u01, 233,40,movements,el-ex, rt, d,191785.04545137502, 2.2269751917722487, -0.6503981006925696, 2.805111837161286, -0.037242960184812546, 1.2387044429779053, -0.8557806611061096, 0.6305694580078125, 0.605503261089325, 0.48553863167762756, 0.07336419820785522, 0.016643285751342773, 0.040141791105270386, -0.8618343772155155, 0.0032894764938680154, 0.35267866809040144,0.3644837200178175,0.7081756591796875,0.61083984375,0.519683837890625
20220117-1837,2022-01-17 18:37:36Z,u01, 234,40,movements,el-ex, rt, d,191785.070398375, 2.2694655389463296, -0.6660087666383908, 2.8239322433015768, -0.10259892791509628, 1.2491633892059326, -0.8753693699836731, 0.602064311504364, 0.6178526282310486, 0.505743682384491, 0.07368642091751099, 0.018377840518951416, 0.018822908401489258, -0.8676814634535315, -0.0008427458395995346, 0.3556992489034714,0.3472840371433434,0.6993865966796875,0.615631103515625,0.517791748046875
20220117-1837,2022-01-17 18:37:36Z,u01, 235,40,movements,el-ex, rt, d,191785.095345375, 2.313986307106827, -0.6809580460105691, 2.844622604979405, -0.08512233197689056, 1.2958781719207764, -0.891530454158783, 0.5720936059951782, 0.6295377016067505, 0.5257290005683899, 0.07095742225646973, 0.021508991718292236, 0.04121124744415283, -0.8734061364320023, -0.005119505332643548, 0.3584602834667678,0.3296083374073229,0.6649017333984375,0.6420745849609375,0.534271240234375
20220117-1837,2022-01-17 18:37:36Z,u01, 236,40,movements,el-ex, rt, d,191785.120292375, 2.3611563206165944, -0.6951026188924898, 2.867421588910543, -0.16172313690185547, 1.331917643547058, -0.9043395519256592, 0.5403484106063843, 0.6404642462730408, 0.5457374453544617, 0.072551429271698, 0.013832688331604004, 0.05521470308303833, -0.8790780074424464, -0.009517075453131685, 0.3609122026602286,0.3112454585531411,0.62835693359375,0.6430206298828125,0.598968505859375
20220117-1837,2022-01-17 18:37:36Z,u01, 237,40,movements,el-ex, rt, d,191785.145239375, 2.411290407079504, -0.7065214596668633, 2.8930748976279475, -0.2280324250459671, 1.3553975820541382, -0.8769857287406921, 0.5074087381362915, 0.6491918563842773, 0.5666446089744568, 0.08176356554031372, 0.009469032287597656, 0.029912889003753662, -0.8849447676818805, -0.013966869713479602, 0.3621829735009271,0.2924057351682182,0.60638427734375,0.6663818359375,0.6032867431640625
20220117-1837,2022-01-17 18:37:36Z,u01, 238,40,movements,el-ex, rt, d,191785.170185375, 2.4635113986679507, -0.7156413259856644, 2.920609045334608, -0.27815866470336914, 1.3898531198501587, -0.8567802309989929, 0.47340598702430725, 0.6561015248298645, 0.5877221822738647, 0.07304170727729797, -0.002521812915802002, 0.024948537349700928, -0.8907994846698923, -0.018367732666171366, 0.3626324079844853,0.2731969868512234,0.5692596435546875,0.6581878662109375,0.6035003662109375
20220117-1837,2022-01-17 18:37:36Z,u01, 239,40,movements,el-ex, rt, d,191785.19513237503, 2.516976674717346, -0.723284236082976, 2.9483925316710358, -0.2423793375492096, 1.4372940063476562, -0.8590207099914551, 0.4383764863014221, 0.6618502140045166, 0.6080955266952515, 0.076439768075943, -0.007828056812286377, 0.03744262456893921, -0.8964083737067343, -0.022356100544336455, 0.36284392109731256,0.25356748701329,0.5375518798828125,0.64642333984375,0.6165771484375
20220117-1837,2022-01-17 18:37:36Z,u01, 240,40,movements,el-ex, rt, d,191785.22007937502, 2.5715519587333806, -0.7314402103436984, 2.9760023098307475, -0.14718756079673767, 1.4491078853607178, -0.8817838430404663, 0.4016266167163849, 0.6679421663284302, 0.6265372037887573, 0.09323111176490784, 0.04450589418411255, 0.050723910331726074, -0.9014364383489669, -0.02609508922637882, 0.3637340151667543,0.23329984657796388,0.5042877197265625,0.6784820556640625,0.677886962890625
20220117-1837,2022-01-17 18:37:36Z,u01, 241,40,movements,el-ex, rt, d,191785.24502637502, 2.6256802249733373, -0.7398576157113746, 3.003242355578959, -0.14387033879756927, 1.4193700551986694, -0.8606979846954346, 0.36435502767562866, 0.6741827726364136, 0.6424350738525391, 0.10337260365486145, 0.010372281074523926, 0.029897630214691162, -0.905723694601881, -0.02970036372285706, 0.36519058915435293,0.21311555820946104,0.4888458251953125,0.7091217041015625,0.6746673583984375
20220117-1837,2022-01-17 18:37:36Z,u01, 242,40,movements,el-ex, rt, d,191785.26997337502, 2.6813218528064158, -0.7446483988570636, 3.0325483524820016, -0.33107948303222656, 1.4438471794128418, -0.8453288078308105, 0.3266250789165497, 0.6777133345603943, 0.6588024497032166, 0.07844996452331543, -0.01812160015106201, 0.0003314018249511719, -0.9101007041164508, -0.033435550912364165, 0.36524329312174625,0.19286289545228358,0.4354248046875,0.6611328125,0.67535400390625
20220117-1837,2022-01-17 18:37:36Z,u01, 243,40,movements,el-ex, rt, d,191785.294919375, 2.7381733892095466, -0.746012010747609, 3.062912024819272, -0.27038320899009705, 1.463330626487732, -0.8377536535263062, 0.288300484418869, 0.6787154078483582, 0.6754464507102966, 0.0820913016796112, 0.006160080432891846, 0.0013112425804138184, -0.9145212326152752, -0.03706925894384805, 0.3640895522437173,0.17238175475098624,0.3961639404296875,0.6655731201171875,0.6662139892578125
20220117-1837,2022-01-17 18:37:36Z,u01, 244,40,movements,el-ex, rt, d,191785.319866375, 2.7947602694513827, -0.7494555579236765, 3.0924264473424463, -0.1273023784160614, 1.479712724685669, -0.8676570057868958, 0.24884217977523804, 0.6812403202056885, 0.6884687542915344, 0.08285340666770935, 0.054340243339538574, 0.018714964389801025, -0.9179246211008332, -0.04060509953511904, 0.364367402905653,0.15166415604180364,0.3531036376953125,0.7006683349609375,0.676116943359375
20220117-1837,2022-01-17 18:37:36Z,u01, 245,40,movements,el-ex, rt, d,191785.344813375, 2.8499629054469646, -0.755199177739699, 3.120322326536303, 0.007107628509402275, 1.4100103378295898, -0.8585553765296936, 0.20934872329235077, 0.6854336857795715, 0.6973907947540283, 0.10698126256465912, 0.021506071090698242, -0.016680896282196045, -0.9202054944582585, -0.043786338064286334, 0.366193369393068,0.13117572685357884,0.3348541259765625,0.7297210693359375,0.6970672607421875
20220117-1837,2022-01-17 18:37:36Z,u01, 246,40,movements,el-ex, rt, d,191785.369760375, 2.905136639529609, -0.759135581897976, -3.1341968264526066, -0.14769873023033142, 1.4167977571487427, -0.8442440629005432, 0.16993862390518188, 0.6882946491241455, 0.7052456736564636, 0.08083957433700562, -0.007126986980438232, 0.011810541152954102, -0.9221730336256883, -0.04711418110037058, 0.36752488185056165,0.11091730483503542,0.2767791748046875,0.685791015625,0.687835693359375
20220117-1837,2022-01-17 18:37:36Z,u01, 247,40,movements,el-ex, rt, d,191785.394707375, 2.9604853182615836, -0.758803719904836, -3.105791099424893, -0.17663715779781342, 1.3917245864868164, -0.765201985836029, 0.13070498406887054, 0.6880538463592529, 0.7137911915779114, 0.10339532792568207, -0.024449169635772705, -0.03738445043563843, -0.9243327555754499, -0.05004549241339823, 0.36728483349194707,0.09058798894732092,0.2333526611328125,0.6765594482421875,0.706878662109375
20220117-1837,2022-01-17 18:37:36Z,u01, 248,40,movements,el-ex, rt, d,191785.41965337502, 3.0137655632430738, -0.760104613940482, -3.0789580118724893, 0.07146304845809937, 1.4014581441879272, -0.7677250504493713, 0.09239235520362854, 0.6889972686767578, 0.7188506126403809, 0.09019430726766586, 0.0014171004295349121, 0.017767369747161865, -0.9255527725254424, -0.052700741098991255, 0.36817288556889105,0.07087565679488333,0.2015838623046875,0.6798248291015625,0.6709442138671875
20220117-1837,2022-01-17 18:37:36Z,u01, 249,40,movements,el-ex, rt, d,191785.44460037502, 3.0668868205805575, -0.7651923526630938, -3.0526051025809866, 0.09194681793451309, 1.374968409538269, -0.7651422023773193, 0.05383140221238136, 0.692675769329071, 0.7192373275756836, 0.13553017377853394, 0.013668835163116455, 0.01394742727279663, -0.9255137888280849, -0.055162335779581184, 0.37115963157196563,0.05120370390487444,0.1748809814453125,0.7012176513671875,0.750579833984375
20220117-1837,2022-01-17 18:37:36Z,u01, 250,40,movements,el-ex, rt, d,191785.46954737502, 3.1170296467585605, -0.7648316418098263, -3.0277927896336676, -0.20357774198055267, 1.2733688354492188, -0.6676312685012817, 0.017720408737659454, 0.6924155354499817, 0.7212815880775452, 0.11699944734573364, -0.04777723550796509, -0.09319919347763062, -0.9259339900434598, -0.05733283798759742, 0.37188285432668394,0.03259552449633929,0.1862335205078125,0.6996612548828125,0.6990203857421875
20220117-1837,2022-01-17 18:37:36Z,u01, 251,40,movements,el-ex, rt, d,191785.49449437502, -3.1181395265528558, -0.7573085754383067, -3.00403779319968, -0.37949058413505554, 1.2945817708969116, -0.697270393371582, -0.017041536048054695, 0.6869680881500244, 0.7264878153800964, 0.06458792090415955, -0.03892725706100464, -0.07077187299728394, -0.9272003828770594, -0.05952606810788558, 0.3695198477078709,0.01453331570550137,0.106048583984375,0.636871337890625,0.62786865234375
20220117-1837,2022-01-17 18:37:36Z,u01, 252,40,movements,el-ex, rt, d,191785.519441375, -3.070328657992629, -0.7479594760080739, -2.9810431368798933, -0.27279967069625854, 1.2723971605300903, -0.7045701742172241, -0.0521978996694088, 0.6801443099975586, 0.7312178611755371, 0.0783972293138504, 0.08328360319137573, 0.020582854747772217, -0.9283378391217397, -0.061626116842790124, 0.3665745811282811,-0.0037792074312987256,0.038116455078125,0.6913299560546875,0.7020263671875
