SessionID,LoggingTime,UID,RecNo,Hertz,Activity,MoveType,Wrist,Side,TimeStamp,DMRoll,DMPitch,DMYaw,DMRotX,DMRotY,DMRotZ,DMGrvX,DMGrvY,DMGrvZ,DMUAccelX,DMUAccelY,DMUAccelZ,DMQuatX,DMQuatY,DMQuatW,DMQuatZ,AccelroX,AceelroY,AceelroZ
20220117-1516,2022-01-17 15:16:10Z,u01, 1,40,movements,el-ex, rt, d,189044.42103316667, 2.7952883729090274, -0.8461206291130118, 2.9844169670327174, -0.07221183180809021, -0.8648223280906677, 0.6192642450332642, 0.22500160336494446, 0.7487144470214844, 0.6235392093658447, 0.04515524208545685, 0.06843942403793335, 0.019008636474609375, -0.9009825723131715, 5.551115123125783e-17, 0.41549884646539137,0.12486456722161046,0.3004302978515625,0.829742431640625,0.627197265625
20220117-1516,2022-01-17 15:16:10Z,u01, 2,40,movements,el-ex, rt, d,189044.44597816668, 2.7568914303732366, -0.839423687265653, 2.9631919511322513, -0.02387934923171997, -0.9064010381698608, 0.6153450608253479, 0.25064802169799805, 0.7442583441734314, 0.6190761923789978, 0.03888750076293945, 0.030720233917236328, 0.007816076278686523, -0.8997405198367248, 0.0022598607304131213, 0.4139433320898123,0.13824935803962457,0.2883453369140625,0.7693023681640625,0.632476806640625
20220117-1516,2022-01-17 15:16:10Z,u01, 3,40,movements,el-ex, rt, d,189044.47092416667, 2.721018104757341, -0.8312287958191659, 2.9441613554545563, -0.1781182885169983, -0.6383298635482788, 0.4804283380508423, 0.2751711905002594, 0.7387601137161255, 0.6152350902557373, -0.049646347761154175, 0.01774001121520996, 0.03889399766921997, -0.898665107219533, 0.004309720031047515, 0.4117566754643495,0.15112530531465423,0.4663238525390625,0.6835784912109375,0.62579345703125
20220117-1516,2022-01-17 15:16:10Z,u01, 4,40,movements,el-ex, rt, d,189044.49586916668, 2.68864152175932, -0.8181170022822166, 2.927864895756063, -0.3083365261554718, -0.7531343102455139, 0.565271258354187, 0.2991562485694885, 0.7298598885536194, 0.6146624684333801, 0.030128389596939087, 0.061216652393341064, 0.05365723371505737, -0.8984921822393777, 0.006559528496938749, 0.4073518566432191,0.16350290458398026,0.315185546875,0.8181610107421875,0.6573486328125
20220117-1516,2022-01-17 15:16:10Z,u01, 5,40,movements,el-ex, rt, d,189044.52081516667, 2.6583464385681808, -0.8055792068272234, 2.9139978734371916, -0.2710164189338684, -0.870673656463623, 0.6049875020980835, 0.3218642771244049, 0.721231997013092, 0.6133740544319153, 0.020588696002960205, 0.09140527248382568, -0.003678560256958008, -0.8981197468275165, 0.008242517511534264, 0.4031338284349476,0.17548807360626117,0.34417724609375,0.774566650390625,0.5524139404296875
20220117-1516,2022-01-17 15:16:10Z,u01, 6,40,movements,el-ex, rt, d,189044.5457601667, 2.62607759034396, -0.7922312766711513, 2.8995794618605846, -0.27308395504951477, -0.8700200915336609, 0.5739654302597046, 0.34620168805122375, 0.7119219899177551, 0.6109925508499146, -0.001963376998901367, 0.011985480785369873, -0.11032098531723022, -0.8974381681318232, 0.010049641539105203, 0.3987511727474745,0.18841804156821013,0.34881591796875,0.7367095947265625,0.515625
20220117-1516,2022-01-17 15:16:10Z,u01, 7,40,movements,el-ex, rt, d,189044.57070616668, 2.595863983536598, -0.7821679124935322, 2.885321541269405, 0.002095724456012249, -0.7560380101203918, 0.5318782925605774, 0.3682011365890503, 0.7048189640045166, 0.6063482761383057, 0.004296392202377319, 0.05146753787994385, 0.05069535970687866, -0.8961210801961541, 0.011880983055034267, 0.3959152096407147,0.2001924821326968,0.3849945068359375,0.7422027587890625,0.6664581298828125
20220117-1516,2022-01-17 15:16:10Z,u01, 8,40,movements,el-ex, rt, d,189044.5956511667, 2.564607698342088, -0.777035026265539, 2.867592470268357, 0.15795452892780304, -0.7733222842216492, 0.561825692653656, 0.3889387845993042, 0.7011684775352478, 0.5975696444511414, 0.0256272554397583, 0.023059368133544922, 0.030543208122253418, -0.8936315575391878, 0.014403791348884865, 0.3957188846315898,0.2112386683575433,0.4184417724609375,0.7122955322265625,0.607666015625
20220117-1516,2022-01-17 15:16:10Z,u01, 9,40,movements,el-ex, rt, d,189044.62059616667, 2.532264567055147, -0.771507171212409, 2.848919559944391, 0.04146250709891319, -0.7616510391235352, 0.560042142868042, 0.41027122735977173, 0.6972164511680603, 0.5878491997718811, -0.009514391422271729, -0.022228717803955078, -0.012791156768798828, -0.8908580971653244, 0.017217365938884344, 0.39561989300433903,0.22262140267168137,0.4038238525390625,0.6714630126953125,0.5514068603515625
20220117-1516,2022-01-17 15:16:10Z,u01, 10,40,movements,el-ex, rt, d,189044.6455421667, 2.503786561208074, -0.762882995248891, 2.8348816575617755, -0.11127853393554688, -0.7449513673782349, 0.5096195340156555, 0.43040788173675537, 0.6910082697868347, 0.5807381868362427, 0.026409775018692017, 0.03437924385070801, 0.044887542724609375, -0.888817844222926, 0.019285337494039878, 0.3937913699313257,0.23357939789071946,0.464691162109375,0.7332611083984375,0.6422119140625
20220117-1516,2022-01-17 15:16:10Z,u01, 11,40,movements,el-ex, rt, d,189044.67048716667, 2.477168233159185, -0.7526057456785581, 2.823737605704416, -0.13805396854877472, -0.7708886861801147, 0.5156145691871643, 0.45006728172302246, 0.6835430264472961, 0.5746380090713501, 0.04100644588470459, 0.027241945266723633, 0.015038132667541504, -0.8870661718094489, 0.020799038031069583, 0.3910161437299142,0.24451488119604478,0.4838714599609375,0.692138671875,0.5533905029296875
20220117-1516,2022-01-17 15:16:10Z,u01, 12,40,movements,el-ex, rt, d,189044.69543316666, 2.449904102147174, -0.7437350203610192, 2.811536935081977, 0.05932845547795296, -0.7561702728271484, 0.4848054349422455, 0.4694140553474426, 0.6770414113998413, 0.5668027400970459, -0.018959373235702515, 0.04273080825805664, -0.024795234203338623, -0.8848139150953508, 0.022488170842088095, 0.3890801869886143,0.25537270490691744,0.4482269287109375,0.72271728515625,0.539825439453125
20220117-1516,2022-01-17 15:16:10Z,u01, 13,40,movements,el-ex, rt, d,189044.72037816668, 2.420661046247099, -0.7380533243313847, 2.7958757113897104, 0.1520046591758728, -0.7263893485069275, 0.5201547741889954, 0.4883175790309906, 0.6728490591049194, 0.5557162165641785, -0.023519545793533325, 0.012117981910705566, 0.052133142948150635, -0.8816144463146403, 0.02478076174641014, 0.3890776050135281,0.26600874160309135,0.4757843017578125,0.65216064453125,0.6384735107421875
20220117-1516,2022-01-17 15:16:10Z,u01, 14,40,movements,el-ex, rt, d,189044.74532450002, 2.3945688071033637, -0.7297269627037588, 2.782976863089856, -0.20124976336956024, -0.6870464086532593, 0.47561854124069214, 0.5064384341239929, 0.6666661500930786, 0.5468786358833313, 0.028473615646362305, -0.006571054458618164, 0.0761987566947937, -0.8790391585339257, 0.02700863707017953, 0.3876864394040757,0.27615190566552617,0.548614501953125,0.67132568359375,0.605682373046875
20220117-1516,2022-01-17 15:16:11Z,u01, 15,40,movements,el-ex, rt, d,189044.7702695, 2.3746479790955486, -0.7159335725226321, 2.779794347463937, -0.4337298572063446, -0.7413479089736938, 0.4131789207458496, 0.5235633850097656, 0.6563220620155334, 0.5432520508766174, 0.04421621561050415, 0.028721213340759277, -0.040062904357910156, -0.8779974810586604, 0.027321302529092983, 0.3826682419522279,0.28624989275593354,0.5632476806640625,0.7027587890625,0.4731903076171875
20220117-1516,2022-01-17 15:16:11Z,u01, 16,40,movements,el-ex, rt, d,189044.79521550002, 2.3554573005440647, -0.7020933650537402, 2.77892968665235, -0.2679083049297333, -0.7316439747810364, 0.41412848234176636, 0.5402679443359375, 0.6458173394203186, 0.5394719839096069, -0.004440426826477051, 0.06200706958770752, -0.018048644065856934, -0.8769343728964281, 0.0268717654350476, 0.3773095015406052,0.296481707612298,0.530517578125,0.7002716064453125,0.5517578125
20220117-1516,2022-01-17 15:16:11Z,u01, 17,40,movements,el-ex, rt, d,189044.8201605, 2.3336368675044348, -0.6927604809653857, 2.7721482105132083, 0.06707139313220978, -0.6792234182357788, 0.4018872380256653, 0.556242823600769, 0.6386637687683105, 0.5316973328590393, -0.025832176208496094, 0.05152153968811035, 0.07944762706756592, -0.8746899469508812, 0.027679735629745073, 0.3747668767528526,0.3061061554695378,0.548095703125,0.693572998046875,0.593475341796875
20220117-1516,2022-01-17 15:16:11Z,u01, 18,40,movements,el-ex, rt, d,189044.84510550002, 2.3099075236168622, -0.6877953633166382, 2.7612908909089007, 0.08475624769926071, -0.6561934947967529, 0.3713788688182831, 0.5710386037826538, 0.6348353028297424, 0.5204794406890869, 0.020987093448638916, 0.03566628694534302, 0.03426903486251831, -0.8714338209959103, 0.02903133078491188, 0.37474691351619666,0.3151586507659396,0.5958404541015625,0.662353515625,0.5364837646484375
20220117-1516,2022-01-17 15:16:11Z,u01, 19,40,movements,el-ex, rt, d,189044.8700515, 2.2899028830254644, -0.6801361270454667, 2.7551885238127456, -0.2263469696044922, -0.6363083124160767, 0.3345429599285126, 0.5849772095680237, 0.6288988590240479, 0.5121407508850098, 0.029234886169433594, 0.02892279624938965, -0.03721088171005249, -0.8690185103734696, 0.02961787028834828, 0.3728823028024352,0.3238649436336476,0.6165313720703125,0.661773681640625,0.4620819091796875
20220117-1516,2022-01-17 15:16:11Z,u01, 20,40,movements,el-ex, rt, d,189044.89499650002, 2.273392360819509, -0.6696609690771501, 2.7544907997477024, -0.20321238040924072, -0.6427494883537292, 0.34492284059524536, 0.5983476638793945, 0.6207202076911926, 0.5066424608230591, 0.01650524139404297, 0.0679394006729126, -0.0026445388793945312, -0.8674500382135135, 0.029183306596182346, 0.3689697767414728,0.33247572946961235,0.610107421875,0.6770782470703125,0.5248870849609375
20220117-1516,2022-01-17 15:16:11Z,u01, 21,40,movements,el-ex, rt, d,189044.9199425, 2.2548990242792883, -0.6619529936395843, 2.7492510531620513, 0.05791191756725311, -0.5884025692939758, 0.31981009244918823, 0.6113040447235107, 0.614658534526825, 0.49849987030029297, -0.017218410968780518, 0.029796302318572998, 0.0912829041481018, -0.865079506172832, 0.02978895688583383, 0.3669927644948915,0.3406850986443025,0.607147216796875,0.657501220703125,0.576416015625
20220117-1516,2022-01-17 15:16:11Z,u01, 22,40,movements,el-ex, rt, d,189044.94488750002, 2.234201824193538, -0.6583465727757158, 2.7396364318933677, 0.1632787436246872, -0.5913752913475037, 0.2986266613006592, 0.6232324242591858, 0.6118097901344299, 0.48710358142852783, 0.014508605003356934, 0.028723537921905518, 0.011050164699554443, -0.8617382217395132, 0.030968265894691815, 0.36750656508243873,0.3484064620643099,0.6397247314453125,0.63177490234375,0.4885711669921875
20220117-1516,2022-01-17 15:16:11Z,u01, 23,40,movements,el-ex, rt, d,189044.9698335, 2.2160490785111113, -0.6531539841262032, 2.7330480703051276, -0.08062751591205597, -0.5473130941390991, 0.2911767065525055, 0.6345013976097107, 0.6076942086219788, 0.4776149392127991, 0.015721440315246582, 0.02936023473739624, -0.006209671497344971, -0.8589548755279566, 0.031685751358850656, 0.36686592821156216,0.35581179677448416,0.654541015625,0.6468963623046875,0.4743804931640625
20220117-1516,2022-01-17 15:16:11Z,u01, 24,40,movements,el-ex, rt, d,189044.99477850003, 2.2012381979189515, -0.6454089642267475, 2.7307541889229947, -0.1372218281030655, -0.5059278011322021, 0.32051515579223633, 0.6452879309654236, 0.6015251874923706, 0.47092577815055847, -0.001794278621673584, 0.04654604196548462, 0.05234396457672119, -0.857001448165525, 0.03180262298725589, 0.36441662556032584,0.3629568580454112,0.63836669921875,0.629150390625,0.542205810546875
20220117-1516,2022-01-17 15:16:11Z,u01, 25,40,movements,el-ex, rt, d,189045.01972450002, 2.186397479223643, -0.6369427757490229, 2.7270861735886083, -0.1207842230796814, -0.5229418873786926, 0.33957546949386597, 0.656339704990387, 0.5947404503822327, 0.4642218351364136, -0.01855289936065674, -0.03578060865402222, 0.09666082262992859, -0.855009140570643, 0.03271522136325439, 0.3619539221055913,0.3699708426259781,0.6453704833984375,0.5341033935546875,0.5248870849609375
20220117-1516,2022-01-17 15:16:11Z,u01, 26,40,movements,el-ex, rt, d,189045.0446695, 2.171608980206372, -0.6285493069827164, 2.724429657452226, -0.13263578712940216, -0.5399239659309387, 0.30660027265548706, 0.6672272682189941, 0.5879719257354736, 0.45727118849754333, 0.02092885971069336, 0.015406310558319092, -0.024592876434326172, -0.852954560420842, 0.033228286114460104, 0.35935944177682644,0.3771276487518732,0.69390869140625,0.62298583984375,0.4265594482421875
20220117-1516,2022-01-17 15:16:11Z,u01, 27,40,movements,el-ex, rt, d,189045.0696145, 2.1561807490892857, -0.620166236603174, 2.7225967337223405, -0.20331569015979767, -0.612455427646637, 0.31473278999328613, 0.6782870292663574, 0.5811704397201538, 0.44963064789772034, 0.020992755889892578, 0.021917879581451416, -0.0448606014251709, -0.8507087593537965, 0.033315619412340125, 0.35664556651082713,0.38469292158870266,0.69732666015625,0.5749359130859375,0.4000396728515625
20220117-1516,2022-01-17 15:16:11Z,u01, 28,40,movements,el-ex, rt, d,189045.0945605, 2.1417483555282093, -0.6096232946704448, 2.7240928045301827, -0.2755414843559265, -0.6081843972206116, 0.35825616121292114, 0.6898224353790283, 0.5725586414337158, 0.4430816173553467, 0.007824599742889404, 5.7756900787353516e-05, -0.048611342906951904, -0.8488038849140949, 0.03275313120542256, 0.3524290330751417,0.3927504063025079,0.69305419921875,0.571380615234375,0.4076385498046875
20220117-1516,2022-01-17 15:16:11Z,u01, 29,40,movements,el-ex, rt, d,189045.1195055, 2.1260999044132602, -0.5988817754539705, 2.722655391972923, -0.1654893457889557, -0.5825223326683044, 0.39535093307495117, 0.7018572092056274, 0.5637192130088806, 0.43545064330101013, -0.013777375221252441, -0.03027200698852539, 0.02988147735595703, -0.8465307696748203, 0.03333143201572947, 0.3487403489723563,0.4008177930910036,0.7017669677734375,0.5242462158203125,0.4528350830078125
20220117-1516,2022-01-17 15:16:11Z,u01, 30,40,movements,el-ex, rt, d,189045.1444515, 2.1106894527271796, -0.589054096484234, 2.720641441906205, -0.10805052518844604, -0.5770052075386047, 0.3452896773815155, 0.7132018804550171, 0.5555747747421265, 0.427410751581192, 0.02640688419342041, 0.048230648040771484, -0.018688678741455078, -0.8441256282753744, 0.034019047369996946, 0.3455469040188265,0.4085242332310804,0.742279052734375,0.61688232421875,0.4008331298828125
20220117-1516,2022-01-17 15:16:11Z,u01, 31,40,movements,el-ex, rt, d,189045.16939650002, 2.093660288985777, -0.5807776705426243, 2.7169024321396016, -0.03253275901079178, -0.6145347952842712, 0.371825635433197, 0.7243356108665466, 0.5486742854118347, 0.4174859821796417, 0.01646333932876587, 0.03578305244445801, -0.036809682846069336, -0.841149071813748, 0.034802822179580695, 0.34337254318949023,0.41635601354761353,0.736328125,0.559600830078125,0.386749267578125
20220117-1516,2022-01-17 15:16:11Z,u01, 32,40,movements,el-ex, rt, d,189045.1943425, 2.075492038010131, -0.5714825108341931, 2.7123548257455594, -0.07775050401687622, -0.6291735768318176, 0.4275902211666107, 0.7362332344055176, 0.5408796072006226, 0.4067065119743347, -0.007687032222747803, -0.04744088649749756, -0.00796365737915039, -0.8378868242189211, 0.03604069948154637, 0.34103078884475835,0.42467026320930623,0.7283172607421875,0.4918975830078125,0.40338134765625
20220117-1516,2022-01-17 15:16:11Z,u01, 33,40,movements,el-ex, rt, d,189045.21928750002, 2.0576968485370606, -0.5611015687919967, 2.7092772245421854, -0.11223271489143372, -0.661571204662323, 0.4010995030403137, 0.7482757568359375, 0.5321192145347595, 0.396147221326828, -0.010055601596832275, -0.008285045623779297, 0.0031754672527313232, -0.834685419009843, 0.0370656713762515, 0.3379926270374212,0.43322903124526835,0.7500457763671875,0.548095703125,0.40045166015625
20220117-1516,2022-01-17 15:16:11Z,u01, 34,40,movements,el-ex, rt, d,189045.2442325, 2.0386341562212635, -0.5511815263755693, 2.7056503253697413, -0.06786638498306274, -0.710397481918335, 0.4167715311050415, 0.7603651285171509, 0.5236941576004028, 0.38417357206344604, 0.011592209339141846, -0.0037967562675476074, 0.015698373317718506, -0.8310474120151337, 0.038039163329045445, 0.33531800458118366,0.44212559907657045,0.7750091552734375,0.5086212158203125,0.3893890380859375
20220117-1516,2022-01-17 15:16:11Z,u01, 35,40,movements,el-ex, rt, d,189045.26917850002, 2.0185290439658763, -0.540556012921476, 2.7011595226717793, -0.06262361258268356, -0.7145760655403137, 0.4489820599555969, 0.772907555103302, 0.5146127939224243, 0.37119796872138977, 0.011562228202819824, -0.060831665992736816, -0.009060949087142944, -0.8270689360760868, 0.039445635460137574, 0.3326347543451505,0.4513925948379972,0.7859344482421875,0.4749603271484375,0.3572540283203125
20220117-1516,2022-01-17 15:16:11Z,u01, 36,40,movements,el-ex, rt, d,189045.2941235, 1.9981146628470958, -0.529419164572776, 2.696758071513477, -0.040906503796577454, -0.7507338523864746, 0.4777452051639557, 0.7854911684989929, 0.5050321221351624, 0.35769641399383545, 0.02963358163833618, 0.005343914031982422, -0.028472572565078735, -0.8229034129437803, 0.040965551256861854, 0.3298018027192145,0.46085003012387193,0.818206787109375,0.511505126953125,0.325347900390625
20220117-1516,2022-01-17 15:16:11Z,u01, 37,40,movements,el-ex, rt, d,189045.31906950002, 1.9774825584754614, -0.5181800404441722, 2.6927436280822192, -0.045930854976177216, -0.7368623614311218, 0.46711140871047974, 0.7978663444519043, 0.49529990553855896, 0.34363874793052673, 0.026795029640197754, 0.022507071495056152, -0.017985552549362183, -0.8185493653662628, 0.042382819327964005, 0.32690577482461325,0.47043955140373117,0.81915283203125,0.506561279296875,0.357635498046875
20220117-1516,2022-01-17 15:16:11Z,u01, 38,40,movements,el-ex, rt, d,189045.3440145, 1.9581629915439998, -0.5073232722680941, 2.6890373210654626, -0.09611190110445023, -0.6627093553543091, 0.42428022623062134, 0.8092873692512512, 0.4858393967151642, 0.3301730155944824, 0.007652997970581055, 0.00912514328956604, 0.06768476963043213, -0.8143490622041152, 0.04384193511743534, 0.3241109073378676,0.47944308782566214,0.8201904296875,0.5002288818359375,0.389434814453125
20220117-1516,2022-01-17 15:16:11Z,u01, 39,40,movements,el-ex, rt, d,189045.36896050003, 1.9416702057370256, -0.4970559578881306, 2.687942878606636, -0.10702290385961533, -0.6226440072059631, 0.366906076669693, 0.8192285895347595, 0.4768398106098175, 0.318572461605072, 0.015488207340240479, 0.06234467029571533, 0.006836652755737305, -0.8107395007476313, 0.044583623036667075, 0.32089025657505404,0.4875892224891998,0.8343048095703125,0.56573486328125,0.3032073974609375
20220117-1516,2022-01-17 15:16:11Z,u01, 40,40,movements,el-ex, rt, d,189045.3939055, 1.9253590781525511, -0.4881119130993459, 2.6860620878069406, -0.05153055116534233, -0.6079400181770325, 0.35153526067733765, 0.8282822370529175, 0.46895912289619446, 0.30663660168647766, 0.00619053840637207, 0.11182090640068054, -0.030406683683395386, -0.8070084342226859, 0.04533968938240662, 0.318380818989186,0.4952932393394186,0.834320068359375,0.578399658203125,0.279388427734375
20220117-1516,2022-01-17 15:16:11Z,u01, 41,40,movements,el-ex, rt, d,189045.4188515, 1.9097438177079604, -0.4795806620326489, 2.683193144619416, 0.021125607192516327, -0.5231313109397888, 0.36166900396347046, 0.8367120623588562, 0.4614071846008301, 0.29498544335365295, -0.013637721538543701, 0.06184712052345276, 0.026471585035324097, -0.803323242036486, 0.046524019005379835, 0.3162864324323752,0.5024641177094198,0.8203887939453125,0.495330810546875,0.360382080078125
20220117-1516,2022-01-17 15:16:11Z,u01, 42,40,movements,el-ex, rt, d,189045.4437965, 1.896210407645147, -0.47207824613141525, 2.6805270462095567, -0.0257527157664299, -0.4750003218650818, 0.2772563099861145, 0.8438838124275208, 0.45473819971084595, 0.28473392128944397, 0.00047647953033447266, 0.06872975826263428, 0.07334423065185547, -0.8000583054769373, 0.04768304682606772, 0.3145056112059416,0.5086445980107187,0.849212646484375,0.5352325439453125,0.342071533203125
20220117-1516,2022-01-17 15:16:11Z,u01, 43,40,movements,el-ex, rt, d,189045.46874150002, 1.8828708096987699, -0.46671105949338226, 2.677839541734452, 0.049528818577528, -0.49575597047805786, 0.20522598922252655, 0.8499175310134888, 0.44995152950286865, 0.2741973102092743, -0.0025205612182617188, 0.10250818729400635, 0.013690382242202759, -0.7967239542637063, 0.048265936674854515, 0.31353795818153185,0.5143884174185096,0.844024658203125,0.5350341796875,0.2678375244140625
20220117-1516,2022-01-17 15:16:11Z,u01, 44,40,movements,el-ex, rt, d,189045.4936875, 1.86975764562903, -0.4619121645967063, 2.6761765537237956, -0.07967906445264816, -0.4777633249759674, 0.20540554821491241, 0.8554933667182922, 0.44566068053245544, 0.26366180181503296, -0.009179949760437012, 0.039843350648880005, -0.007954984903335571, -0.7934078500589985, 0.04832065332712682, 0.3125272042605871,0.5200921015104942,0.8495941162109375,0.4823760986328125,0.2637786865234375
20220117-1516,2022-01-17 15:16:11Z,u01, 45,40,movements,el-ex, rt, d,189045.51863250002, 1.8597617541541507, -0.4559823677377049, 2.678537561516602, -0.17400133609771729, -0.4084426462650299, 0.20420120656490326, 0.8606043457984924, 0.44034451246261597, 0.2558459937572479, -0.0026482343673706055, 0.03699618577957153, 0.041258007287979126, -0.7909832421635239, 0.04762882834453558, 0.30998603206555053,0.5253434821861083,0.8542633056640625,0.468505859375,0.322479248046875
20220117-1516,2022-01-17 15:16:11Z,u01, 46,40,movements,el-ex, rt, d,189045.54357850002, 1.8515282513272855, -0.4508557031309272, 2.6808649444575914, -0.12010038644075394, -0.34041109681129456, 0.14389212429523468, 0.8648393154144287, 0.43573588132858276, 0.24937377870082855, -0.002977132797241211, 0.04134535789489746, 0.0740821361541748, -0.7889725901001741, 0.047001468088661846, 0.3077000658527691,0.529748832427776,0.8654022216796875,0.4789276123046875,0.3166351318359375
20220117-1516,2022-01-17 15:16:11Z,u01, 47,40,movements,el-ex, rt, d,189045.5685235, 1.843233800289531, -0.4471838994424707, 2.6810125221348287, 0.013376609422266483, -0.3317408263683319, 0.14314864575862885, 0.8684129118919373, 0.4324280619621277, 0.24262075126171112, 0.0025739669799804688, 0.04044172167778015, 0.023507818579673767, -0.7868421933125256, 0.046794655581342104, 0.3065213009202782,0.5336049775238365,0.8668365478515625,0.4490509033203125,0.2423858642578125
20220117-1516,2022-01-17 15:16:11Z,u01, 48,40,movements,el-ex, rt, d,189045.59346950002, 1.8348198525831247, -0.44366699416243605, 2.680047220893535, -0.04887388274073601, -0.3107288181781769, 0.14628204703330994, 0.8718862533569336, 0.42925432324409485, 0.23570087552070618, -0.0052939653396606445, 0.014684796333312988, 0.016984671354293823, -0.784630085161762, 0.04696881603466496, 0.3057028756540302,0.5373036628174752,0.8671112060546875,0.444091796875,0.2567291259765625
20220117-1516,2022-01-17 15:16:11Z,u01, 49,40,movements,el-ex, rt, d,189045.6184145, 1.8283186340915276, -0.43950248754961796, 2.681619079246933, -0.12704035639762878, -0.25414788722991943, 0.14362521469593048, 0.8751212954521179, 0.42548927664756775, 0.23048092424869537, -0.005263626575469971, 0.008241653442382812, 0.06949171423912048, -0.7829842163702241, 0.04664950467618301, 0.3039261852418472,0.5407294800718426,0.8664703369140625,0.4206695556640625,0.3277435302734375
20220117-1516,2022-01-17 15:16:11Z,u01, 50,40,movements,el-ex, rt, d,189045.6433595, 1.8242805125656938, -0.43536389109102036, 2.6846437955696016, -0.14346687495708466, -0.1884695440530777, 0.11991934478282928, 0.8777421116828918, 0.4217403829097748, 0.22738488018512726, -0.0016282200813293457, -0.007250726222991943, 0.09901593625545502, -0.7820254080687274, 0.0461378681341999, 0.30170555645774133,0.5433979554225271,0.876800537109375,0.412109375,0.313446044921875
20220117-1516,2022-01-17 15:16:11Z,u01, 51,40,movements,el-ex, rt, d,189045.6683055, 1.82219937270258, -0.4321754843492871, 2.688665091636441, -0.1968938708305359, -0.11571332067251205, 0.06425928324460983, 0.8795114755630493, 0.4188472628593445, 0.22589106857776642, -0.00010156631469726562, 0.01157262921333313, 0.02952602505683899, -0.7816000164007441, 0.04524324341736702, 0.2995070127954811,0.5452981852742644,0.8798370361328125,0.454620361328125,0.24078369140625
20220117-1516,2022-01-17 15:16:11Z,u01, 52,40,movements,el-ex, rt, d,189045.69325050001, 1.8213138661722656, -0.4297029652399116, 2.6921376361879368, -0.09041895717382431, -0.05374608933925629, 0.06168347969651222, 0.8807117342948914, 0.4166007936000824, 0.2253682166337967, -0.015904545783996582, 0.06368476152420044, 0.05110585689544678, -0.7814741603011252, 0.04452239292704002, 0.2976853344666538,0.546534010792168,0.864837646484375,0.4744415283203125,0.2894744873046875
20220117-1516,2022-01-17 15:16:11Z,u01, 53,40,movements,el-ex, rt, d,189045.7181965, 1.8221155859821008, -0.42803803711064486, 2.6943635591415425, -0.10780051350593567, 0.044538602232933044, 0.022509906440973282, 0.8812012076377869, 0.41508665680885315, 0.22624635696411133, -0.01541757583618164, 0.0442180335521698, 0.09980353713035583, -0.7817682998710203, 0.04428883662796074, 0.2964567071713123,0.546799954729523,0.86761474609375,0.4659271240234375,0.3331146240234375
20220117-1516,2022-01-17 15:16:11Z,u01, 54,40,movements,el-ex, rt, d,189045.7431412917, 1.8267595460546897, -0.42745073276073375, 2.6974819758809416, -0.0652303546667099, 0.15310461819171906, -0.05221319943666458, 0.8803766369819641, 0.414552241563797, 0.23039782047271729, -0.017492234706878662, 0.07551413774490356, 0.09537740051746368, -0.7831145275992983, 0.043938019540808726, 0.29528977604841355,0.545531793319162,0.862152099609375,0.4938201904296875,0.323455810546875
20220117-1516,2022-01-17 15:16:12Z,u01, 55,40,movements,el-ex, rt, d,189045.76808729168, 1.832710024931178, -0.4296889303154702, 2.699976068368283, -0.09189581871032715, 0.25031259655952454, -0.1216658428311348, 0.8780917525291443, 0.41658803820610046, 0.2353915572166443, -0.016366958618164062, 0.0735088586807251, 0.0860196053981781, -0.7847509936722817, 0.04314693349508569, 0.29529490818117365,0.5432357628933969,0.8618316650390625,0.5001373291015625,0.321014404296875
20220117-1516,2022-01-17 15:16:12Z,u01, 56,40,movements,el-ex, rt, d,189045.79303229167, 1.8424039076886018, -0.43297652035781947, 2.704037902893486, -0.11193740367889404, 0.34258586168289185, -0.1952800750732422, 0.8744447231292725, 0.419574499130249, 0.24352377653121948, -0.01333010196685791, 0.08657476305961609, 0.07720080018043518, -0.7874010665004841, 0.04196965266414615, 0.2951882071020918,0.539538791506308,0.8593902587890625,0.508575439453125,0.321533203125
20220117-1516,2022-01-17 15:16:12Z,u01, 57,40,movements,el-ex, rt, d,189045.81797829168, 1.8541746457651058, -0.4371872434788335, 2.708594372648613, -0.09968683123588562, 0.41077831387519836, -0.22995410859584808, 0.8698137402534485, 0.4233929514884949, 0.25330328941345215, -0.011354267597198486, 0.07123586535453796, 0.045418113470077515, -0.7905703654545214, 0.04062193630827554, 0.2952640673049537,0.5349462604281151,0.8609771728515625,0.49310302734375,0.283966064453125
20220117-1516,2022-01-17 15:16:12Z,u01, 58,40,movements,el-ex, rt, d,189045.84292329167, 1.8672551055215796, -0.44206830849060946, 2.714487283354765, -0.20914733409881592, 0.42325857281684875, -0.25375649333000183, 0.8644391894340515, 0.42780986428260803, 0.2640519440174103, 0.012666404247283936, 0.05546638369560242, 0.01999041438102722, -0.7940563128283548, 0.03873685885590317, 0.2952337357486282,0.5299160316416861,0.8757476806640625,0.4729156494140625,0.2983856201171875
20220117-1516,2022-01-17 15:16:12Z,u01, 59,40,movements,el-ex, rt, d,189045.86786829168, 1.8833640961269733, -0.4466867056768448, 2.724066860525182, -0.3072037696838379, 0.5128844976425171, -0.319773405790329, 0.8581843972206116, 0.4319797158241272, 0.27733179926872253, 0.0006259679794311523, 0.04926711320877075, 0.09664592146873474, -0.7983586610823489, 0.03590750665489817, 0.29412091727661654,0.5242393741937963,0.8657684326171875,0.5013275146484375,0.4148101806640625
20220117-1516,2022-01-17 15:16:12Z,u01, 60,40,movements,el-ex, rt, d,189045.89281429167, 1.904321226621943, -0.45331579009485845, 2.7324320977431316, 0.026829365640878677, 0.6924556493759155, -0.4020277261734009, 0.8494597673416138, 0.4379488229751587, 0.29431071877479553, -0.019717395305633545, 0.08338281512260437, 0.08064362406730652, -0.8037548242497154, 0.03366804465483275, 0.2940585536252469,0.5161144850224294,0.858245849609375,0.501434326171875,0.397064208984375
20220117-1516,2022-01-17 15:16:12Z,u01, 61,40,movements,el-ex, rt, d,189045.91775929168, 1.9254269743460934, -0.46307474209622124, 2.735979844894759, -0.00028890278190374374, 0.8365726470947266, -0.4131189286708832, 0.8390112519264221, 0.44670113921165466, 0.3106733560562134, 0.033715009689331055, 0.02711459994316101, 0.0841631293296814, -0.8088763683336819, 0.032491539302742845, 0.2964787196824021,0.5067184631331964,0.8588104248046875,0.5006866455078125,0.3860931396484375
20220117-1516,2022-01-17 15:16:12Z,u01, 62,40,movements,el-ex, rt, d,189045.94270529167, 1.9495397546480682, -0.47407357827144714, 2.739796167851861, 0.03214680030941963, 0.9473429322242737, -0.5154719352722168, 0.8266617059707642, 0.4565143883228302, 0.3289753496646881, -0.02069258689880371, 0.11697176098823547, 0.12672847509384155, -0.81455786737053, 0.03135523706039428, 0.29931147034885186,0.4959081466111623,0.8079986572265625,0.5706024169921875,0.4622650146484375
20220117-1516,2022-01-17 15:16:12Z,u01, 63,40,movements,el-ex, rt, d,189045.96765029168, 1.9771982909836796, -0.4862788340265851, 2.745647438810875, -0.07737307250499725, 1.0558382272720337, -0.5510883331298828, 0.8120691180229187, 0.46733933687210083, 0.3494821786880493, 0.009860813617706299, 0.05383977293968201, 0.13335177302360535, -0.8208908055696863, 0.029654233775420424, 0.30212762602369686,0.48371255340530556,0.82452392578125,0.52178955078125,0.4862518310546875
20220117-1516,2022-01-17 15:16:12Z,u01, 64,40,movements,el-ex, rt, d,189045.99259629167, 2.0096202813890556, -0.49764923585940496, 2.7555368577122676, -0.14328533411026, 1.1641755104064941, -0.5789427757263184, 0.7954513430595398, 0.4773612320423126, 0.37334081530570984, 0.016041576862335205, 0.044504523277282715, 0.12493503093719482, -0.8282051715238743, 0.027324046489287712, 0.30370318881649916,0.47020628824467414,0.811431884765625,0.522491455078125,0.4927520751953125
20220117-1516,2022-01-17 15:16:12Z,u01, 65,40,movements,el-ex, rt, d,189046.0175412917, 2.0455682267701323, -0.5095042926734816, 2.7669712882135458, -0.1702927201986313, 1.2617714405059814, -0.6314563155174255, 0.7764314413070679, 0.4877445697784424, 0.3990730941295624, 0.038708269596099854, 0.041369080543518066, 0.08118206262588501, -0.8360146131136441, 0.024821768267838995, 0.3052263523873475,0.45530238795543915,0.8213958740234375,0.5381317138671875,0.470916748046875
20220117-1516,2022-01-17 15:16:12Z,u01, 66,40,movements,el-ex, rt, d,189046.04248629167, 2.0849899677905004, -0.5218525546287808, 2.7813505283687556, -0.1934838891029358, 1.3339781761169434, -0.6973524689674377, 0.7547985315322876, 0.4984869658946991, 0.42636868357658386, 0.04785966873168945, 0.1143822968006134, 0.08716613054275513, -0.8442273184993182, 0.021553944300368, 0.306446158292128,0.43921126380169395,0.7964324951171875,0.6143951416015625,0.51849365234375
20220117-1516,2022-01-17 15:16:12Z,u01, 67,40,movements,el-ex, rt, d,189046.0674322917, 2.1264901017863513, -0.5349149595433933, 2.7957495621505, -0.16968612372875214, 1.415941596031189, -0.6956996321678162, 0.7308651208877563, 0.5097678899765015, 0.45384296774864197, 0.04664665460586548, 0.07380455732345581, 0.09271180629730225, -0.8523964011673288, 0.01848961383728054, 0.3081747659431963,0.4220272805663039,0.780548095703125,0.5418243408203125,0.552032470703125
20220117-1516,2022-01-17 15:16:12Z,u01, 68,40,movements,el-ex, rt, d,189046.09237729167, 2.1707283467802667, -0.5468816766582151, 2.8104773496850464, -0.16755644977092743, 1.5142297744750977, -0.6892639994621277, 0.704993486404419, 0.5200262665748596, 0.4822416305541992, 0.06461405754089355, -0.0053015947341918945, 0.08338642120361328, -0.8607337456505472, 0.01606975689658363, 0.30962104980226685,0.403749947986504,0.7687225341796875,0.5231170654296875,0.559356689453125
20220117-1516,2022-01-17 15:16:12Z,u01, 69,40,movements,el-ex, rt, d,189046.1173232917, 2.2169065615428214, -0.5590986800543478, 2.8260165843724656, -0.1459590196609497, 1.515141248703003, -0.7424281239509583, 0.6768573522567749, 0.5304223299026489, 0.5104078054428101, 0.09505420923233032, 0.04631394147872925, 0.011992156505584717, -0.8689177655562458, 0.013631717271154364, 0.311253764194295,0.38459997625383785,0.76727294921875,0.5999603271484375,0.530029296875
20220117-1516,2022-01-17 15:16:12Z,u01, 70,40,movements,el-ex, rt, d,189046.14226829167, 2.2638086806888755, -0.5703604012419374, 2.843294363188738, -0.21692097187042236, 1.5144599676132202, -0.6915109157562256, 0.6475458741188049, 0.5399354100227356, 0.5377305746078491, 0.08837026357650757, -0.0049013495445251465, 0.03932642936706543, -0.876782376415433, 0.010859998031596874, 0.3124332942713417,0.3654041457317881,0.7318572998046875,0.5093231201171875,0.587249755859375
20220117-1516,2022-01-17 15:16:12Z,u01, 71,40,movements,el-ex, rt, d,189046.16721429167, 2.3121170319646467, -0.579296939251332, 2.8607112960711825, -0.2467595636844635, 1.60226571559906, -0.6679185628890991, 0.6172400116920471, 0.5474357008934021, 0.5650920271873474, 0.08857053518295288, -0.10839468240737915, 0.07341217994689941, -0.8845723385635224, 0.008820104814051322, 0.3128829512438099,0.3457719916327426,0.7003173828125,0.47674560546875,0.6480865478515625
20220117-1516,2022-01-17 15:16:12Z,u01, 72,40,movements,el-ex, rt, d,189046.19215929168, 2.36253620504498, -0.5882791090777562, 2.87921463784408, -0.09150855988264084, 1.5889623165130615, -0.7127885222434998, 0.5844975113868713, 0.5549302697181702, 0.5919583439826965, 0.11536198854446411, 0.05960208177566528, -0.0026181936264038086, -0.8921517529292662, 0.00666597545705333, 0.31343673488831997,0.3252354759499471,0.6954498291015625,0.6328277587890625,0.56671142578125
20220117-1516,2022-01-17 15:16:12Z,u01, 73,40,movements,el-ex, rt, d,189046.21710529167, 2.410209275438011, -0.5996444083930371, 2.8950817401783233, -0.018291804939508438, 1.532265067100525, -0.6994155645370483, 0.5513758659362793, 0.5643489360809326, 0.6144066452980042, 0.10382139682769775, 0.05889630317687988, -0.08781027793884277, -0.8984317066730774, 0.004877552408259933, 0.3157310839068778,0.3051405288788613,0.63446044921875,0.59820556640625,0.5524749755859375
20220117-1516,2022-01-17 15:16:12Z,u01, 74,40,movements,el-ex, rt, d,189046.24205029168, 2.459351847294295, -0.6085709595300925, 2.9130465555695593, -0.15783312916755676, 1.6213396787643433, -0.6642323732376099, 0.517331600189209, 0.5716955661773682, 0.6368144154548645, 0.09076172113418579, 0.015538930892944336, -0.003894984722137451, -0.9046538365780687, 0.0029388936938540278, 0.31690029639074363,0.2848984501570779,0.6036529541015625,0.593719482421875,0.6577301025390625
20220117-1516,2022-01-17 15:16:12Z,u01, 75,40,movements,el-ex, rt, d,189046.2669952917, 2.511158868050212, -0.6169219287720771, 2.93087568277418, -0.04277807101607323, 1.7005747556686401, -0.6688780784606934, 0.48082929849624634, 0.5785272121429443, 0.6588694453239441, 0.11580449342727661, 0.009256362915039062, 0.07210272550582886, -0.9107315484474157, 0.0016645017779990945, 0.31809817674218693,0.26339833861146467,0.5967254638671875,0.59930419921875,0.7364349365234375
20220117-1516,2022-01-17 15:16:12Z,u01, 76,40,movements,el-ex, rt, d,189046.29194129168, 2.5635530363167143, -0.6260679019674302, 2.948054675992121, -0.002842674031853676, 1.679152250289917, -0.6740912795066833, 0.4427548050880432, 0.5859629511833191, 0.6786864399909973, 0.12415492534637451, 0.06230652332305908, -0.030279457569122314, -0.9161564612547983, 0.0007520272822150731, 0.31999229028545584,0.24137444351204357,0.5594329833984375,0.651397705078125,0.6367645263671875
20220117-1516,2022-01-17 15:16:12Z,u01, 77,40,movements,el-ex, rt, d,189046.31688629166, 2.6150906935415397, -0.6348678842140048, 2.965606670146229, -0.036492880433797836, 1.628250241279602, -0.6733418107032776, 0.404597669839859, 0.5930711627006531, 0.6961087584495544, 0.09993413090705872, 0.04778259992599487, -0.06109887361526489, -0.9208986314349825, -0.00029572752456452633, 0.32193617025006493,0.2197788557398327,0.4805450439453125,0.6248931884765625,0.66314697265625
20220117-1516,2022-01-17 15:16:12Z,u01, 78,40,movements,el-ex, rt, d,189046.34183229168, 2.6676686067454782, -0.6406550650273916, 2.985373784117107, -0.1327613890171051, 1.6536612510681152, -0.6644394397735596, 0.3658827543258667, 0.597720742225647, 0.7133436799049377, 0.08805084228515625, -0.011905550956726074, 0.02805018424987793, -0.9255641162657422, -0.0017010754801929928, 0.322531017771511,0.1982467024535201,0.4493560791015625,0.584869384765625,0.751434326171875
20220117-1516,2022-01-17 15:16:12Z,u01, 79,40,movements,el-ex, rt, d,189046.36677729167, 2.721377215425215, -0.6452123792961545, 3.005662888107631, -0.05064425244927406, 1.674436330795288, -0.6648873090744019, 0.3259463310241699, 0.6013681292533875, 0.7294622659683228, 0.10984465479850769, 0.015681922435760498, 0.02845710515975952, -0.9299044341707645, -0.0029780744117679503, 0.3227848451356685,0.17629170825885876,0.4215850830078125,0.6472015380859375,0.766571044921875
20220117-1516,2022-01-17 15:16:12Z,u01, 80,40,movements,el-ex, rt, d,189046.3917232917, 2.774105023145458, -0.6526704172963569, 3.0248444276453794, 0.0879979208111763, 1.6144806146621704, -0.694301426410675, 0.2854290306568146, 0.6073101162910461, 0.7414210438728333, 0.10455513000488281, 0.07780951261520386, -0.03306204080581665, -0.9331095149154578, -0.004141104603391288, 0.3247375856211482,0.15438626400121008,0.3860015869140625,0.6741180419921875,0.6975555419921875
20220117-1516,2022-01-17 15:16:12Z,u01, 81,40,movements,el-ex, rt, d,189046.41666829167, 2.8254433389137703, -0.6603557030790828, 3.0440471250939822, 0.04154476523399353, 1.5841761827468872, -0.676893949508667, 0.24554795026779175, 0.6133978366851807, 0.7506327629089355, 0.10831865668296814, -0.01720637083053589, -0.0701364278793335, -0.9355676851139102, -0.005430741869889233, 0.32704841131358575,0.1331278210668686,0.3276519775390625,0.5865020751953125,0.7384033203125
20220117-1516,2022-01-17 15:16:12Z,u01, 82,40,movements,el-ex, rt, d,189046.4416142917, 2.878503760849556, -0.6639641361510424, 3.0648125490420672, -0.08853810280561447, 1.6285725831985474, -0.6551899313926697, 0.20481522381305695, 0.6162436604499817, 0.7604570388793945, 0.11009564995765686, -0.014940619468688965, 0.01894688606262207, -0.9381806837261182, -0.006746110382366166, 0.32762299315364957,0.1115113479967893,0.31591796875,0.6044921875,0.77764892578125
20220117-1516,2022-01-17 15:16:12Z,u01, 83,40,movements,el-ex, rt, d,189046.46655929167, 2.9316051305574025, -0.6659776749407943, 3.0860057821065237, -0.056527573615312576, 1.5778088569641113, -0.682589054107666, 0.16390515863895416, 0.6178281903266907, 0.769040584564209, 0.12421126663684845, 0.016204893589019775, -0.012967526912689209, -0.9404542975681718, -0.008124248338363782, 0.32769602576030793,0.08997232814213205,0.263916015625,0.6572113037109375,0.7318267822265625
20220117-1516,2022-01-17 15:16:12Z,u01, 84,40,movements,el-ex, rt, d,189046.49150429168, 2.9830913191672392, -0.6702833442872483, 3.107062760447257, 0.13872922956943512, 1.5119028091430664, -0.6892387866973877, 0.12368950247764587, 0.6212080717086792, 0.7738229036331177, 0.08889594674110413, 0.0439072847366333, -0.053912997245788574, -0.9417089505324634, -0.009782213181722343, 0.3291124689807093,0.06909162222125773,0.20635986328125,0.651824951171875,0.7114715576171875
20220117-1516,2022-01-17 15:16:12Z,u01, 85,40,movements,el-ex, rt, d,189046.51645029167, 3.0337547613882836, -0.6783256340673806, 3.1274354578120356, 0.30396947264671326, 1.527450442314148, -0.6667986512184143, 0.08380255848169327, 0.627490222454071, 0.7741013765335083, 0.09200915694236755, -0.012835860252380371, -0.0103837251663208, -0.9417663205713694, -0.011263972052020399, 0.3325656597525829,0.048469868061215504,0.1623687744140625,0.5914306640625,0.76898193359375
20220117-1516,2022-01-17 15:16:12Z,u01, 86,40,movements,el-ex, rt, d,189046.5413952917, 3.0850000022115873, -0.6872076184896936, -3.1358183408752547, 0.36258354783058167, 1.5586289167404175, -0.6337043642997742, 0.0437239333987236, 0.634381115436554, 0.7717829942703247, 0.0922623872756958, -0.06139838695526123, 0.027976036071777344, -0.9411383881556741, -0.01224852413647659, 0.336669247008753,0.027610889853471404,0.1337432861328125,0.579925537109375,0.794189453125
20220117-1516,2022-01-17 15:16:12Z,u01, 87,40,movements,el-ex, rt, d,189046.56634129168, 3.136049108180479, -0.6970574375360911, -3.115184255497837, 0.42359620332717896, 1.4851393699645996, -0.6325761079788208, 0.004250407684594393, 0.641964316368103, 0.7667230367660522, 0.1186743676662445, -0.005199790000915527, -0.06324684619903564, -0.9397782379431101, -0.013356426714098202, 0.3414498439751573,0.007114182230265553,0.103363037109375,0.6681060791015625,0.685943603515625
20220117-1516,2022-01-17 15:16:12Z,u01, 88,40,movements,el-ex, rt, d,189046.5912862917, -3.097584809537827, -0.7105998792612735, -3.093524447024128, 0.6934351325035095, 1.4090824127197266, -0.6524374485015869, -0.03334590047597885, 0.652288556098938, 0.7572371363639832, 0.06345143169164658, 0.003885209560394287, -0.08017390966415405, -0.9372285359893096, -0.014873655545515008, 0.34818263435438435,-0.012264033924439394,0.019012451171875,0.6405181884765625,0.711181640625
20220117-1516,2022-01-17 15:16:12Z,u01, 89,40,movements,el-ex, rt, d,189046.61623229168, -3.0466766202126783, -0.7261276247291818, -3.0693223775973313, 0.5319199562072754, 1.3890774250030518, -0.7148202061653137, -0.07086705416440964, 0.6639790534973145, 0.7443854212760925, 0.07642123848199844, -0.048912644386291504, -0.0010533928871154785, -0.933759711856279, -0.016897310613042227, 0.3561107157510247,-0.031502981151531995,0.01495361328125,0.628204345703125,0.7124481201171875
20220117-1516,2022-01-17 15:16:12Z,u01, 90,40,movements,el-ex, rt, d,189046.6411772917, -2.996167695126613, -0.7311941712854002, -3.0444441901307218, 0.10867223888635635, 1.3119219541549683, -0.7249403595924377, -0.1078699454665184, 0.6677590012550354, 0.7365204095840454, 0.11824585497379303, 0.009822726249694824, -0.005456387996673584, -0.9316052241577746, -0.01928464668499008, 0.35943605177866966,-0.050454178238660885,0.0001678466796875,0.6843719482421875,0.7208404541015625
20220117-1516,2022-01-17 15:16:12Z,u01, 91,40,movements,el-ex, rt, d,189046.66612229167, -2.948504729968016, -0.7263145793241896, -3.0215166930942936, -0.16719695925712585, 1.2767361402511597, -0.6820449829101562, -0.1434623748064041, 0.6641188263893127, 0.7337332367897034, 0.09016340970993042, 0.03310084342956543, -0.016310811042785645, -0.9308050406051365, -0.021647280696119153, 0.3583427402377293,-0.06872979892806075,-0.074951171875,0.6897735595703125,0.7108154296875
20220117-1516,2022-01-17 15:16:12Z,u01, 92,40,movements,el-ex, rt, d,189046.69106829166, -2.901980008160577, -0.719417508350936, -2.999912707971977, -0.036002159118652344, 1.303881287574768, -0.7091649770736694, -0.17851440608501434, 0.6589466333389282, 0.7306994795799255, 0.06239500641822815, 0.03480929136276245, -0.009263932704925537, -0.9299370034634031, -0.023810134746546197, 0.35652018941967856,-0.08685363851304453,-0.1194610595703125,0.7019805908203125,0.725433349609375
20220117-1516,2022-01-17 15:16:12Z,u01, 93,40,movements,el-ex, rt, d,189046.71601329168, -2.853718923725403, -0.716142554027445, -2.9759593096299404, 0.13757452368736267, 1.283875584602356, -0.7202520370483398, -0.2141687273979187, 0.6564797163009644, 0.7233019471168518, 0.0808984786272049, 0.09530532360076904, 0.011851131916046143, -0.9278710837894898, -0.02657512976132126, 0.3567686478627337,-0.10519046486559566,-0.1335296630859375,0.76055908203125,0.75042724609375
20220117-1516,2022-01-17 15:16:12Z,u01, 94,40,movements,el-ex, rt, d,189046.740958375, -2.8049908532029995, -0.7153846412970056, -2.950915292563967, 0.1795331984758377, 1.2931228876113892, -0.7307608127593994, -0.2493099570274353, 0.6559078097343445, 0.7124810218811035, 0.0651974231004715, 0.013433992862701416, -0.002016603946685791, -0.9248613686784862, -0.029528994601046854, 0.358535748203952,-0.123335004660028,-0.1896820068359375,0.6557159423828125,0.696563720703125
20220117-1516,2022-01-17 15:16:13Z,u01, 95,40,movements,el-ex, rt, d,189046.76590337502, -2.757160379509499, -0.7113200351303969, -2.9273855886820512, -0.0179598405957222, 1.2887142896652222, -0.7231171131134033, -0.2840877175331116, 0.6528342962265015, 0.7022119760513306, 0.07221940159797668, -0.00941699743270874, -0.009157657623291016, -0.9219910871794177, -0.032224442024430866, 0.35898111343376826,-0.14151535898579393,-0.2293701171875,0.6471710205078125,0.693023681640625
20220117-1516,2022-01-17 15:16:13Z,u01, 96,40,movements,el-ex, rt, d,189046.79084937501, -2.7117387191235216, -0.7015150204110405, -2.907283308920951, -0.2100840061903, 1.3015705347061157, -0.7270998954772949, -0.31833183765411377, 0.6453757286071777, 0.694374144077301, 0.059878379106521606, 0.003595888614654541, 0.042793333530426025, -0.9197822428281885, -0.034463064830173085, 0.3568136335940501,-0.15967804118022044,-0.26361083984375,0.6581268310546875,0.7441864013671875
20220117-1516,2022-01-17 15:16:13Z,u01, 97,40,movements,el-ex, rt, d,189046.815794375, -2.6673195728800057, -0.6879779085535047, -2.8890252417102316, -0.20450381934642792, 1.3021758794784546, -0.7496234774589539, -0.3528089225292206, 0.634976327419281, 0.6872634291648865, 0.0823163092136383, 0.05490398406982422, 0.0581437349319458, -0.9177624835209387, -0.03665685771289656, 0.35305118297073135,-0.17811004324674712,-0.268310546875,0.68511962890625,0.6901702880859375
20220117-1516,2022-01-17 15:16:13Z,u01, 98,40,movements,el-ex, rt, d,189046.840739375, -2.62217985142893, -0.6767624386989239, -2.869253697373289, 0.012693741358816624, 1.311409592628479, -0.7708650827407837, -0.3869726359844208, 0.6262723207473755, 0.67678302526474, 0.05834406614303589, 0.01702296733856201, -0.015558600425720215, -0.9147934507407243, -0.039299730238322506, 0.3507416846977997,-0.19644026051996996,-0.33697509765625,0.640167236328125,0.6574859619140625
20220117-1516,2022-01-17 15:16:13Z,u01, 99,40,movements,el-ex, rt, d,189046.865685375, -2.575846703293992, -0.6690306951718609, -2.8466160529148614, 0.15729913115501404, 1.2893588542938232, -0.7808996438980103, -0.4204866290092468, 0.6202259063720703, 0.6622013449668884, 0.06571978330612183, 0.03335362672805786, -0.04438823461532593, -0.9106490366377211, -0.0426498662448066, 0.35058438901709044,-0.21445247713235194,-0.3739776611328125,0.64520263671875,0.6248016357421875
20220117-1516,2022-01-17 15:16:13Z,u01, 100,40,movements,el-ex, rt, d,189046.890630375, -2.5300275854674155, -0.6617386348157225, -2.824376951465369, 0.10090882331132889, 1.3042999505996704, -0.7246518135070801, -0.45296093821525574, 0.6144894361495972, 0.645932674407959, 0.05038827657699585, -0.04643529653549194, 0.006258487701416016, -0.9060141157986864, -0.0458777648637565, 0.35087518321479383,-0.23220731454897575,-0.409332275390625,0.5646514892578125,0.652435302734375
20220117-1516,2022-01-17 15:16:13Z,u01, 101,40,movements,el-ex, rt, d,189046.915576375, -2.4861748754477873, -0.6519285911831972, -2.805847864304348, -0.018706191331148148, 1.2992832660675049, -0.7007558941841125, -0.4844933748245239, 0.6067206263542175, 0.6302036643028259, 0.06440356373786926, -0.03924626111984253, 0.020431339740753174, -0.9015401672406873, -0.04824052086347058, 0.3498674577183015,-0.24998209762326346,-0.4259490966796875,0.5815277099609375,0.650238037109375
20220117-1516,2022-01-17 15:16:13Z,u01, 102,40,movements,el-ex, rt, d,189046.940521375, -2.445213343123485, -0.6407315048469765, -2.78969829497006, -0.06498590111732483, 1.2117315530776978, -0.6790792942047119, -0.5142192244529724, 0.5977820158004761, 0.6150081157684326, 0.08434867858886719, -0.020145535469055176, -0.018450498580932617, -0.8971991084662028, -0.05037665655581741, 0.34813084835355973,-0.2670220387663492,-0.435150146484375,0.5789337158203125,0.5928802490234375
20220117-1516,2022-01-17 15:16:13Z,u01, 103,40,movements,el-ex, rt, d,189046.965467375, -2.4085825450759066, -0.6276888676120558, -2.776890834190488, -0.1548422873020172, 1.1343119144439697, -0.627657949924469, -0.5415685176849365, 0.5872757434844971, 0.6015068888664246, 0.0937078595161438, -0.03152024745941162, -0.06895989179611206, -0.8933225646339699, -0.052232486866797434, 0.3452461799187992,-0.2829338585217247,-0.46807861328125,0.5349273681640625,0.53350830078125
20220117-1516,2022-01-17 15:16:13Z,u01, 104,40,movements,el-ex, rt, d,189046.99041237502, -2.3749905758647536, -0.6133057646449602, -2.7671107092632004, -0.22777043282985687, 1.1139787435531616, -0.6132539510726929, -0.5672662854194641, 0.5755738615989685, 0.5890021324157715, 0.06838017702102661, -0.019818425178527832, -0.01254040002822876, -0.8897308791708604, -0.053666018495193146, 0.34143992924484745,-0.2981906364888493,-0.503753662109375,0.5627593994140625,0.5761260986328125
20220117-1516,2022-01-17 15:16:13Z,u01, 105,40,movements,el-ex, rt, d,189047.015358375, -2.342823870796143, -0.5993922525068072, -2.758476214060299, -0.14078949391841888, 1.0727035999298096, -0.5715771317481995, -0.5915969014167786, 0.564140796661377, 0.5759846568107605, 0.07520890235900879, 0.012153089046478271, -0.021449685096740723, -0.8859908833592648, -0.05488620535418043, 0.33775334073987273,-0.312938266729034,-0.53131103515625,0.57159423828125,0.5595550537109375
20220117-1516,2022-01-17 15:16:13Z,u01, 106,40,movements,el-ex, rt, d,189047.04030337502, -2.3112374573038856, -0.5871088807099389, -2.749373039534825, -0.1007961630821228, 1.0498855113983154, -0.553276777267456, -0.6145613193511963, 0.5539563298225403, 0.5616468191146851, 0.05851560831069946, 0.005903899669647217, -0.011842012405395508, -0.8818532624208879, -0.05619828901304813, 0.33493200628304365,-0.327104375080186,-0.559600830078125,0.5604248046875,0.54315185546875
20220117-1516,2022-01-17 15:16:13Z,u01, 107,40,movements,el-ex, rt, d,189047.065248375, -2.280681063351763, -0.5756317603072557, -2.74056259050852, -0.04531490057706833, 1.0076618194580078, -0.5217264890670776, -0.6362137794494629, 0.544364869594574, 0.5467165112495422, 0.07015848159790039, 0.016075074672698975, -0.042062580585479736, -0.8775272187693184, -0.057482414221309674, 0.3324889076922561,-0.3407240536176858,-0.5745849609375,0.5428009033203125,0.5059814453125
20220117-1516,2022-01-17 15:16:13Z,u01, 108,40,movements,el-ex, rt, d,189047.09019437502, -2.251110275880523, -0.5653703501507736, -2.7317651555275817, -0.03820262849330902, 0.9812092185020447, -0.48847392201423645, -0.6564079523086548, 0.5357285737991333, 0.5311527252197266, 0.04910820722579956, -0.017204582691192627, -0.05649769306182861, -0.872998369879779, -0.058738357379476136, 0.33063096684415516,-0.3537042847833699,-0.6110076904296875,0.5196533203125,0.4779205322265625
20220117-1516,2022-01-17 15:16:13Z,u01, 109,40,movements,el-ex, rt, d,189047.115139375, -2.222525712249926, -0.5553380157196464, -2.723885528146424, -0.008681189268827438, 0.9660041928291321, -0.4653429687023163, -0.675559937953949, 0.5272305607795715, 0.515409529209137, 0.048560917377471924, 0.005743682384490967, -0.020490586757659912, -0.868407564050875, -0.059775213604972344, 0.32877761545162165,-0.3663340024437111,-0.636749267578125,0.54742431640625,0.5061187744140625
20220117-1516,2022-01-17 15:16:13Z,u01, 110,40,movements,el-ex, rt, d,189047.14008537502, -2.1937855442185983, -0.5466524623952168, -2.714681501672272, 0.09606553614139557, 0.9441496133804321, -0.4540342688560486, -0.6937845945358276, 0.5198304653167725, 0.4984366297721863, 0.04127299785614014, 0.02020847797393799, -0.0021597743034362793, -0.8634146272776608, -0.06110233153110922, 0.32782238458586677,-0.3785685021625459,-0.6545257568359375,0.5323944091796875,0.4897918701171875
20220117-1516,2022-01-17 15:16:13Z,u01, 111,40,movements,el-ex, rt, d,189047.165030375, -2.1657984160676733, -0.5389316142749372, -2.705132819373861, 0.0790080800652504, 0.9129440188407898, -0.42809274792671204, -0.7107635736465454, 0.5132193565368652, 0.48106229305267334, 0.045510947704315186, -0.019338250160217285, -0.0070174336433410645, -0.8582681821946088, -0.0625049547794943, 0.3274042400767698,-0.3902246584515686,-0.6752777099609375,0.47991943359375,0.4608612060546875
20220117-1516,2022-01-17 15:16:13Z,u01, 112,40,movements,el-ex, rt, d,189047.189976375, -2.139497861502693, -0.5309105568289706, -2.697445325094468, -0.01852196827530861, 0.880018949508667, -0.40950873494148254, -0.7266140580177307, 0.5063187479972839, 0.4644067585468292, 0.04143327474594116, -0.02719283103942871, -0.02333611249923706, -0.8533301926402967, -0.06348983666473768, 0.3265415815591046,-0.40145649821767815,-0.6859130859375,0.48931884765625,0.4493255615234375
20220117-1516,2022-01-17 15:16:13Z,u01, 113,40,movements,el-ex, rt, d,189047.214921375, -2.1155801708787143, -0.522839917568675, -2.692102908182105, 0.026672206819057465, 0.8384471535682678, -0.36337172985076904, -0.7409831881523132, 0.499342679977417, 0.4489995837211609, 0.05551266670227051, 0.00012311339378356934, -0.013330668210983276, -0.8487724750128116, -0.06391465634381022, 0.3251815923378143,-0.41201585960074605,-0.702301025390625,0.4854888916015625,0.444610595703125
20220117-1516,2022-01-17 15:16:13Z,u01, 114,40,movements,el-ex, rt, d,189047.23986637502, -2.091297845509286, -0.5162546822530746, -2.685160411156577, 0.1377546787261963, 0.8384256958961487, -0.3490971326828003, -0.7545031309127808, 0.4936264157295227, 0.43250229954719543, 0.044236838817596436, -0.022694438695907593, -0.0061563849449157715, -0.8438463777833024, -0.06460987882047714, 0.3248114929101819,-0.4221924154859268,-0.7100372314453125,0.4747314453125,0.4317779541015625
20220117-1516,2022-01-17 15:16:13Z,u01, 115,40,movements,el-ex, rt, d,189047.264812375, -2.0661418491677868, -0.5108014011875334, -2.6753352630156058, 0.21500693261623383, 0.7879447937011719, -0.3589496314525604, -0.7675002813339233, 0.4888765215873718, 0.41466060280799866, 0.051634013652801514, 0.013885319232940674, 0.003521859645843506, -0.8384285903412168, -0.06608931302500887, 0.32559867026206707,-0.432036263559888,-0.721160888671875,0.4972991943359375,0.37847900390625
20220117-1516,2022-01-17 15:16:13Z,u01, 116,40,movements,el-ex, rt, d,189047.28975737502, -2.0423542858186483, -0.5052801355616366, -2.665922579516028, 0.046879809349775314, 0.7342274188995361, -0.35900214314460754, -0.7795386910438538, 0.4840525984764099, 0.3975081443786621, 0.03272765874862671, -0.0225963294506073, -0.009126126766204834, -0.8331749108279993, -0.06762874584204887, 0.32630914927213106,-0.4413256753547891,-0.7541046142578125,0.4605865478515625,0.3873291015625
20220117-1516,2022-01-17 15:16:13Z,u01, 117,40,movements,el-ex, rt, d,189047.314703375, -2.0235253163981155, -0.49686360420333775, -2.6633822855073337, -0.16670387983322144, 0.6725674867630005, -0.32953009009361267, -0.7905204892158508, 0.4766707420349121, 0.38452914357185364, 0.02774876356124878, -0.022645562887191772, -0.0186537504196167, -0.8292477777609236, -0.06791684740244719, 0.3242747244481554,-0.4500904620323422,-0.7579803466796875,0.4608917236328125,0.32952880859375
20220117-1516,2022-01-17 15:16:13Z,u01, 118,40,movements,el-ex, rt, d,189047.33964837503, -2.0081139196342854, -0.4874453311060267, -2.6650003901555346, -0.24430151283740997, 0.6197941899299622, -0.31909695267677307, -0.8003839254379272, 0.4683702886104584, 0.3741856515407562, 0.037230849266052246, -0.0011310279369354248, -0.04386332631111145, -0.826169211236993, -0.06735922104901587, 0.3208200745965929,-0.45823755389702076,-0.7674713134765625,0.4762725830078125,0.33544921875
20220117-1516,2022-01-17 15:16:13Z,u01, 119,40,movements,el-ex, rt, d,189047.36459437502, -1.9953156781476487, -0.47795258457611123, -2.66796548908811, -0.227930948138237, 0.5195961594581604, -0.2777765095233917, -0.8091223239898682, 0.4599621593952179, 0.36572664976119995, 0.03020685911178589, 0.01832449436187744, -0.09393715858459473, -0.8236561439085738, -0.06673744782089053, 0.3169370785808136,-0.46549713978687274,-0.7795867919921875,0.4615325927734375,0.23040771484375
20220117-1516,2022-01-17 15:16:13Z,u01, 120,40,movements,el-ex, rt, d,189047.389539375, -1.98480776121704, -0.4700461107660631, -2.670270362660305, -0.16563232243061066, 0.41600656509399414, -0.22565263509750366, -0.8162245750427246, 0.4529274106025696, 0.35865622758865356, 0.037675321102142334, -0.013871073722839355, -0.10908341407775879, -0.8215387517390469, -0.06634907582101873, 0.31373142169627044,-0.47142815898249135,-0.78009033203125,0.4358367919921875,0.24468994140625
20220117-1516,2022-01-17 15:16:13Z,u01, 121,40,movements,el-ex, rt, d,189047.414484375, -1.9759720812447135, -0.46468683503204944, -2.6703085364017967, -0.02049054391682148, 0.2863495647907257, -0.15927113592624664, -0.821580708026886, 0.4481428563594818, 0.35238221287727356, 0.04219222068786621, -0.028724640607833862, -0.09809446334838867, -0.8196180831505931, -0.06646279722550014, 0.3119758201855603,-0.47589918150510163,-0.7721710205078125,0.40179443359375,0.23895263671875
20220117-1516,2022-01-17 15:16:13Z,u01, 122,40,movements,el-ex, rt, d,189047.439430375, -1.969971632719572, -0.46228811502951994, -2.6687561024460242, 0.03891965374350548, 0.11962449550628662, -0.0564907006919384, -0.8246684670448303, 0.4459972083568573, 0.3478628396987915, 0.06816810369491577, -0.08624079823493958, -0.16062209010124207, -0.8182074739921907, -0.06684275527800193, 0.3116350951723717,-0.4784895054468839,-0.7521820068359375,0.3565216064453125,0.180328369140625
20220117-1516,2022-01-17 15:16:13Z,u01, 123,40,movements,el-ex, rt, d,189047.464375375, -1.9686977360945817, -0.46332122422868527, -2.666447945562145, 0.14818789064884186, -0.10391205549240112, 0.06121768429875374, -0.8246855139732361, 0.4469216465950012, 0.3466331958770752, 0.08704519271850586, -0.09897565841674805, -0.17927485704421997, -0.8177946296513479, -0.06729443297818005, 0.3126217775324035,-0.47848814854368993,-0.7351837158203125,0.336669921875,0.18365478515625
20220117-1516,2022-01-17 15:16:13Z,u01, 124,40,movements,el-ex, rt, d,189047.489321375, -1.9726108696143423, -0.4675870227149298, -2.664634606118061, 0.12242311239242554, -0.2772010862827301, 0.18528710305690765, -0.8215608596801758, 0.45073363184928894, 0.3491089344024658, 0.079220712184906, -0.0953565239906311, -0.11511540412902832, -0.8185392482350404, -0.06743863687616569, 0.3145395462285934,-0.47593112353591305,-0.739776611328125,0.3612518310546875,0.2385406494140625
20220117-1516,2022-01-17 15:16:13Z,u01, 125,40,movements,el-ex, rt, d,189047.51426637502, -1.9817500005789317, -0.47410714243545105, -2.6642266223636293, 0.09834712743759155, -0.4636707007884979, 0.2766278088092804, -0.8156246542930603, 0.45654425024986267, 0.3554210662841797, 0.08759713172912598, -0.09198129177093506, -0.1235332190990448, -0.8204840664999946, -0.06720443262486808, 0.31680256647078964,-0.4710899289011978,-0.7335052490234375,0.376007080078125,0.247833251953125
20220117-1516,2022-01-17 15:16:13Z,u01, 126,40,movements,el-ex, rt, d,189047.539212375, -1.995863369754918, -0.4828465767595085, -2.6652400704251247, 0.08180486410856247, -0.6322006583213806, 0.36786124110221863, -0.8068613409996033, 0.4643022119998932, 0.3652370274066925, 0.05753278732299805, -0.08693721890449524, -0.14386239647865295, -0.8235203106819311, -0.06657939474244062, 0.3194189888237883,-0.46406136387312014,-0.749053955078125,0.37835693359375,0.219879150390625
20220117-1516,2022-01-17 15:16:13Z,u01, 127,40,movements,el-ex, rt, d,189047.56415737502, -2.0144903311512685, -0.4924981100640769, -2.668843439512061, 0.03695144131779671, -0.718215823173523, 0.439898818731308, -0.7958341836929321, 0.47282859683036804, 0.37826088070869446, 0.0449184775352478, -0.05705711245536804, -0.1057998538017273, -0.8275588556400693, -0.06539712742433812, 0.32166533464448427,-0.4554130497063126,-0.7530059814453125,0.42449951171875,0.288970947265625
20220117-1516,2022-01-17 15:16:13Z,u01, 128,40,movements,el-ex, rt, d,189047.589102375, -2.0355134801371895, -0.503289298495277, -2.6741766954650057, -0.007311758119612932, -0.7478602528572083, 0.4841592311859131, -0.783099353313446, 0.48230957984924316, 0.3925971984863281, 0.031558334827423096, -0.0462745726108551, -0.0143471360206604, -0.8320162187330843, -0.06362084063023699, 0.32393489402294423,-0.4458334712843741,-0.7529296875,0.4418487548828125,0.387939453125
20220117-1516,2022-01-17 15:16:13Z,u01, 129,40,movements,el-ex, rt, d,189047.61404837502, -2.057608134015288, -0.5140955471305053, -2.6804431043477854, -0.003330665174871683, -0.7872192859649658, 0.484387069940567, -0.7695831656455994, 0.49174749851226807, 0.40734025835990906, 0.018957555294036865, -0.008684903383255005, -0.020743519067764282, -0.8365797116073919, -0.06168077444835962, 0.32604373550287175,-0.4359189713458772,-0.7415008544921875,0.49407958984375,0.3705902099609375
20220117-1516,2022-01-17 15:16:13Z,u01, 130,40,movements,el-ex, rt, d,189047.638993375, -2.0818660162239127, -0.524530731019304, -2.6879187965725158, -0.060048505663871765, -0.8565271496772766, 0.495015025138855, -0.7549597024917603, 0.5008068680763245, 0.4233541786670685, 0.020828664302825928, -0.016141951084136963, -0.06310918927192688, -0.8414916357347502, -0.05974043372540183, 0.32776551814888955,-0.42531499206177636,-0.73333740234375,0.4869232177734375,0.364288330078125
20220117-1516,2022-01-17 15:16:13Z,u01, 131,40,movements,el-ex, rt, d,189047.66393937502, -2.1078071380963825, -0.5343859840753525, -2.6968974146488827, -0.043544698506593704, -0.8486491441726685, 0.4959682524204254, -0.7394473552703857, 0.5093127489089966, 0.44024744629859924, 0.006460964679718018, -0.011266052722930908, -0.05279633402824402, -0.8466409408609261, -0.05764410993440949, 0.32899192994367665,-0.4142951426055588,-0.7269134521484375,0.498748779296875,0.3968353271484375
20220117-1516,2022-01-17 15:16:13Z,u01, 132,40,movements,el-ex, rt, d,189047.688884375, -2.132811125324167, -0.5450161584573556, -2.7043458807894267, 0.0662342980504036, -0.8540627360343933, 0.4953203797340393, -0.723587155342102, 0.5184319019317627, 0.45568612217903137, 0.02343761920928955, 0.01887565851211548, 0.004091709852218628, -0.8513042316639117, -0.05589421619445739, 0.3309694359980902,-0.4032568835177185,-0.6968994140625,0.5464019775390625,0.456329345703125
20220117-1516,2022-01-17 15:16:13Z,u01, 133,40,movements,el-ex, rt, d,189047.71383037503, -2.157384556098743, -0.5572589110808736, -2.7093660711447445, 0.11568427085876465, -0.9059645533561707, 0.5156554579734802, -0.706833004951477, 0.5288618206977844, 0.4697793126106262, 0.01995849609375, 0.013939082622528076, -0.01706618070602417, -0.8555053825771861, -0.054773990680500206, 0.33417274496411986,-0.39171292651578626,-0.681365966796875,0.529327392578125,0.4501190185546875
20220117-1516,2022-01-17 15:16:13Z,u01, 134,40,movements,el-ex, rt, d,189047.7387764167, -2.184558444024887, -0.5687991188366622, -2.7174569218887714, -0.036805566400289536, -0.9211975932121277, 0.5560393333435059, -0.6887723803520203, 0.53862065076828, 0.48526325821876526, 0.036535441875457764, -0.01367264986038208, -0.028048783540725708, -0.8601274529732961, -0.05303193759100261, 0.33651228748438367,-0.3796417634049642,-0.6479644775390625,0.5197906494140625,0.4540252685546875
20220117-1516,2022-01-17 15:16:14Z,u01, 135,40,movements,el-ex, rt, d,189047.76372141668, -2.2137015337353465, -0.5796090046599872, -2.728922947531899, -0.05400888994336128, -0.9209051132202148, 0.5868465900421143, -0.6696405410766602, 0.5476968288421631, 0.5016071796417236, 0.03666013479232788, -0.029157519340515137, -0.03995251655578613, -0.8650213116894172, -0.05041558338010943, 0.3379910270827071,-0.367366980380089,-0.6240081787109375,0.541046142578125,0.466583251953125
20220117-1516,2022-01-17 15:16:14Z,u01, 136,40,movements,el-ex, rt, d,189047.78866741667, -2.242006880126814, -0.5915892765752233, -2.7387981529406282, 0.13626527786254883, -0.9218053817749023, 0.5841620564460754, -0.6499910354614258, 0.5576809048652649, 0.5162400603294373, 0.046048104763031006, 0.05404394865036011, 0.0008346438407897949, -0.869368945023433, -0.048142230265894925, 0.34039628381600745,-0.354979420644929,-0.6009521484375,0.6150970458984375,0.508880615234375
20220117-1516,2022-01-17 15:16:14Z,u01, 137,40,movements,el-ex, rt, d,189047.81361241668, -2.2690421369589764, -0.6063594875714364, -2.7447004273537354, 0.2801154851913452, -0.9817366600036621, 0.57890385389328, -0.6294200420379639, 0.5698797106742859, 0.528268575668335, 0.04455059766769409, 0.03308647871017456, -0.02124941349029541, -0.872891551668258, -0.046846689046252554, 0.3447885192916416,-0.3420331314475732,-0.579254150390625,0.586395263671875,0.4951171875
20220117-1516,2022-01-17 15:16:14Z,u01, 138,40,movements,el-ex, rt, d,189047.83855841667, -2.2972766327697984, -0.6213692447162739, -2.7509361981863725, 0.1697559356689453, -0.9830787181854248, 0.6072072982788086, -0.6077926158905029, 0.5821490287780762, 0.5400838255882263, 0.045689404010772705, 0.0014079809188842773, -0.007399499416351318, -0.8763297457824719, -0.045695726461812025, 0.3492848945516743,-0.3285697999253121,-0.5578765869140625,0.580841064453125,0.5432586669921875
20220117-1516,2022-01-17 15:16:14Z,u01, 139,40,movements,el-ex, rt, d,189047.86350341668, -2.3275347318115527, -0.6344036070375113, -2.7612326655212103, 0.08367098122835159, -0.9604716897010803, 0.6260653734207153, -0.5856078863143921, 0.592697262763977, 0.5529676675796509, 0.03940427303314209, -0.016540825366973877, 0.011149823665618896, -0.8801000103200359, -0.04367830551099927, 0.35236486411709406,-0.3152064963537884,-0.5378265380859375,0.5792999267578125,0.55780029296875
20220117-1516,2022-01-17 15:16:14Z,u01, 140,40,movements,el-ex, rt, d,189047.88844941667, -2.3579371232787496, -0.6481464195484121, -2.7719459123310144, 0.17144997417926788, -0.9844590425491333, 0.6308825612068176, -0.5627254247665405, 0.6037097573280334, 0.564690113067627, 0.03799086809158325, -0.009685099124908447, -0.000511467456817627, -0.883529849616207, -0.0414735686975215, 0.35581092076323667,-0.30175094447886514,-0.521331787109375,0.59552001953125,0.5687103271484375
20220117-1516,2022-01-17 15:16:14Z,u01, 141,40,movements,el-ex, rt, d,189047.91339441668, -2.39224808242381, -0.6605390539496816, -2.7859764139404786, -0.15227077901363373, -1.0951319932937622, 0.7095428705215454, -0.5378853678703308, 0.6135426163673401, 0.5781395435333252, 0.044583797454833984, -0.04487800598144531, -0.035262107849121094, -0.8874440362898393, -0.0388953087365384, 0.35827373950983143,-0.2873505365390174,-0.47900390625,0.5484466552734375,0.5077056884765625
20220117-1516,2022-01-17 15:16:14Z,u01, 142,40,movements,el-ex, rt, d,189047.93833941667, -2.4365957901349113, -0.665094437471862, -2.8129200839529065, -0.5443946123123169, -1.0917176008224487, 0.7921850681304932, -0.5099092125892639, 0.6171334385871887, 0.5992823243141174, 0.049490392208099365, -0.08869105577468872, -0.03920835256576538, -0.8935822524887786, -0.03393977777256951, 0.3556380870997905,-0.27180969772945945,-0.4601287841796875,0.5470733642578125,0.5851898193359375
20220117-1516,2022-01-17 15:16:14Z,u01, 143,40,movements,el-ex, rt, d,189047.96328541668, -2.4789523405892693, -0.6698202724126725, -2.8377972097469546, -0.11009342968463898, -1.0982356071472168, 0.6645446419715881, -0.4822762906551361, 0.6208450794219971, 0.6180301308631897, 0.038901567459106445, 0.06708210706710815, 0.023327410221099854, -0.898970464005598, -0.029447882340952525, 0.3537161696154072,-0.25665131782671374,-0.4246063232421875,0.7254180908203125,0.6031494140625
20220117-1516,2022-01-17 15:16:14Z,u01, 144,40,movements,el-ex, rt, d,189047.98823041667, -2.517404645232357, -0.6812489952612087, -2.8539536030941157, 0.13117077946662903, -1.1688281297683716, 0.6766217350959778, -0.4539843499660492, 0.6297637224197388, 0.6303145289421082, 0.07013410329818726, 0.0707826018333435, -0.017841756343841553, -0.902455460643383, -0.027044285685618785, 0.3561345905540914,-0.24085483600252977,-0.388580322265625,0.6892547607421875,0.61993408203125
20220117-1516,2022-01-17 15:16:14Z,u01, 145,40,movements,el-ex, rt, d,189048.0131764167, -2.556075243815533, -0.6923297785689647, -2.869867851969933, 0.07968369126319885, -1.1135951280593872, 0.6458665132522583, -0.4253934323787689, 0.6383323073387146, 0.6415388584136963, 0.02758154273033142, 0.03216928243637085, -0.00010520219802856445, -0.905618997370432, -0.024973469982616292, 0.35863262221788916,-0.22497366220980086,-0.3892974853515625,0.684539794921875,0.655914306640625
20220117-1516,2022-01-17 15:16:14Z,u01, 146,40,movements,el-ex, rt, d,189048.03812141667, -2.59306728623968, -0.7033818227092297, -2.8855790477466496, 0.13880962133407593, -1.0384252071380615, 0.6475928425788879, -0.3976731598377228, 0.6468005776405334, 0.6507730484008789, 0.02285611629486084, 0.007526814937591553, 0.02271956205368042, -0.9082209962641092, -0.022828453982853325, 0.3613556191753893,-0.20984692600684146,-0.371795654296875,0.6596221923828125,0.6803436279296875
20220117-1516,2022-01-17 15:16:14Z,u01, 147,40,movements,el-ex, rt, d,189048.0630674167, -2.6287114531593083, -0.7157382724221709, -2.9005157792088587, 0.25917819142341614, -1.057013750076294, 0.6387110948562622, -0.3702789843082428, 0.6561747193336487, 0.6575168371200562, 0.021981775760650635, 0.04077041149139404, 0.008041143417358398, -0.9101252924852448, -0.020745633410904463, 0.3649331600271576,-0.19510359993459594,-0.33209228515625,0.70318603515625,0.6362457275390625
20220117-1516,2022-01-17 15:16:14Z,u01, 148,40,movements,el-ex, rt, d,189048.08801241667, -2.6652368102729014, -0.7297846515463475, -2.914946685225598, 0.2556324601173401, -1.0757309198379517, 0.6525300145149231, -0.34176093339920044, 0.6667091250419617, 0.6623430848121643, 0.023218393325805664, 0.01735752820968628, 0.06016057729721069, -0.9114880697398502, -0.019001320373558006, 0.3694732703022106,-0.17977194256731743,-0.3189544677734375,0.6680908203125,0.72381591796875
20220117-1516,2022-01-17 15:16:14Z,u01, 149,40,movements,el-ex, rt, d,189048.11295741668, -2.7029981575392013, -0.7410329990128847, -2.9320757351873947, 0.07311740517616272, -1.0552101135253906, 0.6491127014160156, -0.3133074641227722, 0.6750503778457642, 0.6679408550262451, 0.030684173107147217, -0.006837725639343262, 0.04433929920196533, -0.9130653382330624, -0.01679660831828217, 0.3726916363414322,-0.16471304378220475,-0.2556610107421875,0.6735687255859375,0.6841278076171875
20220117-1516,2022-01-17 15:16:14Z,u01, 150,40,movements,el-ex, rt, d,189048.13790341667, -2.74301410292062, -0.7480240772451455, -2.9521263057398364, 0.04077747464179993, -1.0761792659759521, 0.6404936909675598, -0.28449690341949463, 0.680191695690155, 0.6755741834640503, 0.04708540439605713, 0.01031404733657837, -0.04715627431869507, -0.9151953243884656, -0.014303929048320563, 0.37394802994592646,-0.14958503706203338,-0.2396392822265625,0.6948089599609375,0.6247100830078125
20220117-1516,2022-01-17 15:16:14Z,u01, 151,40,movements,el-ex, rt, d,189048.1628484167, -2.782650412263993, -0.7577862097915437, -2.9700556155687665, 0.31706804037094116, -1.1253247261047363, 0.6275310516357422, -0.25515860319137573, 0.6873151063919067, 0.6800680756568909, 0.01028546690940857, 0.03936952352523804, -0.06733578443527222, -0.9164481434179823, -0.012522923771344063, 0.3768204520167753,-0.13406150050553897,-0.2327728271484375,0.745361328125,0.613616943359375
20220117-1516,2022-01-17 15:16:14Z,u01, 152,40,movements,el-ex, rt, d,189048.18779441668, -2.8211097326290706, -0.7728340975650307, -2.9859777339666462, 0.4684496819972992, -1.0776264667510986, 0.6511196494102478, -0.22553737461566925, 0.698167085647583, 0.6794820427894592, 0.02013874053955078, 0.022185087203979492, 0.06948047876358032, -0.9163063095313653, -0.011124792890599089, 0.3824059659154951,-0.11842601019294469,-0.1978302001953125,0.7051239013671875,0.74786376953125
20220117-1516,2022-01-17 15:16:14Z,u01, 153,40,movements,el-ex, rt, d,189048.2127394167, -2.8607744336448597, -0.7866816804247426, -3.004795913776866, 0.24162782728672028, -1.069425106048584, 0.6821967959403992, -0.1957172006368637, 0.7080137729644775, 0.6785359978675842, 0.045235008001327515, -0.033575475215911865, 0.03424793481826782, -0.9160715887278268, -0.008991153379066585, 0.3874513482371146,-0.1030213871801059,-0.123321533203125,0.700531005859375,0.6499176025390625
20220117-1516,2022-01-17 15:16:14Z,u01, 154,40,movements,el-ex, rt, d,189048.23768541668, -2.904003928478138, -0.7950468687842973, -3.0261932949892087, 0.14682450890541077, -1.17904794216156, 0.6580635905265808, -0.16481095552444458, 0.7138964533805847, 0.6805799603462219, 0.06575088202953339, 0.013962924480438232, -0.10959607362747192, -0.9166466574242632, -0.006991015149589441, 0.3900694953614171,-0.0869238944426114,-0.101776123046875,0.729248046875,0.5649261474609375
20220117-1516,2022-01-17 15:16:14Z,u01, 155,40,movements,el-ex, rt, d,189048.2626304167, -2.9489740883658833, -0.8049960543396969, -3.0483447938151773, 0.468906968832016, -1.0959193706512451, 0.7017751336097717, -0.13268262147903442, 0.7208279371261597, 0.6802959442138672, 0.01068858802318573, -0.006274223327636719, -0.02668553590774536, -0.9165819040428084, -0.005056884076501789, 0.393602561452231,-0.07020748362835622,-0.13714599609375,0.72930908203125,0.7886199951171875
20220117-1516,2022-01-17 15:16:14Z,u01, 156,40,movements,el-ex, rt, d,189048.28757541667, -2.989723844713048, -0.8225603872424099, -3.0685075025465687, 0.6806297302246094, -1.0350724458694458, 0.6715506315231323, -0.1029268130660057, 0.7328901886940002, 0.6725165843963623, 0.04675917327404022, 0.037953317165374756, 0.08779865503311157, -0.9144663910615354, -0.0030834569218377017, 0.40090533003263673,-0.05492518321428183,-0.037322998046875,0.775848388671875,0.7430267333984375
20220117-1516,2022-01-17 15:16:14Z,u01, 157,40,movements,el-ex, rt, d,189048.31252141666, -3.035962994946341, -0.8360427062665285, -3.0930753685292913, 0.07980357110500336, -1.2113990783691406, 0.7809967994689941, -0.07068298012018204, 0.7419959306716919, 0.6666678190231323, 0.08389706164598465, -0.06519246101379395, -0.05848294496536255, -0.9128709726053514, -0.0007126779234928327, 0.40643787673969295,-0.03839735321036766,0.0224609375,0.6345672607421875,0.54254150390625
20220117-1516,2022-01-17 15:16:14Z,u01, 158,40,movements,el-ex, rt, d,189048.33746641668, -3.088409085761139, -0.8337455775865282, -3.1213369721235553, -0.2831640839576721, -1.2647228240966797, 0.7517886161804199, -0.03572821617126465, 0.7404540181159973, 0.6711570024490356, 0.03472110256552696, -0.050588905811309814, -0.10418599843978882, -0.9140985844040034, 0.0015082154785819313, 0.4049853241783363,-0.020211072631383026,-0.0036773681640625,0.7023162841796875,0.6010284423828125
20220117-1516,2022-01-17 15:16:14Z,u01, 159,40,movements,el-ex, rt, d,189048.36241241667, -3.1390297938853795, -0.8316179289159735, 3.133016730501489, 0.09189079701900482, -1.1210784912109375, 0.7694172263145447, -0.0017265471396967769, 0.7390223145484924, 0.673678457736969, -0.008359551429748535, 0.005636930465698242, 0.12356269359588623, -0.9147783935523985, 0.0044401705744471776, 0.4039210590308774,-0.0029042574514714092,0.0155792236328125,0.751800537109375,0.7959442138671875
20220117-1516,2022-01-17 15:16:14Z,u01, 160,40,movements,el-ex, rt, d,189048.38735741668, 3.096329364236166, -0.8356703559955295, 3.10598097027287, 0.16802729666233063, -1.1397398710250854, 0.7058431506156921, 0.030346857383847237, 0.7417462468147278, 0.6699939370155334, 0.08899208903312683, 0.07345455884933472, 0.0873304009437561, -0.9137542038531398, 0.007087679668754565, 0.40598282394214336,0.013456521099492219,0.129364013671875,0.80010986328125,0.748931884765625
20220117-1516,2022-01-17 15:16:14Z,u01, 161,40,movements,el-ex, rt, d,189048.41230341667, 3.0459871805673417, -0.8303403250710554, 3.078301773499987, -0.6302261352539062, -1.2340922355651855, 0.7840097546577454, 0.0643996149301529, 0.738161027431488, 0.6715440154075623, 0.09177407622337341, -0.08311647176742554, -0.0003097057342529297, -0.9141546773982137, 0.00965515252254412, 0.40406661568079183,0.030955901329928676,0.1550750732421875,0.59796142578125,0.6094207763671875
20220117-1516,2022-01-17 15:16:14Z,u01, 162,40,movements,el-ex, rt, d,189048.43724841668, 2.997096763262966, -0.8063697955516604, 3.0532079894496262, -0.8202263116836548, -1.1668232679367065, 0.8189674019813538, 0.09966133534908295, 0.7217794060707092, 0.6849105358123779, -0.0038972049951553345, -0.06501060724258423, -0.0659375786781311, -0.9177720570595771, 0.012235419663593095, 0.3938775073090799,0.04904421470197606,0.080291748046875,0.68017578125,0.650726318359375
20220117-1516,2022-01-17 15:16:14Z,u01, 163,40,movements,el-ex, rt, d,189048.46219341666, 2.9504797882535625, -0.793588022881841, 3.027496442395305, 0.009602243080735207, -1.0870425701141357, 0.7284454107284546, 0.13321156799793243, 0.7128741145133972, 0.6885239481925964, -0.057894229888916016, 0.09964102506637573, 0.13152927160263062, -0.9187059718543846, 0.015534391162727923, 0.38909193820792837,0.06592041014996636,0.1181182861328125,0.862030029296875,0.8390960693359375
20220117-1516,2022-01-17 15:16:14Z,u01, 164,40,movements,el-ex, rt, d,189048.48713941668, 2.904506724139407, -0.7944153324103498, 3.00123568385821, 0.24732179939746857, -1.101231575012207, 0.7381831407546997, 0.16457462310791016, 0.7134540677070618, 0.6811008453369141, 0.11836908757686615, 0.13021957874298096, 0.06068992614746094, -0.9166272911321238, 0.018570016392742195, 0.39083175578187673,0.08185394070965334,0.2975616455078125,0.804107666015625,0.7235260009765625
20220117-1516,2022-01-17 15:16:14Z,u01, 165,40,movements,el-ex, rt, d,189048.51208441667, 2.8588207019328333, -0.7895895823539226, 2.975858886735466, -0.31640058755874634, -1.0737080574035645, 0.7284122705459595, 0.19646719098091125, 0.7100643515586853, 0.6761723160743713, 0.10452762246131897, -0.042385637760162354, -0.03289228677749634, -0.91521489647139, 0.021629746683841433, 0.3902409059525524,0.09811114945997236,0.26446533203125,0.63983154296875,0.6366424560546875
20220117-1516,2022-01-17 15:16:14Z,u01, 166,40,movements,el-ex, rt, d,189048.5370304167, 2.819898614260435, -0.7739151183909669, 2.9559502953658905, -0.32167214155197144, -0.9277923107147217, 0.7315101027488708, 0.22612129151821136, 0.6989405751228333, 0.6784916520118713, -0.022187620401382446, 0.04538297653198242, 0.03571122884750366, -0.9157746356499038, 0.024549069541105306, 0.3846448269663892,0.11314789434795092,0.2077789306640625,0.768646240234375,0.7283935546875
20220117-1516,2022-01-17 15:16:14Z,u01, 167,40,movements,el-ex, rt, d,189048.56197541667, 2.7805790795882626, -0.7674488659132991, 2.933398355399077, 0.2873658537864685, -0.9625469446182251, 0.6648750305175781, 0.25420868396759033, 0.6943014860153198, 0.6732926964759827, -0.0012790858745574951, 0.11711502075195312, 0.005006253719329834, -0.914256912560829, 0.027939838058421762, 0.3835984557217852,0.12730193096082362,0.281707763671875,0.82373046875,0.6708831787109375
20220117-1516,2022-01-17 15:16:14Z,u01, 168,40,movements,el-ex, rt, d,189048.58692041668, 2.737747741918445, -0.7721417964512053, 2.907039217774845, 0.4564749300479889, -0.9673036932945251, 0.6265608072280884, 0.2815214991569519, 0.6976712346076965, 0.6587874293327332, 0.028155654668807983, 0.05708944797515869, 0.08250004053115845, -0.9101761715718156, 0.031193683264620742, 0.38810605918799107,0.14135097268367083,0.3143157958984375,0.7296142578125,0.751953125
20220117-1516,2022-01-17 15:16:14Z,u01, 169,40,movements,el-ex, rt, d,189048.61186641667, 2.69773499089832, -0.7687398520664956, 2.883536919417552, -0.12535230815410614, -0.9018720984458923, 0.7078752517700195, 0.30866631865501404, 0.6952300071716309, 0.6491380929946899, 0.038928866386413574, -0.061807334423065186, 0.055482327938079834, -0.9074019873956116, 0.034506024971842686, 0.3889934723232927,0.15529008703120195,0.348419189453125,0.6162872314453125,0.692901611328125
20220117-1516,2022-01-17 15:16:14Z,u01, 170,40,movements,el-ex, rt, d,189048.63681141668, 2.665075663049798, -0.753550506746315, 2.868100195692763, -0.4872041642665863, -0.8823647499084473, 0.635520875453949, 0.3345038592815399, 0.6842323541641235, 0.6480224132537842, 0.04310530424118042, 0.014360606670379639, 0.0022614598274230957, -0.90698995300489, 0.03715415344755235, 0.38410888529534326,0.16866856125502871,0.3851470947265625,0.718902587890625,0.635955810546875
20220117-1516,2022-01-17 15:16:14Z,u01, 171,40,movements,el-ex, rt, d,189048.66175741667, 2.6337658345343344, -0.7387437209958144, 2.8557398836130696, -0.10586129873991013, -0.9400415420532227, 0.5827706456184387, 0.35951367020606995, 0.6733596324920654, 0.6460158824920654, 0.03173688054084778, 0.09871965646743774, -0.06328266859054565, -0.9063672956255959, 0.038810494794638495, 0.37925763093605885,0.18208695141538067,0.379547119140625,0.7648468017578125,0.594757080078125
20220117-1516,2022-01-17 15:16:14Z,u01, 172,40,movements,el-ex, rt, d,189048.6867024167, 2.597088954832175, -0.7358472966922462, 2.8360658093193925, 0.3480929136276245, -0.9287629723548889, 0.5300235748291016, 0.3839692771434784, 0.6712154746055603, 0.6340644955635071, -0.014584451913833618, 0.07583969831466675, 0.06867927312850952, -0.90296052058381, 0.04116486280107251, 0.38057684442743295,0.1952668422006793,0.380950927734375,0.7427825927734375,0.715972900390625
20220117-1516,2022-01-17 15:16:14Z,u01, 173,40,movements,el-ex, rt, d,189048.71164841668, 2.560892289267879, -0.7337603225017374, 2.8160831304013727, 0.04028135910630226, -0.9111780524253845, 0.5909102559089661, 0.4074312448501587, 0.6696670055389404, 0.6209233999252319, 0.04215368628501892, 0.02486717700958252, 0.10298413038253784, -0.8992006753185389, 0.04358710989900316, 0.3824510056921759,0.2080132811007681,0.474822998046875,0.6515045166015625,0.6688995361328125
20220117-1516,2022-01-17 15:16:14Z,u01, 174,40,movements,el-ex, rt, d,189048.73659279168, 2.5313075272673555, -0.7205517913984476, 2.8052860388984566, -0.5003483295440674, -0.8814316391944885, 0.5254033207893372, 0.4306522309780121, 0.6597993969917297, 0.6157951354980469, 0.050259023904800415, -0.004388689994812012, -0.04735922813415527, -0.8977058043732979, 0.0449650284970366, 0.3785566870069067,0.22090121570538035,0.479949951171875,0.6738433837890625,0.56243896484375
20220117-1516,2022-01-17 15:16:15Z,u01, 175,40,movements,el-ex, rt, d,189048.76153779167, 2.5061203216041608, -0.7047783678490395, 2.7994674076448094, -0.16728490591049194, -0.8113702535629272, 0.5078347325325012, 0.4521457552909851, 0.6478649973869324, 0.6130541563034058, 0.01443752646446228, 0.09325438737869263, -0.040361106395721436, -0.8969142751344741, 0.0455177782037503, 0.37299432502729873,0.23312707853030956,0.4594879150390625,0.739013671875,0.6278076171875
20220117-1516,2022-01-17 15:16:15Z,u01, 176,40,movements,el-ex, rt, d,189048.7864837917, 2.4766172395679176, -0.6991704035484487, 2.7856339599428295, 0.29635411500930786, -0.8427913188934326, 0.45594194531440735, 0.47226783633232117, 0.6435829401016235, 0.6022993326187134, 0.01961454749107361, 0.08116376399993896, 0.00013309717178344727, -0.8938244689361856, 0.04719620298616445, 0.372926226680143,0.24449231408948288,0.4991607666015625,0.7242889404296875,0.5946197509765625
20220117-1516,2022-01-17 15:16:15Z,u01, 177,40,movements,el-ex, rt, d,189048.81142879167, 2.4427928863431534, -0.6991355018056903, 2.7664976618047326, 0.29323044419288635, -0.8578710556030273, 0.46656572818756104, 0.4923804700374603, 0.6435562372207642, 0.5860006809234619, 2.0623207092285156e-05, 0.03010392189025879, 0.05721837282180786, -0.8891344680443443, 0.04939874793165927, 0.37612279956996586,0.25599078710543094,0.49639892578125,0.63336181640625,0.6585235595703125
20220117-1516,2022-01-17 15:16:15Z,u01, 178,40,movements,el-ex, rt, d,189048.8363747917, 2.412437260424187, -0.6922467307881315, 2.7525390177638314, -0.17248280346393585, -0.8404348492622375, 0.5357551574707031, 0.5128806829452515, 0.6382683515548706, 0.5740788578987122, 0.030866146087646484, -0.06762039661407471, 0.03552508354187012, -0.8856734049968785, 0.05120596610909095, 0.3758133562946764,0.26781482250689337,0.54974365234375,0.5709991455078125,0.5922088623046875
20220117-1516,2022-01-17 15:16:15Z,u01, 179,40,movements,el-ex, rt, d,189048.86131979167, 2.3876967482208933, -0.6787993782366378, 2.745819294168594, -0.25811341404914856, -0.8177659511566162, 0.4763597548007965, 0.5327526926994324, 0.6278589963912964, 0.5674221515655518, 0.020927727222442627, -0.004796922206878662, -0.008996129035949707, -0.8837333101313631, 0.05221591032007161, 0.3717429193575225,0.27945697767898076,0.5583038330078125,0.6559600830078125,0.5427093505859375
20220117-1516,2022-01-17 15:16:15Z,u01, 180,40,movements,el-ex, rt, d,189048.8862657917, 2.3619843896332546, -0.668563889255462, 2.737953622754109, 0.04087997227907181, -0.8288662433624268, 0.4322376251220703, 0.5516536831855774, 0.6198596954345703, 0.5580790042877197, 0.016598820686340332, 0.06217753887176514, -0.013111293315887451, -0.8810391363462488, 0.05300515936420841, 0.3692759708442086,0.2908535025603828,0.5674896240234375,0.6825103759765625,0.5592498779296875
20220117-1516,2022-01-17 15:16:15Z,u01, 181,40,movements,el-ex, rt, d,189048.91121079167, 2.3333979127023534, -0.663207615866891, 2.7255652246454636, 0.11307942867279053, -0.8331081867218018, 0.4310239851474762, 0.5697721838951111, 0.6156476736068726, 0.5443692207336426, 0.003363192081451416, 0.023802340030670166, 0.07548880577087402, -0.8770615717749308, 0.05429180497411512, 0.3696621816162614,0.30193601920878654,0.582366943359375,0.6122589111328125,0.6369781494140625
20220117-1516,2022-01-17 15:16:15Z,u01, 182,40,movements,el-ex, rt, d,189048.9361557917, 2.3084093144397895, -0.6548530715671645, 2.7166854153758417, -0.18379244208335876, -0.7222967147827148, 0.4291227161884308, 0.586982011795044, 0.6090427041053772, 0.5334033966064453, 0.009667158126831055, -0.04085123538970947, 0.09971439838409424, -0.8738626368592262, 0.05536957263540365, 0.3682792259564656,0.31251998053272184,0.6000823974609375,0.5700531005859375,0.6293487548828125
20220117-1516,2022-01-17 15:16:15Z,u01, 183,40,movements,el-ex, rt, d,189048.96110179168, 2.2897967896162146, -0.6415645073223415, 2.715160922368512, -0.4450840651988983, -0.7104519605636597, 0.42695873975753784, 0.6028448343276978, 0.5984495878219604, 0.527670681476593, 0.02252143621444702, 0.013198912143707275, 0.05414706468582153, -0.8722092764574751, 0.05555467481658333, 0.3636020122252794,0.32242562355762017,0.6392974853515625,0.6204376220703125,0.5461883544921875
20220117-1516,2022-01-17 15:16:15Z,u01, 184,40,movements,el-ex, rt, d,189048.9860467917, 2.2736143891342593, -0.6253578383740868, 2.7187853649190084, -0.5028802156448364, -0.7521199584007263, 0.40817850828170776, 0.6186242699623108, 0.5853874087333679, 0.5240472555160522, 0.02644103765487671, 0.04693669080734253, -0.05175715684890747, -0.8712253322201113, 0.05468126302359261, 0.3568337638886933,0.332634962810043,0.6416778564453125,0.636260986328125,0.4708251953125
20220117-1516,2022-01-17 15:16:15Z,u01, 185,40,movements,el-ex, rt, d,189049.01099279168, 2.254992928284741, -0.6126831859000352, 2.7189895822381756, -0.11020627617835999, -0.7336748838424683, 0.36298704147338867, 0.6339740753173828, 0.5750646591186523, 0.5170856714248657, -0.024888932704925537, 0.06252378225326538, 0.009418964385986328, -0.869257718950412, 0.054165116479474584, 0.3521348077404751,0.34272183464847333,0.6016387939453125,0.635894775390625,0.5605010986328125
20220117-1516,2022-01-17 15:16:15Z,u01, 186,40,movements,el-ex, rt, d,189049.0359377917, 2.232901829027293, -0.6055469926540046, 2.7130405233398163, -0.02431284636259079, -0.7523325085639954, 0.3397948741912842, 0.6484614610671997, 0.5692119002342224, 0.5054654479026794, -0.004861116409301758, 0.03128230571746826, 0.026120305061340332, -0.8658875954099938, 0.05451048516770157, 0.35086920770435964,0.3523606078004793,0.65191650390625,0.590911865234375,0.514984130859375
20220117-1516,2022-01-17 15:16:15Z,u01, 187,40,movements,el-ex, rt, d,189049.06088279167, 2.210954901529166, -0.5974766473047514, 2.708287741612542, -0.14010323584079742, -0.8015099167823792, 0.36631515622138977, 0.6630606055259705, 0.5625580549240112, 0.49384114146232605, 0.012506961822509766, 0.0036496520042419434, -0.044149190187454224, -0.8625177151539897, 0.05462383644938695, 0.3490566678130694,0.36226908071746694,0.6806488037109375,0.5612640380859375,0.42657470703125
20220117-1516,2022-01-17 15:16:15Z,u01, 188,40,movements,el-ex, rt, d,189049.0858287917, 2.189294832466612, -0.5868855627852753, 2.706074515318348, -0.1852610856294632, -0.8242233991622925, 0.39542463421821594, 0.6784175038337708, 0.5537704229354858, 0.4827922284603119, 0.013721168041229248, -0.01638638973236084, -0.03242892026901245, -0.8593263398561453, 0.05435397576381412, 0.34579638740257984,0.3728657473818212,0.696502685546875,0.5413665771484375,0.468292236328125
20220117-1516,2022-01-17 15:16:15Z,u01, 189,40,movements,el-ex, rt, d,189049.11077379168, 2.1675591794743805, -0.577046784298292, 2.7029740581020634, -0.09211663156747818, -0.7827372550964355, 0.3670539855957031, 0.6932233572006226, 0.5455513000488281, 0.47097247838974, 0.03156912326812744, 0.013149142265319824, 0.04233330488204956, -0.8558814974200242, 0.05434244785966358, 0.34303749397339656,0.38319576780840686,0.7479705810546875,0.56195068359375,0.510345458984375
20220117-1516,2022-01-17 15:16:15Z,u01, 190,40,movements,el-ex, rt, d,189049.13571979167, 2.1465720521522096, -0.5679644762990451, 2.699772455547675, -0.15623877942562103, -0.7599869966506958, 0.35997867584228516, 0.7070813179016113, 0.5379171967506409, 0.4590001106262207, 0.04760313034057617, 0.00021439790725708008, -0.0002751350402832031, -0.8523749228796629, 0.05437877521434181, 0.3406150290231903,0.393041176793433,0.752197265625,0.5333404541015625,0.4462738037109375
20220117-1516,2022-01-17 15:16:15Z,u01, 191,40,movements,el-ex, rt, d,189049.16066479168, 2.126530037795126, -0.558163452082532, 2.6978338477190182, -0.13729363679885864, -0.7654489278793335, 0.37708061933517456, 0.7205824255943298, 0.5296292901039124, 0.4474976360797882, 0.03277456760406494, 0.0051760077476501465, -0.047976553440093994, -0.8490009501563647, 0.054278883848679294, 0.3376642296476765,0.4027830174832099,0.758575439453125,0.541015625,0.389617919921875
20220117-1516,2022-01-17 15:16:15Z,u01, 192,40,movements,el-ex, rt, d,189049.1856097917, 2.1053721895387962, -0.5484808953912138, 2.693857841003857, -0.0016435198485851288, -0.7600637674331665, 0.41960304975509644, 0.7342667579650879, 0.5213915705680847, 0.4347449243068695, 0.029420316219329834, 0.010224521160125732, -0.012717276811599731, -0.8451981381319136, 0.05488681505944831, 0.3352378043801707,0.41260532002861405,0.763885498046875,0.53118896484375,0.4313507080078125
20220117-1516,2022-01-17 15:16:15Z,u01, 193,40,movements,el-ex, rt, d,189049.21055579168, 2.0828496892482073, -0.539971486158894, 2.6866851831849923, 0.06939326971769333, -0.7463864684104919, 0.4235643446445465, 0.7477118968963623, 0.5141115188598633, 0.42025721073150635, 0.02940291166305542, 0.013323664665222168, 0.012405812740325928, -0.840804401255663, 0.05636097267896284, 0.33403035187903574,0.4222500330308674,0.7850494384765625,0.521575927734375,0.415283203125
20220117-1516,2022-01-17 15:16:15Z,u01, 194,40,movements,el-ex, rt, d,189049.2355007917, 2.0597829227056024, -0.5318062693960185, 2.6785858287197972, 0.07624875009059906, -0.7694197297096252, 0.42440474033355713, 0.7608868479728699, 0.5070909857749939, 0.4048581123352051, 0.022514641284942627, 0.002445697784423828, -0.019497275352478027, -0.836095886431182, 0.058075110742056846, 0.33324737118681835,0.43187635891463283,0.7837371826171875,0.503021240234375,0.38201904296875
20220117-1516,2022-01-17 15:16:15Z,u01, 195,40,movements,el-ex, rt, d,189049.26044679168, 2.0362707575922165, -0.5224599983595256, 2.671418409205313, 0.022368505597114563, -0.8001245260238647, 0.47361472249031067, 0.7743962407112122, 0.4990134537220001, 0.3889680802822113, 0.027239561080932617, -0.019475549459457397, -0.02765512466430664, -0.8312176885127269, 0.059675752835430806, 0.3319021530273242,0.4419920353351463,0.806610107421875,0.471710205078125,0.37841796875
20220117-1516,2022-01-17 15:16:15Z,u01, 196,40,movements,el-ex, rt, d,189049.28539179167, 2.0130612510203703, -0.5123894022741821, 2.664448105623643, 0.08757074922323227, -0.7715177536010742, 0.4561418294906616, 0.7877166271209717, 0.4902611970901489, 0.37302350997924805, 0.01979374885559082, 0.005924046039581299, 0.031777024269104004, -0.8262755611491646, 0.0614854120346513, 0.33031038025473636,0.45208772868030517,0.80621337890625,0.495697021484375,0.40728759765625
20220117-1516,2022-01-17 15:16:15Z,u01, 197,40,movements,el-ex, rt, d,189049.31033779169, 1.989539947232758, -0.5038241814025055, 2.6555836462458493, 0.1590130627155304, -0.7657635807991028, 0.42363467812538147, 0.8000790476799011, 0.48277807235717773, 0.3560883402824402, 0.0013124942779541016, 0.01423114538192749, 0.021749943494796753, -0.8209712055314313, 0.06364313015706569, 0.32982100597807285,0.4617076339235837,0.798614501953125,0.5023193359375,0.353302001953125
20220117-1516,2022-01-17 15:16:15Z,u01, 198,40,movements,el-ex, rt, d,189049.33528279167, 1.9653094338807235, -0.49597154886909833, 2.646350337064072, 0.16959194839000702, -0.8163263201713562, 0.4140941798686981, 0.8119465112686157, 0.47588634490966797, 0.3380461633205414, -0.010631203651428223, 0.027699410915374756, -0.02798748016357422, -0.8152993938922004, 0.06565044768167444, 0.3298051481575661,0.4713868482849849,0.803253173828125,0.5041961669921875,0.3090972900390625
20220117-1516,2022-01-17 15:16:15Z,u01, 199,40,movements,el-ex, rt, d,189049.36022779168, 1.9408058568840962, -0.48741688297548863, 2.6387208489636547, 0.08279086649417877, -0.8502363562583923, 0.4172564148902893, 0.8237505555152893, 0.46834516525268555, 0.3195115327835083, 0.007624447345733643, 0.025291800498962402, 0.0034560859203338623, -0.8094708917230655, 0.0671762129509409, 0.32924927140016325,0.4814967102415816,0.851287841796875,0.4834136962890625,0.338226318359375
20220117-1516,2022-01-17 15:16:15Z,u01, 200,40,movements,el-ex, rt, d,189049.38517379167, 1.9183193207995788, -0.477509991931848, 2.63423760102276, -0.021173611283302307, -0.7936066389083862, 0.44761380553245544, 0.8350483179092407, 0.45956912636756897, 0.3024745285511017, 0.05092287063598633, -0.03470340371131897, 0.06883302330970764, -0.8041066521500336, 0.06818906704898553, 0.327441150559897,0.4914724298472904,0.880340576171875,0.43402099609375,0.3672943115234375
20220117-1516,2022-01-17 15:16:15Z,u01, 201,40,movements,el-ex, rt, d,189049.41011879168, 1.8977301609832848, -0.4672287888463771, 2.6307927458555227, -0.015640627592802048, -0.7315600514411926, 0.4160950183868408, 0.8455287218093872, 0.4504138231277466, 0.28672096133232117, 0.018790245056152344, 0.023707270622253418, 0.043357402086257935, -0.7991021250678505, 0.06925510861863982, 0.3252327777404428,0.5008625608217453,0.8638458251953125,0.4773406982421875,0.318389892578125
20220117-1516,2022-01-17 15:16:15Z,u01, 202,40,movements,el-ex, rt, d,189049.43506479167, 1.8785931598520065, -0.45720250709122845, 2.6276476804107802, -0.02178400754928589, -0.6953849792480469, 0.4211680591106415, 0.8551214337348938, 0.4414396584033966, 0.2718430757522583, 0.015850365161895752, 0.040066659450531006, 0.015388518571853638, -0.7943323422086535, 0.07041074027795713, 0.32304263517752246,0.5096293066750252,0.87152099609375,0.479949951171875,0.2818145751953125
20220117-1516,2022-01-17 15:16:15Z,u01, 203,40,movements,el-ex, rt, d,189049.46000979168, 1.8602745946842314, -0.44705385715910995, 2.624435701196398, 0.008372330106794834, -0.6510936617851257, 0.41784000396728516, 0.8642064332962036, 0.4323107898235321, 0.2573992908000946, 0.011052846908569336, 0.041733890771865845, 0.014024108648300171, -0.7896475743183418, 0.07180775892534991, 0.3208447055863647,0.5180337309181886,0.8768463134765625,0.4667510986328125,0.281494140625
20220117-1516,2022-01-17 15:16:15Z,u01, 204,40,movements,el-ex, rt, d,189049.48495479167, 1.8431778412222857, -0.43775276480269587, 2.619957876654659, 0.08804545551538467, -0.5619240999221802, 0.3720426857471466, 0.8723158836364746, 0.4239051938056946, 0.24365854263305664, 0.005003511905670166, 0.04630956053733826, 0.07192385196685791, -0.7851117837714088, 0.07368011363689086, 0.31928804118607124,0.5255719745663533,0.8781585693359375,0.4767303466796875,0.317230224609375
20220117-1516,2022-01-17 15:16:15Z,u01, 205,40,movements,el-ex, rt, d,189049.5099007917, 1.8279178800637759, -0.4302920706509132, 2.6152707066165584, 0.0748911052942276, -0.5036742687225342, 0.30743157863616943, 0.8789666295051575, 0.4171362817287445, 0.23111702501773834, 0.00849980115890503, 0.0655144453048706, 0.0756458044052124, -0.7809452926286107, 0.07538542740749682, 0.3184277959142001,0.5320199965574223,0.8897247314453125,0.476043701171875,0.2950592041015625
20220117-1516,2022-01-17 15:16:15Z,u01, 206,40,movements,el-ex, rt, d,189049.53484579167, 1.8148995612771361, -0.4234094197953147, 2.61210882546781, 0.0056470837444067, -0.4262771010398865, 0.28235986828804016, 0.884665846824646, 0.4108711779117584, 0.22034378349781036, -0.004096388816833496, 0.0494559109210968, 0.060067176818847656, -0.7773613369684491, 0.07668925982638869, 0.31732020670779104,0.5377137544942441,0.8786163330078125,0.46221923828125,0.28179931640625
20220117-1516,2022-01-17 15:16:15Z,u01, 207,40,movements,el-ex, rt, d,189049.5597917917, 1.8051464647613726, -0.4169298960854164, 2.611247623391307, -0.05339832603931427, -0.32933127880096436, 0.23868387937545776, 0.8893434405326843, 0.40495526790618896, 0.21231891214847565, -0.012558281421661377, 0.06840279698371887, 0.07770499587059021, -0.7746947539550011, 0.07750804787409454, 0.3156331087860277,0.5424170234858106,0.876190185546875,0.468231201171875,0.2932281494140625
20220117-1516,2022-01-17 15:16:15Z,u01, 208,40,movements,el-ex, rt, d,189049.58473679167, 1.798404098716688, -0.4118564168793846, 2.611756464851953, -0.06208645552396774, -0.24262718856334686, 0.14422854781150818, 0.8927448391914368, 0.4003112018108368, 0.20677880942821503, -0.017851710319519043, 0.07077330350875854, 0.09038625657558441, -0.772871016987652, 0.07784468371198267, 0.31396338921115124,0.5459281549995364,0.8739166259765625,0.4772796630859375,0.2943115234375
20220117-1516,2022-01-17 15:16:15Z,u01, 209,40,movements,el-ex, rt, d,189049.6096827917, 1.793741534687477, -0.408821873468623, 2.6128195756684325, -0.06265444308519363, -0.16871555149555206, 0.08037060499191284, 0.8948799967765808, 0.3975285589694977, 0.20288178324699402, -0.019986748695373535, 0.09702399373054504, 0.07823097705841064, -0.7716279986865657, 0.07766032263548645, 0.3127828917647155,0.5483849633366932,0.876983642578125,0.4931793212890625,0.278778076171875
20220117-1516,2022-01-17 15:16:15Z,u01, 210,40,movements,el-ex, rt, d,189049.63462779167, 1.791118393754453, -0.4069714191025306, 2.6140871019452483, -0.06548921018838882, -0.07801461219787598, 0.04029223322868347, 0.896125316619873, 0.3958299160003662, 0.20069409906864166, -0.021979808807373047, 0.07761970162391663, 0.09233582019805908, -0.7709504486513976, 0.07734631936533987, 0.3118839840348953,0.5498921344357001,0.8740692138671875,0.474761962890625,0.2935638427734375
20220117-1516,2022-01-17 15:16:15Z,u01, 211,40,movements,el-ex, rt, d,189049.6595727917, 1.7908253762095536, -0.4066244021205991, 2.6154619682656866, -0.027267657220363617, 0.00892055407166481, -0.04179145023226738, 0.896318256855011, 0.3955112397670746, 0.2004615068435669, -0.01988375186920166, 0.08654442429542542, 0.08814337849617004, -0.7709216272429698, 0.07688040846467303, 0.3113948034716726,0.5502750775673663,0.877655029296875,0.4756927490234375,0.2821197509765625
20220117-1516,2022-01-17 15:16:15Z,u01, 212,40,movements,el-ex, rt, d,189049.68451879168, 1.7925915659001341, -0.40836171852052383, 2.6164679885244886, -0.039640169590711594, 0.09770102053880692, -0.09232626855373383, 0.8952908515930176, 0.3971062898635864, 0.20189273357391357, -0.01723921298980713, 0.049304693937301636, 0.07862493395805359, -0.7714512894337304, 0.07621859808423248, 0.3116633983394502,0.5494719889282121,0.87762451171875,0.4442901611328125,0.2865447998046875
20220117-1516,2022-01-17 15:16:15Z,u01, 213,40,movements,el-ex, rt, d,189049.7094637917, 1.797478689665571, -0.4112694161396829, 2.6189107718479288, -0.06873087584972382, 0.18593540787696838, -0.14445537328720093, 0.8931646943092346, 0.3997732102870941, 0.20600534975528717, -0.01737123727798462, 0.04979637265205383, 0.09358583390712738, -0.7728904508351001, 0.07512007220790667, 0.31183567788397526,0.5474996124966741,0.8771820068359375,0.45013427734375,0.2962799072265625
20220117-1516,2022-01-17 15:16:15Z,u01, 214,40,movements,el-ex, rt, d,189049.73441025, 1.8048858712089972, -0.4153904892653299, 2.6218059579689075, -0.033854853361845016, 0.25244423747062683, -0.18406976759433746, 0.8900042176246643, 0.4035472571849823, 0.21223153173923492, -0.006932318210601807, 0.053697556257247925, 0.06996464729309082, -0.7750229206495844, 0.07385960449863688, 0.3122289032935831,0.5444239167869676,0.8837432861328125,0.45416259765625,0.2790679931640625
20220117-1516,2022-01-17 15:16:16Z,u01, 215,40,movements,el-ex, rt, d,189049.75935525002, 1.8135564861624098, -0.4202728932300224, 2.62411960387732, -0.048091910779476166, 0.3413633406162262, -0.21828272938728333, 0.8862074613571167, 0.4080096185207367, 0.21946409344673157, -0.004768311977386475, 0.03417477011680603, 0.07327590882778168, -0.7774534704861429, 0.07278837447444775, 0.31301790245539995,0.5406364414727061,0.8787689208984375,0.44549560546875,0.2996978759765625
20220117-1516,2022-01-17 15:16:16Z,u01, 216,40,movements,el-ex, rt, d,189049.78430025, 1.825309517882301, -0.42570726460451463, 2.6276256292976576, -0.050989262759685516, 0.42585113644599915, -0.26259100437164307, 0.8814080357551575, 0.4129650294780731, 0.22930265963077545, -0.005004286766052246, 0.04415765404701233, 0.0640476644039154, -0.7807232655990693, 0.0715717486438327, 0.3135886125176613,0.5357339221087506,0.8757171630859375,0.45819091796875,0.292938232421875
20220117-1516,2022-01-17 15:16:16Z,u01, 217,40,movements,el-ex, rt, d,189049.80924625002, 1.838516167034405, -0.43256010765257086, 2.6306644179105922, -0.021895095705986023, 0.5079535841941833, -0.3265075385570526, 0.8755533695220947, 0.4191964864730835, 0.24016855657100677, -0.0034371614456176758, 0.053490251302719116, 0.06831851601600647, -0.7843065637307822, 0.07033839695499844, 0.3147665477757119,0.5299413848734504,0.8744659423828125,0.4810943603515625,0.319732666015625
20220117-1516,2022-01-17 15:16:16Z,u01, 218,40,movements,el-ex, rt, d,189049.83419125, 1.8534213697735316, -0.4409022564967491, 2.633708274549866, -0.015222644433379173, 0.5913721323013306, -0.3788662850856781, 0.8684876561164856, 0.4267556071281433, 0.25220757722854614, 0.002300858497619629, 0.06350916624069214, 0.08165475726127625, -0.7882587521590093, 0.06893426779020168, 0.3164510502646176,0.5232159030960933,0.8697967529296875,0.4875030517578125,0.33599853515625
20220117-1516,2022-01-17 15:16:16Z,u01, 219,40,movements,el-ex, rt, d,189049.85913725002, 1.8708531406652178, -0.4503328758182815, 2.637644488715437, -0.043868537992239, 0.6714784502983093, -0.4249213933944702, 0.8600765466690063, 0.4352652430534363, 0.26610639691352844, 0.003921926021575928, 0.04939958453178406, 0.063010573387146, -0.7927969300748609, 0.06727722022719623, 0.31825169890389654,0.5154247786753399,0.8615875244140625,0.488311767578125,0.327056884765625
20220117-1516,2022-01-17 15:16:16Z,u01, 220,40,movements,el-ex, rt, d,189049.88408225, 1.8906796843404965, -0.46048829062390917, 2.6430179468847514, -0.07393752783536911, 0.7266724109649658, -0.470425009727478, 0.850391685962677, 0.4443855881690979, 0.2817007005214691, 0.006389260292053223, 0.06672269105911255, 0.05055949091911316, -0.7978677343851861, 0.06524902005734812, 0.31992503566398145,0.5067519683980168,0.8565521240234375,0.515625,0.3358154296875
20220117-1516,2022-01-17 15:16:16Z,u01, 221,40,movements,el-ex, rt, d,189049.90902725002, 1.912218085178512, -0.4721679147463062, 2.648598800667327, 0.013688664883375168, 0.8024575114250183, -0.549575924873352, 0.8391795754432678, 0.45481806993484497, 0.2981918454170227, 0.008888721466064453, 0.08107054233551025, 0.04899156093597412, -0.8031977639687116, 0.06300214395022752, 0.32212416618558365,0.4971319420143827,0.848388671875,0.5418853759765625,0.3554229736328125
20220117-1516,2022-01-17 15:16:16Z,u01, 222,40,movements,el-ex, rt, d,189049.93397325, 1.935109066720891, -0.4862963853866168, 2.6525494741900406, 0.106223464012146, 0.883137583732605, -0.6062520742416382, 0.8260473012924194, 0.46735483407974243, 0.3150004744529724, 0.023790955543518066, 0.0772770345211029, 0.05089008808135986, -0.8085680158904851, 0.060975370058924505, 0.32567039588587965,0.4862494853996663,0.84918212890625,0.5441131591796875,0.3650970458984375
20220117-1516,2022-01-17 15:16:16Z,u01, 223,40,movements,el-ex, rt, d,189049.95891825002, 1.9595547670287046, -0.501528620524663, 2.6567561283839694, 0.029684310778975487, 0.926262378692627, -0.6351397633552551, 0.8114185333251953, 0.4807664752006531, 0.33236053586006165, 0.03349113464355469, 0.03749820590019226, 0.036261290311813354, -0.814072670551828, 0.05887234693520038, 0.3296021954745618,0.47453357325029244,0.83837890625,0.514312744140625,0.3733673095703125
20220117-1516,2022-01-17 15:16:16Z,u01, 224,40,movements,el-ex, rt, d,189049.98386425, 1.986824397678337, -0.5162853251367697, 2.6640242092210857, -0.005902047269046307, 0.9780416488647461, -0.6581105589866638, 0.7954782247543335, 0.4936530590057373, 0.3514557480812073, 0.030708909034729004, 0.03877180814743042, 0.018707275390625, -0.8201016829725412, 0.05622364035316796, 0.3326563847852781,0.4621816615727409,0.82354736328125,0.5377197265625,0.3677520751953125
20220117-1516,2022-01-17 15:16:16Z,u01, 225,40,movements,el-ex, rt, d,189050.00880925002, 2.01510450290121, -0.532114884708983, 2.6707510174365177, 0.1330687552690506, 1.017943263053894, -0.6929950714111328, 0.7780686020851135, 0.5073569416999817, 0.37040287256240845, 0.03264617919921875, 0.052564263343811035, -0.008281230926513672, -0.8260208599727941, 0.053767773066138724, 0.3363408282863377,0.44908065677524855,0.802032470703125,0.571014404296875,0.3597869873046875
20220117-1516,2022-01-17 15:16:16Z,u01, 226,40,movements,el-ex, rt, d,189050.03375525, 2.0428829082759297, -0.5507444050542838, 2.674643939381371, 0.2844613194465637, 1.0524812936782837, -0.7699196934700012, 0.7589299082756042, 0.5233216881752014, 0.38750478625297546, 0.031200766563415527, 0.05382668972015381, 0.0179060697555542, -0.8313079838713816, 0.05176324802063892, 0.3418555317949995,0.43518094335076885,0.79052734375,0.5765380859375,0.4153900146484375
20220117-1516,2022-01-17 15:16:16Z,u01, 227,40,movements,el-ex, rt, d,189050.05870025003, 2.0708236007998413, -0.5721799113568318, 2.676939381506454, 0.3563190698623657, 1.0934566259384155, -0.8127455115318298, 0.7377923130989075, 0.5414660573005676, 0.4030838906764984, 0.05998283624649048, 0.04492902755737305, 0.030921846628189087, -0.8360949236040498, 0.04987211343154552, 0.34888310295742914,0.42040275751298317,0.80169677734375,0.58428955078125,0.4300994873046875
20220117-1516,2022-01-17 15:16:16Z,u01, 228,40,movements,el-ex, rt, d,189050.08364525, 2.0999186383670954, -0.594155437393527, 2.67994912488444, 0.32213330268859863, 1.1001267433166504, -0.8169263601303101, 0.7153080105781555, 0.559809148311615, 0.41826820373535156, 0.07676053047180176, 0.025670528411865234, 0.027044296264648438, -0.8407347357668894, 0.04795004917036266, 0.3560328245108639,0.4051006675225496,0.7885589599609375,0.583526611328125,0.445037841796875
20220117-1516,2022-01-17 15:16:16Z,u01, 229,40,movements,el-ex, rt, d,189050.10859125, 2.1316212863673343, -0.6151947534001584, 2.686611982627573, 0.19409042596817017, 1.1512550115585327, -0.8695996999740601, 0.6915622353553772, 0.5771175622940063, 0.4343698024749756, 0.06866121292114258, -0.002547919750213623, 0.04258960485458374, -0.8456491605984389, 0.045413639783698556, 0.3621418658163755,0.3894463107359303,0.7516632080078125,0.588897705078125,0.4897918701171875
20220117-1516,2022-01-17 15:16:16Z,u01, 230,40,movements,el-ex, rt, d,189050.13353625, 2.1680443617894687, -0.6353421217198133, 2.697535741693531, 0.1450948566198349, 1.2332936525344849, -0.8850255608558655, 0.6655349135398865, 0.5934529304504395, 0.45263323187828064, 0.07552337646484375, 0.040961623191833496, 0.050693243741989136, -0.8511883981171788, 0.04236656539346423, 0.367151633383356,0.3726701578142846,0.7421722412109375,0.6434326171875,0.4953155517578125
20220117-1516,2022-01-17 15:16:16Z,u01, 231,40,movements,el-ex, rt, d,189050.15848225, 2.206371276618751, -0.6562973644039851, 2.709828707942927, 0.1675972044467926, 1.2459673881530762, -0.9275201559066772, 0.6375536322593689, 0.6101875901222229, 0.4703158438205719, 0.08542323112487793, 0.055370330810546875, 0.01817929744720459, -0.8565211476248229, 0.0391081376512063, 0.37241802278204533,0.3551718858073447,0.70831298828125,0.6646270751953125,0.501495361328125
20220117-1516,2022-01-17 15:16:16Z,u01, 232,40,movements,el-ex, rt, d,189050.18342725, 2.246930053824979, -0.6768566096652929, 2.7243149898661847, 0.09173120558261871, 1.2909711599349976, -0.9381701350212097, 0.6080438494682312, 0.626345694065094, 0.48782551288604736, 0.06531119346618652, 0.025250256061553955, 0.0464458167552948, -0.8617663972607936, 0.03565721987183751, 0.3773593269008355,0.33717530927029526,0.669677734375,0.654571533203125,0.5395965576171875
20220117-1516,2022-01-17 15:16:16Z,u01, 233,40,movements,el-ex, rt, d,189050.20837225002, 2.291652340873099, -0.6955152507704075, 2.7431235092138397, -0.007846187800168991, 1.344078540802002, -0.9641294479370117, 0.5767453908920288, 0.6407811045646667, 0.5067190527915955, 0.08844619989395142, 0.0252649188041687, 0.06576031446456909, -0.8673803278173835, 0.03179432354702233, 0.38105189953231144,0.31849629170801425,0.6555328369140625,0.673614501953125,0.5815887451171875
20220117-1516,2022-01-17 15:16:16Z,u01, 234,40,movements,el-ex, rt, d,189050.23331825002, 2.339801926995927, -0.7128281768709341, 2.7654207236979578, -0.07215037941932678, 1.3609397411346436, -0.9772956371307373, 0.5436338186264038, 0.6539759635925293, 0.5260966420173645, 0.09145218133926392, 0.019714772701263428, 0.05956631898880005, -0.8730910530055376, 0.02757399524894777, 0.38396697275227476,0.29920064471011004,0.628448486328125,0.6807403564453125,0.5888671875
20220117-1516,2022-01-17 15:16:16Z,u01, 235,40,movements,el-ex, rt, d,189050.25826325, 2.391492093801567, -0.7280450543730761, 2.791889460388293, -0.14926138520240784, 1.3789924383163452, -1.0010647773742676, 0.5088825225830078, 0.6654115915298462, 0.5461376309394836, 0.09849363565444946, 0.018105924129486084, 0.04753619432449341, -0.8789469164380235, 0.02282857843948155, 0.38578617180807234,0.27946431479630474,0.598175048828125,0.6891021728515625,0.5894927978515625
20220117-1516,2022-01-17 15:16:16Z,u01, 236,40,movements,el-ex, rt, d,189050.28320925002, 2.445656873953854, -0.7414687495745905, 2.8212998879575273, -0.18089190125465393, 1.3880938291549683, -1.0220383405685425, 0.4727995991706848, 0.6753718256950378, 0.5659800171852112, 0.0885559618473053, 0.03500097990036011, 0.0029134154319763184, -0.8846889406583369, 0.017762160346614764, 0.38690909240908455,0.2594442535358761,0.5531158447265625,0.7158355712890625,0.5705108642578125
20220117-1516,2022-01-17 15:16:16Z,u01, 237,40,movements,el-ex, rt, d,189050.30815425, 2.501068488278684, -0.7545287917618787, 2.852069514294093, -0.08181828260421753, 1.3865385055541992, -1.0420663356781006, 0.43541955947875977, 0.6849454045295715, 0.584174394607544, 0.08234170079231262, 0.04704916477203369, -0.01381593942642212, -0.8899045389733813, 0.01253438515936034, 0.3882108938645876,0.2391759923666398,0.4996185302734375,0.7305755615234375,0.5861968994140625
20220117-1516,2022-01-17 15:16:16Z,u01, 238,40,movements,el-ex, rt, d,189050.33309925, 2.5560698172150698, -0.7691182805570139, 2.8817090167600328, 0.0025859465822577477, 1.3560482263565063, -1.0334304571151733, 0.3970818519592285, 0.695501983165741, 0.5988349318504333, 0.07362133264541626, 0.008782684803009033, 0.03524428606033325, -0.89406877426856, 0.00764733417751462, 0.3908240992937527,0.21872161114969046,0.4726104736328125,0.6888427734375,0.6283111572265625
20220117-1516,2022-01-17 15:16:16Z,u01, 239,40,movements,el-ex, rt, d,189050.35804525, 2.612170975336172, -0.7806758502759391, 2.9131075500459174, -0.18481063842773438, 1.408413052558899, -1.002058506011963, 0.35879555344581604, 0.7037597298622131, 0.613178551197052, 0.11079367995262146, -0.05028688907623291, 0.023570775985717773, -0.8980986457019936, 0.002846062779858549, 0.39243443500256514,0.1985092455302809,0.4629974365234375,0.68597412109375,0.6739044189453125
20220117-1516,2022-01-17 15:16:16Z,u01, 240,40,movements,el-ex, rt, d,189050.38299025001, 2.672045496750267, -0.7881105157852923, 2.948107886329396, -0.250002384185791, 1.397762417793274, -1.0193355083465576, 0.31908461451530457, 0.7090221047401428, 0.6288666129112244, 0.1459270417690277, 0.02027183771133423, 0.018838822841644287, -0.9024570179345786, -0.002152597177873139, 0.39240482161895035,0.177722587114594,0.461090087890625,0.7354583740234375,0.6252288818359375
20220117-1516,2022-01-17 15:16:16Z,u01, 241,40,movements,el-ex, rt, d,189050.40793625, 2.7328650803933363, -0.7935734846492072, 2.984953243227363, -0.1772039830684662, 1.376123070716858, -1.044336199760437, 0.2787269651889801, 0.7128639221191406, 0.6435340642929077, 0.13191747665405273, 0.040019869804382324, -0.08759534358978271, -0.9064823925090297, -0.007529371738416946, 0.39189936456720054,0.1569961491588857,0.3722991943359375,0.7526092529296875,0.5587158203125
20220117-1516,2022-01-17 15:16:16Z,u01, 242,40,movements,el-ex, rt, d,189050.43288125002, 2.792905389733115, -0.8009445945072463, 3.0205351227295805, -0.048341382294893265, 1.410353422164917, -1.032286286354065, 0.2378082275390625, 0.7180138826370239, 0.6541431546211243, 0.06234736740589142, 0.012332737445831299, 0.021592438220977783, -0.9093469174289031, -0.012639745735784802, 0.3929030362320301,0.13621897460322555,0.2952423095703125,0.737335205078125,0.6983795166015625
20220117-1516,2022-01-17 15:16:16Z,u01, 243,40,movements,el-ex, rt, d,189050.45782625, 2.85505455437545, -0.8074731624831077, 3.0567949692384415, -0.053506817668676376, 1.4724600315093994, -1.0385907888412476, 0.19539177417755127, 0.7225425839424133, 0.6631397008895874, 0.11002811789512634, 0.03549867868423462, 0.08768433332443237, -0.9117372983730596, -0.01746260001931088, 0.39404808085338155,0.11470079274018732,0.31878662109375,0.7450408935546875,0.729095458984375
20220117-1516,2022-01-17 15:16:16Z,u01, 244,40,movements,el-ex, rt, d,189050.48277225002, 2.9178246580085743, -0.8123260234384435, 3.0933378225114034, -0.11515922844409943, 1.449040412902832, -1.0201350450515747, 0.15262918174266815, 0.7258890271186829, 0.6706640720367432, 0.14117880165576935, 0.02324134111404419, 0.016225993633270264, -0.9136983722404177, -0.022075176730370072, 0.39497724349374186,0.093065488220526,0.28692626953125,0.75006103515625,0.6715850830078125
20220117-1516,2022-01-17 15:16:16Z,u01, 245,40,movements,el-ex, rt, d,189050.50771725, 2.9801444869230425, -0.8133181305771553, 3.1304159628809076, -0.17801432311534882, 1.4108399152755737, -1.0003904104232788, 0.11044839024543762, 0.7265710234642029, 0.6781562566757202, 0.13576741516590118, 0.011084556579589844, -0.057245492935180664, -0.9156205670830591, -0.02677882689997929, 0.39466271181246226,0.07185596354291471,0.21160888671875,0.7196044921875,0.63238525390625
20220117-1516,2022-01-17 15:16:16Z,u01, 246,40,movements,el-ex, rt, d,189050.53266325002, 3.043369771678078, -0.8127916028956448, -3.1153513098218193, -0.10069160163402557, 1.4736512899398804, -1.0387983322143555, 0.06741717457771301, 0.7262091636657715, 0.684160590171814, 0.0850181132555008, 0.035906434059143066, 0.003110826015472412, -0.917110536537971, -0.03144148395423513, 0.3941989675867521,0.050269608206682415,0.148284912109375,0.768280029296875,0.6971282958984375
20220117-1516,2022-01-17 15:16:16Z,u01, 247,40,movements,el-ex, rt, d,189050.55760825, 3.1079211456924924, -0.8146044445781279, -3.0778909870911315, 0.08792484551668167, 1.4739259481430054, -1.0248461961746216, 0.02309955656528473, 0.7274542450904846, 0.6857675313949585, 0.11250525712966919, 0.04169553518295288, 0.06511765718460083, -0.9173847776418225, -0.035901637803283704, 0.3953843757034765,0.028063170110969038,0.1329498291015625,0.7601165771484375,0.743927001953125
20220117-1516,2022-01-17 15:16:16Z,u01, 248,40,movements,el-ex, rt, d,189050.58255325002, -3.111854884181983, -0.8162997464035607, -3.040937313537967, 0.02801540493965149, 1.4505233764648438, -1.0206739902496338, -0.020365046337246895, 0.7286164164543152, 0.6846190094947815, 0.12014222145080566, 0.004781842231750488, -0.01945781707763672, -0.9168900809157057, -0.04027503655306919, 0.3970520272429317,0.006335287423098079,0.0938568115234375,0.7340087890625,0.660369873046875
20220117-1516,2022-01-17 15:16:16Z,u01, 249,40,movements,el-ex, rt, d,189050.60749925, -3.0503446412374933, -0.8136131396056696, -3.005074700697796, -0.0955602303147316, 1.4174554347991943, -0.9672781229019165, -0.06258920580148697, 0.7267736792564392, 0.6840192675590515, 0.12225107848644257, -0.028928399085998535, -0.05541813373565674, -0.9165277458834967, -0.044570283770017705, 0.39720322669156666,-0.014828946282462396,0.0278472900390625,0.695709228515625,0.6613922119140625
20220117-1516,2022-01-17 15:16:16Z,u01, 250,40,movements,el-ex, rt, d,189050.63244425002, -2.9891214704892985, -0.8089917809502392, -2.9704383411726343, 0.029138362035155296, 1.5010333061218262, -0.9660833477973938, -0.10483270138502121, 0.7235916256904602, 0.6822211742401123, 0.08108995109796524, 7.18235969543457e-05, 0.01623481512069702, -0.9158384216008401, -0.048482782822312886, 0.39696064432321765,-0.036218826073433685,-0.0260772705078125,0.728271484375,0.701446533203125
20220117-1516,2022-01-17 15:16:16Z,u01, 251,40,movements,el-ex, rt, d,189050.65739025, -2.926212932902025, -0.8074616177566413, -2.93491494957392, 0.1283746063709259, 1.4606409072875977, -0.9734417200088501, -0.14775094389915466, 0.7225346565246582, 0.675361692905426, 0.10710152983665466, 0.022552013397216797, 0.05580902099609375, -0.9137528156157542, -0.052312824996615714, 0.3986884339391956,-0.058023303937189324,-0.048431396484375,0.7404022216796875,0.6994781494140625
20220117-1516,2022-01-17 15:16:16Z,u01, 252,40,movements,el-ex, rt, d,189050.68233525002, -2.8655276515050425, -0.8022268116229674, -2.9008200763979377, -0.09400001913309097, 1.4070051908493042, -0.9520435333251953, -0.1894666850566864, 0.7189057469367981, 0.6687875986099243, 0.10255260765552521, -0.040011823177337646, -0.003840029239654541, -0.9117224797780072, -0.05617762027877682, 0.3991438532229463,-0.07931184704793509,-0.08978271484375,0.669403076171875,0.6509857177734375
