SessionID,LoggingTime,UID,RecNo,Hertz,Activity,MoveType,Wrist,Side,TimeStamp,DMRoll,DMPitch,DMYaw,DMRotX,DMRotY,DMRotZ,DMGrvX,DMGrvY,DMGrvZ,DMUAccelX,DMUAccelY,DMUAccelZ,DMQuatX,DMQuatY,DMQuatW,DMQuatZ,AccelroX,AceelroY,AceelroZ
20220205-1714,2022-02-05 17:14:43Z,u01, 1,40,movements,el-ex, rt, d,13363.84454725, 1.2732580794359836, -0.32285324551721234, 0.2396328208697351, -0.02196098119020462, -0.44901004433631897, 0.012939412146806717, 0.9066652059555054, 0.31727367639541626, -0.2780207097530365, 0.028454303741455078, 0.005098700523376465, 0.0026910006999969482, -0.19844955752638893, 0.5671044188667158, 0.7993811680749452,-5.551115123125783e-17,0.942840576171875,0.324981689453125,-0.28118896484375
20220205-1714,2022-02-05 17:14:43Z,u01, 2,40,movements,el-ex, rt, d,13363.869492250002, 1.2623764296790816, -0.3227882822541121, 0.2394060960898727, 0.048590485006570816, -0.48975786566734314, -0.0008945101872086525, 0.9036059379577637, 0.3172120749950409, -0.28787633776664734, 0.03227651119232178, 0.01829811930656433, -0.0143241286277771, -0.19835748332653738, 0.5627753877245082, 0.8024569602939906,0.0010080536670408202,0.92791748046875,0.333282470703125,-0.29962158203125
20220205-1714,2022-02-05 17:14:43Z,u01, 3,40,movements,el-ex, rt, d,13363.894437250001, 1.250419719411354, -0.3230869376002577, 0.23978898792522782, -0.10950873792171478, -1.0079823732376099, 0.35118231177330017, 0.9000094532966614, 0.31749528646469116, -0.2986298203468323, 0.06251490116119385, -0.01289936900138855, -0.018539488315582275, -0.1985716948059676, 0.5579017588117063, 0.8057976399626858,0.0022601814301749235,1.2299957275390625,0.2461090087890625,-0.365509033203125
20220205-1714,2022-02-05 17:14:43Z,u01, 4,40,movements,el-ex, rt, d,13363.919381166668, 1.2413215583521824, -0.3257504567440043, 0.24594985179238146, -0.21441122889518738, -0.5317400097846985, 0.027965297922492027, 0.8964518308639526, 0.3200198709964752, -0.30653107166290283, 0.09121900796890259, -0.03217810392379761, -0.03045940399169922, -0.20131143181453717, 0.5533608024995235, 0.8082337059260054,0.004873404823097283,0.946380615234375,0.315093994140625,-0.3138275146484375
20220205-1714,2022-02-05 17:14:43Z,u01, 5,40,movements,el-ex, rt, d,13363.944326166667, 1.2296318275183946, -0.32609682131239637, 0.24993525390520122, -0.1277470737695694, -0.5441884398460388, 0.04237399995326996, 0.8927028775215149, 0.32034799456596375, -0.31695204973220825, 0.05274683237075806, 0.028254210948944092, -0.007724553346633911, -0.2025088492285201, 0.5481917039632322, 0.8114300207956364,0.007566260421777771,0.9415283203125,0.3226776123046875,-0.319488525390625
20220205-1714,2022-02-05 17:14:43Z,u01, 6,40,movements,el-ex, rt, d,13363.969271166667, 1.2173345926937684, -0.32669105576752916, 0.2526420921268167, -0.011559739708900452, -0.5290233492851257, 0.008045321330428123, 0.888559103012085, 0.32091087102890015, -0.32783961296081543, 0.02699863910675049, 0.020123034715652466, 0.0005537569522857666, -0.20342860987665845, 0.5428600103681239, 0.8147544171525403,0.009742712652776486,0.9072113037109375,0.3376007080078125,-0.3335723876953125
20220205-1714,2022-02-05 17:14:43Z,u01, 7,40,movements,el-ex, rt, d,13363.994216166668, 1.204577008548751, -0.32567212179738253, 0.25029891070917565, 0.1940772831439972, -0.46408146619796753, 0.007324602454900742, 0.8846092820167542, 0.31994566321372986, -0.3392654359340668, 0.007953464984893799, 0.014374345541000366, -0.01431131362915039, -0.2023271122946146, 0.5379879435708772, 0.8182450904884944,0.010372613693177324,0.906402587890625,0.32916259765625,-0.37261962890625
20220205-1714,2022-02-05 17:14:43Z,u01, 8,40,movements,el-ex, rt, d,13364.019162166667, 1.1909231139907586, -0.3227039291033787, 0.24397351233483777, 0.33227330446243286, -0.498716801404953, 0.04605855047702789, 0.8807728886604309, 0.3171320855617523, -0.35166242718696594, 0.050272583961486816, 0.018835902214050293, -0.039023756980895996, -0.19937956806309323, 0.533307210229086, 0.8220288262210349,0.009993706800476732,0.9305419921875,0.33782958984375,-0.3993072509765625
20220205-1714,2022-02-05 17:14:43Z,u01, 9,40,movements,el-ex, rt, d,13364.044107166668, 1.1750127476347765, -0.318512817090478, 0.23477923924811742, 0.42128896713256836, -0.550630509853363, -0.0037084072828292847, 0.8762850761413574, 0.31315451860427856, -0.36613988876342773, 0.04963332414627075, 0.02876436710357666, -0.04528293013572693, -0.1951818838886394, 0.5280474340141708, 0.826431848685977,0.008952343175056499,0.909515380859375,0.3333587646484375,-0.413421630859375
20220205-1714,2022-02-05 17:14:43Z,u01, 10,40,movements,el-ex, rt, d,13364.069052166667, 1.1580612656863403, -0.3146576133289906, 0.22420021199746382, 0.4343189597129822, -0.5266792178153992, -0.027807150036096573, 0.8710524439811707, 0.3094909191131592, -0.38142237067222595, 0.00863194465637207, -0.006665021181106567, -0.051194965839385986, -0.19077568009008924, 0.5223920533688272, 0.8310585013282505,0.007274793380547151,0.8755645751953125,0.30712890625,-0.4327545166015625
20220205-1714,2022-02-05 17:14:43Z,u01, 11,40,movements,el-ex, rt, d,13364.093997166667, 1.141677470280651, -0.31009308122868884, 0.21294990813142872, 0.5073909163475037, -0.5420035123825073, 0.0028604790568351746, 0.8659622073173523, 0.30514729022979736, -0.39622530341148376, 0.035267531871795654, -0.01820579171180725, -0.05908176302909851, -0.1859406445252768, 0.5170236141630847, 0.8355139886816786,0.0053815139944135,0.9169464111328125,0.2910614013671875,-0.4574127197265625
20220205-1714,2022-02-05 17:14:43Z,u01, 12,40,movements,el-ex, rt, d,13364.118942166668, 1.1239718709419049, -0.30453196757879547, 0.20214094386071782, 0.3955678641796112, -0.6247186064720154, 0.03934931382536888, 0.8603284358978271, 0.29984670877456665, -0.41222167015075684, 0.054878294467926025, -0.017925411462783813, -0.03521189093589783, -0.18083842913794476, 0.5110642121173915, 0.840294493582243,0.00398028401545697,0.9076385498046875,0.2852020263671875,-0.4498138427734375
20220205-1714,2022-02-05 17:14:43Z,u01, 13,40,movements,el-ex, rt, d,13364.143887166667, 1.1064500249037845, -0.3008355450932816, 0.19591514747050892, 0.18443113565444946, -0.640506386756897, 0.022776197642087936, 0.8539590239524841, 0.29631832242012024, -0.42772558331489563, 0.05219924449920654, -0.013313651084899902, -0.029763460159301758, -0.17769506195737586, 0.504541048520436, 0.8448948204923281,0.00391340291684944,0.9104461669921875,0.2846221923828125,-0.467742919921875
20220205-1714,2022-02-05 17:14:43Z,u01, 14,40,movements,el-ex, rt, d,13364.168832166668, 1.0889219773068215, -0.2985786750624166, 0.1929875911431008, 0.12250875681638718, -0.686968207359314, 0.0237769465893507, 0.8469215035438538, 0.2941620647907257, -0.4429361820220947, 0.052400827407836914, -0.02031266689300537, -0.055858463048934937, -0.17598446793862646, 0.49755540174380325, 0.8493790386418434,0.004816520258198731,0.8901214599609375,0.2778472900390625,-0.5040283203125
20220205-1714,2022-02-05 17:14:43Z,u01, 15,40,movements,el-ex, rt, d,13364.193777166667, 1.0708662257675634, -0.29653268380910597, 0.19050964960266248, 0.11009425669908524, -0.716244101524353, 0.04359878599643707, 0.8393127918243408, 0.2922059893608093, -0.4584425091743469, 0.040371477603912354, -0.011627435684204102, -0.05951717495918274, -0.1744679440914853, 0.4902445140611923, 0.8539242533705784,0.005873430926209233,0.867645263671875,0.2736358642578125,-0.5068359375
20220205-1714,2022-02-05 17:14:43Z,u01, 16,40,movements,el-ex, rt, d,13364.218722166668, 1.0525269680141807, -0.29541361765067725, 0.19104786498583376, -0.11784975975751877, -0.7629702687263489, 0.06498410552740097, 0.8310481309890747, 0.2911355793476105, -0.4739185869693756, 0.028235137462615967, -0.02230629324913025, -0.024998098611831665, -0.17406416774187353, 0.4824337933175519, 0.8584260691611996,0.007987482637918875,0.8608856201171875,0.2740936279296875,-0.4990234375
20220205-1714,2022-02-05 17:14:43Z,u01, 17,40,movements,el-ex, rt, d,13364.243668166668, 1.0346285564260835, -0.2967481128519004, 0.19578809408841402, -0.177174910902977, -0.7841243147850037, 0.02660335786640644, 0.822098433971405, 0.29241201281547546, -0.4885174632072449, 0.052443742752075195, 0.0069959163665771484, -0.016380667686462402, -0.17567647651020651, 0.4742141294967632, 0.8626308464369363,0.011256404480815385,0.88037109375,0.3186798095703125,-0.5180511474609375
20220205-1714,2022-02-05 17:14:43Z,u01, 18,40,movements,el-ex, rt, d,13364.268613166667, 1.0155757958897362, -0.2969741830839598, 0.19787486492078873, 0.04312640801072121, -0.782813549041748, 0.011679204180836678, 0.8125859498977661, 0.2926281988620758, -0.5040562152862549, 0.051122426986694336, 0.04341602325439453, -0.04287987947463989, -0.176143783728496, 0.4657738261954474, 0.8670859969901941,0.013778609914807616,0.8522491455078125,0.33306884765625,-0.54852294921875
20220205-1714,2022-02-05 17:14:43Z,u01, 19,40,movements,el-ex, rt, d,13364.293558166668, 0.9956913883061203, -0.2958353951269418, 0.19620235999257205, 0.08368515223264694, -0.805078387260437, -0.0074068717658519745, 0.8026822805404663, 0.2915390431880951, -0.5202942490577698, 0.04701852798461914, 0.018611043691635132, -0.017349302768707275, -0.1751272598936047, 0.45736562637716716, 0.8717338182852381,0.01507508728702256,0.8486785888671875,0.2989349365234375,-0.5369415283203125
20220205-1714,2022-02-05 17:14:44Z,u01, 20,40,movements,el-ex, rt, d,13364.318503166667, 0.9747298220886933, -0.29556996903414473, 0.19511971593425642, -0.005710706114768982, -0.8490294814109802, -0.02287784032523632, 0.7916646003723145, 0.2912851572036743, -0.5370476245880127, 0.04332685470581055, 0.014714568853378296, 0.008116841316223145, -0.17460245293862708, 0.4483192670464945, 0.8764996690955104,0.01649810199315177,0.8337860107421875,0.30841064453125,-0.5302276611328125
20220205-1714,2022-02-05 17:14:44Z,u01, 21,40,movements,el-ex, rt, d,13364.343448166668, 0.9533435521331061, -0.29588216280412866, 0.19476522803224422, 0.023586131632328033, -0.84437096118927, -0.025114761665463448, 0.779924750328064, 0.2915838062763214, -0.5538015365600586, 0.050946712493896484, 0.0209009051322937, 0.008238792419433594, -0.1744737856674655, 0.43892837692888576, 0.8812330662392436,0.018135471451032115,0.8217926025390625,0.3165435791015625,-0.5486602783203125
20220205-1714,2022-02-05 17:14:44Z,u01, 22,40,movements,el-ex, rt, d,13364.368393166667, 0.9321837495646598, -0.29558755140715853, 0.19292662845578737, 0.11926192045211792, -0.8101743459701538, -0.03473862633109093, 0.7681016325950623, 0.291301965713501, -0.5702306032180786, 0.04262822866439819, 0.02249494194984436, 0.014993786811828613, -0.1737485429027307, 0.4297628832929822, 0.8858585344137704,0.019233034581466746,0.80902099609375,0.3166046142578125,-0.5556182861328125
20220205-1714,2022-02-05 17:14:44Z,u01, 23,40,movements,el-ex, rt, d,13364.393338166667, 0.9107532622808512, -0.2940392995114602, 0.1885961140086611, 0.20740054547786713, -0.8120269179344177, -0.06015004590153694, 0.7560612559318542, 0.28982052206993103, -0.5868350267410278, 0.0450860857963562, 0.035267919301986694, 0.024762213230133057, -0.17194220226585083, 0.4207354945313638, 0.8905261433919442,0.019510520199349235,0.7925567626953125,0.326416015625,-0.56597900390625
20220205-1714,2022-02-05 17:14:44Z,u01, 24,40,movements,el-ex, rt, d,13364.418283166668, 0.8887451209302212, -0.29196612366489655, 0.1828916058151629, 0.22567355632781982, -0.8146882057189941, -0.08349904417991638, 0.7434289455413818, 0.2878356873989105, -0.6037085652351379, 0.03357905149459839, 0.0387633740901947, 0.023599863052368164, -0.16962829541540025, 0.4115482365218284, 0.8952551755806089,0.019299708058881537,0.7754669189453125,0.3260650634765625,-0.5865325927734375
20220205-1714,2022-02-05 17:14:44Z,u01, 25,40,movements,el-ex, rt, d,13364.443228166667, 0.8668006866554673, -0.28990329943649756, 0.17727329656269597, 0.20307716727256775, -0.8256878852844238, -0.07145276665687561, 0.7304539680480957, 0.2858595550060272, -0.6202589869499207, 0.050231337547302246, 0.034727543592453, 0.02005445957183838, -0.16736026344529548, 0.4023195707703659, 0.8998698171350716,0.019071081043524507,0.7808380126953125,0.3126678466796875,-0.605438232421875
20220205-1714,2022-02-05 17:14:44Z,u01, 26,40,movements,el-ex, rt, d,13364.468173166668, 0.8447540411997325, -0.28819762894063294, 0.17266423894522967, 0.14313293993473053, -0.8494873642921448, -0.04249048978090286, 0.7169665098190308, 0.28422465920448303, -0.636533796787262, 0.05950736999511719, 0.005463391542434692, 0.022214949131011963, -0.16547262503446603, 0.3928764506863863, 0.904377510102097,0.019185154345501942,0.7689971923828125,0.286285400390625,-0.61553955078125
20220205-1714,2022-02-05 17:14:44Z,u01, 27,40,movements,el-ex, rt, d,13364.493119166667, 0.8230251197493892, -0.28717923305015136, 0.17054028354123615, 0.04754485934972763, -0.8426412343978882, 0.00022787787020206451, 0.7031790018081665, 0.28324809670448303, -0.652157723903656, 0.03397303819656372, -0.0007164180278778076, 0.03115546703338623, -0.16438986238338962, 0.38327158906111014, 0.9086637039642906,0.020223380134392288,0.7273101806640625,0.2791900634765625,-0.63330078125
20220205-1714,2022-02-05 17:14:44Z,u01, 28,40,movements,el-ex, rt, d,13364.518064166667, 0.8024730866993393, -0.28581285237763193, 0.16977284368033257, 0.08877162635326385, -0.8101757764816284, 0.05883919075131416, 0.6899059414863586, 0.2819374203681946, -0.6667391061782837, 0.04314142465591431, 0.004775136709213257, 0.014471590518951416, -0.16341285023447585, 0.3740677578027728, 0.9126296591444394,0.021832148984878286,0.7392578125,0.284820556640625,-0.657318115234375
20220205-1714,2022-02-05 17:14:44Z,u01, 29,40,movements,el-ex, rt, d,13364.543009166668, 0.7815328632429307, -0.2821019326348179, 0.16975076211882548, 0.10862316191196442, -0.8501880168914795, 0.15871399641036987, 0.6765263080596924, 0.27837511897087097, -0.6817765831947327, 0.059511780738830566, 0.01788949966430664, 0.01553201675415039, -0.16148756636765255, 0.3647375339130383, 0.9166788352114514,0.024249434803295444,0.73028564453125,0.27996826171875,-0.67236328125
20220205-1714,2022-02-05 17:14:44Z,u01, 30,40,movements,el-ex, rt, d,13364.567954166667, 0.7605370350752715, -0.2783317210847853, 0.17141119311767614, 0.00026546139270067215, -0.8728317022323608, 0.12675219774246216, 0.662782609462738, 0.2747519612312317, -0.6965849995613098, 0.04813957214355469, -0.007128119468688965, 0.007360696792602539, -0.159800264896501, 0.3552061154600665, 0.9206197887900092,0.027418750936189118,0.70465087890625,0.2686614990234375,-0.69354248046875
20220205-1714,2022-02-05 17:14:44Z,u01, 31,40,movements,el-ex, rt, d,13364.592899166668, 0.7397715000839705, -0.2776314302409753, 0.17379767391204454, -0.05470680817961693, -0.8446146249771118, 0.040850672870874405, 0.6483052968978882, 0.2740785479545593, -0.7103387713432312, 0.03458648920059204, 0.0034482479095458984, 0.0011864900588989258, -0.15959872215845833, 0.3454835389804397, 0.924256832222015,0.030308057728464788,0.6744384765625,0.2896270751953125,-0.72247314453125
20220205-1714,2022-02-05 17:14:44Z,u01, 32,40,movements,el-ex, rt, d,13364.617844166667, 0.7193040084828728, -0.27767741615335395, 0.17426236214903898, 0.04357338696718216, -0.8210451602935791, -0.006171764340251684, 0.6336233615875244, 0.27412277460098267, -0.7234487533569336, 0.040601372718811035, 0.03004586696624756, -0.008820652961730957, -0.15937940184072447, 0.3359670093278041, 0.9277342794604548,0.032147048827261826,0.6779937744140625,0.3101348876953125,-0.736846923828125
20220205-1714,2022-02-05 17:14:44Z,u01, 33,40,movements,el-ex, rt, d,13364.642789166668, 0.6984068124501703, -0.27604063416698565, 0.1726001537559282, 0.11440987884998322, -0.8228920698165894, -0.020918220281600952, 0.6186557412147522, 0.2725483179092407, -0.7368733882904053, 0.05892592668533325, 0.030247002840042114, -0.010196924209594727, -0.15800814338590174, 0.3264915410964605, 0.9313034835708758,0.03332206766397444,0.6685638427734375,0.294708251953125,-0.7475738525390625
20220205-1714,2022-02-05 17:14:44Z,u01, 34,40,movements,el-ex, rt, d,13364.667734166667, 0.6769748741747715, -0.27518881575842336, 0.1706107720676829, 0.04748477041721344, -0.8421656489372253, -0.047889914363622665, 0.6028674840927124, 0.27172866463661194, -0.7501428723335266, 0.04569196701049805, 0.013610661029815674, -0.002191781997680664, -0.15693226300272778, 0.316703058102655, 0.934826130100012,0.03422781452301482,0.6436920166015625,0.2799072265625,-0.7490081787109375
20220205-1714,2022-02-05 17:14:44Z,u01, 35,40,movements,el-ex, rt, d,13364.692679166668, 0.6551226942738885, -0.2752811528944996, 0.16891282299433696, 0.04570268467068672, -0.8723654747009277, -0.037714309990406036, 0.5863173007965088, 0.27181750535964966, -0.7631167769432068, 0.05336153507232666, -0.0004705488681793213, 3.999471664428711e-05, -0.15633167137766657, 0.30659749040584877, 0.9382559521457332,0.03512867551416832,0.6368560791015625,0.2614288330078125,-0.7713470458984375
20220205-1714,2022-02-05 17:14:44Z,u01, 36,40,movements,el-ex, rt, d,13364.717625166668, 0.6330331303627204, -0.27489043160547105, 0.16759042697824825, 0.030406318604946136, -0.8569179773330688, -0.0295652374625206, 0.5693814754486084, 0.2714414894580841, -0.7759666442871094, 0.050155699253082275, -0.012469381093978882, -0.0108070969581604, -0.1555556948153784, 0.29634289471542014, 0.9416295044779062,0.036292720521484634,0.614227294921875,0.2629547119140625,-0.784027099609375
20220205-1714,2022-02-05 17:14:44Z,u01, 37,40,movements,el-ex, rt, d,13364.742570166667, 0.6115925255099407, -0.2751439282756076, 0.16620654087139924, 0.04814676567912102, -0.8446608781814575, -0.051162540912628174, 0.5525751709938049, 0.2716854512691498, -0.7879388928413391, 0.05522805452346802, 0.012784123420715332, 0.008458852767944336, -0.15507847697604038, 0.2863236417632364, 0.9447649163329284,0.037265442310425556,0.6096038818359375,0.29119873046875,-0.785552978515625
20220205-1714,2022-02-05 17:14:44Z,u01, 38,40,movements,el-ex, rt, d,13364.767515166668, 0.5896290485984189, -0.2741186011301072, 0.16391596466461011, 0.1103469580411911, -0.8693024516105652, -0.06333225220441818, 0.5352920293807983, 0.27069854736328125, -0.8001154065132141, 0.06118917465209961, 0.005531251430511475, 0.004171133041381836, -0.15386115550669605, 0.2761684887634723, 0.9479509989091226,0.038033160660246534,0.5900726318359375,0.272491455078125,-0.78997802734375
20220205-1714,2022-02-05 17:14:44Z,u01, 39,40,movements,el-ex, rt, d,13364.792460166667, 0.5667832037569271, -0.27276435737909693, 0.1611354870458317, 0.09529011696577072, -0.9003546833992004, -0.05323674529790878, 0.517071008682251, 0.2693946361541748, -0.8124432563781738, 0.05305832624435425, 0.0021660029888153076, 0.03206300735473633, -0.15240778915809497, 0.26561292190369185, 0.9511713423429118,0.03866005708314679,0.5588226318359375,0.2719879150390625,-0.7812347412109375
20220205-1714,2022-02-05 17:14:44Z,u01, 40,40,movements,el-ex, rt, d,13364.817405166668, 0.5443151946100129, -0.27238719341152484, 0.15921752154096758, 0.006292893551290035, -0.8598806858062744, -0.06350129842758179, 0.49874064326286316, 0.2690313756465912, -0.823941707611084, 0.044289082288742065, -0.0025671720504760742, 0.04316467046737671, -0.15154049133428313, 0.2550776907762097, 0.9541541581882123,0.03950678279979791,0.541168212890625,0.2708740234375,-0.780914306640625
20220205-1714,2022-02-05 17:14:44Z,u01, 41,40,movements,el-ex, rt, d,13364.842350166668, 0.5228098650409452, -0.27362892398505423, 0.15791685718190623, -0.0038354736752808094, -0.8421623110771179, -0.07515548914670944, 0.48074033856391907, 0.2702271342277527, -0.8341858386993408, 0.04776298999786377, 0.01758408546447754, 0.047305285930633545, -0.15153834195221524, 0.2448330503411506, 0.9567993001174511,0.0403467484943173,0.5166473388671875,0.2901611328125,-0.787872314453125
20220205-1714,2022-02-05 17:14:44Z,u01, 42,40,movements,el-ex, rt, d,13364.867295166667, 0.5015849980259113, -0.27369796626487874, 0.15564159532892188, 0.1065433993935585, -0.8261931538581848, -0.05602860078215599, 0.4629189372062683, 0.27029359340667725, -0.8441844582557678, 0.05015772581100464, 0.028030961751937866, 0.04482221603393555, -0.15086750668829474, 0.234833478660745, 0.9593869274518596,0.040852416865181485,0.51324462890625,0.2894134521484375,-0.7967529296875
20220205-1714,2022-02-05 17:14:44Z,u01, 43,40,movements,el-ex, rt, d,13364.892240166668, 0.4803765005669151, -0.2725462973689169, 0.15318155767361538, 0.02950720116496086, -0.820199191570282, -0.0671161413192749, 0.44505584239959717, 0.2691846191883087, -0.8540871739387512, 0.048016518354415894, 0.009639173746109009, 0.06940394639968872, -0.14959834389965093, 0.22489273563643114, 0.96194019366432,0.04140796969628591,0.481201171875,0.2750244140625,-0.77777099609375
20220205-1714,2022-02-05 17:14:44Z,u01, 44,40,movements,el-ex, rt, d,13364.9171855, 0.46005474676785624, -0.2729032507505129, 0.15174851313970475, 0.047614067792892456, -0.7591240406036377, -0.04635141044855118, 0.42756590247154236, 0.2695283889770508, -0.8628683686256409, 0.02150014042854309, 0.01780983805656433, 0.0732870101928711, -0.1491869666071656, 0.21519539922436584, 0.9641856241482778,0.04219300197832282,0.441619873046875,0.2945556640625,-0.798675537109375
20220205-1714,2022-02-05 17:14:44Z,u01, 45,40,movements,el-ex, rt, d,13364.942130500001, 0.44142732986007194, -0.2705890194594836, 0.1489169278972706, 0.23012535274028778, -0.6969358921051025, -0.07756858319044113, 0.411685049533844, 0.2672990560531616, -0.8712443113327026, 0.015408366918563843, 0.048954546451568604, 0.04810887575149536, -0.14738244494851277, 0.20653392948198507, 0.9663426281033747,0.04247439687433785,0.423095703125,0.322601318359375,-0.8389434814453125
20220205-1714,2022-02-05 17:14:44Z,u01, 46,40,movements,el-ex, rt, d,13364.967076500001, 0.42215405942268486, -0.26483968552418996, 0.14368289540477108, 0.33278897404670715, -0.7540706396102905, -0.09965583682060242, 0.3954410254955292, 0.2617545425891876, -0.8804038763046265, 0.017400681972503662, 0.0447944700717926, 0.02754431962966919, -0.1436769270232534, 0.19787626431172814, 0.968730860528656,0.04198077995437294,0.4012451171875,0.3040771484375,-0.8476715087890625
20220205-1714,2022-02-05 17:14:44Z,u01, 47,40,movements,el-ex, rt, d,13364.9920215, 0.40180874810474765, -0.2588317991589326, 0.13768872562502607, 0.3294396996498108, -0.7251669764518738, -0.12689273059368134, 0.37805652618408203, 0.2559514343738556, -0.889697790145874, -0.0019274652004241943, 0.035964399576187134, 0.04266709089279175, -0.13977227031747622, 0.18871890882864992, 0.9711619826974749,0.04115006621764583,0.3753662109375,0.2866973876953125,-0.8584442138671875
20220205-1714,2022-02-05 17:14:44Z,u01, 48,40,movements,el-ex, rt, d,13365.016966500001, 0.3824914671250866, -0.2516485924660428, 0.13065395129915208, 0.4030783176422119, -0.7054495811462402, -0.16396479308605194, 0.36147743463516235, 0.24900096654891968, -0.8985168933868408, 0.04449784755706787, 0.05069686472415924, -0.0008056759834289551, -0.13525236018713654, 0.1801342723557909, 0.9734864865442772,0.03978067470987179,0.410308837890625,0.2996673583984375,-0.902130126953125
20220205-1714,2022-02-05 17:14:44Z,u01, 49,40,movements,el-ex, rt, d,13365.0419115, 0.3624553362093507, -0.24470425657729747, 0.12249685667510846, 0.3099731504917145, -0.7545313239097595, -0.22604015469551086, 0.34400808811187744, 0.2422693967819214, -0.9071736335754395, 0.060929566621780396, 0.04628950357437134, 0.012062489986419678, -0.13077310952203236, 0.17120625743005652, 0.9757857974594462,0.03780143221523896,0.3903961181640625,0.276397705078125,-0.881988525390625
20220205-1714,2022-02-05 17:14:44Z,u01, 50,40,movements,el-ex, rt, d,13365.066856500001, 0.341698982590798, -0.24091362399892927, 0.11471467263958615, 0.20721830427646637, -0.7349154949188232, -0.2317030280828476, 0.3254111111164093, 0.23858995735645294, -0.9149767160415649, 0.040052056312561035, 0.004894480109214783, 0.03956472873687744, -0.1278973631936265, 0.1617216719197848, 0.9778623814614931,0.03568499939115943,0.363006591796875,0.2454071044921875,-0.874664306640625
20220205-1714,2022-02-05 17:14:44Z,u01, 51,40,movements,el-ex, rt, d,13365.0918015, 0.3224908344164724, -0.23752396208127566, 0.10751912389400699, 0.25648558139801025, -0.6981854438781738, -0.2011411339044571, 0.30803170800209045, 0.235296830534935, -0.9218198657035828, 0.07470443844795227, 0.011712387204170227, 0.02371799945831299, -0.12534314234820504, 0.15290245767731814, 0.9796817817851191,0.033668377993516185,0.38519287109375,0.2373504638671875,-0.9051971435546875
20220205-1714,2022-02-05 17:14:44Z,u01, 52,40,movements,el-ex, rt, d,13365.116746500002, 0.30322181440034696, -0.23228272622355153, 0.10074570670109775, 0.3122570216655731, -0.7100263237953186, -0.17818114161491394, 0.29057732224464417, 0.23019954562187195, -0.9287480711936951, 0.07467222213745117, -0.006841450929641724, -0.0019922852516174316, -0.12195928782388961, 0.14405518118625796, 0.9815052381709621,0.03195934422046476,0.3611297607421875,0.2246246337890625,-0.933868408203125
20220205-1714,2022-02-05 17:14:44Z,u01, 53,40,movements,el-ex, rt, d,13365.1416915, 0.2843452624137512, -0.22592525392699322, 0.09414926356035219, 0.32332324981689453, -0.6933272480964661, -0.16714127361774445, 0.27340003848075867, 0.2240082025527954, -0.9354532361030579, 0.08422008156776428, 0.007986381649971008, -0.005754709243774414, -0.11808685534169228, 0.13538421747705795, 0.9832631784411108,0.030331138316146422,0.3589019775390625,0.2296905517578125,-0.9577484130859375
20220205-1714,2022-02-05 17:14:44Z,u01, 54,40,movements,el-ex, rt, d,13365.1666365, 0.2654066594299966, -0.21878067618047525, 0.08824299149193805, 0.381205290555954, -0.7176342606544495, -0.13774137198925018, 0.25604918599128723, 0.21703952550888062, -0.9419833421707153, 0.0844811499118805, -0.0013260692358016968, -0.06463897228240967, -0.11390826359743986, 0.12662238778978413, 0.9849613861958466,0.029027079684132095,0.332305908203125,0.2132720947265625,-1.0168304443359375
20220205-1714,2022-02-05 17:14:44Z,u01, 55,40,movements,el-ex, rt, d,13365.191582500001, 0.2461974000236837, -0.20886243621631548, 0.08162994954913955, 0.5308237671852112, -0.7227649092674255, -0.154491126537323, 0.23842117190361023, 0.20734719932079315, -0.9487689137458801, 0.0729953795671463, 0.005390793085098267, -0.08451050519943237, -0.10834944565394367, 0.11779614657439799, 0.9867264171503496,0.02748531318615427,0.310791015625,0.198272705078125,-1.0379486083984375
20220205-1714,2022-02-05 17:14:44Z,u01, 56,40,movements,el-ex, rt, d,13365.2165275, 0.2266488673831591, -0.19594840176635986, 0.07425955786786477, 0.5622133016586304, -0.7424923777580261, -0.1633089780807495, 0.22041313350200653, 0.19469687342643738, -0.9557777643203735, 0.0922088623046875, -0.018641024827957153, -0.061083197593688965, -0.10130073021859612, 0.10885434757573619, 0.9885498485735105,0.025652480300054015,0.3078460693359375,0.1761016845703125,-1.0150299072265625
20220205-1714,2022-02-05 17:14:44Z,u01, 57,40,movements,el-ex, rt, d,13365.241472500002, 0.20608800770179628, -0.18340962555177404, 0.067786927948633, 0.5591252446174622, -0.7864010334014893, -0.10931825637817383, 0.20120008289813995, 0.18238306045532227, -0.9624214172363281, 0.07872232794761658, -0.017694994807243347, -0.06061941385269165, -0.09450930048400517, 0.09928392437574207, 0.9902662262341584,0.0241513006064053,0.260833740234375,0.14910888671875,-1.0341949462890625
20220205-1714,2022-02-05 17:14:44Z,u01, 58,40,movements,el-ex, rt, d,13365.2664175, 0.18587317326744876, -0.17064773174410117, 0.06301824309458119, 0.47837764024734497, -0.7755993008613586, -0.060807980597019196, 0.1821204423904419, 0.16982071101665497, -0.9685004353523254, 0.05652691423892975, -0.053075775504112244, -0.04062432050704956, -0.08772351166546637, 0.08974617398236316, 0.9918189806170568,0.02334907202611941,0.2369842529296875,0.107696533203125,-0.9972076416015625
20220205-1714,2022-02-05 17:14:44Z,u01, 59,40,movements,el-ex, rt, d,13365.2913625, 0.16601386269989848, -0.16172794548301675, 0.06087977537584204, 0.27387481927871704, -0.793219268321991, 0.015578672289848328, 0.1630958765745163, 0.1610238403081894, -0.9733812212944031, 0.08463047444820404, -0.06725864112377167, -0.013297855854034424, -0.08297565037480632, 0.08015246463135714, 0.9930441015514357,0.023537127192022222,0.2375030517578125,0.08856201171875,-0.9835205078125
20220205-1714,2022-02-05 17:14:45Z,u01, 60,40,movements,el-ex, rt, d,13365.316307500001, 0.14590253363486946, -0.15668958012452938, 0.060890296909085186, 0.16845306754112244, -0.814277172088623, 0.04705696552991867, 0.1436043530702591, 0.1560492068529129, -0.9772545695304871, 0.05213530361652374, -0.028607845306396484, 0.018773674964904785, -0.08023222252936331, 0.07025325645550493, 0.9939939208540602,0.024564556054295528,0.1837615966796875,0.130767822265625,-0.9574127197265625
20220205-1714,2022-02-05 17:14:45Z,u01, 61,40,movements,el-ex, rt, d,13365.3412525, 0.12642868811922536, -0.15188267038739012, 0.06121029105698403, 0.21102119982242584, -0.7604593634605408, 0.025350144132971764, 0.1246405690908432, 0.1512994021177292, -0.9805983901023865, 0.03574448078870773, 0.0049505531787872314, 0.047614991664886475, -0.07760889447617937, 0.060643720252127636, 0.9948068330263602,0.02566069891166367,0.1591339111328125,0.16314697265625,-0.9052886962890625
20220205-1714,2022-02-05 17:14:45Z,u01, 62,40,movements,el-ex, rt, d,13365.366197500001, 0.10801493155146474, -0.14688854768051912, 0.061155309970703446, 0.1657281219959259, -0.7305004596710205, 0.026374857872724533, 0.10664409399032593, 0.14636090397834778, -0.9834660887718201, 0.0464930385351181, 0.00691358745098114, 0.12613576650619507, -0.07488294131133288, 0.0515704132432217, 0.9955055841602378,0.026486819542708928,0.151641845703125,0.1473846435546875,-0.85528564453125
20220205-1714,2022-02-05 17:14:45Z,u01, 63,40,movements,el-ex, rt, d,13365.3911425, 0.08971546893501965, -0.14391487894543864, 0.06139467477605151, 0.04881482198834419, -0.7361500859260559, 0.024686947464942932, 0.08866894245147705, 0.14341861009597778, -0.98568195104599, 0.05076579749584198, 0.010359406471252441, 0.1403908133506775, -0.07316197943046146, 0.042501149872014136, 0.9960382507532873,0.027359834663117588,0.125518798828125,0.1551361083984375,-0.828369140625
20220205-1714,2022-02-05 17:14:45Z,u01, 64,40,movements,el-ex, rt, d,13365.4160885, 0.07195650333302439, -0.1438208889398105, 0.06165953010648895, -0.02079831250011921, -0.6950178146362305, 0.0035550985485315323, 0.07115215808153152, 0.1433255970478058, -0.9871145486831665, 0.025847889482975006, -0.03247053921222687, 0.165260910987854, -0.07287379155210102, 0.033647191241918034, 0.9963760353309297,0.028142123658721263,0.088623046875,0.1138763427734375,-0.8175506591796875
20220205-1714,2022-02-05 17:14:45Z,u01, 65,40,movements,el-ex, rt, d,13365.441033500001, 0.055673827068989004, -0.14523299034124995, 0.06241613993838553, -0.0908067598938942, -0.607596755027771, 0.03430089354515076, 0.05505925044417381, 0.14472296833992004, -0.9879391193389893, 0.0036107152700424194, -0.025490865111351013, 0.19556552171707153, -0.07335546198718826, 0.025483463518346856, 0.9965557513486685,0.02909031509797888,0.0348358154296875,0.1196746826171875,-0.7819061279296875
20220205-1714,2022-02-05 17:14:45Z,u01, 66,40,movements,el-ex, rt, d,13365.4659785, 0.04232528216041999, -0.14807526906054141, 0.06316792744368176, -0.12109269201755524, -0.48644834756851196, 0.009752540849149227, 0.041849613189697266, 0.14753474295139313, -0.9881711006164551, -0.020273763686418533, -0.001126706600189209, 0.23730134963989258, -0.07458298269433097, 0.01875721198020917, 0.9965892293848824,0.029920649688866485,0.027557373046875,0.154205322265625,-0.7372589111328125
20220205-1714,2022-02-05 17:14:45Z,u01, 67,40,movements,el-ex, rt, d,13365.490923500001, 0.03149255640613571, -0.15114300356729785, 0.0636121608659703, -0.11473213136196136, -0.40721505880355835, 0.022824401035904884, 0.031128384172916412, 0.15056820213794708, -0.9881094098091125, 0.02622932568192482, 0.003804922103881836, 0.24792081117630005, -0.07595134677169352, 0.013292102800727429, 0.9965557054503031,0.030517836662384945,0.0716552734375,0.12957763671875,-0.741424560546875
20220205-1714,2022-02-05 17:14:45Z,u01, 68,40,movements,el-ex, rt, d,13365.5158685, 0.0212578057053682, -0.15542684974732882, 0.06460669796553782, -0.19465799629688263, -0.43193450570106506, 0.0665614977478981, 0.0209999717772007, 0.15480181574821472, -0.9877223372459412, 0.025539256632328033, -0.056153804063797, 0.20493119955062866, -0.07793258864614858, 0.008083795275043729, 0.996432028969808,0.03137370203721801,0.02978515625,0.09442138671875,-0.7894134521484375
20220205-1714,2022-02-05 17:14:45Z,u01, 69,40,movements,el-ex, rt, d,13365.540813500002, 0.012844452347071402, -0.159463365579543, 0.06702179143779684, -0.07380450516939163, -0.2753530740737915, 0.10229852050542831, 0.012681141495704651, 0.15878839790821075, -0.9872311949729919, -0.03300592303276062, -0.045461416244506836, 0.18178075551986694, -0.07981536317502229, 0.0037296897355481445, 0.9962600458348339,0.03288627324073723,-0.0283660888671875,0.13507080078125,-0.7988739013671875
20220205-1714,2022-02-05 17:14:45Z,u01, 70,40,movements,el-ex, rt, d,13365.5657585, 0.009751182524489033, -0.15914516074085963, 0.06914708356332722, 0.09247508645057678, -0.057986024767160416, 0.06072511523962021, 0.009627805091440678, 0.15847422182559967, -0.9873161911964417, -0.0032649636268615723, 0.001788794994354248, 0.23960500955581665, -0.079608192985408, 0.0021096162944578695, 0.996241525364018,0.03406955006082352,0.022003173828125,0.143768310546875,-0.7494354248046875
20220205-1714,2022-02-05 17:14:45Z,u01, 71,40,movements,el-ex, rt, d,13365.5907035, 0.00961266975866094, -0.15796160868653242, 0.07043706718317098, -0.0641855001449585, -0.05061172693967819, 0.06029234826564789, 0.009492845274508, 0.1573055237531662, -0.9875043630599976, 0.043058350682258606, -0.03926357626914978, 0.23735177516937256, -0.07901759466604602, 0.0020102713162801766, 0.9962662358943037,0.03472210721271818,0.06005859375,0.1100616455078125,-0.743133544921875
20220205-1714,2022-02-05 17:14:45Z,u01, 72,40,movements,el-ex, rt, d,13365.615648500001, 0.008473590706179077, -0.16351526859816903, 0.0728448510517277, -0.32695525884628296, -0.04287884384393692, 0.10752763599157333, 0.008360462263226509, 0.16278758645057678, -0.9866257309913635, 0.024766288697719574, -0.059409335255622864, 0.23218542337417603, -0.08176544780991829, 0.0012460195158962017, 0.996002400556866,0.035946637077331145,0.0206756591796875,0.10302734375,-0.773468017578125
20220205-1714,2022-02-05 17:14:45Z,u01, 73,40,movements,el-ex, rt, d,13365.6405945, 0.00992196783923653, -0.1695408908505362, 0.07567137361970491, -0.11799909919500351, 0.1306442767381668, 0.10573726147413254, 0.009779549203813076, 0.16872984170913696, -0.9856138229370117, -0.016966521739959717, -0.037916287779808044, 0.19713115692138672, -0.08479430072494641, 0.0017369072930844692, 0.9956996524162168,0.037270627316788485,-0.0076904296875,0.16497802734375,-0.7847137451171875
20220205-1714,2022-02-05 17:14:45Z,u01, 74,40,movements,el-ex, rt, d,13365.665539500002, 0.01623230154801108, -0.16903082783563758, 0.07798031242049003, 0.09096666425466537, 0.3091512620449066, 0.07470324635505676, 0.016000259667634964, 0.16822706162929535, -0.9856184124946594, 0.0033478140830993652, -0.01191607117652893, 0.20308667421340942, -0.08466314121312021, 0.004790541174421271, 0.9956672692997564,0.038155272224445036,0.024810791015625,0.14544677734375,-0.7788543701171875
20220205-1714,2022-02-05 17:14:45Z,u01, 75,40,movements,el-ex, rt, d,13365.6904845, 0.024256046651544138, -0.16908679736464546, 0.08012583534324694, -0.14361733198165894, 0.2992597222328186, 0.10965084284543991, 0.02390778250992298, 0.16828224062919617, -0.9854488968849182, 0.013827130198478699, -0.04546430706977844, 0.2283230423927307, -0.08485276919439941, 0.008692845111081239, 0.995596539575418,0.03888293857344888,0.0449066162109375,0.1072235107421875,-0.7570648193359375
20220205-1714,2022-02-05 17:14:45Z,u01, 76,40,movements,el-ex, rt, d,13365.7154295, 0.03268698409797058, -0.17550680953154463, 0.08373174442845696, -0.3482188880443573, 0.32613834738731384, 0.1517486274242401, 0.03217912092804909, 0.17460718750953674, -0.9841122031211853, 0.03276221454143524, -0.055817559361457825, 0.1956142783164978, -0.08823370801511288, 0.012598017010464181, 0.995206249890273,0.040255991346209496,0.062744140625,0.127471923828125,-0.8006744384765625
20220205-1714,2022-02-05 17:14:45Z,u01, 77,40,movements,el-ex, rt, d,13365.740374500001, 0.04290732935194351, -0.1834799461492144, 0.08811785010863096, -0.2584611177444458, 0.4383542537689209, 0.16041068732738495, 0.04217417538166046, 0.18245220184326172, -0.9823098182678223, 0.002625551074743271, -0.017733648419380188, 0.16190576553344727, -0.09244225473181941, 0.017307016677870386, 0.9946860898002851,0.04188602372952921,0.025634765625,0.19036865234375,-0.8305816650390625
20220205-1714,2022-02-05 17:14:45Z,u01, 78,40,movements,el-ex, rt, d,13365.7653195, 0.05648985887384127, -0.18702304050688207, 0.09180128559899037, -0.0791793018579483, 0.570270836353302, 0.13165800273418427, 0.055475279688835144, 0.18593467772006989, -0.9809948205947876, -0.014566551893949509, 0.02784089744091034, 0.1557537317276001, -0.09452992313898642, 0.023805401704319135, 0.9943065529160946,0.043031587301128105,0.05743408203125,0.21185302734375,-0.8192138671875
20220205-1714,2022-02-05 17:14:45Z,u01, 79,40,movements,el-ex, rt, d,13365.790264500001, 0.07210611962140033, -0.18928912526167002, 0.09545562831317564, -0.16526295244693756, 0.6274229884147644, 0.15067210793495178, 0.07075682282447815, 0.1881607621908188, -0.979586124420166, 0.037702567875385284, -0.008015543222427368, 0.19133234024047852, -0.09604638525417389, 0.03133727383686988, 0.9939071649112059,0.04406279304794064,0.134521484375,0.175018310546875,-0.800048828125
20220205-1714,2022-02-05 17:14:45Z,u01, 80,40,movements,el-ex, rt, d,13365.8152095, 0.08832869656202126, -0.19492558312669153, 0.09969795534419079, -0.29708993434906006, 0.5802600979804993, 0.12867100536823273, 0.08654329925775528, 0.19369353353977203, -0.9772374629974365, 0.051762282848358154, -0.0015701651573181152, 0.11093497276306152, -0.09928240977992722, 0.039041891634267106, 0.9932626953319885,0.045252673479604044,0.1279449462890625,0.2027740478515625,-0.882781982421875
20220205-1714,2022-02-05 17:14:45Z,u01, 81,40,movements,el-ex, rt, d,13365.840154500002, 0.1030974541199344, -0.20130338284440114, 0.10331717223595072, -0.2156660407781601, 0.547557532787323, 0.09458333998918533, 0.10083673149347305, 0.1999465674161911, -0.9746041893959045, 0.002205789089202881, 0.023960858583450317, 0.05227142572402954, -0.10286160364124942, 0.04601518722844597, 0.9925590620785183,0.04613552912535002,0.11029052734375,0.2208709716796875,-0.9279937744140625
20220205-1714,2022-02-05 17:14:45Z,u01, 82,40,movements,el-ex, rt, d,13365.865100500001, 0.11764258745492494, -0.20788499730158783, 0.10587962152530928, -0.39504849910736084, 0.5984645485877991, 0.07036522030830383, 0.11484436690807343, 0.20639090240001678, -0.9717065095901489, 0.028466105461120605, -0.015137284994125366, 0.10644161701202393, -0.10652483072812938, 0.05290744612481879, 0.9918144611542543,0.046447508024394846,0.144744873046875,0.179901123046875,-0.8426513671875
20220205-1714,2022-02-05 17:14:45Z,u01, 83,40,movements,el-ex, rt, d,13365.8900455, 0.13484766526958325, -0.21886100170310907, 0.11022911307463626, -0.39032310247421265, 0.7410187721252441, 0.13252399861812592, 0.1312323659658432, 0.21711793541908264, -0.9672837853431702, 0.00290757417678833, -0.03202886879444122, 0.09585428237915039, -0.11248776576265687, 0.06086560970036767, 0.9906593618166184,0.047285982031372575,0.109649658203125,0.2326507568359375,-0.9110107421875
20220205-1714,2022-02-05 17:14:45Z,u01, 84,40,movements,el-ex, rt, d,13365.914989125, 0.15602295860007842, -0.21934606052701647, 0.11407109501055877, 0.3033020794391632, 0.8521324396133423, 0.13059547543525696, 0.1516675502061844, 0.21759140491485596, -0.9641841053962708, -0.010218650102615356, 0.07437022030353546, -0.019016027450561523, -0.1133587891773055, 0.07111782065873812, 0.989843725250537,0.04797372637380137,0.14801025390625,0.2884368896484375,-0.9778289794921875
20220205-1714,2022-02-05 17:14:45Z,u01, 85,40,movements,el-ex, rt, d,13365.939934125001, 0.1766114220809959, -0.20856432698129562, 0.11520784535248328, 0.3417900800704956, 0.8112593293190002, 0.12101101875305176, 0.17188727855682373, 0.20705555379390717, -0.9631109833717346, 0.012743979692459106, 0.03017278015613556, 0.05130678415298462, -0.10856545228570415, 0.08159690426482935, 0.9895775131062725,0.04787134840595347,0.2086181640625,0.2031707763671875,-0.826934814453125
20220205-1714,2022-02-05 17:14:45Z,u01, 86,40,movements,el-ex, rt, d,13365.964879125, 0.19782039075622745, -0.2085913829563774, 0.11913117653237569, -0.36029765009880066, 0.8187555074691772, 0.16825437545776367, 0.19227257370948792, 0.20708201825618744, -0.9592435956001282, 0.09154081344604492, -0.03137710690498352, 0.12225323915481567, -0.10926077150810656, 0.09187101025794514, 0.988561787946057,0.04865530906295068,0.2953948974609375,0.1896820068359375,-0.8593292236328125
20220205-1714,2022-02-05 17:14:45Z,u01, 87,40,movements,el-ex, rt, d,13365.989824125001, 0.21901882678890405, -0.2190617017698596, 0.1253146698811435, -0.44497597217559814, 0.7768689393997192, 0.11417129635810852, 0.21207958459854126, 0.21731384098529816, -0.9527837634086609, 0.07257303595542908, 0.04306209087371826, 0.05982416868209839, -0.11524632346674324, 0.10161884186726867, 0.986862454067778,0.0499449448063663,0.2302703857421875,0.276763916015625,-0.9305877685546875
20220205-1714,2022-02-05 17:14:45Z,u01, 88,40,movements,el-ex, rt, d,13366.014769125, 0.2405003050910423, -0.22480871516508094, 0.12869402343178035, -0.10714402049779892, 0.8898990750312805, 0.041916269809007645, 0.23219497501850128, 0.22291989624500275, -0.9467799067497253, -0.054689571261405945, 0.06342649459838867, 0.05934399366378784, -0.11879243785022556, 0.11179622012526048, 0.9853371363886299,0.05000753307262873,0.196319580078125,0.2845458984375,-0.86663818359375
20220205-1714,2022-02-05 17:14:45Z,u01, 89,40,movements,el-ex, rt, d,13366.039714125001, 0.2645109913778775, -0.22823194654087184, 0.1310542655436268, -0.28546297550201416, 0.984649658203125, 0.07105963677167892, 0.25465768575668335, 0.22625567018985748, -0.940190315246582, 0.06429669260978699, 0.008775413036346436, 0.14616870880126953, -0.12121053141814733, 0.123340375859001, 0.9836893235522932,0.04950259542795671,0.4074859619140625,0.2183990478515625,-0.8079986572265625
20220205-1714,2022-02-05 17:14:45Z,u01, 90,40,movements,el-ex, rt, d,13366.064659125, 0.2887995562842448, -0.23870803075007474, 0.1366510875815316, -0.6397495865821838, 0.8514073491096497, 0.1309332251548767, 0.2767259478569031, 0.23644748330116272, -0.9314050674438477, 0.18656131625175476, -0.024167269468307495, 0.04361814260482788, -0.12731107124352764, 0.1344967361697549, 0.9814295021562621,0.04998706037500378,0.440399169921875,0.222442626953125,-0.8724365234375
20220205-1714,2022-02-05 17:14:45Z,u01, 91,40,movements,el-ex, rt, d,13366.089605125, 0.3121235643199746, -0.2544797681356931, 0.14541892643242108, -0.6239138245582581, 0.9370251893997192, 0.1275312304496765, 0.2971905767917633, 0.2517419755458832, -0.921034038066864, 0.02196216583251953, -0.0028101205825805664, 0.058286845684051514, -0.13622339124195848, 0.14465878353627198, 0.9787049940212594,0.05151108358223894,0.272430419921875,0.2698822021484375,-0.8565826416015625
20220205-1714,2022-02-05 17:14:45Z,u01, 92,40,movements,el-ex, rt, d,13366.114550125001, 0.3395092382653751, -0.26179768129150066, 0.15148660865568775, -0.07943715900182724, 1.0920828580856323, 0.15371949970722198, 0.32167699933052063, 0.2588174045085907, -0.9107894897460938, -0.011755824089050293, 0.042101114988327026, 0.0021590590476989746, -0.1409548744218619, 0.15727998209746624, 0.9760609801396798,0.051957371837932365,0.333465576171875,0.288543701171875,-0.9449005126953125
20220205-1714,2022-02-05 17:14:45Z,u01, 93,40,movements,el-ex, rt, d,13366.139495125, 0.36703933382986753, -0.25711771369097053, 0.15435213574370327, 0.26848605275154114, 1.0402411222457886, 0.20279917120933533, 0.34705692529678345, 0.2542940676212311, -0.9027103781700134, 0.04697069525718689, -0.0050723254680633545, -0.09342920780181885, -0.13963080538349315, 0.17072801057402948, 0.9739951172752809,0.051852563564243837,0.40777587890625,0.23541259765625,-0.9716033935546875
20220205-1714,2022-02-05 17:14:45Z,u01, 94,40,movements,el-ex, rt, d,13366.164440125001, 0.3930402316254678, -0.25076931484145093, 0.157167760304282, 0.10672592371702194, 0.9915961027145386, 0.19401338696479797, 0.3710190951824188, 0.24814929068088531, -0.8948557376861572, 0.030256450176239014, -0.010188505053520203, -0.04760342836380005, -0.13747876931203612, 0.1834985800300139, 0.9719666297014703,0.052044728219906744,0.3968658447265625,0.2318267822265625,-0.9523162841796875
20220205-1714,2022-02-05 17:14:45Z,u01, 95,40,movements,el-ex, rt, d,13366.189385125, 0.4186297110923987, -0.24819808836223475, 0.16065757182775453, 0.0209190733730793, 0.9756231307983398, 0.13617871701717377, 0.39405208826065063, 0.24565766751766205, -0.8856496214866638, 0.010610908269882202, 0.01674768328666687, -0.07484537363052368, -0.13723394810839878, 0.19581120027835003, 0.969584853930118,0.05224995058554033,0.4193115234375,0.2754669189453125,-0.962005615234375
20220205-1714,2022-02-05 17:14:45Z,u01, 96,40,movements,el-ex, rt, d,13366.214330125002, 0.4435902158008073, -0.24570849708993162, 0.1623200747723147, 0.10748892277479172, 0.9787690043449402, 0.07281000167131424, 0.41629448533058167, 0.24324360489845276, -0.8760886788368225, 0.05210447311401367, 0.030285418033599854, -0.05794757604598999, -0.13684975628094906, 0.2079129407539537, 0.9671502578488691,0.05162004525700825,0.491058349609375,0.267822265625,-0.942901611328125
20220205-1714,2022-02-05 17:14:45Z,u01, 97,40,movements,el-ex, rt, d,13366.239275125, 0.4673195628827869, -0.24269311697744061, 0.16246466569519089, 0.03809892758727074, 0.8996260166168213, 0.04887697473168373, 0.43729278445243835, 0.2403176873922348, -0.8666154742240906, 0.0972224771976471, 0.006249040365219116, -0.0772169828414917, -0.13602086795234364, 0.2195235210162338, 0.9647617944142141,0.05042235370106457,0.5418243408203125,0.234466552734375,-0.9258270263671875
20220205-1714,2022-02-05 17:14:45Z,u01, 98,40,movements,el-ex, rt, d,13366.264220125, 0.4891050509411469, -0.2449833238647091, 0.1646766812016662, -0.26075294613838196, 0.8153708577156067, 0.032205983996391296, 0.4558073878288269, 0.2425401508808136, -0.8563959002494812, 0.06585997343063354, -0.013307392597198486, -0.004428744316101074, -0.13791261771913682, 0.22974370763620253, 0.9621466660300102,0.049716669730269725,0.5162506103515625,0.22998046875,-0.8457794189453125
20220205-1714,2022-02-05 17:14:45Z,u01, 99,40,movements,el-ex, rt, d,13366.289165125001, 0.5108118284413579, -0.2516001761602761, 0.16916757555723275, -0.3486260771751404, 0.8452534079551697, 0.013200868852436543, 0.47349318861961365, 0.24895407259464264, -0.8448823094367981, 0.03860694169998169, -0.010138794779777527, 0.02002263069152832, -0.1421393903918165, 0.23948956339658087, 0.959160960785894,0.04951162749305421,0.51873779296875,0.2487945556640625,-0.825653076171875
20220205-1714,2022-02-05 17:14:46Z,u01, 100,40,movements,el-ex, rt, d,13366.314111125, 0.5331509860878957, -0.25664416681833224, 0.17311018028837574, -0.11321622878313065, 0.8504052758216858, 0.04551726207137108, 0.49160295724868774, 0.253836065530777, -0.8330028653144836, 0.05171665549278259, 0.001412898302078247, -0.09233593940734863, -0.14557344863672794, 0.2496135760111517, 0.9560796602096335,0.049123048822134086,0.542205810546875,0.2629547119140625,-0.927978515625
20220205-1714,2022-02-05 17:14:46Z,u01, 101,40,movements,el-ex, rt, d,13366.339056125002, 0.5543162495310898, -0.2565409393633167, 0.17476738284456342, 0.011341514065861702, 0.8118669390678406, 0.0663343295454979, 0.5091360211372375, 0.2537362277507782, -0.8224344253540039, 0.0091591477394104, 0.003679513931274414, -0.0847311019897461, -0.14625139478250898, 0.2596022046347893, 0.9533499919247657,0.04838424441665862,0.496124267578125,0.2330169677734375,-0.887908935546875
20220205-1714,2022-02-05 17:14:46Z,u01, 102,40,movements,el-ex, rt, d,13366.364001125, 0.5745762137027309, -0.25710057072809916, 0.17736827660032728, -0.1769193708896637, 0.7738760709762573, 0.09372274577617645, 0.5256156325340271, 0.2542774975299835, -0.8118319511413574, -0.02962881326675415, -0.022710144519805908, 0.0075868964195251465, -0.1473482386371323, 0.26902142382522054, 0.9505821990464662,0.04805514969980612,0.505889892578125,0.2331085205078125,-0.7903289794921875
20220205-1714,2022-02-05 17:14:46Z,u01, 103,40,movements,el-ex, rt, d,13366.388946125, 0.5962839579257389, -0.2607695892749779, 0.18290120373451832, -0.26685085892677307, 0.8534494042396545, 0.09216585755348206, 0.5425859093666077, 0.25782421231269836, -0.7994542717933655, 0.022858917713165283, -0.00640520453453064, 0.0050054192543029785, -0.1503585855644039, 0.2786846697978351, 0.9472975506711314,0.04852157928811407,0.604522705078125,0.274505615234375,-0.79736328125
20220205-1714,2022-02-05 17:14:46Z,u01, 104,40,movements,el-ex, rt, d,13366.413891125001, 0.6190876359924313, -0.26472513136769205, 0.18800094902471873, -0.20337402820587158, 0.8405210971832275, 0.06256561726331711, 0.5600775480270386, 0.2616439759731293, -0.7860378623008728, 0.07143783569335938, 0.04122766852378845, -0.006305336952209473, -0.15349152311951386, 0.2888276550805789, 0.9437465799751221,0.04859336511159873,0.6256561279296875,0.3058929443359375,-0.7930450439453125
20220205-1714,2022-02-05 17:14:46Z,u01, 105,40,movements,el-ex, rt, d,13366.438836125, 0.6401283748748207, -0.2664570525352583, 0.19062508448795093, -0.023304512724280357, 0.7994818091392517, 0.004230408929288387, 0.5762196779251099, 0.2633151710033417, -0.7737157344818115, 0.005613148212432861, 0.04231831431388855, -0.022793114185333252, -0.1551936800667294, 0.2984242841332415, 0.9405108073078585,0.047930895821935604,0.55108642578125,0.30572509765625,-0.77398681640625
20220205-1714,2022-02-05 17:14:46Z,u01, 106,40,movements,el-ex, rt, d,13366.463781125001, 0.658429686233115, -0.2627985637517307, 0.18688702741252597, 0.4887593984603882, 0.7808563709259033, -0.03375299274921417, 0.590867817401886, 0.2597840428352356, -0.7637979984283447, 0.04328727722167969, 0.08015117049217224, 0.04365938901901245, -0.1533505940669082, 0.3075461098781185, 0.9379984858125929,0.04536101021450867,0.66888427734375,0.3490142822265625,-0.7290802001953125
20220205-1714,2022-02-05 17:14:46Z,u01, 107,40,movements,el-ex, rt, d,13366.488726125, 0.6746823243928667, -0.2508819019674448, 0.1764582159815984, 0.6204330921173096, 0.7351886630058289, -0.00861181877553463, 0.6050938963890076, 0.24825835227966309, -0.7564582824707031, 0.12082761526107788, 0.07803554832935333, 0.00616830587387085, -0.14653642652936533, 0.31669849049483545, 0.9362306484341922,0.041246547325513416,0.711517333984375,0.2775421142578125,-0.735198974609375
20220205-1714,2022-02-05 17:14:46Z,u01, 108,40,movements,el-ex, rt, d,13366.513671125002, 0.6913180037189492, -0.2435724129432368, 0.1692508835793503, 0.16838552057743073, 0.743213415145874, -0.0293491892516613, 0.6187341809272766, 0.24117112159729004, -0.7476660013198853, 0.029916763305664062, -0.017172157764434814, 0.04713493585586548, -0.1423169722788758, 0.32544260739261754, 0.9340207717630942,0.037922038171972317,0.63037109375,0.2072601318359375,-0.691925048828125
20220205-1714,2022-02-05 17:14:46Z,u01, 109,40,movements,el-ex, rt, d,13366.538616125, 0.7104907835948595, -0.245620599233773, 0.17002295762339986, -0.2931719124317169, 0.8043572902679443, -0.02829923667013645, 0.6326309442520142, 0.24315834045410156, -0.7352904677391052, -0.05059981346130371, -0.06614118814468384, 0.08192431926727295, -0.14374888434054559, 0.33420208995912454, 0.9307572023335778,0.036553144142175364,0.58892822265625,0.188934326171875,-0.6397247314453125
20220205-1714,2022-02-05 17:14:46Z,u01, 110,40,movements,el-ex, rt, d,13366.563562125, 0.7334427180129787, -0.25272612074006945, 0.17768976303447678, -0.42590442299842834, 0.8559269905090332, 0.0828450620174408, 0.6481661796569824, 0.25004440546035767, -0.7192762494087219, 0.03741109371185303, -0.02555716037750244, -0.02494072914123535, -0.14874361583745244, 0.34385637163314264, 0.9264217821280176,0.03715830870881187,0.6975860595703125,0.2331695556640625,-0.7577056884765625
20220205-1714,2022-02-05 17:14:46Z,u01, 111,40,movements,el-ex, rt, d,13366.588507125001, 0.7570114493156553, -0.2556673560095471, 0.18478159672003514, -0.04756121337413788, 0.881114661693573, 0.1636856347322464, 0.6644291281700134, 0.2528911232948303, -0.7032638788223267, 0.0442805290222168, 0.022163748741149902, -0.04756021499633789, -0.15177149417829505, 0.35402470055352164, 0.9220513940607091,0.03812037295395254,0.7135772705078125,0.2945556640625,-0.74462890625
20220205-1714,2022-02-05 17:14:46Z,u01, 112,40,movements,el-ex, rt, d,13366.613452125, 0.7794813070120065, -0.2508676889791793, 0.18415286369010123, 0.28324753046035767, 0.91424959897995, 0.04161633178591728, 0.6809076070785522, 0.24824458360671997, -0.6890133619308472, 0.004440784454345703, 0.07452452182769775, -0.016858339309692383, -0.14989347059766944, 0.3647263002457587, 0.9182232041287611,0.03705072137141119,0.6725616455078125,0.317138671875,-0.6932525634765625
20220205-1714,2022-02-05 17:14:46Z,u01, 113,40,movements,el-ex, rt, d,13366.638397125002, 0.8007995098606169, -0.2455948429128816, 0.17779110006537935, 0.40299347043037415, 0.9705615639686584, -0.06267711520195007, 0.6963703632354736, 0.24313336610794067, -0.6752439737319946, -0.055867552757263184, 0.02726760506629944, -0.0028261542320251465, -0.14669949046322822, 0.37530956419464645, 0.9146004349890356,0.033584908075527775,0.668426513671875,0.263519287109375,-0.6742401123046875
20220205-1714,2022-02-05 17:14:46Z,u01, 114,40,movements,el-ex, rt, d,13366.663342125, 0.8235600522108579, -0.23929600846422225, 0.16899091170600541, 0.37342047691345215, 0.9680444598197937, -0.023961279541254044, 0.712666928768158, 0.23701874911785126, -0.6602483987808228, 0.08855676651000977, 0.005870595574378967, -0.07086127996444702, -0.14253178429614594, 0.38673049871866416, 0.9106440082376333,0.029183988478343525,0.81585693359375,0.2311553955078125,-0.7362518310546875
20220205-1714,2022-02-05 17:14:46Z,u01, 115,40,movements,el-ex, rt, d,13366.688287125, 0.8448593018275244, -0.23709308931794562, 0.16533893385085485, -0.07527623325586319, 0.7901694774627686, -0.04155572131276131, 0.7269557118415833, 0.2348780333995819, -0.6452655792236328, 0.0871768593788147, -0.011992976069450378, -0.06721311807632446, -0.14112074729347102, 0.3968024071465725, 0.9066047984816485,0.02646589282777495,0.7909698486328125,0.2310638427734375,-0.6796112060546875
20220205-1714,2022-02-05 17:14:46Z,u01, 116,40,movements,el-ex, rt, d,13366.713232125001, 0.864404237272781, -0.24381882941460914, 0.16971357972282003, -0.4388231635093689, 0.7540631890296936, -0.16202647984027863, 0.7382093071937561, 0.2414102554321289, -0.6298952698707581, -0.018513381481170654, 0.02813619375228882, -0.0014371871948242188, -0.1452659397076958, 0.40490760183131486, 0.9023804166687468,0.025635503172137752,0.721405029296875,0.284088134765625,-0.61224365234375
20220205-1714,2022-02-05 17:14:46Z,u01, 117,40,movements,el-ex, rt, d,13366.763123125002, 0.9037238047843934, -0.2420035173682958, 0.15280633457877268, 0.9531791806221008, 0.779068112373352, -0.18721172213554382, 0.7627425789833069, 0.23964823782444, -0.600659966468811, 0.12869101762771606, 0.05721144378185272, -0.10823291540145874, -0.14135991467180864, 0.4238955070157744, 0.8944752732681562,0.015614291543353476,0.9128570556640625,0.35400390625,-0.703857421875
20220205-1714,2022-02-05 17:14:46Z,u01, 118,40,movements,el-ex, rt, d,13366.738177125, 0.8861291478063348, -0.24922457808484302, 0.16985712277525286, 0.3060411512851715, 0.9205682873725891, -0.13635066151618958, 0.75069659948349, 0.24665257334709167, -0.6128761172294617, 0.08011388778686523, 0.09639547765254974, -0.03434079885482788, -0.14796813668051206, 0.41432762605749984, 0.8977256324125211,0.02294924105477769,0.871337890625,0.265716552734375,-0.7007904052734375
20220205-1714,2022-02-05 17:14:46Z,u01, 119,40,movements,el-ex, rt, d,13366.788068125, 0.9172195380807824, -0.2322720204502463, 0.13261719875224223, 0.6314407587051392, 0.6844666600227356, -0.17287951707839966, 0.7725942730903625, 0.23018912971019745, -0.591701865196228, 0.013675808906555176, -0.04632073640823364, -0.07690787315368652, -0.13280911299346776, 0.43186896341762815, 0.8920704666446557,0.00782766556941411,0.7646484375,0.1566314697265625,-0.643524169921875
20220205-1714,2022-02-05 17:14:46Z,u01, 120,40,movements,el-ex, rt, d,13366.813013125, 0.9328993894460766, -0.23347230812929848, 0.12764448505149567, -0.4246329665184021, 0.6431500911712646, -0.12053455412387848, 0.781554102897644, 0.23135700821876526, -0.579350471496582, -0.015303611755371094, -0.11374232172966003, -0.0075179338455200195, -0.1323041852914417, 0.43911316094509834, 0.8886262131818421,0.004305179775977885,0.7737884521484375,0.115081787109375,-0.571197509765625
20220205-1714,2022-02-05 17:14:46Z,u01, 121,40,movements,el-ex, rt, d,13366.837958125001, 0.9529187360645786, -0.246881322706629, 0.14287285652637133, -0.8527206182479858, 0.6892910599708557, -0.030346009880304337, 0.7903950810432434, 0.24438104033470154, -0.5617414712905884, 0.012720644474029541, -0.08570490777492523, 0.046406328678131104, -0.14162131509176568, 0.4461756085425786, 0.8836440790932933,0.006616943143320508,0.8501129150390625,0.213287353515625,-0.528594970703125
20220205-1714,2022-02-05 17:14:46Z,u01, 122,40,movements,el-ex, rt, d,13366.862903125, 0.9726351349672349, -0.2504846540050127, 0.14869149991637098, 0.3936140835285187, 0.8175511956214905, 0.020648930221796036, 0.8005833625793457, 0.24787351489067078, -0.5455501079559326, 0.07575929164886475, 0.08170104026794434, -0.10331469774246216, -0.14457076806868335, 0.4542292683975394, 0.8790489094110019,0.006930458888804891,0.85296630859375,0.33544921875,-0.6673583984375
20220205-1714,2022-02-05 17:14:46Z,u01, 123,40,movements,el-ex, rt, d,13366.887848125001, 0.9908144986569907, -0.2398888352862299, 0.13014504125405013, 1.1671221256256104, 0.9605128765106201, -0.10572471469640732, 0.8125197291374207, 0.23759464919567108, -0.5323161482810974, -0.01837611198425293, 0.08961474895477295, -0.11882221698760986, -0.13573937274852388, 0.46413008493209834, 0.8753045676314362,3.440791575759494e-05,0.7858123779296875,0.291107177734375,-0.601776123046875
20220205-1714,2022-02-05 17:14:46Z,u01, 124,40,movements,el-ex, rt, d,13366.912793166668, 1.0087502087230724, -0.22800837968931262, 0.10513761546808292, 0.7642696499824524, 0.9097973108291626, -0.13546976447105408, 0.8242664337158203, 0.2260379046201706, -0.5191259384155273, -0.04089552164077759, -0.044122666120529175, 0.03694808483123779, -0.12468225660789028, 0.47422712241307347, 0.8714805950458071,-0.009195556447634201,0.7816619873046875,0.152740478515625,-0.463226318359375
20220205-1714,2022-02-05 17:14:46Z,u01, 125,40,movements,el-ex, rt, d,13366.937738166667, 1.0290722274154178, -0.22803244822115248, 0.09863839077729102, -0.31193140149116516, 0.8762836456298828, -0.14735324680805206, 0.8346405625343323, 0.22606134414672852, -0.5022663474082947, -0.0397796630859375, -0.0668511688709259, 0.06885558366775513, -0.12302233977388163, 0.48345871213746633, 0.8665776259742937,-0.013283999062565999,0.826446533203125,0.2174835205078125,-0.4720458984375
20220205-1714,2022-02-05 17:14:46Z,u01, 126,40,movements,el-ex, rt, d,13366.962683166668, 1.0534512927518336, -0.2374787615252164, 0.10673200422665272, -0.4803304076194763, 0.8904953002929688, -0.18863898515701294, 0.8447422981262207, 0.23525290191173553, -0.4806936979293823, 0.09777772426605225, 0.056617140769958496, -0.06560158729553223, -0.12888420819799665, 0.4929929063394045, 0.8603253110340547,-0.013679918786210499,0.9669189453125,0.319549560546875,-0.52734375
20220205-1714,2022-02-05 17:14:46Z,u01, 127,40,movements,el-ex, rt, d,13366.987628166667, 1.0740164507337198, -0.245853647629055, 0.11300309494194241, -0.23894259333610535, 0.6457783579826355, -0.21268364787101746, 0.8526865839958191, 0.24338439106941223, -0.46226581931114197, 0.12582898139953613, 0.086174875497818, -0.011763811111450195, -0.13386106130520162, 0.5009474084011489, 0.8549406600714528,-0.014470444676210725,0.9331207275390625,0.3099212646484375,-0.4362030029296875
20220205-1714,2022-02-05 17:14:46Z,u01, 128,40,movements,el-ex, rt, d,13367.012574166667, 1.0906324613161853, -0.2535372591816776, 0.11307551465962623, -0.09742934256792068, 0.7315911650657654, -0.29256051778793335, 0.8585655093193054, 0.25082969665527344, -0.4471573531627655, -0.039321184158325195, 0.03547090291976929, 0.08711087703704834, -0.13699443013601068, 0.5075961545745376, 0.8504532046832622,-0.017548393795228878,0.8020782470703125,0.2826385498046875,-0.35296630859375
20220205-1714,2022-02-05 17:14:46Z,u01, 129,40,movements,el-ex, rt, d,13367.037519166668, 1.1127837510862422, -0.26173050546800064, 0.11278049144299943, -0.17606180906295776, 1.012148141860962, -0.277143657207489, 0.8663867115974426, 0.2587524950504303, -0.4271077811717987, -0.026070058345794678, 0.04390546679496765, 0.04785051941871643, -0.14014415387579784, 0.5165324017003681, 0.8444511001435885,-0.02135658804275864,0.93133544921875,0.2858123779296875,-0.4286651611328125
20220205-1714,2022-02-05 17:14:46Z,u01, 130,40,movements,el-ex, rt, d,13367.062464166667, 1.1373259606693678, -0.2711207417800225, 0.11570824558002964, -0.3842041492462158, 0.834962010383606, -0.27668628096580505, 0.8743633031845093, 0.2678114175796509, -0.4046798646450043, 0.15514707565307617, 0.010356277227401733, -0.06172037124633789, -0.144537814188317, 0.5260882951330723, 0.8377025013460766,-0.02437996675181925,1.020599365234375,0.2684173583984375,-0.4593505859375
20220205-1714,2022-02-05 17:14:46Z,u01, 131,40,movements,el-ex, rt, d,13367.087409166668, 1.1569351541058808, -0.2802306800475962, 0.11981304629628158, -0.0940050482749939, 0.6973652839660645, -0.29865971207618713, 0.8798598051071167, 0.27657732367515564, -0.38646039366722107, 0.07103729248046875, -0.0015682578086853027, -0.045516014099121094, -0.1491385180117564, 0.5334111931886908, 0.8321800588859573,-0.026580934636571296,0.8874359130859375,0.304046630859375,-0.4261322021484375
20220205-1714,2022-02-05 17:14:46Z,u01, 132,40,movements,el-ex, rt, d,13367.112354166668, 1.1734374444293216, -0.2854607638600732, 0.11201749917968525, 0.4480125606060028, 0.8217018842697144, -0.3077799677848816, 0.8847712874412537, 0.28159961104393005, -0.3713238835334778, -0.07465171813964844, 0.005189269781112671, -0.03326302766799927, -0.14894834754218209, 0.5405112898619026, 0.8274095981425653,-0.032484995903581504,0.8055572509765625,0.282440185546875,-0.39019775390625
20220205-1714,2022-02-05 17:14:46Z,u01, 133,40,movements,el-ex, rt, d,13367.137299166667, 1.1922441750484956, -0.2877875199278313, 0.09673422477063012, 0.492766410112381, 1.0043925046920776, -0.30312588810920715, 0.8909866213798523, 0.2838314175605774, -0.3543764352798462, -0.04032433032989502, -0.0030086934566497803, -0.017938166856765747, -0.14538955453723265, 0.5492482636618181, 0.8219015174703997,-0.04081910080352208,0.92962646484375,0.275634765625,-0.3926849365234375
20220205-1714,2022-02-05 17:14:46Z,u01, 134,40,movements,el-ex, rt, d,13367.162244166668, 1.2123913033581015, -0.2908959283055099, 0.08531400242537644, 0.1730397343635559, 0.8206950426101685, -0.24012812972068787, 0.8971143960952759, 0.28681063652038574, -0.3360438048839569, 0.14637315273284912, -0.026190578937530518, -0.07389891147613525, -0.14304260538907956, 0.558137006025736, 0.8159256153240774,-0.04782551221370818,1.042083740234375,0.257598876953125,-0.39996337890625
20220205-1714,2022-02-05 17:14:46Z,u01, 135,40,movements,el-ex, rt, d,13367.187189166667, 1.23068143478755, -0.296833578580651, 0.08612019677684614, -0.3458620309829712, 0.6501603126525879, -0.20711691677570343, 0.9014889001846313, 0.2924937307834625, -0.31900641322135925, 0.07917815446853638, -0.0747661292552948, -0.03855288028717041, -0.14521236248466296, 0.5651638373395385, 0.8105254614154977,-0.05051375754698928,0.91949462890625,0.201416015625,-0.3395233154296875
20220205-1714,2022-02-05 17:14:46Z,u01, 136,40,movements,el-ex, rt, d,13367.212134166668, 1.2499140962236595, -0.3053760934373954, 0.09528695136155255, -0.4593541920185089, 0.657690167427063, -0.19409584999084473, 0.9050530195236206, 0.300651878118515, -0.30081140995025635, -0.032250285148620605, -0.04972115159034729, -0.03105214238166809, -0.15074734594862363, 0.5717250546269741, 0.8048815025895006,-0.0507100296164974,0.875213623046875,0.2677154541015625,-0.33929443359375
20220205-1714,2022-02-05 17:14:46Z,u01, 137,40,movements,el-ex, rt, d,13367.237080166668, 1.2707734775677588, -0.3124404704260196, 0.10296976663554108, -0.25663357973098755, 0.8108916878700256, -0.15685634315013885, 0.9090785384178162, 0.30738186836242676, -0.28123369812965393, 0.0011080503463745117, 0.018606841564178467, -0.07495227456092834, -0.15522621186801172, 0.5790405614832382, 0.7987395450515925,-0.05130144920577562,0.96063232421875,0.3602294921875,-0.350555419921875
20220205-1714,2022-02-05 17:14:46Z,u01, 138,40,movements,el-ex, rt, d,13367.262025166667, 1.2919967335206584, -0.31700014690398276, 0.1068988535389103, -0.10807090252637863, 0.8379760384559631, -0.10164722055196762, 0.9134851694107056, 0.31171756982803345, -0.26148977875709534, 0.07180523872375488, 0.04222521185874939, -0.009658962488174438, -0.1576108222861246, 0.5868679006219715, 0.7924402033282467,-0.052757425040207306,0.96856689453125,0.3505859375,-0.2513885498046875
20220205-1714,2022-02-05 17:14:46Z,u01, 139,40,movements,el-ex, rt, d,13367.286970166668, 1.313816452797983, -0.3201028432776238, 0.10350732231402195, 0.3892499804496765, 0.9610993266105652, -0.23842684924602509, 0.9180329442024231, 0.31466418504714966, -0.24125012755393982, 0.0013241171836853027, 0.06064087152481079, -0.04395200312137604, -0.1572194096098882, 0.5955308478163956, 0.7857507289971897,-0.05675075460399831,0.91021728515625,0.3929595947265625,-0.3597869873046875
20220205-1714,2022-02-05 17:14:46Z,u01, 140,40,movements,el-ex, rt, d,13367.311915166667, 1.3305252240653371, -0.3223332408245568, 0.08181137322320942, 1.0684500932693481, 0.8344232439994812, -0.26072487235069275, 0.9212517738342285, 0.3167805075645447, -0.2257104218006134, 0.055600523948669434, 0.05796003341674805, -0.13383255898952484, -0.15106028990314174, 0.6035938843578247, 0.7799599847145084,-0.06721285327718735,0.99658203125,0.3380126953125,-0.3395233154296875
20220205-1714,2022-02-05 17:14:47Z,u01, 141,40,movements,el-ex, rt, d,13367.336860166668, 1.3388020268161784, -0.3224844669866636, 0.05674217704276187, 0.6152830123901367, 0.5050686001777649, -0.21978963911533356, 0.9230417609214783, 0.31692394614219666, -0.2180667519569397, 0.07935380935668945, -0.08361712098121643, -0.09232765436172485, -0.14322128390640235, 0.608649560863558, 0.7765358656694166,-0.07762348822781834,0.9741363525390625,0.179229736328125,-0.2911224365234375
20220205-1714,2022-02-05 17:14:47Z,u01, 142,40,movements,el-ex, rt, d,13367.361805166667, 1.3493569317103222, -0.3259290215015701, 0.05041590953373091, -0.12023115903139114, 0.5373429656028748, -0.17669989168643951, 0.9242215752601624, 0.3201890289783478, -0.20807118713855743, -0.024105548858642578, -0.11852893233299255, -0.030744224786758423, -0.14219325617684792, 0.6129808204940763, 0.7728709884583911,-0.08189077665477906,0.88629150390625,0.234375,-0.2261810302734375
20220205-1714,2022-02-05 17:14:47Z,u01, 143,40,movements,el-ex, rt, d,13367.386750166668, 1.3654905276020948, -0.33096612390826846, 0.05136353827336767, 0.08279891312122345, 0.6966092586517334, -0.2064271718263626, 0.9258672595024109, 0.32495686411857605, -0.19280245900154114, -0.040033578872680664, -0.012044936418533325, -0.0305558443069458, -0.14374181668780386, 0.6188190834897381, 0.7676611840046431,-0.08424663003425875,0.9190521240234375,0.3395233154296875,-0.242919921875
20220205-1714,2022-02-05 17:14:47Z,u01, 144,40,movements,el-ex, rt, d,13367.411695166667, 1.378576182792788, -0.3344007116965623, 0.04274739665196284, 0.40449196100234985, 0.5062424540519714, -0.16242702305316925, 0.9272098541259766, 0.32820314168930054, -0.18045644462108612, 0.08147233724594116, -0.0188923180103302, -0.05288104712963104, -0.14180149366796474, 0.6242308203478848, 0.7630255188563249,-0.08955567124506852,1.0165557861328125,0.296844482421875,-0.2227630615234375
20220205-1714,2022-02-05 17:14:47Z,u01, 145,40,movements,el-ex, rt, d,13367.436640166667, 1.3852118896564163, -0.3356432019879855, 0.035560785381938596, 0.004644862376153469, 0.2691386342048645, -0.08538062870502472, 0.927985429763794, 0.32937654852867126, -0.17422445118427277, 0.054116010665893555, -0.09321632981300354, -0.019974231719970703, -0.13972069207505614, 0.6271888897993886, 0.7605491204632455,-0.09315188085863313,0.9375457763671875,0.2368927001953125,-0.1925048828125
20220205-1714,2022-02-05 17:14:47Z,u01, 146,40,movements,el-ex, rt, d,13367.461586166668, 1.3949277239153886, -0.3394774913830912, 0.04355913853950038, -0.5698654055595398, 0.30521342158317566, -0.12334838509559631, 0.928384006023407, 0.3329944610595703, -0.16497802734375, -0.05187344551086426, -0.04506117105484009, 0.0004881620407104492, -0.14323209980451937, 0.6300758306521239, 0.7576421203487878,-0.09201837300083654,0.8765869140625,0.31011962890625,-0.1637420654296875
20220205-1714,2022-02-05 17:14:47Z,u01, 147,40,movements,el-ex, rt, d,13367.486531166667, 1.4084015616350305, -0.34619324237268645, 0.05743447158129587, -0.4449354410171509, 0.4388558268547058, -0.17740289866924286, 0.9282945990562439, 0.3393193781375885, -0.15208950638771057, -0.027370035648345947, 0.009481191635131836, -0.0024669021368026733, -0.1495219777734575, 0.6337179364880156, 0.7536321876709922,-0.08990610043589464,0.9273834228515625,0.354583740234375,-0.14666748046875
20220205-1714,2022-02-05 17:14:47Z,u01, 148,40,movements,el-ex, rt, d,13367.511476166668, 1.4215967230857764, -0.3508226831238542, 0.061962296684742735, 0.07795339822769165, 0.47863906621932983, -0.15533581376075745, 0.9286572933197021, 0.34367048740386963, -0.13959264755249023, 0.058479487895965576, 0.027423173189163208, -0.032343506813049316, -0.15208977150929626, 0.6380222410874797, 0.7493808259661896,-0.09068976970278325,0.9953460693359375,0.3751678466796875,-0.159393310546875
20220205-1714,2022-02-05 17:14:47Z,u01, 149,40,movements,el-ex, rt, d,13367.536421166667, 1.4294280114018463, -0.3529556264023998, 0.05567711364891784, 0.2689070403575897, 0.3541254997253418, -0.11222496628761292, 0.9289941787719727, 0.34567272663116455, -0.13221228122711182, 0.05776107311248779, 0.009948521852493286, -0.009603023529052734, -0.15050783819754016, 0.6412809467313912, 0.7464645143776593,-0.09432310471047772,0.9521484375,0.3306427001953125,-0.129364013671875
20220205-1714,2022-02-05 17:14:47Z,u01, 150,40,movements,el-ex, rt, d,13367.561366166667, 1.4367311534130904, -0.3556386039699303, 0.05041435830601483, 0.09068597108125687, 0.3695085942745209, -0.156190425157547, 0.9290124773979187, 0.3481890857219696, -0.12529981136322021, -0.017086267471313477, -0.03430056571960449, -0.026189565658569336, -0.14945721730582065, 0.6442147416113891, 0.743709591841186,-0.09770309401304084,0.9168701171875,0.31842041015625,-0.162384033203125
20220205-1714,2022-02-05 17:14:47Z,u01, 151,40,movements,el-ex, rt, d,13367.586311166668, 1.4446779173927418, -0.35990279978683914, 0.047753496176055295, 0.08157289773225784, 0.3208409249782562, -0.17030304670333862, 0.9284974932670593, 0.3521832525730133, -0.11772546172142029, 0.0282132625579834, -0.01797008514404297, -0.08204269409179688, -0.14977435449397428, 0.6470741152361537, 0.7407611655339197,-0.10067564778781873,0.9795074462890625,0.326385498046875,-0.2063140869140625
20220205-1714,2022-02-05 17:14:47Z,u01, 152,40,movements,el-ex, rt, d,13367.611256166667, 1.4511161061358324, -0.36338560381148644, 0.04534429774503298, 0.08927259594202042, 0.22447329759597778, -0.1418115496635437, 0.9280127286911011, 0.35544079542160034, -0.11159809678792953, 0.05302053689956665, -0.06836196780204773, -0.1256456971168518, -0.14994356600943787, 0.6493980894455978, 0.7383434758203079,-0.10318869034881734,0.9781036376953125,0.2819671630859375,-0.2447357177734375
20220205-1714,2022-02-05 17:14:47Z,u01, 153,40,movements,el-ex, rt, d,13367.636201166668, 1.455081016892073, -0.3652075009365098, 0.0426908823201732, 0.08910898119211197, 0.15515607595443726, -0.04733637720346451, 0.9278032183647156, 0.3571431040763855, -0.10784280300140381, 0.0292586088180542, -0.09507343173027039, -0.14563633501529694, -0.1495416274704609, 0.6509346349226439, 0.7368062590005615,-0.10506178101875185,0.947601318359375,0.25048828125,-0.2640380859375
20220205-1714,2022-02-05 17:14:47Z,u01, 154,40,movements,el-ex, rt, d,13367.661146166667, 1.4566311296380512, -0.3656944358784239, 0.041551528629238804, -0.010808894410729408, -0.00559884961694479, 0.0026805829256772995, 0.9277962446212769, 0.35759788751602173, -0.10638463497161865, 0.032332420349121094, -0.10286778211593628, -0.1983945220708847, -0.1492670091843751, 0.6515573968140098, 0.7362116820641897,-0.10575711845866176,0.9713592529296875,0.25701904296875,-0.3094635009765625
20220205-1714,2022-02-05 17:14:47Z,u01, 155,40,movements,el-ex, rt, d,13367.686092166667, 1.4548546001085414, -0.36453624829605275, 0.04475524785216861, -0.2545554041862488, -0.21618013083934784, 0.11340250074863434, 0.9280165433883667, 0.3565160632133484, -0.10808056592941284, 0.07866668701171875, -0.08149173855781555, -0.1733373999595642, -0.14997969442668824, 0.6507425059701124, 0.7370284218735604,-0.10406378743314804,1.0279541015625,0.26959228515625,-0.26239013671875
20220205-1714,2022-02-05 17:14:47Z,u01, 156,40,movements,el-ex, rt, d,13367.711037166668, 1.450750195980905, -0.36229692807807096, 0.05481265077076489, -0.40633440017700195, -0.37221387028694153, 0.14203819632530212, 0.9283552765846252, 0.35442298650741577, -0.11198391765356064, 0.07179707288742065, -0.07440903782844543, -0.11048934608697891, -0.15263580029716428, 0.6486218891746942, 0.7390059842416974,-0.09930704798242118,0.98193359375,0.2899169921875,-0.2109375
20220205-1714,2022-02-05 17:14:47Z,u01, 157,40,movements,el-ex, rt, d,13367.735982166667, 1.4450192155584773, -0.3593082408591151, 0.06395883638017513, -0.21296831965446472, -0.3406164050102234, 0.1578255593776703, 0.9287450313568115, 0.3516267240047455, -0.1174347922205925, 0.0027428269386291504, -0.031817883253097534, -0.07326970994472504, -0.15477808336212864, 0.6460080095731342, 0.7414759318398392,-0.09450214615686153,0.91070556640625,0.3262176513671875,-0.1961669921875
20220205-1714,2022-02-05 17:14:47Z,u01, 158,40,movements,el-ex, rt, d,13367.760927166668, 1.4391287130084942, -0.3560451380210307, 0.06752967635534382, -0.05422281473875046, -0.28262725472450256, 0.11834059655666351, 0.9291699528694153, 0.3485701382160187, -0.12305351346731186, 0.022307157516479492, -0.024610847234725952, -0.10103721916675568, -0.15500461855558378, 0.6437754365099972, 0.743724697087099,-0.09165355849033491,0.9737396240234375,0.3259124755859375,-0.226104736328125
20220205-1714,2022-02-05 17:14:47Z,u01, 159,40,movements,el-ex, rt, d,13367.785872166667, 1.4307664117791739, -0.3529052139670583, 0.07053579443075124, -0.17910027503967285, -0.4793029725551605, 0.15801377594470978, 0.9291874766349792, 0.3456254303455353, -0.13097120821475983, 0.0789148211479187, -0.029753297567367554, -0.07630430161952972, -0.1551898802046831, 0.6406484982903102, 0.7467187741001742,-0.08886233353689238,1.0018310546875,0.3104095458984375,-0.1953582763671875
20220205-1714,2022-02-05 17:14:47Z,u01, 160,40,movements,el-ex, rt, d,13367.810817166668, 1.4206921168240743, -0.3500142717892157, 0.07895367134460446, -0.39690303802490234, -0.5144780278205872, 0.1333523839712143, 0.9288051128387451, 0.3429112136363983, -0.14047417044639587, 0.011212587356567383, -0.033203572034835815, -0.04337908327579498, -0.15724307025447967, 0.636425589906547, 0.75045536737977,-0.08398735337942875,0.9264373779296875,0.3155364990234375,-0.1848602294921875
20220205-1714,2022-02-05 17:14:47Z,u01, 161,40,movements,el-ex, rt, d,13367.835762166667, 1.4119427638880389, -0.34800247123193245, 0.08844629560994959, -0.2513540983200073, -0.43819066882133484, 0.13799241185188293, 0.928219735622406, 0.34102070331573486, -0.148703932762146, -0.014630317687988281, -0.01706141233444214, -0.06142495572566986, -0.15986416564425437, 0.6325278489039512, 0.7537234490506952,-0.07907474756971383,0.9241180419921875,0.3319091796875,-0.2178955078125
20220205-1714,2022-02-05 17:14:47Z,u01, 162,40,movements,el-ex, rt, d,13367.860707166668, 1.4027010805523787, -0.3449008469739854, 0.09400953662413034, -0.1552073210477829, -0.4942408800125122, 0.17304733395576477, 0.9278441071510315, 0.33810335397720337, -0.15745197236537933, 0.06336665153503418, -0.015166431665420532, -0.06169484555721283, -0.16081932426619538, 0.6288172686886562, 0.7570108061253871,-0.07523603216033276,1.003204345703125,0.319732666015625,-0.221221923828125
20220205-1714,2022-02-05 17:14:47Z,u01, 163,40,movements,el-ex, rt, d,13367.885652166668, 1.39046081835236, -0.34087781865699024, 0.09874815082704262, -0.13255107402801514, -0.5780879855155945, 0.20076803863048553, 0.9271782040596008, 0.3343145251274109, -0.16903957724571228, 0.07822340726852417, -0.008264750242233276, -0.06376391649246216, -0.16124585547508463, 0.6240833175744656, 0.7612194862752355,-0.07116642453269656,0.9810638427734375,0.334197998046875,-0.2407379150390625
20220205-1714,2022-02-05 17:14:47Z,u01, 164,40,movements,el-ex, rt, d,13367.910600125, 1.3767022061104677, -0.33687057937682635, 0.10168962936517412, -0.011638070456683636, -0.5618056058883667, 0.14732111990451813, 0.9260717034339905, 0.3305351734161377, -0.18203675746917725, 0.0001366138458251953, 0.020554184913635254, -0.06832955777645111, -0.16112923940810497, 0.6188852777744419, 0.7657936146858593,-0.06766335034251308,0.9191131591796875,0.348541259765625,-0.2465667724609375
20220205-1714,2022-02-05 17:14:47Z,u01, 165,40,movements,el-ex, rt, d,13367.935545125001, 1.3633544688689176, -0.33323656646555844, 0.10228505029570654, -0.029228249564766884, -0.55213463306427, 0.1299501210451126, 0.9247289299964905, 0.32710325717926025, -0.19462727010250092, 0.015456557273864746, -0.0021826624870300293, -0.06471121311187744, -0.1603803259635314, 0.6139743582719088, 0.7701040494019236,-0.06521785211689746,0.970550537109375,0.3210296630859375,-0.266265869140625
20220205-1714,2022-02-05 17:14:47Z,u01, 166,40,movements,el-ex, rt, d,13367.960490125, 1.3498609480067876, -0.3299422421719027, 0.10588535072715302, -0.19476361572742462, -0.6471046805381775, 0.1770962029695511, 0.9230650663375854, 0.3239883780479431, -0.20732206106185913, 0.09460461139678955, -0.007597446441650391, -0.05421367287635803, -0.1606546641768591, 0.6087109740948988, 0.7745012822370527,-0.06171557840762343,1.0223388671875,0.314727783203125,-0.2637786865234375
20220205-1714,2022-02-05 17:14:47Z,u01, 167,40,movements,el-ex, rt, d,13367.985435125001, 1.334850933375853, -0.32660172506496465, 0.11298772720284543, -0.25455495715141296, -0.7103854417800903, 0.17454400658607483, 0.9208963513374329, 0.3208262622356415, -0.22140513360500336, 0.08743482828140259, -0.010996609926223755, -0.0644683688879013, -0.16197062737142137, 0.6025470487652039, 0.7794140945918815,-0.05671081777435488,0.9851531982421875,0.318603515625,-0.3009033203125
20220205-1714,2022-02-05 17:14:47Z,u01, 168,40,movements,el-ex, rt, d,13368.010380125, 1.319017447041388, -0.3240709585591908, 0.11886474766653604, -0.08276215195655823, -0.715472400188446, 0.12519964575767517, 0.9180588722229004, 0.31842824816703796, -0.2361593097448349, 0.03770577907562256, 0.01302310824394226, -0.09460562467575073, -0.16318858707839476, 0.5960619350979167, 0.7844355812183852,-0.05234889984249763,0.95330810546875,0.3357696533203125,-0.344818115234375
20220205-1714,2022-02-05 17:14:47Z,u01, 169,40,movements,el-ex, rt, d,13368.035325125002, 1.300110942661477, -0.32085326511798223, 0.11797859048049382, 0.21244196593761444, -0.7833876609802246, 0.11879720538854599, 0.9144126176834106, 0.3153764009475708, -0.25374600291252136, 0.04167240858078003, 0.018379002809524536, -0.12078100442886353, -0.16216264273026135, 0.5889229851370743, 0.7901610912347413,-0.05018243089009622,0.959930419921875,0.333648681640625,-0.370391845703125
20220205-1714,2022-02-05 17:14:47Z,u01, 170,40,movements,el-ex, rt, d,13368.060270125, 1.2782772359800716, -0.3159014490491626, 0.11232811409134859, 0.17802533507347107, -0.820153534412384, 0.12534284591674805, 0.9101392030715942, 0.31067344546318054, -0.27409595251083374, 0.045488178730010986, -0.015126019716262817, -0.058896780014038086, -0.15911494399797826, 0.5810632162700928, 0.7966358499785856,-0.04918578633997567,0.9611663818359375,0.28472900390625,-0.3454742431640625
20220205-1714,2022-02-05 17:14:47Z,u01, 171,40,movements,el-ex, rt, d,13368.085215125, 1.258509631944209, -0.31451262090248266, 0.11671927121085529, -0.42181703448295593, -0.8830363154411316, 0.08275311440229416, 0.904953122138977, 0.3093530237674713, -0.29216474294662476, 0.07022058963775635, -0.04015755653381348, -0.04394069314002991, -0.16030158225903332, 0.5729057764504667, 0.802506890976538,-0.045440969103309414,0.98138427734375,0.2692108154296875,-0.3529205322265625
20220205-1714,2022-02-05 17:14:47Z,u01, 172,40,movements,el-ex, rt, d,13368.110160125001, 1.2382089998541843, -0.3146703326353774, 0.12549894828961292, -0.13182495534420013, -0.9358461499214172, 0.1013445109128952, 0.8987900018692017, 0.3095030188560486, -0.31045854091644287, 0.041227638721466064, 0.02471020817756653, -0.09554743766784668, -0.1632949151591803, 0.5640084277047106, 0.8084581145198393,-0.04030862588857015,0.925933837890625,0.350311279296875,-0.4134979248046875
20220205-1714,2022-02-05 17:14:47Z,u01, 173,40,movements,el-ex, rt, d,13368.135106125, 1.2152105770507664, -0.3117430093519052, 0.12609624009443024, 0.13056787848472595, -0.9303891062736511, 0.12674620747566223, 0.8922582864761353, 0.306718111038208, -0.331359326839447, 0.021361589431762695, 0.012602508068084717, -0.08139100670814514, -0.16273686250114539, 0.5548306511268188, 0.8150365619435402,-0.03734933588473788,0.9383544921875,0.29364013671875,-0.4166107177734375
20220205-1714,2022-02-05 17:14:47Z,u01, 174,40,movements,el-ex, rt, d,13368.160051125002, 1.1905900323316687, -0.3083480566064062, 0.12532488665081923, 0.03168603777885437, -1.0418903827667236, 0.11881158500909805, 0.8847923874855042, 0.3034850060939789, -0.35360899567604065, 0.11282718181610107, -0.0023681223392486572, -0.04554581642150879, -0.16159748322400336, 0.5450520671853056, 0.821948828231021,-0.03470796469337861,0.9960479736328125,0.311431884765625,-0.3981781005859375
20220205-1714,2022-02-05 17:14:47Z,u01, 175,40,movements,el-ex, rt, d,13368.184996125, 1.1645837929754161, -0.30581873590371206, 0.12655582110145658, -0.09883921593427658, -1.041489839553833, 0.13350771367549896, 0.8760004639625549, 0.3010740280151367, -0.3767990469932556, 0.08286172151565552, 0.020672738552093506, -0.008363395929336548, -0.1613289436832221, 0.5343907331188599, 0.8291041208030995,-0.03139747484037414,0.9245758056640625,0.2790985107421875,-0.383026123046875
20220205-1714,2022-02-05 17:14:47Z,u01, 176,40,movements,el-ex, rt, d,13368.209941125, 1.1409831165035607, -0.30420772265935697, 0.131476943652323, -0.1069340631365776, -0.9752357602119446, 0.1405295878648758, 0.8673044443130493, 0.2995373606681824, -0.3975679874420166, 0.030690431594848633, -0.0011975467205047607, -0.01658618450164795, -0.16231416006455154, 0.5242805682905678, 0.8354968379942789,-0.027000270880623123,0.9009857177734375,0.3058319091796875,-0.427337646484375
20220205-1714,2022-02-05 17:14:47Z,u01, 177,40,movements,el-ex, rt, d,13368.234886125001, 1.1166184733445295, -0.29950126612771116, 0.13130476101249397, 0.2855483889579773, -0.9888390898704529, 0.19466853141784668, 0.8586187362670898, 0.2950437068939209, -0.4191933274269104, 0.047982096672058105, 0.025390833616256714, -0.04391103982925415, -0.16063012133472576, 0.5143941140305115, 0.8420380465247677,-0.02384393933446094,0.9068450927734375,0.306304931640625,-0.4766845703125
20220205-1714,2022-02-05 17:14:47Z,u01, 178,40,movements,el-ex, rt, d,13368.259831125, 1.0895286108058657, -0.29061129195895274, 0.1245624271793524, 0.41047948598861694, -1.0236190557479858, 0.20496630668640137, 0.8492407202720642, 0.28653794527053833, -0.44349321722984314, 0.056292057037353516, 0.021781116724014282, -0.028110265731811523, -0.15551001587864793, 0.5040535966947104, 0.8492660989036133,-0.022219035349265448,0.9055023193359375,0.307403564453125,-0.4644927978515625
20220205-1714,2022-02-05 17:14:47Z,u01, 179,40,movements,el-ex, rt, d,13368.284776125001, 1.063037694744659, -0.2837679928421242, 0.12136593999146579, 0.022989749908447266, -1.0248525142669678, 0.1605643630027771, 0.838889479637146, 0.27997493743896484, -0.46677467226982117, 0.05898338556289673, 0.014122962951660156, 0.011177659034729004, -0.15210409800637623, 0.49343389433516344, 0.8561518236415786,-0.019786365138368622,0.8912811279296875,0.2821044921875,-0.4534149169921875
20220205-1714,2022-02-05 17:14:47Z,u01, 180,40,movements,el-ex, rt, d,13368.309721125, 1.0383971001134789, -0.28134140612474007, 0.12537655079917087, -0.11215485632419586, -1.0292538404464722, 0.149347722530365, 0.8277172446250916, 0.2776445746421814, -0.4876450002193451, 0.05074644088745117, 0.011601001024246216, 0.00807642936706543, -0.15226873727958717, 0.48269217244704543, 0.8623107229644214,-0.015577873639938566,0.87042236328125,0.30157470703125,-0.48870849609375
20220205-1714,2022-02-05 17:14:48Z,u01, 181,40,movements,el-ex, rt, d,13368.334666125002, 1.0134819322897772, -0.2779586593156892, 0.12767068705457413, 0.1494971513748169, -1.0120508670806885, 0.175313338637352, 0.8161042928695679, 0.274393230676651, -0.5086081027984619, 0.045498430728912354, 0.018728047609329224, -0.02291661500930786, -0.15153808541426034, 0.47194508791210155, 0.8684258163557013,-0.011859495713394619,0.862335205078125,0.2854766845703125,-0.549163818359375
20220205-1714,2022-02-05 17:14:48Z,u01, 182,40,movements,el-ex, rt, d,13368.359612125001, 0.9871015581256314, -0.27133010313486583, 0.12438621292032832, 0.2592151165008545, -1.0313911437988281, 0.14686119556427002, 0.8039045929908752, 0.2680131196975708, -0.5309484601020813, 0.061985790729522705, 0.03588089346885681, -0.0017969608306884766, -0.14805264940949078, 0.4610923783518161, 0.8748598162781176,-0.009718755016623282,0.86907958984375,0.30975341796875,-0.526092529296875
20220205-1714,2022-02-05 17:14:48Z,u01, 183,40,movements,el-ex, rt, d,13368.384557125, 0.9605275004001327, -0.26755200963181935, 0.12433047850839972, -0.06924257427453995, -1.104697346687317, 0.08225037902593613, 0.790337085723877, 0.2643713355064392, -0.5526978373527527, 0.07537013292312622, 0.021776676177978516, 0.02947390079498291, -0.14650651925896993, 0.4496520092909073, 0.8810795278759296,-0.006898165906261189,0.8427276611328125,0.276580810546875,-0.5296173095703125
20220205-1714,2022-02-05 17:14:48Z,u01, 184,40,movements,el-ex, rt, d,13368.409502125001, 0.9344908588031945, -0.2667196333819725, 0.12809113377300424, -0.10780967772006989, -1.0549042224884033, 0.14021646976470947, 0.7758572697639465, 0.2635684907436371, -0.5732164978981018, 0.03032553195953369, -0.009647011756896973, 0.02864551544189453, -0.14704157045512928, 0.4379161138368324, 0.8869038411997794,-0.0031341825177122473,0.8045196533203125,0.2531890869140625,-0.5503997802734375
20220205-1714,2022-02-05 17:14:48Z,u01, 185,40,movements,el-ex, rt, d,13368.434447125, 0.9097577086620161, -0.2651085441065339, 0.13180864060632083, -0.028106724843382835, -1.0186269283294678, 0.11989867687225342, 0.7617781162261963, 0.2620140314102173, -0.5924885272979736, 0.056428492069244385, -0.00931328535079956, 0.008031070232391357, -0.14714976953622533, 0.42673490706749606, 0.8923248631046519,0.0006992329371676709,0.824554443359375,0.2790679931640625,-0.593475341796875
20220205-1714,2022-02-05 17:14:48Z,u01, 186,40,movements,el-ex, rt, d,13368.459392125002, 0.8841014125475881, -0.26186806135466956, 0.13287847218091428, 0.13506925106048584, -1.0494942665100098, 0.13408981263637543, 0.7469807267189026, 0.25888538360595703, -0.6123709082603455, 0.08042699098587036, 0.03917974233627319, -0.004648864269256592, -0.14590823456004245, 0.4153617030257168, 0.897870368891614,0.0037653720861686724,0.8175201416015625,0.2963714599609375,-0.617950439453125
20220205-1714,2022-02-05 17:14:48Z,u01, 187,40,movements,el-ex, rt, d,13368.484337125, 0.857613607384708, -0.25704934313234773, 0.13080324501927662, 0.2221025824546814, -1.0201879739761353, 0.07037001848220825, 0.7314351797103882, 0.25422796607017517, -0.6327484846115112, 0.057154178619384766, 0.03431570529937744, 0.01403498649597168, -0.1432671931048639, 0.40385675569858526, 0.9035158262296967,0.005769868832045277,0.7778167724609375,0.260467529296875,-0.61279296875
20220205-1714,2022-02-05 17:14:48Z,u01, 188,40,movements,el-ex, rt, d,13368.509282125, 0.8318159493556191, -0.25289576589237983, 0.1284708893843033, 0.12284340709447861, -1.0101302862167358, 0.0656144767999649, 0.7156445980072021, 0.25020867586135864, -0.652110755443573, 0.0746384859085083, 0.0027057230472564697, 0.019328713417053223, -0.14084981950004438, 0.3925633000831845, 0.9088457274463979,0.007403712659469208,0.792266845703125,0.256439208984375,-0.644012451171875
20220205-1714,2022-02-05 17:14:48Z,u01, 189,40,movements,el-ex, rt, d,13368.534227125001, 0.8060403371757124, -0.24969813988593187, 0.12733357112937516, 0.14861857891082764, -1.0245743989944458, 0.052777573466300964, 0.6991739273071289, 0.2471114695072174, -0.6708888411521912, 0.09066671133041382, 0.014469936490058899, -0.01636713743209839, -0.1390749551417584, 0.3810692135268577, 0.9139788949899363,0.009331212568315095,0.78082275390625,0.2776031494140625,-0.6974945068359375
20220205-1714,2022-02-05 17:14:48Z,u01, 190,40,movements,el-ex, rt, d,13368.559172125, 0.7793466050245156, -0.24623098225846668, 0.1242547404000738, 0.22834064066410065, -1.060564637184143, -0.022584959864616394, 0.6816164255142212, 0.24375036358833313, -0.6899164319038391, 0.08077359199523926, 0.05767171084880829, -0.020868539810180664, -0.1367869060179325, 0.3692304395066027, 0.9191567704050716,0.010436380869870476,0.756683349609375,0.3035888671875,-0.7110595703125
20220205-1714,2022-02-05 17:14:48Z,u01, 191,40,movements,el-ex, rt, d,13368.584118125002, 0.7511038454746463, -0.2431257187055672, 0.11769345904113399, 0.2866613566875458, -1.076161503791809, -0.1332041472196579, 0.6623753905296326, 0.24073758721351624, -0.7094392776489258, 0.06894773244857788, 0.07641631364822388, -0.009631156921386719, -0.13402949836704764, 0.35681429382301316, 0.9244572879871333,0.009909221258008638,0.724700927734375,0.306915283203125,-0.7280731201171875
20220205-1714,2022-02-05 17:14:48Z,u01, 192,40,movements,el-ex, rt, d,13368.609063125, 0.7223013501907289, -0.24119174043759375, 0.11135221126744947, 0.10107167065143585, -1.1018239259719849, -0.12089388817548752, 0.6419764757156372, 0.23886004090309143, -0.728568434715271, 0.05951571464538574, 0.013962790369987488, 0.03058558702468872, -0.131888931028375, 0.34397831985794625, 0.9296229193928648,0.009235910711896334,0.6967010498046875,0.2301788330078125,-0.6894989013671875
20220205-1714,2022-02-05 17:14:48Z,u01, 193,40,movements,el-ex, rt, d,13368.634008125, 0.6948043549732258, -0.24446637535856003, 0.1102507001263435, -0.19940294325351715, -1.0904016494750977, -0.13154813647270203, 0.6211987733840942, 0.24203860759735107, -0.7453383803367615, 0.06915450096130371, -0.046710893511772156, 0.0567549467086792, -0.13308920267982613, 0.3310861832036601, 0.9341144070144676,0.009970941889419271,0.6906585693359375,0.2116851806640625,-0.7010345458984375
20220205-1714,2022-02-05 17:14:48Z,u01, 194,40,movements,el-ex, rt, d,13368.658953125001, 0.6678318109690764, -0.25018029132207675, 0.110084621958456, -0.07359211891889572, -1.0639928579330444, -0.14656029641628265, 0.6000053286552429, 0.24757863581180573, -0.760722279548645, 0.06523197889328003, 0.0270795077085495, 0.004237234592437744, -0.13558431493291884, 0.31820708121119934, 0.9382141669533275,0.010740817604212582,0.6568756103515625,0.2761993408203125,-0.7701416015625
20220205-1714,2022-02-05 17:14:48Z,u01, 195,40,movements,el-ex, rt, d,13368.683898125, 0.6404776605002654, -0.25045943480380745, 0.10632571714182781, 0.18726114928722382, -1.057125210762024, -0.1158226951956749, 0.5789332389831543, 0.24784909188747406, -0.7767928242683411, 0.05186504125595093, 0.010512664914131165, -0.013429403305053711, -0.13498158952592598, 0.30558723917559866, 0.9424861255566288,0.010778371291156386,0.61505126953125,0.25079345703125,-0.79278564453125
20220205-1714,2022-02-05 17:14:48Z,u01, 196,40,movements,el-ex, rt, d,13368.708843125001, 0.6124820940165377, -0.24659445784686848, 0.09983320735712836, 0.3377748131752014, -1.0721760988235474, -0.10394832491874695, 0.5575090050697327, 0.2441028654575348, -0.7934717535972595, 0.06807070970535278, 0.024116098880767822, -0.019425034523010254, -0.13204520463759767, 0.2929644662770788, 0.9469066081562831,0.01018228403362964,0.630218505859375,0.2656402587890625,-0.81982421875
20220205-1714,2022-02-05 17:14:48Z,u01, 197,40,movements,el-ex, rt, d,13368.733788125, 0.5833358647739756, -0.24180242924699266, 0.09300152024055275, 0.20942147076129913, -1.1508560180664062, -0.12412316352128983, 0.5347869992256165, 0.2394530028104782, -0.8103487491607666, 0.09300529956817627, 0.01803898811340332, -0.015411198139190674, -0.12865718151791466, 0.27977303015141575, 0.9513585251950079,0.009552753513898227,0.6178436279296875,0.25408935546875,-0.8203582763671875
20220205-1714,2022-02-05 17:14:48Z,u01, 198,40,movements,el-ex, rt, d,13368.758733125002, 0.553025247370526, -0.24212676923328624, 0.08951383186597109, -0.09251926839351654, -1.1859428882598877, -0.13942661881446838, 0.5099421143531799, 0.2397678941488266, -0.8261176943778992, 0.06639754772186279, -0.02236071228981018, 0.014472126960754395, -0.1281892301988261, 0.26553472202544254, 0.9554909538944052,0.009790434628717815,0.566650390625,0.2218017578125,-0.8070068359375
20220205-1714,2022-02-05 17:14:48Z,u01, 199,40,movements,el-ex, rt, d,13368.783678125, 0.5232939364886593, -0.24736476663287255, 0.08891864526830794, -0.16691714525222778, -1.174095869064331, -0.09284673631191254, 0.48452451825141907, 0.2448497861623764, -0.8398122191429138, 0.06662282347679138, -0.020560890436172485, 0.025465846061706543, -0.13045952408869804, 0.2511457826077042, 0.9590573998316076,0.010723952900408118,0.542510986328125,0.222015380859375,-0.820831298828125
20220205-1714,2022-02-05 17:14:48Z,u01, 200,40,movements,el-ex, rt, d,13368.808624125, 0.49453841285450145, -0.25099242938858124, 0.08836452442154692, -0.04343215376138687, -1.1278998851776123, -0.08030391484498978, 0.45975369215011597, 0.24836541712284088, -0.8526084423065186, 0.06281396746635437, -0.0011120438575744629, 0.02138584852218628, -0.13196700037254763, 0.237235116777934, 0.9623735598700446,0.011882071932447669,0.52197265625,0.2502593994140625,-0.8337249755859375
20220205-1714,2022-02-05 17:14:48Z,u01, 201,40,movements,el-ex, rt, d,13368.833569125001, 0.46595035131366636, -0.250297080892276, 0.08629258012103551, 0.12652063369750977, -1.1270729303359985, -0.039350688457489014, 0.435272216796875, 0.2476917952299118, -0.8655558228492737, 0.07023611664772034, 0.01059366762638092, 0.032120704650878906, -0.1312172248568311, 0.22361604180942327, 0.9657188059232018,0.012848116048830016,0.4974517822265625,0.260040283203125,-0.8421478271484375
20220205-1714,2022-02-05 17:14:48Z,u01, 202,40,movements,el-ex, rt, d,13368.858514125, 0.4374656129206022, -0.24744573871135223, 0.08413117999454058, 0.1017691120505333, -1.0997904539108276, -0.022656865417957306, 0.41074138879776, 0.2449283003807068, -0.878237783908844, 0.05066904425621033, -0.008813858032226562, 0.05473613739013672, -0.12941598142954502, 0.21007761188340823, 0.9689805743628908,0.013982557659393213,0.4541168212890625,0.236785888671875,-0.8171234130859375
20220205-1714,2022-02-05 17:14:48Z,u01, 203,40,movements,el-ex, rt, d,13368.883459125002, 0.41058895016916086, -0.2466328086535673, 0.08312154709473588, -0.010014673694968224, -1.044050931930542, -0.007982314564287663, 0.3870711326599121, 0.24414004385471344, -0.8891409039497375, 0.05802765488624573, -0.01779121160507202, 0.06818747520446777, -0.12872278357513728, 0.19712936718443544, 0.9717694617878292,0.015314031964717867,0.4406585693359375,0.236602783203125,-0.817779541015625
20220205-1714,2022-02-05 17:14:48Z,u01, 204,40,movements,el-ex, rt, d,13368.908404125, 0.38453047763673887, -0.24610593758344793, 0.08351438302487481, 0.0666322410106659, -1.0293842554092407, 0.05714249238371849, 0.363820880651474, 0.2436290830373764, -0.8990435004234314, 0.02924540638923645, 0.001060783863067627, 0.0906481146812439, -0.1282924243078404, 0.18444323042946037, 0.9742816229205138,0.017232443683895315,0.3739471435546875,0.2503662109375,-0.807891845703125
20220205-1714,2022-02-05 17:14:48Z,u01, 205,40,movements,el-ex, rt, d,13368.933349125, 0.3604157662994638, -0.24117283363894512, 0.08285325327631186, 0.38386765122413635, -0.8863583207130432, 0.02775517664849758, 0.34245672821998596, 0.2388416826725006, -0.9086682796478271, -0.022235870361328125, 0.0447733998298645, 0.07482123374938965, -0.1256138925874096, 0.17287859295458619, 0.9767173243239573,0.018905896580310277,0.3136749267578125,0.3074798583984375,-0.875335693359375
20220205-1714,2022-02-05 17:14:48Z,u01, 206,40,movements,el-ex, rt, d,13368.958294125001, 0.3388711691337561, -0.2267513020517202, 0.07741154198899769, 0.7530155181884766, -0.797116756439209, -0.014591680839657784, 0.3239132761955261, 0.22481317818164825, -0.9189881682395935, 0.060028284788131714, 0.10732483863830566, 0.02694404125213623, -0.11791262842282686, 0.16310284559404126, 0.9793565650142808,0.018834237461888892,0.4125823974609375,0.31610107421875,-0.887542724609375
20220205-1714,2022-02-05 17:14:48Z,u01, 207,40,movements,el-ex, rt, d,13368.983239125, 0.3148241201798308, -0.21066193438693978, 0.07148466829582886, 0.4773327708244324, -1.0259063243865967, -0.02437639981508255, 0.30280372500419617, 0.20910724997520447, -0.9298301339149475, 0.14113539457321167, 0.005171865224838257, 0.07703161239624023, -0.10934094314688941, 0.15208385170606978, 0.9821242722949215,0.018626376019307,0.3920135498046875,0.17486572265625,-0.8231353759765625
20220205-1714,2022-02-05 17:14:48Z,u01, 208,40,movements,el-ex, rt, d,13369.008184125001, 0.28871511289592655, -0.20641491116951624, 0.06902358101392086, 0.00902622938156128, -0.9422966837882996, -0.0619388222694397, 0.27867668867111206, 0.20495223999023438, -0.938261091709137, -0.005407124757766724, -0.03124624490737915, 0.11153984069824219, -0.10682937235886497, 0.13948813802765445, 0.9842579242089483,0.019152426304220316,0.258697509765625,0.1878814697265625,-0.8355865478515625
20220205-1714,2022-02-05 17:14:48Z,u01, 209,40,movements,el-ex, rt, d,13369.033130125, 0.2682669558005439, -0.2035951175650551, 0.06607561797248192, 0.3783307373523712, -0.6810712814331055, -0.10117924213409424, 0.2595862150192261, 0.20219148695468903, -0.9443164467811584, 0.0009117424488067627, 0.0291011780500412, 0.06663089990615845, -0.10504859691258381, 0.1296401108575222, 0.9857980689507077,0.018982990852854487,0.2831268310546875,0.2642669677734375,-0.9047088623046875
20220205-1714,2022-02-05 17:14:48Z,u01, 210,40,movements,el-ex, rt, d,13369.058075125, 0.25039559982609905, -0.18654037222723244, 0.059155101823467476, 1.0856170654296875, -0.6763929128646851, -0.07621370255947113, 0.24348856508731842, 0.1854604035615921, -0.9520072340965271, 0.08532297611236572, 0.07148228585720062, 0.0133017897605896, -0.09604242088693996, 0.12154111436774427, 0.9877723074874654,0.017589459389567352,0.3307952880859375,0.2473602294921875,-0.9351654052734375
20220205-1714,2022-02-05 17:14:48Z,u01, 211,40,movements,el-ex, rt, d,13369.083020125001, 0.23087054809868807, -0.15612238497625955, 0.04954561287223696, 1.3385696411132812, -0.7426027655601501, -0.08169442415237427, 0.2260420024394989, 0.15548893809318542, -0.9616279006004333, 0.07301490008831024, 0.040006622672080994, 0.05157846212387085, -0.08028351328011907, 0.1128743233503199, 0.9902383622809482,0.015551359229910633,0.2724609375,0.150909423828125,-0.9136810302734375
20220205-1714,2022-02-05 17:14:48Z,u01, 212,40,movements,el-ex, rt, d,13369.107965125, 0.21129909352745857, -0.12950618768899852, 0.04123656256113558, 0.8156590461730957, -0.7350029945373535, -0.06825624406337738, 0.20797395706176758, 0.12914447486400604, -0.9695712924003601, 0.03757040202617645, -0.048593372106552124, 0.03188818693161011, -0.06650293113216556, 0.10388311049384433, 0.992270009233639,0.01363670571669362,0.245452880859375,0.068634033203125,-0.9381103515625
20220205-1714,2022-02-05 17:14:48Z,u01, 213,40,movements,el-ex, rt, d,13369.132910125001, 0.1928999976248226, -0.116799985524438, 0.036593356000470006, 0.3044745922088623, -0.7039854526519775, -0.06854279339313507, 0.19039975106716156, 0.11653459817171097, -0.974765419960022, 0.04669123888015747, -0.036349713802337646, 0.04176676273345947, -0.05984468728238619, 0.09505737260313055, 0.9935919117438345,0.012559766015599327,0.240264892578125,0.08807373046875,-0.938995361328125
20220205-1714,2022-02-05 17:14:48Z,u01, 214,40,movements,el-ex, rt, d,13369.157855125, 0.17449936391777962, -0.1111572657959719, 0.03420635334895283, 0.2202591449022293, -0.7512105703353882, -0.027205277234315872, 0.17254364490509033, 0.1109284982085228, -0.9787356853485107, 0.0507381409406662, -0.002072349190711975, 0.024908781051635742, -0.056818609214625136, 0.08604533133027793, 0.9945952138908675,0.012171114184803489,0.2199554443359375,0.113800048828125,-0.9503173828125
20220205-1714,2022-02-05 17:14:48Z,u01, 215,40,movements,el-ex, rt, d,13369.182800125001, 0.15506683553955236, -0.10512507532094789, 0.033911166778861586, 0.22785261273384094, -0.7887699604034424, 0.048047132790088654, 0.153593510389328, 0.1049315556883812, -0.982546865940094, 0.05993790924549103, -0.021893277764320374, 0.032824575901031494, -0.053684408273133186, 0.07644957573950854, 0.9955446341317964,0.012811678034422513,0.19024658203125,0.07122802734375,-0.9342041015625
20220205-1714,2022-02-05 17:14:48Z,u01, 216,40,movements,el-ex, rt, d,13369.207745125, 0.13607422909861894, -0.10311750163453268, 0.034259874869508336, -0.030472511425614357, -0.7078822255134583, 0.016215499490499496, 0.13493409752845764, 0.10293485224246979, -0.9854933619499207, -0.0038306713104248047, -0.01023775339126587, 0.06871479749679565, -0.05257209833683438, 0.06700360900876812, 0.9962744532577511,0.013563623498533905,0.12432861328125,0.1045989990234375,-0.931793212890625
20220205-1714,2022-02-05 17:14:48Z,u01, 217,40,movements,el-ex, rt, d,13369.232691125, 0.12027057696797802, -0.10110200126619381, 0.03376967758266347, 0.2394542694091797, -0.57750403881073, -0.02977496199309826, 0.11936815828084946, 0.10092984884977341, -0.9877066612243652, 0.008195236325263977, 0.048056915402412415, 0.03104156255722046, -0.05144436938858835, 0.059162126872283734, 0.9968264032140047,0.013795647968209146,0.1435546875,0.164337158203125,-0.971527099609375
20220205-1714,2022-02-05 17:14:48Z,u01, 218,40,movements,el-ex, rt, d,13369.257636125001, 0.10503390104567947, -0.0927565650202475, 0.03224164863797485, 0.3577280342578888, -0.6507870554924011, -0.01252333726733923, 0.10439018905162811, 0.09262361377477646, -0.9902138710021973, 0.05602537840604782, 0.027432486414909363, 0.018839359283447266, -0.047137005701464486, 0.0516832312830897, 0.9974570901671411,0.013647254130688347,0.156463623046875,0.103668212890625,-0.9506378173828125
20220205-1714,2022-02-05 17:14:48Z,u01, 219,40,movements,el-ex, rt, d,13369.282581125, 0.08765621210520183, -0.08759769046636806, 0.03151338501275398, 0.019705437123775482, -0.720825731754303, -0.004436515271663666, 0.0872083380818367, 0.08748570829629898, -0.992341160774231, 0.04603133350610733, -0.003974400460720062, 0.07350265979766846, -0.04442704425426911, 0.04307741355637432, 0.9979878642809082,0.013807660672035316,0.11968994140625,0.0895538330078125,-0.9165802001953125
20220205-1714,2022-02-05 17:14:48Z,u01, 220,40,movements,el-ex, rt, d,13369.307526125001, 0.07059326645141774, -0.08931760649386208, 0.031167479932187783, -0.08111454546451569, -0.6361109018325806, -0.046720653772354126, 0.07025348395109177, 0.08919889479875565, -0.9935330748558044, 0.03625278174877167, 0.019626744091510773, 0.04065221548080444, -0.04516010541703796, 0.03455458146338069, 0.9982840218927522,0.013982613040750658,0.10003662109375,0.1172027587890625,-0.9634246826171875
20220205-1714,2022-02-05 17:14:49Z,u01, 221,40,movements,el-ex, rt, d,13369.332471125, 0.0550402628503009, -0.08908451650148731, 0.02927252332249531, 0.12308691442012787, -0.6043247580528259, -0.09375873953104019, 0.05479433014988899, 0.0889667347073555, -0.9945262670516968, 0.02584829553961754, 0.03255421668291092, 0.020298361778259277, -0.04490823225532223, 0.0268349758947277, 0.9985408027874699,0.013390569267944463,0.0691680908203125,0.1214599609375,-0.9661102294921875
20220205-1714,2022-02-05 17:14:49Z,u01, 222,40,movements,el-ex, rt, d,13369.357416125002, 0.03957962188341052, -0.08572998689452767, 0.02715181030601344, 0.07008705288171768, -0.6167591214179993, -0.05840880423784256, 0.03942396864295006, 0.08562501519918442, -0.9955471158027649, 0.018925566226243973, -0.00041998177766799927, 0.07940942049026489, -0.043107922661027316, 0.019186899949645425, 0.9988052291874869,0.012712465950610874,0.0630035400390625,0.074371337890625,-0.8982696533203125
20220205-1714,2022-02-05 17:14:49Z,u01, 223,40,movements,el-ex, rt, d,13369.382361125, 0.023422272133422566, -0.08850691037649765, 0.026017833647385108, -0.3048318028450012, -0.6815915703773499, -0.050860270857810974, 0.02332846075296402, 0.08839140087366104, -0.9958125948905945, 0.05836702138185501, -0.05276218056678772, 0.10563009977340698, -0.04438443055937853, 0.01112296781510079, 0.998874626253601,0.01247689025335813,0.0780487060546875,0.0508270263671875,-0.9146881103515625
20220205-1714,2022-02-05 17:14:49Z,u01, 224,40,movements,el-ex, rt, d,13369.407306125, 0.006728226565860653, -0.09732983376047165, 0.024724491467977675, -0.2988409698009491, -0.6093230843544006, -0.06731554120779037, 0.006696332711726427, 0.09717623889446259, -0.9952446818351746, 0.008180912584066391, 0.007483750581741333, 0.06186455488204956, -0.0486832570079281, 0.002758515939215056, 0.998736122070076,0.012183589087374047,-0.00091552734375,0.1136016845703125,-0.9443511962890625
20220205-1714,2022-02-05 17:14:49Z,u01, 225,40,movements,el-ex, rt, d,13369.432251125001, -0.006094214946061351, -0.09921713553286846, 0.022416188681538177, 0.18051499128341675, -0.4286630153656006, -0.12226615101099014, -0.00606420636177063, 0.09905443340539932, -0.9950635433197021, -0.015130322426557541, 0.038656085729599, 0.04134345054626465, -0.04955077287598276, -0.0035989386123871647, 0.9987005879578874,0.011345111258229013,-0.0140228271484375,0.1527252197265625,-0.9571380615234375
20220205-1714,2022-02-05 17:14:49Z,u01, 226,40,movements,el-ex, rt, d,13369.457197125, -0.016689487938374697, -0.08986271391341988, 0.0195154424244537, 0.47140368819236755, -0.43677476048469543, -0.11099404841661453, -0.01662137545645237, 0.08974181860685349, -0.9958263635635376, 0.02142782136797905, 0.032709911465644836, 0.0545269250869751, -0.04483119899307629, -0.008774086845108074, 0.9989047167716052,0.010122172029405796,0.007537841796875,0.0995025634765625,-0.9368133544921875
20220205-1714,2022-02-05 17:14:49Z,u01, 227,40,movements,el-ex, rt, d,13369.482142125002, -0.02872138638132772, -0.08098290082307995, 0.017617529862171993, 0.14566369354724884, -0.5237540006637573, -0.05693633854389191, -0.028623322024941444, 0.08089441061019897, -0.996311604976654, 0.039563801139593124, -0.043647751212120056, 0.08733028173446655, -0.04034825285971753, -0.014704413530437369, 0.9990333999632318,0.009381807435804301,0.01800537109375,0.0269927978515625,-0.9136962890625
20220205-1714,2022-02-05 17:14:49Z,u01, 228,40,movements,el-ex, rt, d,13369.507087125, -0.041919201828257, -0.08329183083282972, 0.01620492869128191, -0.2675390839576721, -0.49517175555229187, -0.057751867920160294, -0.041761644184589386, 0.08319555968046188, -0.9956578016281128, 0.031706035137176514, -0.032643236219882965, 0.09249007701873779, -0.041453707552239774, -0.021276467946613323, 0.99887354150814,0.008966110092194224,-0.02313232421875,0.05999755859375,-0.8906097412109375
20220205-1714,2022-02-05 17:14:49Z,u01, 229,40,movements,el-ex, rt, d,13369.532032125, -0.052339360258632776, -0.08966754468898502, 0.013900743733827802, -0.15908145904541016, -0.34178298711776733, -0.0981307178735733, -0.052105292677879333, 0.08954743295907974, -0.9946186542510986, -0.010486334562301636, 0.009939827024936676, 0.10651135444641113, -0.04462064307878607, -0.026451166523985454, 0.9986207666381076,0.008113684942474608,-0.07257080078125,0.1129913330078125,-0.8875732421875
20220205-1714,2022-02-05 17:14:49Z,u01, 230,40,movements,el-ex, rt, d,13369.556977125001, -0.0603896726777234, -0.08903615820009228, 0.011580998287545103, 0.16403308510780334, -0.28307971358299255, -0.08585620671510696, -0.06011391058564186, 0.08891856670379639, -0.9942232370376587, -0.00011260062456130981, 0.023599699139595032, 0.1295686960220337, -0.04430770145401189, -0.030417408900316127, 0.9985293403894266,0.0071256383306748106,-0.05242919921875,0.0997772216796875,-0.8495941162109375
20220205-1714,2022-02-05 17:14:49Z,u01, 231,40,movements,el-ex, rt, d,13369.581922125, -0.06787767487988688, -0.08645674593111395, 0.010324355979559071, -0.024595845490694046, -0.31754085421562195, -0.02552502229809761, -0.0675722286105156, 0.08634907752275467, -0.9939707517623901, 0.04491285979747772, -0.029800057411193848, 0.17320048809051514, -0.04301444940846222, -0.034123125065446805, 0.9984695876244827,0.006620725472139266,-0.0268096923828125,0.025909423828125,-0.82305908203125
20220205-1714,2022-02-05 17:14:49Z,u01, 232,40,movements,el-ex, rt, d,13369.606867125001, -0.07496650692562262, -0.09007583159099226, 0.00936985129742657, -0.16115142405033112, -0.22774650156497955, -0.03597899526357651, -0.07459267228841782, 0.08995407074689865, -0.9931486248970032, -0.010627731680870056, -0.01562856137752533, 0.16149884462356567, -0.04481518671263629, -0.03764684462881098, 0.9982653994973179,0.006364053748287801,-0.0977935791015625,0.0915985107421875,-0.833984375
20220205-1714,2022-02-05 17:14:49Z,u01, 233,40,movements,el-ex, rt, d,13369.631812125, -0.07824273528871763, -0.08934245959073188, 0.008266684769609465, 0.24487759172916412, -0.052114687860012054, -0.063289113342762, -0.07785118371248245, 0.08922365307807922, -0.9929643869400024, -0.02307051420211792, 0.032648250460624695, 0.14378231763839722, -0.04446032652912458, -0.03925647753269746, 0.9982222571370123,0.005872605932636665,-0.0902099609375,0.10528564453125,-0.854156494140625
20220205-1714,2022-02-05 17:14:49Z,u01, 234,40,movements,el-ex, rt, d,13369.656757125002, -0.07855848278828481, -0.08165921256034722, 0.007207873119849568, 0.25607433915138245, -0.02379489690065384, -0.03873024135828018, -0.07821619510650635, 0.08156848698854446, -0.9935938715934753, 0.029571108520030975, -0.012766659259796143, 0.19487255811691284, -0.04064510831408044, -0.03938315200796005, 0.9983836450507046,0.005201035398466447,-0.0366058349609375,0.04779052734375,-0.7831268310546875
20220205-1714,2022-02-05 17:14:49Z,u01, 235,40,movements,el-ex, rt, d,13369.681703125001, -0.0794606519512022, -0.08098670606894158, 0.006702346614259538, -0.2298073172569275, -0.04671572521328926, -0.017134467139840126, -0.07911688834428787, 0.08089820295572281, -0.9935773611068726, 0.0443115308880806, -0.08259198814630508, 0.22299331426620483, -0.04031711630804434, -0.039822648278465704, 0.9983807383342245,0.004953720100043468,-0.051971435546875,0.0030517578125,-0.7813720703125
20220205-1714,2022-02-05 17:14:49Z,u01, 236,40,movements,el-ex, rt, d,13369.706648125, -0.07950966587179191, -0.08913400425400439, 0.005620731296490421, -0.3287535011768341, 0.09209968149662018, -0.013628149405121803, -0.07911061495542526, 0.08901602774858475, -0.9928835034370422, -0.019888482987880707, -0.011638760566711426, 0.21849995851516724, -0.04440528693254101, -0.03982984954962365, 0.9982088214377369,0.004576046717697846,-0.0974273681640625,0.0915679931640625,-0.7715911865234375
20220205-1714,2022-02-05 17:14:49Z,u01, 237,40,movements,el-ex, rt, d,13369.731593125001, -0.07479222823279066, -0.09441558196328616, 0.004358193091438727, -0.07939018309116364, 0.2581108808517456, -0.042009059339761734, -0.07438971847295761, 0.09427537024021149, -0.9927629828453064, 0.010333247482776642, 0.007241308689117432, 0.2077593207359314, -0.04707577526038439, -0.037448418838248225, 0.9981812921748091,0.0039394624081053875,-0.0518035888671875,0.0842437744140625,-0.7942352294921875
20220205-1714,2022-02-05 17:14:49Z,u01, 238,40,movements,el-ex, rt, d,13369.756538125, -0.06803182167768058, -0.09525145137465713, 0.0036114202647812756, -0.06740792095661163, 0.28597161173820496, 0.006274119019508362, -0.06767120212316513, 0.09510748088359833, -0.9931642413139343, 0.011518791317939758, -0.032714344561100006, 0.21783465147018433, -0.047518762827440976, -0.034056648040946824, 0.9982837588050293,0.00342172324169282,-0.05560302734375,0.055267333984375,-0.7684783935546875
20220205-1714,2022-02-05 17:14:49Z,u01, 239,40,movements,el-ex, rt, d,13369.781483125002, -0.059951815885561505, -0.10016358106052914, 0.003776151535730188, -0.3024556338787079, 0.37779921293258667, 0.028387609869241714, -0.0596156008541584, 0.0999961793422699, -0.9932002425193787, 0.007216848433017731, -0.05896534025669098, 0.22319597005844116, -0.0499817630319974, -0.030028263716600966, 0.9982928429770921,0.0033852526482832657,-0.0402374267578125,0.05706787109375,-0.7801513671875
20220205-1714,2022-02-05 17:14:49Z,u01, 240,40,movements,el-ex, rt, d,13369.806428125, -0.049063762845988075, -0.10764462054801188, 0.003710549501855676, -0.24670381844043732, 0.49089378118515015, -0.006439079064875841, -0.04876020923256874, 0.10743685811758041, -0.993015468120575, 0.014504160732030869, 0.013122782111167908, 0.18285012245178223, -0.0537346090402747, -0.024593636707729617, 0.9982472494707475,0.0031716205329893055,-0.03009033203125,0.1244964599609375,-0.821563720703125
20220205-1714,2022-02-05 17:14:49Z,u01, 241,40,movements,el-ex, rt, d,13369.831373125, -0.03679886265606514, -0.11348595487617819, 0.00286150115433094, -0.26946452260017395, 0.47513213753700256, -0.023364532738924026, -0.036553896963596344, 0.11324251443147659, -0.99289470911026, 0.02825304865837097, -0.004859395325183868, 0.14806139469146729, -0.05667659425842954, -0.018449890929723906, 0.9982190356867437,0.0024716240149480484,-0.0009307861328125,0.0784759521484375,-0.840972900390625
20220205-1714,2022-02-05 17:14:49Z,u01, 242,40,movements,el-ex, rt, d,13369.856318125001, -0.025096136448349137, -0.12259846789833255, 0.002563798109996549, -0.40593814849853516, 0.5074580311775208, 0.030669542029500008, -0.02490515634417534, 0.12229157984256744, -0.9921817183494568, -0.016507267951965332, -0.04349524527788162, 0.176751971244812, -0.06123992146663483, -0.012602684925227203, 0.9980414425494433,0.0020480747117341824,-0.051727294921875,0.085693359375,-0.8270263671875
20220205-1714,2022-02-05 17:14:49Z,u01, 243,40,movements,el-ex, rt, d,13369.881264125, -0.009176827059262756, -0.1299492840303233, 0.003829364300330089, -0.17758992314338684, 0.7231559157371521, 0.07771854102611542, -0.009099324233829975, 0.12958385050296783, -0.99152672290802, -0.02680467814207077, 0.01363508403301239, 0.14078819751739502, -0.06491936707668158, -0.0047030240534984905, 0.9978769559149264,0.002208539975967594,0.0051422119140625,0.163726806640625,-0.86029052734375
20220205-1714,2022-02-05 17:14:49Z,u01, 244,40,movements,el-ex, rt, d,13369.906209125002, 0.009226394035296355, -0.13375174214937796, 0.005807458912877658, -0.16502094268798828, 0.6919304728507996, 0.0709124356508255, 0.009143859148025513, 0.1333533078432083, -0.9910264015197754, 0.07816685736179352, -0.0017462968826293945, 0.12446451187133789, -0.06683841089832421, 0.004408807063596441, 0.9977506380848917,0.002588924568482087,0.0963287353515625,0.1171722412109375,-0.8886260986328125
20220205-1714,2022-02-05 17:14:49Z,u01, 245,40,movements,el-ex, rt, d,13369.931154375001, 0.02570289410477116, -0.13724532411016824, 0.007999345109917242, -0.10490403324365616, 0.6220012903213501, 0.11879374086856842, 0.02545839734375477, 0.13681486248970032, -0.9902694225311279, 0.05783925950527191, -0.023442119359970093, 0.04407191276550293, -0.06861389074710343, 0.012546515859542789, 0.9975594648729962,0.0031087416365337406,0.0468292236328125,0.1215057373046875,-0.9377288818359375
20220205-1714,2022-02-05 17:14:49Z,u01, 246,40,movements,el-ex, rt, d,13369.956099375, 0.04284026920343016, -0.13939948510173766, 0.012109993513570437, -0.07281637191772461, 0.7324098944664001, 0.18297597765922546, 0.04241172596812248, 0.138948455452919, -0.989391028881073, -0.03392791375517845, -0.03282362222671509, 0.0616413950920105, -0.06975544882528986, 0.020944510914523783, 0.997333771292054,0.004547244624277025,0.015869140625,0.1032257080078125,-0.937469482421875
20220205-1714,2022-02-05 17:14:49Z,u01, 247,40,movements,el-ex, rt, d,13369.981044375001, 0.06319018513230963, -0.1391613911298349, 0.016735853944225, 0.13090336322784424, 0.8254677653312683, 0.19244413077831268, 0.06253767013549805, 0.13871265947818756, -0.9883561134338379, 0.00011484324932098389, -0.020487621426582336, 0.006117343902587891, -0.0697511342065259, 0.030930815126336633, 0.9970657863814254,0.006147222435190169,0.091827392578125,0.1166534423828125,-0.9990386962890625
20220205-1714,2022-02-05 17:14:49Z,u01, 248,40,movements,el-ex, rt, d,13370.005989375, 0.08453766881513405, -0.1328465806554861, 0.021531082927432443, 0.2721497714519501, 0.8131943941116333, 0.22361496090888977, 0.08369302749633789, 0.13245616853237152, -0.987649142742157, 0.04037611186504364, -0.016230031847953796, -0.009268581867218018, -0.06676522677982201, 0.04144671547170468, 0.9968760122195144,0.007927426184461184,0.1166839599609375,0.1018524169921875,-0.983734130859375
20220205-1714,2022-02-05 17:14:49Z,u01, 249,40,movements,el-ex, rt, d,13370.030934375001, 0.10600932281555701, -0.12785198680830323, 0.026664905283779898, 0.07864272594451904, 0.8558038473129272, 0.2338438183069229, 0.10494725406169891, 0.12750396132469177, -0.9862701296806335, -0.024991273880004883, -0.040910378098487854, 0.038699328899383545, -0.06449196031081865, 0.052016440572100794, 0.9965124782658419,0.009901958088675944,0.0942230224609375,0.0931549072265625,-0.9771728515625
20220205-1714,2022-02-05 17:14:49Z,u01, 250,40,movements,el-ex, rt, d,13370.055879375, 0.12909316007256366, -0.1249257638131933, 0.03253061771301503, 0.1005670353770256, 0.9182024598121643, 0.25005948543548584, 0.12773166596889496, 0.12460107356309891, -0.9839507937431335, 0.026809275150299072, 0.00032258033752441406, -0.031384289264678955, -0.06333109854337608, 0.06335431158597764, 0.9959051350998234,0.012173255400694472,0.17327880859375,0.1354522705078125,-1.0098876953125
