SessionID,LoggingTime,UID,RecNo,Hertz,Activity,MoveType,Wrist,Side,TimeStamp,DMRoll,DMPitch,DMYaw,DMRotX,DMRotY,DMRotZ,DMGrvX,DMGrvY,DMGrvZ,DMUAccelX,DMUAccelY,DMUAccelZ,DMQuatX,DMQuatY,DMQuatW,DMQuatZ,AccelroX,AceelroY,AceelroZ
20220205-1707,2022-02-05 17:07:28Z,u01, 1,40,movements,el-ex, rt, d,12929.067270541667, 1.524264813344175, -0.31978389465734897, 0.30547005687129947, -0.14918066561222076, -0.21548530459403992, 0.04217785596847534, 0.948275625705719, 0.31436142325401306, -0.044156573712825775, 0.022106826305389404, 0.020660489797592163, -0.06144964322447777, -0.21753618924863724, 0.6562009747065154, 0.7225497042879601,-5.551115123125783e-17,0.9703826904296875,0.33502197265625,-0.1056060791015625
20220205-1707,2022-02-05 17:07:28Z,u01, 2,40,movements,el-ex, rt, d,12929.092215541668, 1.5171606143038998, -0.3181645062588422, 0.3072956337170048, -0.05032128468155861, -0.28122562170028687, 0.03666917607188225, 0.9484453201293945, 0.31282371282577515, -0.05091937631368637, 0.02984142303466797, 0.042950183153152466, -0.06161434203386307, -0.21757147499340013, 0.6536076532598057, 0.7248832376513415,0.0019921082487497355,0.980499267578125,0.36322021484375,-0.110137939453125
20220205-1707,2022-02-05 17:07:28Z,u01, 3,40,movements,el-ex, rt, d,12929.117160541668, 1.5096875525565554, -0.3180393740821948, 0.30961420421045543, -0.17450574040412903, -0.331793874502182, -0.023664871230721474, 0.9480771422386169, 0.312704861164093, -0.05800805613398552, 0.011212170124053955, 0.01325330138206482, -0.04485158994793892, -0.21827355524939449, 0.6506555367483545, 0.7273170822786317,0.003691130539435261,0.95928955078125,0.325958251953125,-0.1028594970703125
20220205-1707,2022-02-05 17:07:28Z,u01, 4,40,movements,el-ex, rt, d,12929.142105541667, 1.5016930492280691, -0.3196385848006232, 0.31451641431766925, -0.20854350924491882, -0.13265526294708252, -0.19338099658489227, 0.9470829963684082, 0.3142234683036804, -0.06555091589689255, 0.08445662260055542, 0.0033271312713623047, -0.07165627926588058, -0.22040058579646288, 0.6470302343689803, 0.7298914393157396,0.00580616578307086,0.97003173828125,0.31719970703125,-0.1293182373046875
20220205-1707,2022-02-05 17:07:28Z,u01, 5,40,movements,el-ex, rt, d,12929.167050541668, 1.494463145375904, -0.32034327921537864, 0.31855300233502415, -0.08736308664083481, -0.47275784611701965, 0.08062165230512619, 0.9463633894920349, 0.31489238142967224, -0.07237956672906876, 0.31411921977996826, -0.005444258451461792, -0.11899637430906296, -0.2219241522821584, 0.6438632532658588, 0.7322077240780036,0.00784076588065663,1.2604827880859375,0.3094482421875,-0.191375732421875
20220205-1707,2022-02-05 17:07:28Z,u01, 6,40,movements,el-ex, rt, d,12929.191995541667, 1.4851855782408871, -0.32027314271048046, 0.3187532346927729, 0.07838565856218338, -0.41633105278015137, -0.002102786675095558, 0.9456730484962463, 0.3148258328437805, -0.08115815371274948, 0.030141472816467285, 0.022210270166397095, -0.08513229340314865, -0.2219249451926314, 0.6404453476433345, 0.7351859517013959,0.0089674930923207,0.9705657958984375,0.3410797119140625,-0.161102294921875
20220205-1707,2022-02-05 17:07:28Z,u01, 7,40,movements,el-ex, rt, d,12929.216940541668, 1.4742702269085313, -0.3206111438688024, 0.31697089855218985, 0.02365151047706604, -0.4477309286594391, -0.04798838868737221, 0.9446251392364502, 0.31514662504196167, -0.09146522730588913, 0.01010197401046753, 0.004723340272903442, -0.0571708157658577, -0.22142453576354712, 0.6365835062338229, 0.7386772818907119,0.009406407081845036,0.9547271728515625,0.3198699951171875,-0.1486358642578125
20220205-1707,2022-02-05 17:07:28Z,u01, 8,40,movements,el-ex, rt, d,12929.241885541667, 1.463118651343384, -0.3226455226066937, 0.31838075475673905, -0.12915673851966858, -0.5277348160743713, -0.0672820582985878, 0.9429070353507996, 0.3170766830444336, -0.10192426294088364, 0.05249994993209839, -0.0007620155811309814, -0.06462562084197998, -0.22253489649424918, 0.6320728501494945, 0.7421941675158188,0.010482592186891293,0.9845123291015625,0.319244384765625,-0.167510986328125
20220205-1707,2022-02-05 17:07:28Z,u01, 9,40,movements,el-ex, rt, d,12929.266830541668, 1.4503137574069398, -0.32454641686589897, 0.32299011674896677, -0.21052727103233337, -0.6223173141479492, -0.02996644377708435, 0.9409245848655701, 0.3188789188861847, -0.11391675472259521, 0.061730384826660156, -0.0021217167377471924, -0.051320865750312805, -0.22458493177171393, 0.6265805866608818, 0.7461832563387436,0.01299443131213579,1.002655029296875,0.3167572021484375,-0.1652374267578125
20220205-1707,2022-02-05 17:07:28Z,u01, 10,40,movements,el-ex, rt, d,12929.291775541667, 1.436491380782385, -0.3257400939106803, 0.326886597236205, -0.05565842613577843, -0.5833943486213684, -0.036141179502010345, 0.9388821721076965, 0.3200100362300873, -0.12686020135879517, 0.02571725845336914, 0.018689215183258057, -0.07394556701183319, -0.22612721953602544, 0.6208352288490311, 0.7504572674302904,0.015614112047941942,0.96942138671875,0.3286895751953125,-0.20013427734375
20220205-1707,2022-02-05 17:07:28Z,u01, 11,40,movements,el-ex, rt, d,12929.316720541667, 1.421514543381645, -0.3267344995244071, 0.3256338524551191, 0.12893256545066833, -0.6135984063148499, -0.05359826609492302, 0.9365619421005249, 0.32095199823379517, -0.14085954427719116, 0.03523969650268555, 0.03317391872406006, -0.08367371559143066, -0.2259769103337702, 0.6152273253529302, 0.755087526238668,0.016508278433113754,0.9718017578125,0.3541259765625,-0.2245330810546875
20220205-1707,2022-02-05 17:07:28Z,u01, 12,40,movements,el-ex, rt, d,12929.341665541668, 1.4053608345176896, -0.32877052161363696, 0.32399337126951305, -0.06324520707130432, -0.6734471917152405, -0.10062023997306824, 0.9335179328918457, 0.3228796422481537, -0.1558615267276764, 0.036910414695739746, -0.0025976896286010742, -0.08234363794326782, -0.22607562118132268, 0.6090640802403513, 0.7600263126069858,0.017048449406064148,0.9607391357421875,0.32220458984375,-0.233489990234375
20220205-1707,2022-02-05 17:07:28Z,u01, 13,40,movements,el-ex, rt, d,12929.366610541667, 1.388012463612056, -0.33190351904535026, 0.32709271105662263, -0.18878598511219025, -0.8023088574409485, -0.09596909582614899, 0.9296743869781494, 0.3258432447910309, -0.17184755206108093, 0.06887590885162354, 0.009041368961334229, -0.068966805934906, -0.2279976511947961, 0.6017418832868952, 0.7652159965716742,0.019187338069314164,0.9985504150390625,0.3348846435546875,-0.240814208984375
20220205-1707,2022-02-05 17:07:29Z,u01, 14,40,movements,el-ex, rt, d,12929.391555541668, 1.3689605857361664, -0.33510719966445957, 0.3320418173661148, -0.171396404504776, -0.8465323448181152, -0.0791953057050705, 0.9252042770385742, 0.32887041568756104, -0.18931707739830017, 0.06322932243347168, 0.013307899236679077, -0.06344494223594666, -0.2304539868252238, 0.5934917208024899, 0.7708199396910694,0.02224685456750841,0.9936676025390625,0.33642578125,-0.24847412109375
20220205-1707,2022-02-05 17:07:29Z,u01, 15,40,movements,el-ex, rt, d,12929.416500541667, 1.349081020112076, -0.3376314505089077, 0.33329982813404846, 0.035357967019081116, -0.800509512424469, -0.09052439033985138, 0.9204455614089966, 0.33125320076942444, -0.20748794078826904, 0.04534411430358887, 0.031127750873565674, -0.05210995674133301, -0.23152633159450292, 0.5853644923572362, 0.7766316898608702,0.024231205485955476,0.965789794921875,0.3623809814453125,-0.2595977783203125
20220205-1707,2022-02-05 17:07:29Z,u01, 16,40,movements,el-ex, rt, d,12929.441445541668, 1.3278319531415426, -0.3388241542754811, 0.32835161398477375, 0.250266432762146, -0.7790288925170898, -0.08044666051864624, 0.9154450297355652, 0.3323783278465271, -0.2269030213356018, 0.037664592266082764, 0.032993316650390625, -0.06505876779556274, -0.23027400017187183, 0.577513957998865, 0.7828518305331912,0.024382542547849106,0.9539794921875,0.3713531494140625,-0.2986907958984375
20220205-1707,2022-02-05 17:07:29Z,u01, 17,40,movements,el-ex, rt, d,12929.46639125, 1.3057187010533986, -0.34053365760749876, 0.32360517065221767, 0.15489935874938965, -0.8827688097953796, -0.12216900289058685, 0.9096543788909912, 0.3339901566505432, -0.24694015085697174, 0.06680119037628174, 0.007806688547134399, -0.04320591688156128, -0.22928607646418675, 0.5691729277701424, 0.7892200626396456,0.02453049773387478,0.9764556884765625,0.341796875,-0.2901458740234375
20220205-1707,2022-02-05 17:07:29Z,u01, 18,40,movements,el-ex, rt, d,12929.491336250001, 1.2817409121705252, -0.34203415526902986, 0.32120510758164833, -0.003608173690736294, -0.9876769185066223, -0.07752304524183273, 0.9029909372329712, 0.33540409803390503, -0.2685353755950928, 0.08757901191711426, 0.0030968189239501953, -0.027286887168884277, -0.22887658218411552, 0.5597747901556114, 0.7959888790385689,0.025869616184693356,0.996673583984375,0.3397064208984375,-0.3027191162109375
20220205-1707,2022-02-05 17:07:29Z,u01, 19,40,movements,el-ex, rt, d,12929.51628125, 1.2570887752816744, -0.3441789983865298, 0.32084717169645066, 0.046133287250995636, -0.9793252348899841, -0.07109709829092026, 0.89541095495224, 0.3374239504337311, -0.2904895544052124, 0.06042999029159546, 0.027001678943634033, -0.015373051166534424, -0.22926846713413407, 0.5497191992352481, 0.8027862680401009,0.027908080500472943,0.955841064453125,0.3644256591796875,-0.3058624267578125
20220205-1707,2022-02-05 17:07:29Z,u01, 20,40,movements,el-ex, rt, d,12929.541226250001, 1.23267290410009, -0.34541898646027985, 0.3189637898321449, 0.04981357604265213, -0.9509842991828918, -0.11097940802574158, 0.8876566886901855, 0.33859094977378845, -0.31212395429611206, 0.05162835121154785, 0.021165460348129272, -0.009836584329605103, -0.2288845403205252, 0.5399535973774732, 0.8094360469813373,0.02958018040409227,0.9460601806640625,0.3481903076171875,-0.3231201171875
20220205-1707,2022-02-05 17:07:29Z,u01, 21,40,movements,el-ex, rt, d,12929.56617125, 1.208269748817033, -0.34708423402159844, 0.3154424403321719, 0.10418564081192017, -0.9541000723838806, -0.09055741876363754, 0.8792480230331421, 0.3401573598384857, -0.33349013328552246, 0.058755338191986084, 0.036627888679504395, 0.02091372013092041, -0.2282268159847679, 0.5302522615669112, 0.8159763460392464,0.03045531943674673,0.9380035400390625,0.3767852783203125,-0.3125762939453125
20220205-1707,2022-02-05 17:07:29Z,u01, 22,40,movements,el-ex, rt, d,12929.591116250002, 1.1829069431235242, -0.3491664414527837, 0.31262051608376495, 0.06477747857570648, -0.9851600527763367, -0.1108691468834877, 0.8698503375053406, 0.34211465716362, -0.35541197657585144, 0.0653454065322876, 0.03721874952316284, -0.0008656084537506104, -0.22791370382888415, 0.5199512992656293, 0.8226222190094763,0.03159823559722125,0.9372406005859375,0.3722686767578125,-0.3473968505859375
20220205-1707,2022-02-05 17:07:29Z,u01, 23,40,movements,el-ex, rt, d,12929.61606125, 1.1569248119159603, -0.35029098956363997, 0.3086948292033095, 0.18054935336112976, -0.9944902062416077, -0.0932568684220314, 0.8599706292152405, 0.3431711494922638, -0.37773507833480835, 0.06283491849899292, 0.04505816102027893, -0.0011559724807739258, -0.22693391025613657, 0.5095423977995203, 0.8293391788635658,0.032616741148344564,0.9228057861328125,0.3882293701171875,-0.3788909912109375
20220205-1707,2022-02-05 17:07:29Z,u01, 24,40,movements,el-ex, rt, d,12929.64100625, 1.1302277126261204, -0.35002041911074094, 0.30243708610198294, 0.23726902902126312, -0.9661327600479126, -0.08665928244590759, 0.8496650457382202, 0.34291699528694153, -0.40059611201286316, 0.036260128021240234, 0.035973966121673584, 0.02236109972000122, -0.2248083542418511, 0.4991624444314723, 0.8361832264731981,0.03310040829932798,0.89007568359375,0.3838653564453125,-0.3771820068359375
20220205-1707,2022-02-05 17:07:29Z,u01, 25,40,movements,el-ex, rt, d,12929.665951250001, 1.1040384821498572, -0.3496633796681284, 0.29494071629887, 0.29992035031318665, -0.9379236102104187, -0.13656039535999298, 0.8389927744865417, 0.342581570148468, -0.42276331782341003, 0.054149746894836426, 0.04128372669219971, 0.010943770408630371, -0.2223786734993254, 0.48904607474917594, 0.8427894394986403,0.032977689399508014,0.8931427001953125,0.3838653564453125,-0.4118194580078125
20220205-1707,2022-02-05 17:07:29Z,u01, 26,40,movements,el-ex, rt, d,12929.69089625, 1.0770562971687627, -0.3487349394615682, 0.28523688465633107, 0.38780444860458374, -0.975449800491333, -0.13570459187030792, 0.8275614380836487, 0.341709166765213, -0.4453951120376587, 0.08201479911804199, 0.06162634491920471, -0.02291250228881836, -0.21921091585656158, 0.47879956328868384, 0.8495100679270247,0.03209546578188943,0.9100799560546875,0.4066925048828125,-0.4580078125
20220205-1707,2022-02-05 17:07:29Z,u01, 27,40,movements,el-ex, rt, d,12929.715841250001, 1.048263067006884, -0.3467533312724215, 0.27399398896328153, 0.39800071716308594, -1.0341849327087402, -0.14288300275802612, 0.8149809837341309, 0.3398461639881134, -0.46937236189842224, 0.07127988338470459, 0.04191341996192932, -0.012973308563232422, -0.2152749656766826, 0.4679428472708674, 0.8565797504732151,0.030937730267320496,0.886260986328125,0.3817596435546875,-0.4823455810546875
20220205-1707,2022-02-05 17:07:29Z,u01, 28,40,movements,el-ex, rt, d,12929.74078625, 1.0188436480927912, -0.34589441606455673, 0.2643603718174631, 0.24644151329994202, -1.0473601818084717, -0.15284594893455505, 0.8010698556900024, 0.33903825283050537, -0.49329492449760437, 0.06373703479766846, 0.005581408739089966, -0.014700740575790405, -0.21223972833245386, 0.4564064346978356, 0.863561193628808,0.030154845892607085,0.864532470703125,0.3517303466796875,-0.5076141357421875
20220205-1707,2022-02-05 17:07:29Z,u01, 29,40,movements,el-ex, rt, d,12929.765731250001, 0.990510684931723, -0.3473435552447651, 0.2585149461960955, 0.08691506832838058, -1.0660969018936157, -0.17968030273914337, 0.7863621115684509, 0.34040120244026184, -0.5155207514762878, 0.08784431219100952, 0.01587623357772827, -0.0033240318298339844, -0.21110734794711344, 0.4446046850035335, 0.8699679946811035,0.03026515959932169,0.87420654296875,0.3562774658203125,-0.5188446044921875
20220205-1707,2022-02-05 17:07:29Z,u01, 30,40,movements,el-ex, rt, d,12929.79067625, 0.9617925968171446, -0.3497280039723781, 0.25332933634579663, 0.1760656088590622, -1.0951281785964966, -0.18729713559150696, 0.7705671787261963, 0.34264227747917175, -0.5374220609664917, 0.10284578800201416, 0.05338427424430847, -0.01717400550842285, -0.2105506128365833, 0.43238572684971943, 0.8762324263810288,0.030459214955345926,0.8744964599609375,0.3943023681640625,-0.5478363037109375
20220205-1707,2022-02-05 17:07:29Z,u01, 31,40,movements,el-ex, rt, d,12929.815621250002, 0.9310984083580387, -0.3495300663251309, 0.24467999590553136, 0.3270651400089264, -1.1224125623703003, -0.18341605365276337, 0.7537654638290405, 0.3424563407897949, -0.5608575344085693, 0.09743070602416992, 0.02332732081413269, -0.00815802812576294, -0.20815938941543113, 0.4198105401843419, 0.8829121001206609,0.029914161502342718,0.8511962890625,0.36578369140625,-0.5690155029296875
20220205-1707,2022-02-05 17:07:29Z,u01, 32,40,movements,el-ex, rt, d,12929.84056625, 0.8999999597896444, -0.348435277770727, 0.2357710976145805, 0.23495027422904968, -1.1297025680541992, -0.1642886996269226, 0.7362552881240845, 0.3414275348186493, -0.5842562317848206, 0.09302932024002075, -0.00834345817565918, 0.004040718078613281, -0.20538120718457986, 0.4070508962635563, 0.8895291069477846,0.0294282519942351,0.834991455078125,0.335479736328125,-0.58282470703125
20220205-1707,2022-02-05 17:07:29Z,u01, 33,40,movements,el-ex, rt, d,12929.86551125, 0.8697504646985708, -0.34935304483609647, 0.22943089768522018, 0.10946904122829437, -1.1220380067825317, -0.18329806625843048, 0.7180078625679016, 0.3422900140285492, -0.6060544848442078, 0.09890174865722656, -0.00627627968788147, 0.013693034648895264, -0.20406735332686993, 0.3941183320556468, 0.8956322411280515,0.02949443910770949,0.8169097900390625,0.3360137939453125,-0.5923614501953125
20220205-1707,2022-02-05 17:07:29Z,u01, 34,40,movements,el-ex, rt, d,12929.890456250001, 0.8398989725365447, -0.3508687355447427, 0.22383232128431246, 0.14062227308750153, -1.130886197090149, -0.18937841057777405, 0.6992120146751404, 0.3437137305736542, -0.626867949962616, 0.09178823232650757, -0.00835612416267395, -0.006875455379486084, -0.20320903562462053, 0.38114580475400295, 0.9014166364187888,0.029697645963105535,0.7946014404296875,0.3308258056640625,-0.62744140625
20220205-1707,2022-02-05 17:07:29Z,u01, 35,40,movements,el-ex, rt, d,12929.91540125, 0.8090696509556673, -0.3511062962583641, 0.21759701231851036, 0.17935629189014435, -1.1824496984481812, -0.14477857947349548, 0.6794977784156799, 0.34393683075904846, -0.6480664610862732, 0.10364419221878052, -0.00458139181137085, 0.006708979606628418, -0.20168733170861805, 0.3678165099548175, 0.9072684705926213,0.029950112939457485,0.78314208984375,0.33935546875,-0.641357421875
20220205-1707,2022-02-05 17:07:29Z,u01, 36,40,movements,el-ex, rt, d,12929.940346250001, 0.777310680789848, -0.3516173060621236, 0.21262347593623054, 0.05803954601287842, -1.2281250953674316, -0.14532218873500824, 0.6584532856941223, 0.34441661834716797, -0.6691908240318298, 0.09572750329971313, -0.013072073459625244, 0.02061593532562256, -0.20053667791311797, 0.3538214667314274, 0.9130431997313644,0.03077920739342449,0.7586517333984375,0.3334197998046875,-0.6370849609375
20220205-1707,2022-02-05 17:07:29Z,u01, 37,40,movements,el-ex, rt, d,12929.96529225, 0.7462959461471257, -0.35457613300829616, 0.20955231608752245, -0.06168755516409874, -1.1835401058197021, -0.16540010273456573, 0.6366904973983765, 0.3471928834915161, -0.6885362267494202, 0.10291808843612671, -0.008325785398483276, 0.020750582218170166, -0.20085237973329367, 0.33969132453329537, 0.9182858889206851,0.03192150334374333,0.7396087646484375,0.3388671875,-0.66778564453125
20220205-1707,2022-02-05 17:07:29Z,u01, 38,40,movements,el-ex, rt, d,12929.99023725, 0.715911603602207, -0.3583320684904817, 0.20736102673084328, -0.024840224534273148, -1.1997013092041016, -0.1666254848241806, 0.6146189570426941, 0.35071274638175964, -0.7065720558166504, 0.09683716297149658, -0.0007371902465820312, 0.01193082332611084, -0.20169698558699176, 0.3256260300469648, 0.9231350203174684,0.0332810764361528,0.721649169921875,0.3467254638671875,-0.690093994140625
20220205-1707,2022-02-05 17:07:29Z,u01, 39,40,movements,el-ex, rt, d,12930.015182250001, 0.6845299848119272, -0.3594969170026302, 0.20320274577070727, 0.149480938911438, -1.1982698440551758, -0.13878539204597473, 0.5918879508972168, 0.35180336236953735, -0.7251917719841003, 0.09445232152938843, 0.006747633218765259, 0.011599123477935791, -0.2010362097483348, 0.3114298748693284, 0.9281264120309265,0.03431057658858355,0.68634033203125,0.358551025390625,-0.713592529296875
20220205-1707,2022-02-05 17:07:29Z,u01, 40,40,movements,el-ex, rt, d,12930.04012725, 0.653057158117345, -0.35887652388673064, 0.19773787835029208, 0.11290332674980164, -1.1918400526046753, -0.14563457667827606, 0.5689072012901306, 0.35122254490852356, -0.7436310648918152, 0.10400527715682983, 0.009601980447769165, 0.04120790958404541, -0.19937382257191774, 0.2973794412694592, 0.9330534507294316,0.0350231218613663,0.675018310546875,0.3595428466796875,-0.6938018798828125
20220205-1707,2022-02-05 17:07:29Z,u01, 41,40,movements,el-ex, rt, d,12930.065072250001, 0.6219594126698209, -0.358172020082759, 0.19253866287715296, 0.21085375547409058, -1.1569104194641113, -0.1277037262916565, 0.5456546545028687, 0.35056284070014954, -0.7611613273620605, 0.1010584831237793, -0.0029829442501068115, -0.01592308282852173, -0.19774263446761167, 0.2834028550108076, 0.9377096332204193,0.0357926906044308,0.6467132568359375,0.3475799560546875,-0.7770843505859375
20220205-1707,2022-02-05 17:07:29Z,u01, 42,40,movements,el-ex, rt, d,12930.09001725, 0.5912210778683658, -0.35402873497973125, 0.18576739520522587, 0.34432896971702576, -1.1299142837524414, -0.11044937372207642, 0.522808849811554, 0.3466795086860657, -0.778770923614502, 0.0821714997291565, 0.00848400592803955, -0.009177684783935547, -0.19432534707934937, 0.26991146958817724, 0.9423748136366948,0.036262125716833515,0.605010986328125,0.3559112548828125,-0.7870025634765625
20220205-1707,2022-02-05 17:07:29Z,u01, 43,40,movements,el-ex, rt, d,12930.114962250002, 0.5598808321405999, -0.34886958011599634, 0.17826654746495457, 0.267380028963089, -1.1902291774749756, -0.13682444393634796, 0.4990924894809723, 0.34183570742607117, -0.7962756752967834, 0.10796302556991577, 0.019232958555221558, 0.019145488739013672, -0.19035492813878863, 0.2561779674178417, 0.9469985363834177,0.03649020613940229,0.6070556640625,0.3610687255859375,-0.777130126953125
20220205-1707,2022-02-05 17:07:29Z,u01, 44,40,movements,el-ex, rt, d,12930.13990725, 0.527909273717656, -0.3465503685550208, 0.17280488256608892, 0.146585151553154, -1.2244794368743896, -0.11937841027975082, 0.47378167510032654, 0.3396552801132202, -0.8125054836273193, 0.09495905041694641, 0.01823955774307251, 0.02345818281173706, -0.18799451188598512, 0.24167192461376594, 0.9512441646255619,0.037244874128623096,0.57720947265625,0.3584442138671875,-0.78240966796875
20220205-1707,2022-02-05 17:07:29Z,u01, 45,40,movements,el-ex, rt, d,12930.16485225, 0.49595205677390664, -0.34451326224925055, 0.16778111675918, 0.22171026468276978, -1.1794277429580688, -0.1282169073820114, 0.44790711998939514, 0.337738573551178, -0.8278356194496155, 0.0687859058380127, 0.050094008445739746, 0.024887561798095703, -0.18584035700599283, 0.227036442794954, 0.9552307228560206,0.03810458058895955,0.516693115234375,0.3878326416015625,-0.802947998046875
20220205-1707,2022-02-05 17:07:29Z,u01, 46,40,movements,el-ex, rt, d,12930.189797250001, 0.4652098777038227, -0.3393206041731537, 0.16096700662739263, 0.35874518752098083, -1.134026050567627, -0.1446169912815094, 0.4230310618877411, 0.3328465223312378, -0.8427679538726807, 0.07515302300453186, 0.07009229063987732, 0.028452157974243164, -0.1820349013046163, 0.21325877065590498, 0.9591225117536897,0.03831268426300688,0.495849609375,0.40771484375,-0.812469482421875
20220205-1707,2022-02-05 17:07:29Z,u01, 47,40,movements,el-ex, rt, d,12930.21474225, 0.43391423331397033, -0.33426375583256307, 0.15387694433128743, 0.19392341375350952, -1.2131633758544922, -0.15693610906600952, 0.3971558213233948, 0.32807376980781555, -0.8571084141731262, 0.11209088563919067, 0.04076164960861206, 0.062278032302856445, -0.1782892636238053, 0.19914501106133173, 0.96285322717743,0.03831133246117896,0.509246826171875,0.36883544921875,-0.794830322265625
20220205-1707,2022-02-05 17:07:29Z,u01, 48,40,movements,el-ex, rt, d,12930.239687250001, 0.40145546717739994, -0.3347124587372711, 0.14917706813685905, -0.031142596155405045, -1.2391443252563477, -0.18146221339702606, 0.3690732717514038, 0.32849758863449097, -0.8694102764129639, 0.07048654556274414, 0.05724453926086426, 0.08912152051925659, -0.17742798380868202, 0.18388632651991207, 0.966019186473082,0.03888291769733737,0.4536285400390625,0.37823486328125,-0.771209716796875
20220205-1707,2022-02-05 17:07:29Z,u01, 49,40,movements,el-ex, rt, d,12930.26463225, 0.37050455066388577, -0.3357438559896504, 0.14434902850848358, 0.09446639567613602, -1.1282833814620972, -0.2045125514268875, 0.34186890721321106, 0.3294715881347656, -0.8800988793373108, 0.05861318111419678, 0.0749472975730896, 0.08616882562637329, -0.17689409049601787, 0.16928979323473806, 0.9687691316043132,0.039185719649562356,0.400482177734375,0.4044189453125,-0.7939300537109375
20220205-1707,2022-02-05 17:07:29Z,u01, 50,40,movements,el-ex, rt, d,12930.289577250001, 0.34066306435019433, -0.3337970291986735, 0.13757259061492666, 0.21388140320777893, -1.1062575578689575, -0.21336476504802704, 0.31567084789276123, 0.3276328444480896, -0.8905103206634521, 0.0680723488330841, 0.06090161204338074, 0.10456061363220215, -0.1748223790111697, 0.15550558090987493, 0.9714715544445116,0.038703120091325705,0.386871337890625,0.3934478759765625,-0.7813873291015625
20220205-1707,2022-02-05 17:07:29Z,u01, 51,40,movements,el-ex, rt, d,12930.31452225, 0.3109036737065128, -0.32993057349971755, 0.13064957733057445, 0.23775005340576172, -1.0938307046890259, -0.19476352632045746, 0.2894192934036255, 0.32397735118865967, -0.9007080793380737, 0.07198503613471985, 0.04784876108169556, 0.08318793773651123, -0.17186148615029795, 0.1418082346100833, 0.9741104499927059,0.03824457742333287,0.3614044189453125,0.371826171875,-0.8175201416015625
20220205-1707,2022-02-05 17:07:29Z,u01, 52,40,movements,el-ex, rt, d,12930.339467250002, 0.28189814261309354, -0.3270503182546736, 0.12406109989924123, 0.0938054695725441, -1.0723942518234253, -0.2225761115550995, 0.26343420147895813, 0.3212510943412781, -0.9096153974533081, 0.06011307239532471, 0.04416632652282715, 0.07865220308303833, -0.1694653751206946, 0.12835030021689234, 0.9764138142023855,0.03773098954148535,0.3265533447265625,0.3695220947265625,-0.831298828125
20220205-1707,2022-02-05 17:07:29Z,u01, 53,40,movements,el-ex, rt, d,12930.36441225, 0.25335349281688596, -0.3288974295650654, 0.11800956199309465, -0.11260979622602463, -1.0623831748962402, -0.2604074478149414, 0.23721662163734436, 0.3229997456073761, -0.9161874055862427, 0.07247567176818848, 0.018507152795791626, 0.09059536457061768, -0.1694638638221028, 0.11484024339590096, 0.9781206547339891,0.03706217130165301,0.3096923828125,0.3415069580078125,-0.825592041015625
20220205-1707,2022-02-05 17:07:30Z,u01, 54,40,movements,el-ex, rt, d,12930.38935725, 0.22584166167618466, -0.3322751069600193, 0.11196102422205197, 0.04852540045976639, -0.971526026725769, -0.2429576814174652, 0.21167853474617004, 0.32619452476501465, -0.9212976098060608, 0.04480637609958649, 0.042991816997528076, 0.05555969476699829, -0.1702815271821137, 0.1017614294293076, 0.9794572870663674,0.03622408768603774,0.2655029296875,0.3630828857421875,-0.862091064453125
20220205-1707,2022-02-05 17:07:30Z,u01, 55,40,movements,el-ex, rt, d,12930.414302250001, 0.2005525932745282, -0.3281928014960618, 0.10451239005159055, 0.3692440390586853, -0.882543683052063, -0.2413797527551651, 0.1885782778263092, 0.32233279943466187, -0.9276528358459473, 0.05482986569404602, 0.06629323959350586, 0.037622928619384766, -0.16747709859653226, 0.09013882839156309, 0.9811245622419017,0.0349404154879952,0.243408203125,0.3886260986328125,-0.8900299072265625
20220205-1707,2022-02-05 17:07:30Z,u01, 56,40,movements,el-ex, rt, d,12930.43924725, 0.17597520265151023, -0.3204034705385679, 0.09571265348266864, 0.28398019075393677, -0.8767163157463074, -0.31115418672561646, 0.16615885496139526, 0.31494951248168945, -0.934450626373291, 0.08545848727226257, 0.02162879705429077, 0.07829523086547852, -0.16286826238714028, 0.07904809906015973, 0.9829209232646466,0.03304141533495125,0.252227783203125,0.346405029296875,-0.8642425537109375
20220205-1707,2022-02-05 17:07:30Z,u01, 57,40,movements,el-ex, rt, d,12930.464193541668, 0.1508730845386097, -0.3182716906583927, 0.08688425903716444, 0.02058897539973259, -0.9064520001411438, -0.31372585892677307, 0.14275287091732025, 0.3129255175590515, -0.9389883875846863, 0.08490818738937378, -0.005537271499633789, 0.10370701551437378, -0.16109692605425088, 0.06748022605582302, 0.9841461979507788,0.030826329577306022,0.2276611328125,0.3073883056640625,-0.8352813720703125
20220205-1707,2022-02-05 17:07:30Z,u01, 58,40,movements,el-ex, rt, d,12930.489138541667, 0.1272363631290104, -0.31763689190210426, 0.07868880934329883, 0.21942740678787231, -0.75510174036026, -0.3095265328884125, 0.1205456331372261, 0.3123225271701813, -0.9422968626022339, 0.04872003197669983, 0.03609657287597656, 0.10220897197723389, -0.1601787801372168, 0.056518400995413505, 0.9850501613124405,0.028713904513509803,0.172332763671875,0.338409423828125,-0.8392486572265625
20220205-1707,2022-02-05 17:07:30Z,u01, 59,40,movements,el-ex, rt, d,12930.514083541668, 0.10660755254938828, -0.3102390218082745, 0.0691930441581906, 0.3898123800754547, -0.6908989548683167, -0.34994518756866455, 0.10132598876953125, 0.3052862584590912, -0.9468544125556946, 0.06667319685220718, 0.05036550760269165, 0.10095298290252686, -0.15600718894634247, 0.04727088676521774, 0.9862840937247925,0.025899257212369242,0.167999267578125,0.35565185546875,-0.8459014892578125
20220205-1707,2022-02-05 17:07:30Z,u01, 60,40,movements,el-ex, rt, d,12930.539028541667, 0.08599787318702348, -0.3052639858190161, 0.05932425394325298, 0.02405111864209175, -0.7555976510047913, -0.3588056266307831, 0.08192092180252075, 0.30054497718811035, -0.9502429366111755, 0.07945594936609268, -0.05370360612869263, 0.17077821493148804, -0.15309275902021985, 0.03796226309698247, 0.9872200890935761,0.02275322183503814,0.1646728515625,0.264251708984375,-0.7921295166015625
20220205-1707,2022-02-05 17:07:30Z,u01, 61,40,movements,el-ex, rt, d,12930.563973541668, 0.06410790307179098, -0.30979975645096547, 0.05081241983978841, -0.23534852266311646, -0.7426307797431946, -0.311079204082489, 0.06101420894265175, 0.3048679232597351, -0.9504382014274597, 0.05579175800085068, -0.06495404243469238, 0.18522518873214722, -0.1549565539028616, 0.02773726187368996, 0.9873263754382298,0.020143548431934555,0.1168060302734375,0.2399139404296875,-0.7652130126953125
20220205-1707,2022-02-05 17:07:30Z,u01, 62,40,movements,el-ex, rt, d,12930.588918541667, 0.04581461506294435, -0.3135769443827167, 0.04268076172099058, 0.020638642832636833, -0.5224475860595703, -0.329952210187912, 0.043565280735492706, 0.30846312642097473, -0.9502381682395935, 0.027479566633701324, 0.004479318857192993, 0.194790780544281, -0.15655315615401214, 0.019288086625037226, 0.9873261165346748,0.01749570999382455,0.06939697265625,0.3072662353515625,-0.7551422119140625
20220205-1707,2022-02-05 17:07:30Z,u01, 63,40,movements,el-ex, rt, d,12930.613863541668, 0.03172494501654844, -0.3097524766692973, 0.03351825454646555, 0.24430972337722778, -0.4086700975894928, -0.3458360433578491, 0.030210057273507118, 0.3048228919506073, -0.9519298076629639, 0.03872908651828766, -0.010160505771636963, 0.19103503227233887, -0.1544793895147033, 0.013084970420911834, 0.9878086016470546,0.014109208664029815,0.068939208984375,0.2946624755859375,-0.760894775390625
20220205-1707,2022-02-05 17:07:30Z,u01, 64,40,movements,el-ex, rt, d,12930.638808541667, 0.018824320510762868, -0.3079373026750938, 0.024887705622883713, -0.11185058951377869, -0.43068602681159973, -0.2947189509868622, 0.017937779426574707, 0.3030936121940613, -0.9527919292449951, 0.041571423411369324, -0.10453104972839355, 0.24760699272155762, -0.15345811384811647, 0.0073916910798228486, 0.9880678231651854,0.010852457989945774,0.066070556640625,0.2081146240234375,-0.707550048828125
20220205-1707,2022-02-05 17:07:30Z,u01, 65,40,movements,el-ex, rt, d,12930.663753541667, 0.006852521689961512, -0.31417814873638994, 0.018592112212507613, -0.24624468386173248, -0.3512217104434967, -0.20564858615398407, 0.006517044268548489, 0.30903494358062744, -0.9510283470153809, 0.0069411396980285645, -0.09907406568527222, 0.18979787826538086, -0.1564675817972834, 0.0019296391463680118, 0.987643302807409,0.008645413882214625,0.013458251953125,0.2099609375,-0.76123046875
20220205-1707,2022-02-05 17:07:30Z,u01, 66,40,movements,el-ex, rt, d,12930.688698541668, -0.0010824364011147727, -0.3161215810080118, 0.013683386059831697, 0.12309227883815765, -0.17585107684135437, -0.187480628490448, -0.0010287996847182512, 0.31088265776634216, -0.9504477381706238, -0.005685135722160339, 0.004699528217315674, 0.15898960828781128, -0.15739610929616857, -0.001611356817425108, 0.9875105056952289,0.006841541228747083,-0.0080108642578125,0.3109588623046875,-0.79193115234375
20220205-1707,2022-02-05 17:07:30Z,u01, 67,40,movements,el-ex, rt, d,12930.713643541667, -0.0058188046741209955, -0.3109146898974546, 0.008143569096161455, 0.20040397346019745, -0.11370248347520828, -0.22270040214061737, -0.0055397856049239635, 0.30592960119247437, -0.952038049697876, 0.016785457730293274, -0.03372812271118164, 0.1558801531791687, -0.15481830211158903, -0.0035047273444059335, 0.987926622085332,0.004473118062187642,0.0112457275390625,0.2722015380859375,-0.7961578369140625
20220205-1707,2022-02-05 17:07:30Z,u01, 68,40,movements,el-ex, rt, d,12930.738588541668, -0.010537329630136118, -0.3098812650475848, 0.003343581201754016, -0.12029973417520523, -0.13755083084106445, -0.1535831242799759, -0.010035248473286629, 0.30494555830955505, -0.9523168802261353, 0.014917999505996704, -0.09365716576576233, 0.20933592319488525, -0.1543103872922974, -0.0054635081069278335, 0.988004214811232,0.0024648031845879714,0.0103759765625,0.2097625732421875,-0.7460784912109375
20220205-1707,2022-02-05 17:07:30Z,u01, 69,40,movements,el-ex, rt, d,12930.763533541667, -0.01391077405554171, -0.3138593706938451, 0.0001236929963004775, -0.08946585655212402, -0.04482527822256088, -0.09366239607334137, -0.013230794109404087, 0.3087317645549774, -0.9510571360588074, 0.011262358166277409, -0.06247025728225708, 0.17107361555099487, -0.156282169072965, -0.006879528426297715, 0.9876877466139715,0.0011481086728235002,-0.0019683837890625,0.2462615966796875,-0.7799835205078125
20220205-1707,2022-02-05 17:07:30Z,u01, 70,40,movements,el-ex, rt, d,12930.788478541668, -0.013708515537550741, -0.31533152043160656, -0.001724039737085327, -0.03811025619506836, 0.05426481366157532, -0.06305708736181259, -0.013032189570367336, 0.31013166904449463, -0.950604259967804, 0.007630513049662113, -0.06843253970146179, 0.16059577465057373, -0.15701544233372622, -0.006633840073547628, 0.9875738150261589,0.0002248935243274186,-0.005340576171875,0.2509918212890625,-0.7865447998046875
20220205-1707,2022-02-05 17:07:30Z,u01, 71,40,movements,el-ex, rt, d,12930.813423541667, -0.011489175182680392, -0.318197070683362, -0.002879887647976238, -0.12359683215618134, 0.11770205199718475, -0.023211468011140823, -0.010912190191447735, 0.3128546476364136, -0.9497383236885071, 0.009218394756317139, -0.09122079610824585, 0.18241959810256958, -0.15843358468669033, -0.00544387553459641, 0.987354471274199,-0.0005116353977021593,-0.0016937255859375,0.2216339111328125,-0.7673187255859375
20220205-1707,2022-02-05 17:07:30Z,u01, 72,40,movements,el-ex, rt, d,12930.838368541667, -0.00619860973532484, -0.32279468943569317, -0.002854599487998774, -0.09379016607999802, 0.1779840886592865, -0.018667249009013176, -0.005878429859876633, 0.317218154668808, -0.9483343958854675, 0.028415590524673462, -0.052356183528900146, 0.15922611951828003, -0.16070098931294122, -0.002829655126332292, 0.9869985934248747,-0.0009106934876482176,0.0307464599609375,0.263031005859375,-0.7953643798828125
20220205-1707,2022-02-05 17:07:30Z,u01, 73,40,movements,el-ex, rt, d,12930.863313541668, -0.0005015662392873097, -0.32453542152120607, -0.0030581130851268738, -0.002106083557009697, 0.26428937911987305, -0.004265740513801575, -0.00047538394574075937, 0.318868488073349, -0.9477988481521606, -0.017621591687202454, -0.07365980744361877, 0.14997780323028564, -0.1615567419943471, -4.5937220728708983e-07, 0.9868622339558919,-0.001468453927499891,-0.018096923828125,0.245208740234375,-0.797821044921875
20220205-1707,2022-02-05 17:07:30Z,u01, 75,40,movements,el-ex, rt, d,12930.913203541668, 0.01708205225195013, -0.3229392388806439, -0.0010289159024839045, -0.023929189890623093, 0.3613853454589844, 0.04648458957672119, 0.016198236495256424, 0.317355215549469, -0.9481683969497681, 0.060034602880477905, -0.06320491433143616, 0.14352667331695557, -0.1607586778125566, 0.00851252828232961, 0.9869551366980525,-0.001880862229294733,0.0124053955078125,0.26214599609375,-0.7889404296875
20220205-1707,2022-02-05 17:07:30Z,u01, 75,40,movements,el-ex, rt, d,12930.888258541667, 0.0076390663327575, -0.32389602399501094, -0.0025440319218963635, 0.04884454980492592, 0.34387174248695374, 0.0489332340657711, 0.00724178459495306, 0.31826239824295044, -0.9479749798774719, 0.02413022518157959, -0.050089240074157715, 0.15814954042434692, -0.1612349545706112, 0.0039746428021049385, 0.9869061388154448,-0.0018712261196838775,0.07623291015625,0.254150390625,-0.8046417236328125
20220205-1707,2022-02-05 17:07:30Z,u01, 76,40,movements,el-ex, rt, d,12930.938148541667, 0.02709130022053681, -0.3261668398950979, 0.00024103505626098815, -0.1886804848909378, 0.4196208715438843, 0.032187871634960175, 0.025659840553998947, 0.32041433453559875, -0.9469298720359802, 0.000783577561378479, -0.06998714804649353, 0.15989679098129272, -0.16234820246585385, 0.01334594372631813, 0.9866410358934392,-0.0020803173175820144,0.0409393310546875,0.2407684326171875,-0.7821044921875
20220205-1707,2022-02-05 17:07:30Z,u01, 77,40,movements,el-ex, rt, d,12930.963093541668, 0.03986912439867672, -0.3287621947137688, 0.0011793299857980957, 0.03523050248622894, 0.5688977241516113, 0.04497797414660454, 0.0377238467335701, 0.32287177443504333, -0.9456906318664551, -0.0012706667184829712, -0.02553907036781311, 0.1307644248008728, -0.1636208653531063, 0.019568061297529887, 0.9863255109931258,-0.002680310998691593,0.0364532470703125,0.297332763671875,-0.8149261474609375
20220205-1707,2022-02-05 17:07:30Z,u01, 78,40,movements,el-ex, rt, d,12930.988039541668, 0.05541086608803217, -0.326415517988584, 0.002466912357171853, 0.05505131557583809, 0.6021304130554199, 0.05928574129939079, 0.05245819687843323, 0.3206498920917511, -0.9457440376281738, 0.0643325001001358, -0.06634697318077087, 0.12431764602661133, -0.16245540804644998, 0.027133402375714127, 0.9863372531992667,-0.003284517710969548,0.1114654541015625,0.257415771484375,-0.8243408203125
20220205-1707,2022-02-05 17:07:30Z,u01, 79,40,movements,el-ex, rt, d,12931.012984541667, 0.07031000045850079, -0.32698034455808606, 0.004542330517182494, -0.10065069794654846, 0.551409900188446, 0.09133415669202805, 0.06652988493442535, 0.32118484377861023, -0.9446766972541809, 0.03515461087226868, -0.08615374565124512, 0.11069232225418091, -0.16274060938283735, 0.03430955231849385, 0.9860659702621593,-0.003481241552460379,0.1016845703125,0.2350311279296875,-0.833984375
20220205-1707,2022-02-05 17:07:30Z,u01, 80,40,movements,el-ex, rt, d,12931.037929541668, 0.08644635293746532, -0.32894609771016525, 0.007785564254259169, -0.017761144787073135, 0.6731355786323547, 0.13064295053482056, 0.08170952647924423, 0.3230458199977875, -0.9428493976593018, 0.0019390806555747986, -0.03828635811805725, 0.07537192106246948, -0.16374430460167524, 0.041989497189453544, 0.9856033714088446,-0.003238132363966695,0.072296142578125,0.2736053466796875,-0.8575592041015625
20220205-1707,2022-02-05 17:07:30Z,u01, 81,40,movements,el-ex, rt, d,12931.062874541667, 0.10542684651630693, -0.32747467081348913, 0.011033984109147256, 0.10575120896100998, 0.7389156222343445, 0.12307184934616089, 0.099639393389225, 0.32165291905403137, -0.9416004419326782, 0.034759946167469025, -0.016156792640686035, 0.05549204349517822, -0.16306459392264627, 0.05108545638024367, 0.9852868272465697,-0.0031529185935168513,0.1343994140625,0.3054962158203125,-0.8861083984375
20220205-1707,2022-02-05 17:07:30Z,u01, 82,40,movements,el-ex, rt, d,12931.087819541668, 0.1242078788885547, -0.3252593656409669, 0.014319002592886126, 0.00968352984637022, 0.6713999509811401, 0.14684562385082245, 0.11739300191402435, 0.31955456733703613, -0.9402679204940796, 0.05417674034833908, -0.059102386236190796, 0.06285703182220459, -0.16203596734572367, 0.06008654713523259, 0.9849490821447309,-0.0029974141155022505,0.1699371337890625,0.2622222900390625,-0.8809661865234375
20220205-1707,2022-02-05 17:07:30Z,u01, 83,40,movements,el-ex, rt, d,12931.112764541667, 0.14246458984568067, -0.32650561701798314, 0.01929915647717869, -0.13387949764728546, 0.6911287307739258, 0.20149554312229156, 0.13448204100131989, 0.32073521614074707, -0.9375731945037842, 0.025704652070999146, -0.061442673206329346, 0.07854914665222168, -0.1627865581389642, 0.06865815913942329, 0.9842673260608606,-0.002069978779052739,0.160186767578125,0.2592926025390625,-0.8590240478515625
20220205-1707,2022-02-05 17:07:30Z,u01, 84,40,movements,el-ex, rt, d,12931.137709541668, 0.16298999541936512, -0.3280965585393313, 0.024816529107380265, -0.021231241524219513, 0.7820428609848022, 0.19363495707511902, 0.15361343324184418, 0.3222416937351227, -0.9341108798980713, 0.028759539127349854, -0.006888389587402344, 0.013548135757446289, -0.1637554364840516, 0.07828606381307775, 0.9833890676939868,-0.001092750150452404,0.1763153076171875,0.3100128173828125,-0.9134063720703125
20220205-1707,2022-02-05 17:07:30Z,u01, 85,40,movements,el-ex, rt, d,12931.162654541668, 0.18356510242629456, -0.32788882119253737, 0.030037412237965477, -0.09784599393606186, 0.7166644334793091, 0.20384632050991058, 0.17281121015548706, 0.32204505801200867, -0.9308186173439026, 0.027460306882858276, -0.027580976486206055, 0.03987312316894531, -0.16386371778738515, 0.08797377435921598, 0.982552340791599,-0.00020281171646185925,0.2002716064453125,0.294464111328125,-0.8909454345703125
20220205-1707,2022-02-05 17:07:30Z,u01, 86,40,movements,el-ex, rt, d,12931.187599541667, 0.20285517975409026, -0.3330732819508806, 0.03662787115402268, -0.39701297879219055, 0.6712740063667297, 0.21419084072113037, 0.1903945654630661, 0.32694894075393677, -0.9256642460823059, 0.07542872428894043, -0.05107009410858154, 0.07043957710266113, -0.16671692550432268, 0.09681607917778012, 0.9812392649112578,0.0011849193185641815,0.260772705078125,0.266204833984375,-0.8572235107421875
20220205-1707,2022-02-05 17:07:30Z,u01, 87,40,movements,el-ex, rt, d,12931.212544541668, 0.2225584198903148, -0.3423590358983885, 0.04464430696215572, -0.3555036187171936, 0.728040337562561, 0.23656325042247772, 0.20791591703891754, 0.33571016788482666, -0.9187326431274414, 0.043762460350990295, -0.0051438212394714355, 0.07063382863998413, -0.17169141537815985, 0.10562076411808996, 0.9794679461096505,0.0029460198182174047,0.251678466796875,0.33056640625,-0.8480987548828125
20220205-1707,2022-02-05 17:07:30Z,u01, 88,40,movements,el-ex, rt, d,12931.237489541667, 0.2451465283122307, -0.3453251404496954, 0.052141702716433286, -0.04931444302201271, 0.8619872331619263, 0.2625122368335724, 0.22837087512016296, 0.3385026454925537, -0.9128322005271912, 0.016685202717781067, -0.00042897462844848633, 0.08067888021469116, -0.17359883957828007, 0.1159626243024492, 0.9779548892044572,0.004488630694826412,0.23406982421875,0.343780517578125,-0.83514404296875
20220205-1707,2022-02-05 17:07:30Z,u01, 89,40,movements,el-ex, rt, d,12931.262434541668, 0.2694131994543522, -0.3452433612966966, 0.05942549887010744, -0.12862859666347504, 0.8621053695678711, 0.27130088210105896, 0.2504602372646332, 0.3384256958961487, -0.9070488810539246, 0.04202014207839966, -0.026581883430480957, 0.06299370527267456, -0.17406498859677028, 0.12718854574701025, 0.9764676626866777,0.005943839357932301,0.29248046875,0.3118438720703125,-0.84405517578125
20220205-1707,2022-02-05 17:07:30Z,u01, 90,40,movements,el-ex, rt, d,12931.287379541667, 0.29257986516880813, -0.34816169965455596, 0.06747033538966037, -0.27139389514923096, 0.7602084875106812, 0.25881028175354004, 0.2711184322834015, 0.34117037057876587, -0.9000541567802429, 0.05467188358306885, -0.0019217729568481445, 0.01351851224899292, -0.17609773737305426, 0.13770438662879453, 0.9746633310981404,0.007630965160338121,0.32879638671875,0.330474853515625,-0.8995513916015625
20220205-1707,2022-02-05 17:07:30Z,u01, 91,40,movements,el-ex, rt, d,12931.312324541668, 0.3148777554795864, -0.35297862603610064, 0.07680058878411268, -0.25342661142349243, 0.8129830956459045, 0.2704947292804718, 0.2906063497066498, 0.34569433331489563, -0.8922126293182373, 0.006329596042633057, -0.013266384601593018, 0.02175968885421753, -0.17920096516894213, 0.14758286016910216, 0.9726303618645475,0.009819151716437324,0.29693603515625,0.332427978515625,-0.870452880859375
20220205-1707,2022-02-05 17:07:30Z,u01, 92,40,movements,el-ex, rt, d,12931.337269541667, 0.3394485481077309, -0.35317562168111494, 0.08465144478194886, 0.0688408613204956, 0.9221690893173218, 0.29178574681282043, 0.31241610646247864, 0.3458791673183441, -0.884739339351654, 0.0265883207321167, 0.046744704246520996, 0.008625447750091553, -0.18002824940971165, 0.15880852893377065, 0.9706901153809173,0.011410339858316076,0.3285369873046875,0.38812255859375,-0.8805694580078125
20220205-1707,2022-02-05 17:07:30Z,u01, 93,40,movements,el-ex, rt, d,12931.362214541667, 0.3647326274524381, -0.3476308494922134, 0.09071831435194812, 0.11418680846691132, 0.9118973612785339, 0.27445662021636963, 0.33536264300346375, 0.3406713306903839, -0.878336489200592, 0.04458111524581909, 0.023128658533096313, 0.024759769439697266, -0.17799824575853845, 0.17072900296506732, 0.9690251578451519,0.012587856875350967,0.37994384765625,0.363800048828125,-0.85357666015625
20220205-1707,2022-02-05 17:07:31Z,u01, 94,40,movements,el-ex, rt, d,12931.387159541668, 0.3885891079632517, -0.3468893700657845, 0.09732016737629941, -0.2562422752380371, 0.793417751789093, 0.21215830743312836, 0.35631483793258667, 0.3399741053581238, -0.8703202605247498, 0.08811256289482117, -0.011040449142456055, 0.02217566967010498, -0.1783791731002232, 0.18171612724534558, 0.9669392720413736,0.013728949926060163,0.4412841796875,0.3319854736328125,-0.85223388671875
20220205-1707,2022-02-05 17:07:31Z,u01, 95,40,movements,el-ex, rt, d,12931.412104541667, 0.4111157688168725, -0.35451018526076505, 0.10677878406891703, -0.4957030415534973, 0.7817473411560059, 0.21507373452186584, 0.37478187680244446, 0.34713104367256165, -0.8596735000610352, 0.04358348250389099, -0.005746245384216309, 0.05405515432357788, -0.1830918511374035, 0.1914174023817383, 0.9641560517545037,0.015482349152471209,0.418365478515625,0.3413848876953125,-0.8056182861328125
20220205-1707,2022-02-05 17:07:31Z,u01, 96,40,movements,el-ex, rt, d,12931.437049541668, 0.4355480110909012, -0.3614817988629675, 0.11645981809286961, -0.27958136796951294, 0.8937772512435913, 0.22354452311992645, 0.39464104175567627, 0.3536606431007385, -0.8480463027954102, 0.03808283805847168, 0.04375442862510681, 0.022408485412597656, -0.18758428996225374, 0.20196282404798013, 0.9611085736921328,0.017124641404417995,0.4276885986328125,0.3900909423828125,-0.82177734375
20220205-1707,2022-02-05 17:07:31Z,u01, 97,40,movements,el-ex, rt, d,12931.461994541667, 0.46122132223970236, -0.3634150148354269, 0.12423105228788793, -0.19729840755462646, 0.920297384262085, 0.2273828089237213, 0.4159757196903229, 0.3554682731628418, -0.8370224237442017, 0.05526134371757507, 0.026153981685638428, 0.040376245975494385, -0.1895411838012092, 0.2134547555197548, 0.9582168584348267,0.018211917836117753,0.4712371826171875,0.381622314453125,-0.7966461181640625
20220205-1707,2022-02-05 17:07:31Z,u01, 98,40,movements,el-ex, rt, d,12931.48693875, 0.4865956419225648, -0.36898214141074287, 0.13365854548723952, -0.5114307403564453, 0.8439865112304688, 0.1988106071949005, 0.43614622950553894, 0.36066627502441406, -0.8244369626045227, 0.05524769425392151, -0.029794752597808838, 0.05579066276550293, -0.1934606172021595, 0.2243981245232496, 0.9548997179977785,0.019618502226676215,0.4949798583984375,0.3272247314453125,-0.760528564453125
20220205-1707,2022-02-05 17:07:31Z,u01, 99,40,movements,el-ex, rt, d,12931.511884750002, 0.5121532358083964, -0.37661838524403674, 0.14460032998403521, -0.3074367642402649, 0.904293417930603, 0.2456424981355667, 0.4557091295719147, 0.3677779734134674, -0.8105975985527039, 0.018457621335983276, 0.025212079286575317, -0.011149287223815918, -0.19859413088277217, 0.23507777201777846, 0.9512321694801449,0.021355237623532475,0.4741668701171875,0.3929901123046875,-0.821746826171875
20220205-1707,2022-02-05 17:07:31Z,u01, 100,40,movements,el-ex, rt, d,12931.53682975, 0.5390541660951296, -0.3778552995319749, 0.15366953029255603, -0.1768682301044464, 0.9651147127151489, 0.2625029683113098, 0.4771135747432709, 0.36892789602279663, -0.7976558208465576, 0.07330134510993958, 0.035140037536621094, 0.04492443799972534, -0.20056669441541752, 0.24687058059941, 0.9477909008560432,0.0228108702610636,0.533660888671875,0.418212890625,-0.7505035400390625
20220205-1707,2022-02-05 17:07:31Z,u01, 101,40,movements,el-ex, rt, d,12931.56177475, 0.5660458204346355, -0.3800533094389167, 0.16213172463748832, -0.3299798369407654, 0.9195995330810547, 0.18945074081420898, 0.4980311393737793, 0.3709699809551239, -0.7838024497032166, 0.09117162227630615, 0.0012681186199188232, 0.027592062950134277, -0.20298134812003124, 0.2586452377588422, 0.944105715146058,0.023781079996630816,0.589202880859375,0.3722381591796875,-0.7562103271484375
20220205-1707,2022-02-05 17:07:31Z,u01, 102,40,movements,el-ex, rt, d,12931.586719750001, 0.5920775540872409, -0.3857916258825787, 0.17239997388538514, -0.44431859254837036, 0.8790245652198792, 0.2051512598991394, 0.5170672535896301, 0.37629270553588867, -0.7687946557998657, 0.022956430912017822, -0.01609376072883606, 0.04409366846084595, -0.20733237140292124, 0.26947349807563414, 0.9400888719494421,0.025102679440016706,0.5481109619140625,0.3567657470703125,-0.7287139892578125
20220205-1707,2022-02-05 17:07:31Z,u01, 103,40,movements,el-ex, rt, d,12931.61166475, 0.6192478135211262, -0.38992280849713573, 0.1830303770627314, -0.19138963520526886, 1.0055831670761108, 0.27122727036476135, 0.5368552803993225, 0.3801170289516449, -0.7531914114952087, 0.002313852310180664, 0.010050147771835327, 0.007036566734313965, -0.21106271304303575, 0.2808145741831121, 0.9358885165794683,0.02661065580986638,0.5391693115234375,0.390167236328125,-0.74615478515625
20220205-1707,2022-02-05 17:07:31Z,u01, 104,40,movements,el-ex, rt, d,12931.636609750001, 0.6485556514893291, -0.3863831823888586, 0.18985433109531266, 0.05141233652830124, 1.0925134420394897, 0.28516700863838196, 0.5595052242279053, 0.3768407106399536, -0.7382038235664368, 0.07684719562530518, 0.04195195436477661, -0.009965181350708008, -0.21080521242601458, 0.29403954608491206, 0.9318571577583299,0.027275215268196096,0.6175384521484375,0.4266510009765625,-0.7392730712890625
20220205-1707,2022-02-05 17:07:31Z,u01, 105,40,movements,el-ex, rt, d,12931.66155475, 0.6769614045418048, -0.3816921895916851, 0.19483112880000844, -0.0337255597114563, 1.0179036855697632, 0.2398959994316101, 0.5813469290733337, 0.37249141931533813, -0.7233849763870239, 0.09725701808929443, 0.01479184627532959, -0.02345651388168335, -0.20978821489040128, 0.3070772229009577, 0.92786969434822,0.02738861461351333,0.6786041259765625,0.3872833251953125,-0.7468414306640625
20220205-1707,2022-02-05 17:07:31Z,u01, 106,40,movements,el-ex, rt, d,12931.686499750002, 0.7039808074411191, -0.3819493094723443, 0.20306950991793923, -0.3838871717453003, 0.8983845114707947, 0.22162963449954987, 0.6006157398223877, 0.372730016708374, -0.7073421478271484, 0.07350212335586548, -0.025043338537216187, -0.0044040679931640625, -0.21157073227434817, 0.31869537219818966, 0.9235093015731125,0.02831082852438549,0.6829681396484375,0.35357666015625,-0.6940765380859375
20220205-1707,2022-02-05 17:07:31Z,u01, 107,40,movements,el-ex, rt, d,12931.71144475, 0.7312302134553338, -0.385697545729212, 0.21491214218638416, -0.29078298807144165, 0.9458307027816772, 0.25998353958129883, 0.6187277436256409, 0.37620553374290466, -0.6896703839302063, 0.01483231782913208, -0.0008546113967895508, -0.03367257118225098, -0.215589019232558, 0.3296758815298204, 0.9186534891460005,0.030177639582030624,0.6335601806640625,0.3753509521484375,-0.7233428955078125
20220205-1707,2022-02-05 17:07:31Z,u01, 108,40,movements,el-ex, rt, d,12931.73638975, 0.7592132441589909, -0.38375375229926695, 0.22312105084542494, -0.09170590341091156, 1.0119826793670654, 0.2852858304977417, 0.6382842063903809, 0.37440383434295654, -0.6726179122924805, 0.061193764209747314, 0.043290168046951294, -0.03874683380126953, -0.21652118477970078, 0.34177421038657063, 0.9139640581780957,0.03127991494345295,0.6847991943359375,0.4202423095703125,-0.7244873046875
20220205-1707,2022-02-05 17:07:31Z,u01, 109,40,movements,el-ex, rt, d,12931.761334750001, 0.7861012188548874, -0.3828328189790277, 0.2325763484642633, -0.4260658621788025, 0.8642812371253967, 0.2546314001083374, 0.6563803553581238, 0.3735497295856476, -0.6554580926895142, 0.0703803300857544, -0.005233138799667358, 0.016175806522369385, -0.2181825815630154, 0.3530826055284103, 0.9092029249024698,0.03284609021991147,0.7267608642578125,0.368316650390625,-0.6392822265625
20220205-1707,2022-02-05 17:07:31Z,u01, 110,40,movements,el-ex, rt, d,12931.78627975, 0.8135210674351195, -0.39054613098088303, 0.2505166068169008, -0.8655019402503967, 0.7970723509788513, 0.2560063302516937, 0.6719900369644165, 0.3806934654712677, -0.6352178454399109, 0.09159016609191895, -0.032732099294662476, 0.04827320575714111, -0.22529437171541844, 0.36281333821352707, 0.9034845867804278,0.03639130923868822,0.7555084228515625,0.3399658203125,-0.5829620361328125
20220205-1707,2022-02-05 17:07:31Z,u01, 111,40,movements,el-ex, rt, d,12931.811224750001, 0.8427152272135688, -0.3979505624657316, 0.27076387058651136, -0.4987253248691559, 0.9357970952987671, 0.3335050344467163, 0.6881226897239685, 0.3875298798084259, -0.6134392023086548, 0.07617467641830444, 0.04456847906112671, -0.004602909088134766, -0.2328386569350605, 0.3729163039071357, 0.8972562288872574,0.04062842166245656,0.7642974853515625,0.432098388671875,-0.6180419921875
20220205-1707,2022-02-05 17:07:31Z,u01, 112,40,movements,el-ex, rt, d,12931.83616975, 0.8713102403826314, -0.39644958749921394, 0.2810918123394081, -0.0052388934418559074, 0.9986677765846252, 0.2419181913137436, 0.705824613571167, 0.3861457407474518, -0.5938880443572998, 0.029358983039855957, 0.09944990277290344, -0.06498658657073975, -0.2347326906625904, 0.3846511971031645, 0.8917178967820686,0.04222648255113981,0.742523193359375,0.501739501953125,-0.6531524658203125
20220205-1707,2022-02-05 17:07:31Z,u01, 113,40,movements,el-ex, rt, d,12931.861114750001, 0.8965463344564069, -0.39082904938915214, 0.28408596837948874, -0.005098844412714243, 0.9113532900810242, 0.2483704537153244, 0.7222696542739868, 0.3809550702571869, -0.5772343873977661, 0.006596744060516357, 0.029994547367095947, -0.006490647792816162, -0.23341423151549995, 0.39610679224348394, 0.8870548205585171,0.041841442111488714,0.7288665771484375,0.41094970703125,-0.5837249755859375
20220205-1707,2022-02-05 17:07:31Z,u01, 114,40,movements,el-ex, rt, d,12931.88605975, 0.9222849145616345, -0.3891689420570341, 0.29185704093056686, -0.35874977707862854, 0.9244391322135925, 0.22041989862918854, 0.7373889684677124, 0.37941962480545044, -0.5588362812995911, 0.08429664373397827, -0.009073644876480103, -0.023286521434783936, -0.23480380299428183, 0.4067542658007444, 0.8818161406960865,0.04263991649245091,0.799041748046875,0.355133056640625,-0.5676422119140625
20220205-1707,2022-02-05 17:07:31Z,u01, 115,40,movements,el-ex, rt, d,12931.911004750002, 0.9493503851672168, -0.389552570134597, 0.3029635303896733, -0.20251254737377167, 0.9134623408317566, 0.23497188091278076, 0.7521238327026367, 0.3797745406627655, -0.5385915040969849, 0.11637568473815918, 0.06408828496932983, -0.08936876058578491, -0.23784344574766383, 0.41729455638380913, 0.8759788247972012,0.044233861278039466,0.868499755859375,0.4438629150390625,-0.627960205078125
20220205-1707,2022-02-05 17:07:31Z,u01, 116,40,movements,el-ex, rt, d,12931.93594975, 0.973889192313676, -0.3847641300620851, 0.3052449526505527, 0.232079416513443, 0.9509766697883606, 0.19767224788665771, 0.7666078209877014, 0.3753405213356018, -0.5209912061691284, -0.009192168712615967, 0.06492125988006592, -0.13216137886047363, -0.23683681509241652, 0.4282671134463417, 0.8709805984977365,0.04345421155240897,0.7671356201171875,0.4588775634765625,-0.648712158203125
20220205-1707,2022-02-05 17:07:31Z,u01, 117,40,movements,el-ex, rt, d,12931.96089475, 0.9960399537691041, -0.37796017554005995, 0.302951492390806, 0.13134664297103882, 0.8664018511772156, 0.15213291347026825, 0.7800846099853516, 0.3690253794193268, -0.5052604675292969, -0.004221081733703613, 0.030175000429153442, -0.08026516437530518, -0.23394676624682675, 0.43890621584699135, 0.8665494970957146,0.04149806695801522,0.7758636474609375,0.399200439453125,-0.5855255126953125
20220205-1707,2022-02-05 17:07:31Z,u01, 118,40,movements,el-ex, rt, d,12931.985839750001, 1.0180386795542815, -0.3752175623068371, 0.30502879493032153, -0.10645195841789246, 0.831055223941803, 0.13169363141059875, 0.7918685078620911, 0.3664749562740326, -0.48850834369659424, 0.08657985925674438, 0.01136314868927002, -0.08435249328613281, -0.23371102270865016, 0.4484696077065749, 0.8617504907963388,0.0405001951329616,0.858062744140625,0.3749237060546875,-0.55535888671875
20220205-1707,2022-02-05 17:07:31Z,u01, 119,40,movements,el-ex, rt, d,12932.01078475, 1.0401601664076918, -0.37323968059233825, 0.3085156630036418, 0.04946339875459671, 0.8329670429229736, 0.13962997496128082, 0.8031039237976074, 0.3646339774131775, -0.47123879194259644, 0.10660964250564575, 0.06259682774543762, -0.09330600500106812, -0.23412364560485688, 0.4577845743617778, 0.856753534532154,0.03990801788425541,0.9097137451171875,0.4272308349609375,-0.564544677734375
20220205-1707,2022-02-05 17:07:31Z,u01, 120,40,movements,el-ex, rt, d,12932.035729750001, 1.059827433064918, -0.3672999061600177, 0.3040383748246763, 0.4213736653327942, 0.8404352068901062, 0.10051446408033371, 0.8140909075737, 0.3590967357158661, -0.4564049541950226, 0.017635047435760498, 0.031131505966186523, -0.09016501903533936, -0.23101265539771995, 0.46736567920022803, 0.8525354118295706,0.03722587541326361,0.8462677001953125,0.4074554443359375,-0.5432281494140625
20220205-1707,2022-02-05 17:07:31Z,u01, 121,40,movements,el-ex, rt, d,12932.06067475, 1.0777641653667247, -0.3615473358228393, 0.29790649169121325, 0.10489816218614578, 0.7474880218505859, 0.09842688590288162, 0.8239519596099854, 0.35372194647789, -0.4427005648612976, -0.014244437217712402, -0.01172676682472229, -0.03497594594955444, -0.22751861844899332, 0.4763244675002748, 0.8486403783084238,0.03405348393362945,0.8097076416015625,0.3419952392578125,-0.4776763916015625
20220205-1707,2022-02-05 17:07:31Z,u01, 122,40,movements,el-ex, rt, d,12932.085619750002, 1.0987693758483557, -0.3614853540825068, 0.3036474542769834, -0.43586045503616333, 0.7408710718154907, 0.10966988652944565, 0.8330880403518677, 0.35366398096084595, -0.42530685663223267, 0.0772969126701355, -0.03367197513580322, -0.002320796251296997, -0.22923030438972947, 0.48456170175383056, 0.8434989339581702,0.0340999426110819,0.8731842041015625,0.3047332763671875,-0.4040679931640625
20220205-1707,2022-02-05 17:07:31Z,u01, 123,40,movements,el-ex, rt, d,12932.11056475, 1.1213007770452714, -0.36449282606726896, 0.3174420646871774, -0.4959379732608795, 0.6648078560829163, 0.13513650000095367, 0.8414967656135559, 0.35647547245025635, -0.4059658348560333, 0.13619476556777954, 0.04298430681228638, -0.03685957193374634, -0.23421597256469004, 0.49209750416350073, 0.8376466261540422,0.03648154354494315,0.977691650390625,0.3994598388671875,-0.4428253173828125
20220205-1707,2022-02-05 17:07:31Z,u01, 124,40,movements,el-ex, rt, d,12932.13551075, 1.1416273616668131, -0.3658816141313594, 0.3272574859539931, -0.17302420735359192, 0.6723228693008423, 0.05997629836201668, 0.8491233587265015, 0.35777267813682556, -0.3885720670223236, 0.008374691009521484, 0.03332531452178955, -0.03943711519241333, -0.23758433641007093, 0.4992671145135515, 0.8323802556366722,0.03780374061796771,0.8790435791015625,0.4082794189453125,-0.4183502197265625
20220205-1707,2022-02-05 17:07:31Z,u01, 125,40,movements,el-ex, rt, d,12932.160455750001, 1.159320365114108, -0.36584222877031347, 0.3279110196366137, 0.11650582402944565, 0.7188486456871033, 0.005700407549738884, 0.8558778762817383, 0.35773590207099915, -0.37349405884742737, -0.05941510200500488, 0.03287374973297119, -0.04529878497123718, -0.23805936511644205, 0.5065379630582062, 0.8279203365911683,0.035981968145055276,0.7964630126953125,0.3906097412109375,-0.418792724609375
20220205-1707,2022-02-05 17:07:31Z,u01, 126,40,movements,el-ex, rt, d,12932.18540075, 1.1767367075959174, -0.36370409752511235, 0.32483252034110105, 0.1121271476149559, 0.7326547503471375, 0.06168877333402634, 0.8629569411277771, 0.35573846101760864, -0.35882478952407837, 0.008853793144226074, -0.0005597174167633057, -0.02870282530784607, -0.23672698273575665, 0.5143422437034154, 0.8235940878772594,0.03324189823501067,0.847076416015625,0.3665313720703125,-0.3824310302734375
20220205-1707,2022-02-05 17:07:31Z,u01, 127,40,movements,el-ex, rt, d,12932.210345750002, 1.1946330360947566, -0.3610456247942091, 0.32440105899565447, 0.04431374743580818, 0.6955947279930115, 0.11580528318881989, 0.8701165914535522, 0.353252649307251, -0.3436705768108368, 0.08087199926376343, 0.01297345757484436, -0.05774250626564026, -0.23585726773422377, 0.5220498613745566, 0.8190421401093995,0.03170333684161353,0.95098876953125,0.3662261962890625,-0.4014129638671875
20220205-1707,2022-02-05 17:07:31Z,u01, 128,40,movements,el-ex, rt, d,12932.23529075, 1.210982547991697, -0.35744770573259965, 0.3212785866492309, 0.3009506165981293, 0.6915944218635559, 0.056248266249895096, 0.8768028616905212, 0.34988439083099365, -0.3298446834087372, 0.02981323003768921, 0.04573017358779907, -0.07448279857635498, -0.23387544048107717, 0.5295091452386766, 0.8148924237924807,0.02953890883841781,0.919036865234375,0.4049835205078125,-0.4033660888671875
20220205-1707,2022-02-05 17:07:31Z,u01, 129,40,movements,el-ex, rt, d,12932.26023575, 1.2257590406383678, -0.3545434818959897, 0.3140685488425062, 0.23615232110023499, 0.6537298560142517, 0.0016310978680849075, 0.8825334906578064, 0.34716227650642395, -0.31719544529914856, 0.0012707114219665527, 0.012807786464691162, -0.05266249179840088, -0.23102368483029678, 0.5366845709242059, 0.8111322873877862,0.02573137453331431,0.8838043212890625,0.3599700927734375,-0.3698577880859375
20220205-1707,2022-02-05 17:07:31Z,u01, 130,40,movements,el-ex, rt, d,12932.285180750001, 1.2403395836545932, -0.35331823499729714, 0.3103163741508166, 0.08197064697742462, 0.6073616147041321, -0.0029814308509230614, 0.8874659538269043, 0.34601297974586487, -0.30443212389945984, 0.026474297046661377, -0.0045213401317596436, -0.03510656952857971, -0.2297116447245412, 0.543154213694143, 0.8072742930821059,0.022891876017718082,0.9083709716796875,0.3378753662109375,-0.336334228515625
20220205-1707,2022-02-05 17:07:31Z,u01, 131,40,movements,el-ex, rt, d,12932.31012575, 1.2552266486854424, -0.35234380067316134, 0.3074632083799862, 0.20850741863250732, 0.6536675691604614, 0.011297906748950481, 0.8922197818756104, 0.3450985550880432, -0.29129165410995483, 0.04354065656661987, 0.01757228374481201, -0.08656185865402222, -0.2287160313468222, 0.5495845215954217, 0.8032637835031897,0.020324483767297452,0.935760498046875,0.3626708984375,-0.3778533935546875
20220205-1707,2022-02-05 17:07:31Z,u01, 132,40,movements,el-ex, rt, d,12932.335070750001, 1.2689372911550623, -0.3496341153079522, 0.29937705533104864, 0.4240286350250244, 0.6156491041183472, -0.012552831321954727, 0.8970189690589905, 0.34255409240722656, -0.2793087065219879, 0.061385393142700195, 0.011678636074066162, -0.08049365878105164, -0.22556243653048966, 0.5562977989877346, 0.7996169734405786,0.016333898191429497,0.962493896484375,0.356231689453125,-0.37176513671875
20220205-1707,2022-02-05 17:07:31Z,u01, 133,40,movements,el-ex, rt, d,12932.36001575, 1.279828084061802, -0.3476914859652866, 0.289100074151831, 0.3393716514110565, 0.5155855417251587, -0.07314220815896988, 0.900643527507782, 0.3407283425331116, -0.26971352100372314, 0.024283170700073242, -0.015426218509674072, -0.07977399230003357, -0.22201934859727968, 0.5620059174065315, 0.7966945657725837,0.0115967430637553,0.9249267578125,0.3253021240234375,-0.3494873046875
20220205-1707,2022-02-05 17:07:32Z,u01, 134,40,movements,el-ex, rt, d,12932.384960750001, 1.2910436004196393, -0.34793579839838595, 0.2829560360177005, 0.13125962018966675, 0.4807291030883789, -0.07260578125715256, 0.9035318493843079, 0.34095802903175354, -0.2595725953578949, -0.005445361137390137, -0.04309123754501343, -0.04795318841934204, -0.22043299361758073, 0.5671181450482401, 0.7935520768503149,0.007839721068597594,0.8939971923828125,0.300079345703125,-0.315460205078125
20220205-1707,2022-02-05 17:07:32Z,u01, 135,40,movements,el-ex, rt, d,12932.40990575, 1.303238277964153, -0.34903601833107134, 0.2820206294606046, -0.08291970938444138, 0.48812136054039, -0.042426709085702896, 0.906267523765564, 0.3419921100139618, -0.24843594431877136, 0.021161556243896484, -0.04684141278266907, -0.005317866802215576, -0.22062755635744344, 0.5719313847435195, 0.7900533840756266,0.0057900169655191736,0.92742919921875,0.2951507568359375,-0.253753662109375
20220205-1707,2022-02-05 17:07:32Z,u01, 136,40,movements,el-ex, rt, d,12932.43485075, 1.3173511353647571, -0.3507288610393386, 0.28646643077511325, -0.2301454097032547, 0.4606532156467438, -0.018514251336455345, 0.9091216921806335, 0.3435823917388916, -0.23547613620758057, 0.06870728731155396, -0.01890590786933899, 0.008226841688156128, -0.2225855778397846, 0.5768167751752571, 0.7859442322354291,0.005458677649953281,0.9759674072265625,0.3184051513671875,-0.2283935546875
20220205-1707,2022-02-05 17:07:32Z,u01, 137,40,movements,el-ex, rt, d,12932.459795750001, 1.330671790990346, -0.3521608382963869, 0.29142950781608523, -0.13253070414066315, 0.46249744296073914, -0.028378598392009735, 0.9116986393928528, 0.3449268341064453, -0.22322821617126465, 0.04105997085571289, -0.011278241872787476, 0.003150537610054016, -0.2245981938702083, 0.5813273957039002, 0.782038355682838,0.005471930807474434,0.9527587890625,0.333648681640625,-0.2200775146484375
20220205-1707,2022-02-05 17:07:32Z,u01, 138,40,movements,el-ex, rt, d,12932.484741125001, 1.3433843640318903, -0.35301428319228995, 0.29280122781122175, 0.0199557077139616, 0.4912238121032715, -0.020391911268234253, 0.9141757488250732, 0.3457277715206146, -0.21155406534671783, -0.016043424606323242, -0.0218752920627594, -0.0012604296207427979, -0.22534900281381626, 0.5860382214760307, 0.7783048974112389,0.00431088286396536,0.9023284912109375,0.3278045654296875,-0.213897705078125
20220205-1707,2022-02-05 17:07:32Z,u01, 139,40,movements,el-ex, rt, d,12932.509686125, 1.3550839261818644, -0.3529937665345262, 0.2912658948548573, 0.09317565709352493, 0.4601091146469116, 0.0016871578991413116, 0.9165949821472168, 0.3457085192203522, -0.2008458524942398, -0.0026851892471313477, -0.013463705778121948, -0.04338645935058594, -0.22490932728716964, 0.5907561813815523, 0.7748658265110681,0.0024041850377096163,0.913909912109375,0.332244873046875,-0.244232177734375
20220205-1707,2022-02-05 17:07:32Z,u01, 140,40,movements,el-ex, rt, d,12932.534631125001, 1.364819423770891, -0.35173615200801955, 0.2883944632500546, 0.09197480976581573, 0.39010414481163025, 0.022917544469237328, 0.9189316034317017, 0.3445281982421875, -0.19200171530246735, 0.0030652880668640137, -0.024047940969467163, -0.1122281402349472, -0.22359912356938272, 0.5949811529507675, 0.772010544640822,0.0005996649304676471,0.92889404296875,0.3201141357421875,-0.311431884765625
20220205-1707,2022-02-05 17:07:32Z,u01, 141,40,movements,el-ex, rt, d,12932.559576125, 1.3740527815612271, -0.350613791088564, 0.2862791038796943, 0.10659070312976837, 0.3840391933917999, 0.004439867101609707, 0.9210439920425415, 0.3434743285179138, -0.1835843324661255, -0.01310044527053833, -0.023177117109298706, -0.12140852212905884, -0.22255234482228553, 0.5988975614734644, 0.7692797362797114,-0.0008885519239756889,0.9079437255859375,0.3202972412109375,-0.30499267578125
20220205-1707,2022-02-05 17:07:32Z,u01, 142,40,movements,el-ex, rt, d,12932.584521125002, 1.3824731138400845, -0.34994848297002973, 0.28391108628662026, 0.055478379130363464, 0.3426467180252075, -0.0015005795285105705, 0.9227815270423889, 0.34284940361976624, -0.17586517333984375, -0.008322298526763916, -0.02293369174003601, -0.12113209068775177, -0.22158893017795744, 0.602466398245323, 0.7667634857570191,-0.002520316734884731,0.906768798828125,0.3229827880859375,-0.3004913330078125
20220205-1707,2022-02-05 17:07:32Z,u01, 143,40,movements,el-ex, rt, d,12932.609466125, 1.3898048530979517, -0.3493931217227271, 0.2838207890231658, -0.030799712985754013, 0.1924126297235489, 0.026687515899538994, 0.9242331385612488, 0.34232765436172485, -0.1691291332244873, 0.047064900398254395, -0.012371599674224854, -0.11840766668319702, -0.22134733402961987, 0.6053435289026917, 0.7645615051692776,-0.003188567751871707,0.9712982177734375,0.3299560546875,-0.28753662109375
20220205-1707,2022-02-05 17:07:32Z,u01, 144,40,movements,el-ex, rt, d,12932.634411125, 1.3939127129290252, -0.3487016607212502, 0.28551391166308027, -0.09254723787307739, 0.0993543267250061, 0.03767465054988861, 0.9251528978347778, 0.3416779041290283, -0.16537271440029144, 0.03233599662780762, -0.008487045764923096, -0.12259137630462646, -0.221601087816273, 0.6068002976374184, 0.7633338353397026,-0.002774123344581436,0.9644775390625,0.32977294921875,-0.287994384765625
20220205-1707,2022-02-05 17:07:32Z,u01, 145,40,movements,el-ex, rt, d,12932.659356125001, 1.3974086240433459, -0.3484857467625389, 0.2878097049856879, -0.04887275770306587, 0.12228754162788391, 0.00842002872377634, 0.9257979989051819, 0.3414749801158905, -0.16215017437934875, 0.02030777931213379, 0.006333798170089722, -0.10674034059047699, -0.22221499124999725, 0.6079024663522188, 0.7622795042880396,-0.002216720691135321,0.94610595703125,0.347808837890625,-0.268890380859375
20220205-1707,2022-02-05 17:07:32Z,u01, 146,40,movements,el-ex, rt, d,12932.684301125, 1.4003843201412625, -0.3482169486086743, 0.28822307730019964, 0.02718735672533512, 0.1004471555352211, 0.01935170590877533, 0.926366925239563, 0.3412223160266876, -0.15941014885902405, 0.04497694969177246, 0.0026497244834899902, -0.07447671890258789, -0.22223929434297313, 0.609019395428775, 0.7613801423394413,-0.002302999164124242,0.9674835205078125,0.3470458984375,-0.2349700927734375
20220205-1707,2022-02-05 17:07:32Z,u01, 147,40,movements,el-ex, rt, d,12932.709246125001, 1.4013809234425907, -0.34709026776876195, 0.28670734320770064, 0.06958731263875961, 0.06024601310491562, 0.03135916590690613, 0.9269035458564758, 0.3401630222797394, -0.15855154395103455, 0.046256065368652344, -0.005507290363311768, -0.07451134920120239, -0.22136542548869237, 0.609689737661398, 0.7610970348093271,-0.002625842768176123,0.9731597900390625,0.33465576171875,-0.233062744140625
20220205-1707,2022-02-05 17:07:32Z,u01, 148,40,movements,el-ex, rt, d,12932.734192125, 1.400257237103845, -0.3458316290658301, 0.28586700664766423, -0.03198891505599022, -0.059371598064899445, 0.03779482841491699, 0.9271460175514221, 0.33897918462753296, -0.1596655249595642, 0.020424604415893555, -0.028737574815750122, -0.06202958524227142, -0.22065157064180027, 0.6094916908549334, 0.761463552418984,-0.0024142480498295926,0.9571075439453125,0.3140716552734375,-0.2247314453125
20220205-1707,2022-02-05 17:07:32Z,u01, 149,40,movements,el-ex, rt, d,12932.759137125, 1.3988529605614055, -0.34537626665747123, 0.28804738025124205, -0.09644630551338196, -0.06995200365781784, 0.022754956036806107, 0.9270729422569275, 0.33855074644088745, -0.16099373996257782, -0.011194765567779541, -0.022800683975219727, -0.07470893859863281, -0.2211507106423713, 0.6087655459109237, 0.761902314619445,-0.0012815048323726597,0.9158782958984375,0.3157501220703125,-0.2357025146484375
20220205-1707,2022-02-05 17:07:32Z,u01, 150,40,movements,el-ex, rt, d,12932.784082125001, 1.3973912115330105, -0.344793979510042, 0.28892646447225034, 0.01818610541522503, -0.04796154797077179, 0.02467556670308113, 0.9270306825637817, 0.3380028009414673, -0.16238272190093994, 0.01965498924255371, -0.00014275312423706055, -0.08265835046768188, -0.22120619635459549, 0.6081746955549941, 0.7623588186866549,-0.0005967036882939536,0.9354095458984375,0.338897705078125,-0.2464752197265625
20220205-1707,2022-02-05 17:07:32Z,u01, 151,40,movements,el-ex, rt, d,12932.809027125, 1.3944778187600886, -0.34364866290806895, 0.2885828997050314, -0.015155807137489319, -0.14449915289878845, 0.04258092865347862, 0.9269340634346008, 0.33692467212677, -0.16515059769153595, 0.036704063415527344, 0.0020950138568878174, -0.07548068463802338, -0.2206835892114965, 0.6072260325234374, 0.7632660733677079,-3.628425521606804e-05,0.9636383056640625,0.339019775390625,-0.240631103515625
20220205-1707,2022-02-05 17:07:32Z,u01, 152,40,movements,el-ex, rt, d,12932.833972125001, 1.3896065022968374, -0.3422399988029355, 0.289853192614458, -0.0958462581038475, -0.20248201489448547, 0.03676644712686539, 0.9265845417976379, 0.33559802174568176, -0.16974937915802002, -0.008051395416259766, -0.01781851053237915, -0.0690661072731018, -0.22055104740455578, 0.6053780188389261, 0.7647695721983101,0.001439957549498938,0.9252777099609375,0.312530517578125,-0.2299957275390625
20220205-1707,2022-02-05 17:07:32Z,u01, 153,40,movements,el-ex, rt, d,12932.858917125, 1.3845648909727322, -0.34181428540509534, 0.2923733926388422, -0.08673485368490219, -0.2019231617450714, 0.03652769699692726, 0.9258573055267334, 0.33519697189331055, -0.17444512248039246, -0.0035399198532104492, -0.0026469826698303223, -0.09598658978939056, -0.22115057078575784, 0.6032162668876533, 0.7662981507735382,0.0030980418648237085,0.9223175048828125,0.332550048828125,-0.2704315185546875
20220205-1707,2022-02-05 17:07:32Z,u01, 154,40,movements,el-ex, rt, d,12932.883862125002, 1.3778912583566048, -0.3410742877029993, 0.29374363987715546, -0.06779388338327408, -0.28200408816337585, 0.008167493157088757, 0.9249156713485718, 0.33449968695640564, -0.18066751956939697, 0.029780864715576172, 0.022037148475646973, -0.09493690729141235, -0.22127790072199466, 0.6005849910722425, 0.768317943385,0.004598744580909198,0.9523162841796875,0.3525543212890625,-0.2769927978515625
20220205-1707,2022-02-05 17:07:32Z,u01, 155,40,movements,el-ex, rt, d,12932.908807125, 1.3699821580194298, -0.34136041544365203, 0.2956788879907047, -0.10623425245285034, -0.36212238669395447, -0.03133470565080643, 0.923363983631134, 0.3347693085670471, -0.18795794248580933, 0.021658480167388916, -0.0032721757888793945, -0.0816802978515625, -0.22194180997140436, 0.5972962950837021, 0.7706758252034942,0.006128494349867675,0.9450225830078125,0.3314971923828125,-0.2696380615234375
20220205-1707,2022-02-05 17:07:32Z,u01, 156,40,movements,el-ex, rt, d,12932.933752125, 1.3608694658993659, -0.34254038607449133, 0.2979800542509187, -0.0873970091342926, -0.3492126762866974, -0.040313221514225006, 0.9212259650230408, 0.33588096499443054, -0.19628190994262695, 0.009743154048919678, 0.006800860166549683, -0.11356323957443237, -0.22303214168714372, 0.5933933821255117, 0.773357790251263,0.007656231493650745,0.926055908203125,0.34478759765625,-0.3013763427734375
20220205-1707,2022-02-05 17:07:32Z,u01, 157,40,movements,el-ex, rt, d,12932.958697125001, 1.3517051025749895, -0.34427020136074526, 0.2996743689098497, -0.08087755739688873, -0.43628308176994324, -0.07194538414478302, 0.9188199043273926, 0.33750978112220764, -0.20458939671516418, 0.057879745960235596, 0.016173601150512695, -0.12895266711711884, -0.22413794773769363, 0.5894637227517313, 0.7760265705184557,0.00879122306480451,0.9766998291015625,0.3536834716796875,-0.3335418701171875
20220205-1707,2022-02-05 17:07:32Z,u01, 158,40,movements,el-ex, rt, d,12932.983642125, 1.3402419375481658, -0.34657442785004583, 0.30101036674088294, -0.035634517669677734, -0.5118027329444885, -0.09574858099222183, 0.9156548976898193, 0.3396779000759125, -0.21493004262447357, 0.05056202411651611, 0.01992592215538025, -0.14513176679611206, -0.22533563985658334, 0.5846014282333967, 0.7793377865509759,0.009876168756703774,0.9685516357421875,0.3574676513671875,-0.354339599609375
20220205-1707,2022-02-05 17:07:32Z,u01, 159,40,movements,el-ex, rt, d,12933.008587125001, 1.3268627097332955, -0.3498073675307089, 0.30061918503716256, 0.009129691869020462, -0.555594801902771, -0.15039652585983276, 0.9116270542144775, 0.34271684288978577, -0.2268947958946228, 0.03960573673248291, -0.001942366361618042, -0.13898062705993652, -0.22636557159868614, 0.5790606463587433, 0.7831620313937654,0.010227766682859574,0.95123291015625,0.3407745361328125,-0.365875244140625
20220205-1707,2022-02-05 17:07:32Z,u01, 160,40,movements,el-ex, rt, d,12933.033532125, 1.3111326471054547, -0.35254741901738157, 0.2977237047065827, 0.08042708039283752, -0.6174096465110779, -0.1199416071176529, 0.9070342779159546, 0.3452896773815155, -0.24096404016017914, 0.07146590948104858, 0.0023207366466522217, -0.1502714604139328, -0.22648437967882798, 0.572907325780831, 0.7876429206616885,0.010026026795112997,0.979827880859375,0.3453826904296875,-0.40771484375
20220205-1707,2022-02-05 17:07:32Z,u01, 161,40,movements,el-ex, rt, d,12933.058477125001, 1.2935577006557712, -0.3555008778836597, 0.29620784723620275, -0.016988325864076614, -0.7324955463409424, -0.12618359923362732, 0.9016746282577515, 0.3480599820613861, -0.25658681988716125, 0.08050292730331421, -0.028159528970718384, -0.1514485776424408, -0.22708275366418063, 0.5658091621523883, 0.7925796910999187,0.010518024714981311,0.982177734375,0.3199005126953125,-0.4080352783203125
20220205-1707,2022-02-05 17:07:32Z,u01, 162,40,movements,el-ex, rt, d,12933.083422125, 1.2744834755157657, -0.35790457379550256, 0.29767123775631643, -0.09931512176990509, -0.8433141708374023, -0.08406962454319, 0.895814061164856, 0.35031235218048096, -0.27349281311035156, 0.06468081474304199, -0.04463309049606323, -0.14002054929733276, -0.2283018186828426, 0.557791965962269, 0.797865225803291,0.012545721780472974,0.9693756103515625,0.2915191650390625,-0.403533935546875
20220205-1707,2022-02-05 17:07:32Z,u01, 163,40,movements,el-ex, rt, d,12933.108367125002, 1.2537797900038032, -0.35998018056402187, 0.29943214623588404, -0.0441615916788578, -0.8879402279853821, -0.05098704248666763, 0.8892673850059509, 0.3522556722164154, -0.29175224900245667, 0.05087226629257202, -0.022192835807800293, -0.12749838829040527, -0.22944494611049437, 0.549070941196708, 0.8035241371257696,0.015001176704033559,0.9401397705078125,0.3300628662109375,-0.41925048828125
20220205-1707,2022-02-05 17:07:32Z,u01, 164,40,movements,el-ex, rt, d,12933.133312125, 1.2308093521349597, -0.3604554377696858, 0.29753791805839797, 0.04444034397602081, -0.9027603268623352, 0.0482914112508297, 0.8821737766265869, 0.35270044207572937, -0.3120444715023041, 0.07412493228912354, -0.019051790237426758, -0.11376744508743286, -0.22893130569258013, 0.5399705723337646, 0.809779183959169,0.0167297749647759,0.9363555908203125,0.3585662841796875,-0.440338134765625
20220205-1707,2022-02-05 17:07:32Z,u01, 165,40,movements,el-ex, rt, d,12933.158257125, 1.2070692166865533, -0.3620314431010567, 0.3006499141721595, -0.2025301605463028, -1.0013455152511597, -0.05541181564331055, 0.8739973306655884, 0.35417473316192627, -0.33269932866096497, 0.07897502183914185, -0.01573479175567627, -0.08729895949363708, -0.23016050489773832, 0.5297890817100779, 0.8160508833515161,0.0202633851587683,0.952972412109375,0.33843994140625,-0.4199981689453125
20220205-1707,2022-02-05 17:07:32Z,u01, 166,40,movements,el-ex, rt, d,12933.183202125001, 1.1829598214783748, -0.36381534337951527, 0.3022918940284301, 0.013726442120969296, -1.0130618810653687, -0.046403806656599045, 0.8651366233825684, 0.3558424413204193, -0.35343262553215027, 0.06935727596282959, 0.0321427583694458, -0.10367506742477417, -0.2310327500556893, 0.5195262820724954, 0.8223001641654106,0.023207784730482628,0.936065673828125,0.393157958984375,-0.4557647705078125
20220205-1707,2022-02-05 17:07:32Z,u01, 167,40,movements,el-ex, rt, d,12933.208147125, 1.1570575673974905, -0.36497682112582014, 0.30225824870544843, -0.07502283155918121, -1.0628023147583008, -0.06523175537586212, 0.8553138375282288, 0.35692763328552246, -0.3755541741847992, 0.07844763994216919, 0.0036832690238952637, -0.06844621896743774, -0.23116830826247053, 0.5087082914225035, 0.8289199330794341,0.025861967683435128,0.9337615966796875,0.3606109619140625,-0.444000244140625
20220205-1707,2022-02-05 17:07:32Z,u01, 168,40,movements,el-ex, rt, d,12933.233092125001, 1.1302385716308232, -0.3675640393518794, 0.30355874210632916, -0.07687219977378845, -1.1185170412063599, -0.08908368647098541, 0.844097375869751, 0.3593432605266571, -0.3979599177837372, 0.09907889366149902, 0.035661011934280396, -0.06621265411376953, -0.23216700568501147, 0.49711017637592736, 0.8355540645341969,0.028799372122684352,0.9435272216796875,0.387420654296875,-0.463531494140625
20220205-1707,2022-02-05 17:07:32Z,u01, 169,40,movements,el-ex, rt, d,12933.258037125, 1.1016655198906438, -0.3703784098941698, 0.3037650499192785, -0.027678854763507843, -1.1599644422531128, -0.09815634787082672, 0.83147794008255, 0.3619682192802429, -0.42145365476608276, 0.09161752462387085, 0.029358625411987305, -0.03608125448226929, -0.23292665183848305, 0.48478691508515354, 0.8424591465377419,0.031451105341809726,0.923095703125,0.391326904296875,-0.4575347900390625
20220205-1707,2022-02-05 17:07:32Z,u01, 170,40,movements,el-ex, rt, d,12933.282982125002, 1.0722865702526085, -0.37291629939897697, 0.30275371998992395, 0.009837993420660496, -1.159620761871338, -0.10325983166694641, 0.8179296255111694, 0.36433282494544983, -0.4452555775642395, 0.06097644567489624, 0.018067628145217896, -0.01765042543411255, -0.23324243386854032, 0.4721971778215582, 0.8494036660927116,0.03377944879298378,0.8823699951171875,0.382354736328125,-0.4617462158203125
20220205-1707,2022-02-05 17:07:32Z,u01, 171,40,movements,el-ex, rt, d,12933.307927125, 1.0427809566019564, -0.37414236605631374, 0.3007313831809066, 0.09449326246976852, -1.132888913154602, -0.048176541924476624, 0.8040515184402466, 0.3654743731021881, -0.46896636486053467, 0.06724041700363159, 0.021213799715042114, -0.014325350522994995, -0.23276181787965108, 0.45971594513003305, 0.8562617178885761,0.03603932913884428,0.8712921142578125,0.386688232421875,-0.4832916259765625
20220205-1707,2022-02-05 17:07:32Z,u01, 172,40,movements,el-ex, rt, d,12933.332872125, 1.0132998135835674, -0.3738555544802778, 0.2973622332240935, 0.13493871688842773, -1.1334319114685059, -0.060891468077898026, 0.78996741771698, 0.36520737409591675, -0.49251896142959595, 0.06415843963623047, 0.030361443758010864, -0.0029035210609436035, -0.23133195990449867, 0.4474662404595793, 0.8630231642144677,0.038083661720034134,0.856048583984375,0.3979644775390625,-0.488922119140625
20220205-1707,2022-02-05 17:07:32Z,u01, 173,40,movements,el-ex, rt, d,12933.357817125001, 0.9836922414808518, -0.3730590369781933, 0.29233103927617377, 0.21355757117271423, -1.1152228116989136, -0.06847308576107025, 0.7752829790115356, 0.36446577310562134, -0.5158497095108032, 0.0788581371307373, 0.035146623849868774, 0.019801616668701172, -0.22931255046940216, 0.43530552707179915, 0.8696917820769405,0.03950871262022604,0.8541412353515625,0.3996124267578125,-0.4960479736328125
20220205-1707,2022-02-05 17:07:33Z,u01, 174,40,movements,el-ex, rt, d,12933.382763125, 0.9537279364408706, -0.3716547195917896, 0.2871603601708032, 0.143782377243042, -1.1426150798797607, -0.050273776054382324, 0.7598968744277954, 0.3631576895713806, -0.5391411185264587, 0.08000785112380981, 0.006257593631744385, 0.04503089189529419, -0.2270043359027769, 0.4229639006599121, 0.8762928512759254,0.04100453602498416,0.84619140625,0.3783111572265625,-0.4901885986328125
20220205-1707,2022-02-05 17:07:33Z,u01, 175,40,movements,el-ex, rt, d,12933.407708125002, 0.9244094266836408, -0.37136677439579946, 0.284397280272146, 0.050583891570568085, -1.1238511800765991, -0.06121344491839409, 0.7438491582870483, 0.3628893792629242, -0.5612481832504272, 0.07466262578964233, 0.00547298789024353, 0.04835444688796997, -0.2256884576224493, 0.41041517939140193, 0.8824737081422693,0.043174432860477785,0.818511962890625,0.3683624267578125,-0.5128936767578125
20220205-1707,2022-02-05 17:07:33Z,u01, 176,40,movements,el-ex, rt, d,12933.432653125, 0.896002898560403, -0.37241783188480637, 0.2834687300457517, -0.049314506351947784, -1.1373693943023682, -0.051254622638225555, 0.7273099422454834, 0.3638685941696167, -0.5819105505943298, 0.08180248737335205, 8.401274681091309e-05, 0.05919009447097778, -0.22532263076401157, 0.39783720186961125, 0.8881801906125608,0.04572927135143906,0.81427001953125,0.3687286376953125,-0.52117919921875
20220205-1707,2022-02-05 17:07:33Z,u01, 177,40,movements,el-ex, rt, d,12933.457598125, 0.8678767244889333, -0.37497737693244215, 0.2839507176034046, -0.07694403827190399, -1.1307003498077393, -0.07560209929943085, 0.7099445462226868, 0.36625146865844727, -0.6015300750732422, 0.0759592056274414, -0.0022836625576019287, 0.06428331136703491, -0.2258654716363937, 0.3849931879900159, 0.8935363809533896,0.04855482554936913,0.7859039306640625,0.3639678955078125,-0.5372467041015625
20220205-1707,2022-02-05 17:07:33Z,u01, 178,40,movements,el-ex, rt, d,12933.482543791668, 0.840122871330911, -0.3774292838624752, 0.2835028510432349, -0.012881466187536716, -1.0838290452957153, -0.08355889469385147, 0.692307710647583, 0.3685319125652313, -0.6203984618186951, 0.05906546115875244, 0.0219709575176239, 0.05916488170623779, -0.2261618861947813, 0.3723594662386691, 0.8986665435501642,0.05096731960820727,0.7531890869140625,0.3922119140625,-0.5540313720703125
20220205-1707,2022-02-05 17:07:33Z,u01, 179,40,movements,el-ex, rt, d,12933.507488791667, 0.8125252610616327, -0.3790340857734702, 0.2816896943470213, -0.008375531993806362, -1.0867031812667847, -0.09532074630260468, 0.6744945049285889, 0.37002328038215637, -0.6388583183288574, 0.07027161121368408, 0.017198950052261353, 0.05023515224456787, -0.2258191159219507, 0.3599674726065991, 0.9036740902395557,0.05293600817078081,0.7447662353515625,0.3872222900390625,-0.588623046875
20220205-1707,2022-02-05 17:07:33Z,u01, 180,40,movements,el-ex, rt, d,12933.532433791668, 0.7852348557470407, -0.38135659398670974, 0.28078267024023157, -0.07179601490497589, -1.0622940063476562, -0.10175035148859024, 0.6562014222145081, 0.37217995524406433, -0.6564157605171204, 0.06444048881530762, 0.0043763816356658936, 0.06121617555618286, -0.22594960673664913, 0.34747503011026604, 0.9083871563477052,0.05513992314057159,0.7239532470703125,0.37420654296875,-0.5893402099609375
20220205-1707,2022-02-05 17:07:33Z,u01, 181,40,movements,el-ex, rt, d,12933.557378791667, 0.7586729116398115, -0.38487668059483254, 0.27991872754178665, -0.05051063746213913, -1.040579915046692, -0.13019463419914246, 0.6376310586929321, 0.37544482946395874, -0.6726571917533875, 0.07484740018844604, 0.027860164642333984, 0.042255520820617676, -0.22662449072986526, 0.335130932502266, 0.9127278470134335,0.05706445099310564,0.7124786376953125,0.4033050537109375,-0.630401611328125
20220205-1707,2022-02-05 17:07:33Z,u01, 182,40,movements,el-ex, rt, d,12933.582323791667, 0.7315010260915491, -0.38704440793057493, 0.2770320482534285, 0.052587755024433136, -1.0575155019760132, -0.15455518662929535, 0.6185755133628845, 0.37745311856269836, -0.6891251802444458, 0.06468242406845093, 0.03592270612716675, 0.01132965087890625, -0.22633591437522152, 0.32281492518998517, 0.9171427185044374,0.05841050710227813,0.6921844482421875,0.4096832275390625,-0.67108154296875
20220205-1707,2022-02-05 17:07:33Z,u01, 183,40,movements,el-ex, rt, d,12933.607268791668, 0.7035573394725408, -0.38820254138860666, 0.27250860762618295, 0.09178256243467331, -1.0453968048095703, -0.16627655923366547, 0.5987966060638428, 0.3785253167152405, -0.7058053612709045, 0.06418240070343018, 0.033629775047302246, 0.026331424713134766, -0.2253193626431449, 0.3103683436894015, 0.92162316284214,0.059274362138992454,0.6629791259765625,0.4121551513671875,-0.679473876953125
20220205-1707,2022-02-05 17:07:33Z,u01, 184,40,movements,el-ex, rt, d,12933.632213791667, 0.675764670129124, -0.3898134325476672, 0.2673241368815991, 0.03593554347753525, -1.0229088068008423, -0.21917864680290222, 0.5785695314407349, 0.38001585006713867, -0.7216960787773132, 0.05914098024368286, 0.05490535497665405, 0.03451645374298096, -0.22443397952393204, 0.297962003608039, 0.9258949288170557,0.05972022603452082,0.638397216796875,0.4313812255859375,-0.679290771484375
20220205-1707,2022-02-05 17:07:33Z,u01, 185,40,movements,el-ex, rt, d,12933.657158791668, 0.6479186483347572, -0.393038215236077, 0.2614417038168612, 0.04254813492298126, -1.0267865657806396, -0.2758808732032776, 0.5575089454650879, 0.38299673795700073, -0.736544132232666, 0.07725656032562256, 0.05557134747505188, 0.02578967809677124, -0.2242149561627466, 0.28540425564087346, 0.9299053462647727,0.059565762139122846,0.634765625,0.438568115234375,-0.71075439453125
20220205-1707,2022-02-05 17:07:33Z,u01, 186,40,movements,el-ex, rt, d,12933.682103791667, 0.6196958753773284, -0.39598925626523185, 0.2542340650749477, 0.07442930340766907, -1.0130500793457031, -0.29896822571754456, 0.5358436107635498, 0.3857210874557495, -0.7510598301887512, 0.06349098682403564, 0.04451566934585571, 0.048453569412231445, -0.22372520631393705, 0.2727950112005166, 0.9338428278965157,0.058885384357105164,0.6056976318359375,0.4306640625,-0.7036895751953125
20220205-1707,2022-02-05 17:07:33Z,u01, 187,40,movements,el-ex, rt, d,12933.707048791668, 0.591618074083274, -0.3982467417565105, 0.24567181456994194, 0.12080410122871399, -0.9666272401809692, -0.3294241726398468, 0.5140601396560669, 0.3878028988838196, -0.7650823593139648, 0.06348490715026855, 0.043685078620910645, 0.050436973571777344, -0.2228054322650583, 0.26041611723428754, 0.9376653772214696,0.05765962734231139,0.577545166015625,0.431488037109375,-0.7146453857421875
20220205-1707,2022-02-05 17:07:33Z,u01, 188,40,movements,el-ex, rt, d,12933.731993791667, 0.5637913418572592, -0.4007599486887264, 0.236382090075658, 0.07977001368999481, -0.973922073841095, -0.3462579548358917, 0.49205172061920166, 0.39011818170547485, -0.7782626748085022, 0.06298661231994629, 0.028384536504745483, 0.0399051308631897, -0.22199695618609352, 0.2481652817081013, 0.9412723550650166,0.056013086227588105,0.5603790283203125,0.425018310546875,-0.739288330078125
20220205-1707,2022-02-05 17:07:33Z,u01, 189,40,movements,el-ex, rt, d,12933.756938791668, 0.5360454685453445, -0.40489169197420943, 0.22736269167656908, 0.003949644975364208, -0.9502756595611572, -0.39087581634521484, 0.46944427490234375, 0.3939191997051239, -0.7902212738990784, 0.0546644926071167, 0.030625998973846436, 0.039305686950683594, -0.2220629618793866, 0.23574858845525246, 0.9445462287383285,0.05424900875352601,0.52410888671875,0.4245452880859375,-0.75091552734375
20220205-1707,2022-02-05 17:07:33Z,u01, 190,40,movements,el-ex, rt, d,12933.781883791667, 0.5088244838784078, -0.4085899723346935, 0.216938940187376, 0.16454245150089264, -0.9108309149742126, -0.4222043454647064, 0.44704964756965637, 0.39731577038764954, -0.801427960395813, 0.05244666337966919, 0.07265487313270569, -0.010049760341644287, -0.22187174750356714, 0.22373860124085412, 0.9476428881836874,0.051834150802327006,0.500885009765625,0.4688720703125,-0.799163818359375
20220205-1707,2022-02-05 17:07:33Z,u01, 191,40,movements,el-ex, rt, d,12933.806828791667, 0.48076139330894196, -0.4073605324725795, 0.20313593831973628, 0.34925705194473267, -0.9098588228225708, -0.4253998100757599, 0.4246115982532501, 0.3961872458457947, -0.8140888214111328, 0.05658945441246033, 0.05178022384643555, 0.0003070235252380371, -0.21908651015659558, 0.21202995270097164, 0.9511511851794962,0.048534548233518715,0.481201171875,0.447967529296875,-0.81378173828125
20220205-1707,2022-02-05 17:07:33Z,u01, 192,40,movements,el-ex, rt, d,12933.831773791668, 0.45235740172328615, -0.4059844804362232, 0.1891692629614469, 0.17861419916152954, -0.9308262467384338, -0.4433650076389313, 0.401557981967926, 0.3949234187602997, -0.8263090252876282, 0.060493260622024536, 0.001972883939743042, 0.018157780170440674, -0.21633281797749773, 0.20011394352526676, 0.9545243447074092,0.04514047024258905,0.4651641845703125,0.398681640625,-0.806732177734375
20220205-1707,2022-02-05 17:07:33Z,u01, 193,40,movements,el-ex, rt, d,12933.856718791667, 0.42423960047722437, -0.40837936710977185, 0.1771853603744301, 0.06818266212940216, -0.9319856762886047, -0.437542200088501, 0.37777793407440186, 0.39712250232696533, -0.836407482624054, 0.0625905990600586, 0.009188443422317505, 0.022137463092803955, -0.21569186305538599, 0.18781181823479925, 0.9573007979925936,0.04217385357931058,0.44036865234375,0.40631103515625,-0.81427001953125
20220205-1707,2022-02-05 17:07:33Z,u01, 194,40,movements,el-ex, rt, d,12933.881663791668, 0.3966963905395815, -0.4096746915439197, 0.16472374906901346, 0.22749431431293488, -0.8756256699562073, -0.447083443403244, 0.354401171207428, 0.39831095933914185, -0.8460190296173096, 0.05696043372154236, 0.03918898105621338, 0.0003311038017272949, -0.2146159638926164, 0.17587065269134697, 0.9599408832702419,0.039023896075467024,0.4140625,0.435943603515625,-0.842376708984375
20220205-1707,2022-02-05 17:07:33Z,u01, 195,40,movements,el-ex, rt, d,12933.906608791667, 0.36926952998643947, -0.40762517028764983, 0.1505787491659106, 0.2722022235393524, -0.8933213949203491, -0.45081833004951477, 0.3313610851764679, 0.39643019437789917, -0.8561792373657227, 0.07792532444000244, 0.023461103439331055, 0.012444496154785156, -0.21192395054578334, 0.16431256487384072, 0.9627250295997942,0.035355734731564725,0.4092864990234375,0.419891357421875,-0.8437347412109375
20220205-1707,2022-02-05 17:07:33Z,u01, 196,40,movements,el-ex, rt, d,12933.931553791668, 0.34081443958245067, -0.40663187661297656, 0.13694826992760936, 0.10909576714038849, -0.9465829133987427, -0.4591693878173828, 0.3069990575313568, 0.39551809430122375, -0.8656309843063354, 0.07672888040542603, -0.013789057731628418, 0.015518009662628174, -0.20989116776285577, 0.15208619763605463, 0.9652974001232926,0.031878962323591886,0.391082763671875,0.38360595703125,-0.857147216796875
20220205-1707,2022-02-05 17:07:33Z,u01, 197,40,movements,el-ex, rt, d,12933.956498791667, 0.31247718050710704, -0.4091482027655091, 0.12488207933631153, 0.053202513605356216, -0.9273161292076111, -0.4418591856956482, 0.28204262256622314, 0.39782798290252686, -0.8730319738388062, 0.07173231244087219, -0.006226480007171631, 0.003509819507598877, -0.20979192889931098, 0.1395398481683049, 0.9673086092618288,0.02880573388280505,0.3537750244140625,0.3916015625,-0.8695220947265625
20220205-1707,2022-02-05 17:07:33Z,u01, 198,40,movements,el-ex, rt, d,12933.981443791667, 0.28532558702392125, -0.40832748677091013, 0.11203903663863507, 0.3009120523929596, -0.8562586903572083, -0.4483114778995514, 0.2583291828632355, 0.3970748782157898, -0.8806802034378052, 0.06254780292510986, 0.03619837760925293, -0.0207175612449646, -0.20816910310460157, 0.1277714139548619, 0.9693763072845873,0.02548895030252002,0.3216705322265625,0.43145751953125,-0.893829345703125
20220205-1707,2022-02-05 17:07:33Z,u01, 199,40,movements,el-ex, rt, d,12934.006388791668, 0.25803055264150315, -0.4034172497791393, 0.09754593228262538, 0.27455559372901917, -0.8933359384536743, -0.4684658944606781, 0.23469245433807373, 0.3925635516643524, -0.8892768621444702, 0.0892820656299591, 0.01165693998336792, -0.01529473066329956, -0.2045876638299679, 0.11621302792488311, 0.9716845278015236,0.02162312266849331,0.323974609375,0.4042205810546875,-0.904571533203125
20220205-1707,2022-02-05 17:07:33Z,u01, 200,40,movements,el-ex, rt, d,12934.031333791667, 0.22936045040056516, -0.403083003058245, 0.08445006524713301, 0.007630267180502415, -0.9784753322601318, -0.45173147320747375, 0.20913365483283997, 0.39225611090660095, -0.8957668542861938, 0.08360612392425537, -0.046141088008880615, 0.03639179468154907, -0.20342029000468523, 0.10361836956831266, 0.9734228578500004,0.01820043645478958,0.3028106689453125,0.34796142578125,-0.8595123291015625
20220205-1707,2022-02-05 17:07:33Z,u01, 201,40,movements,el-ex, rt, d,12934.056279791668, 0.20075224015622775, -0.4055955973957469, 0.07279866935161361, 0.05221261456608772, -0.9317428469657898, -0.412814736366272, 0.18322817981243134, 0.3945661187171936, -0.9004138112068176, 0.0769646167755127, -0.014835953712463379, 0.01825737953186035, -0.20383601016285702, 0.09079637374008248, 0.9746655060711493,0.015296594132368113,0.26019287109375,0.379730224609375,-0.8821563720703125
20220205-1707,2022-02-05 17:07:33Z,u01, 202,40,movements,el-ex, rt, d,12934.081224791667, 0.1738226695151959, -0.40417919623116255, 0.061296802856756004, 0.16151820123195648, -0.8776801228523254, -0.41594183444976807, 0.15901340544223785, 0.3932642340660095, -0.9055705070495605, 0.06629778444766998, -0.015349864959716797, 0.0011057853698730469, -0.2024711618403957, 0.078868080132552, 0.9760271526819431,0.01249224124787518,0.2322235107421875,0.3827362060546875,-0.9029541015625
20220205-1707,2022-02-05 17:07:33Z,u01, 203,40,movements,el-ex, rt, d,12934.106169791667, 0.1471369133382619, -0.40346200261738757, 0.04978069479123874, 0.036288343369960785, -0.9149113893508911, -0.411215603351593, 0.1348351538181305, 0.3926047086715698, -0.9097697734832764, 0.08515071868896484, -0.0317649245262146, 0.026468932628631592, -0.20155387811188435, 0.06701611222535704, 0.9771349483808154,0.00959439971240289,0.2199859619140625,0.36083984375,-0.88330078125
20220205-1707,2022-02-05 17:07:33Z,u01, 204,40,movements,el-ex, rt, d,12934.131114791668, 0.11979100614083261, -0.4045666892279735, 0.03894051804900931, -0.006201892159879208, -0.9201506972312927, -0.3917351961135864, 0.1098574623465538, 0.39362046122550964, -0.912685215473175, 0.07539941370487213, -0.020466864109039307, 0.04728293418884277, -0.20165001110257585, 0.05472362385379183, 0.9779025545265354,0.007013931800756379,0.1943206787109375,0.36456298828125,-0.865020751953125
20220205-1707,2022-02-05 17:07:33Z,u01, 205,40,movements,el-ex, rt, d,12934.156059791667, 0.093613508734916, -0.40460730904738434, 0.02851094501655658, 0.10074043273925781, -0.8377138376235962, -0.38455602526664734, 0.08592924475669861, 0.3936578035354614, -0.9152320027351379, 0.061485856771469116, -0.010143458843231201, 0.05953437089920044, -0.20133948328881357, 0.042969728552883446, 0.9785679119621766,0.004548652319001423,0.1474151611328125,0.383514404296875,-0.8556976318359375
20220205-1707,2022-02-05 17:07:33Z,u01, 206,40,movements,el-ex, rt, d,12934.181004791668, 0.06946487187920514, -0.4015114739608773, 0.017503768333556814, 0.1768006831407547, -0.7649685740470886, -0.40844887495040894, 0.06388901174068451, 0.3908100426197052, -0.9182514548301697, 0.05763190984725952, -0.0027333498001098633, 0.0784686803817749, -0.19957985467175218, 0.0322825916131419, 0.979348250298222,0.0016464953067245047,0.12158203125,0.387664794921875,-0.8376007080078125
20220205-1707,2022-02-05 17:07:33Z,u01, 207,40,movements,el-ex, rt, d,12934.205949791667, 0.04587636544905798, -0.39924138612046506, 0.005723161217768369, 0.04999616742134094, -0.7730629444122314, -0.4444952607154846, 0.04225364699959755, 0.38871949911117554, -0.9203867316246033, 0.08012178540229797, -0.0063800811767578125, 0.10131019353866577, -0.19830892373428027, 0.021913315227220412, 0.9798930197024343,-0.0017441551615630657,0.12237548828125,0.3823394775390625,-0.8190765380859375
20220205-1707,2022-02-05 17:07:33Z,u01, 208,40,movements,el-ex, rt, d,12934.230894791668, 0.02145863679717278, -0.39992272700280235, -0.006467764835277481, -0.05913887545466423, -0.7909336090087891, -0.4461158514022827, 0.019763842225074768, 0.3893471658229828, -0.9208790063858032, 0.05320362746715546, -0.0007211565971374512, 0.11324656009674072, -0.19858499387271564, 0.011157585083072144, 0.9800057935115636,-0.005300385440122235,0.085052490234375,0.3865203857421875,-0.8115081787109375
20220205-1707,2022-02-05 17:07:33Z,u01, 209,40,movements,el-ex, rt, d,12934.255839791667, -0.001963493522148999, -0.40139021079733544, -0.018111950755833044, -0.047032080590724945, -0.7141095399856567, -0.42485013604164124, -0.001807431341148913, 0.3906984329223633, -0.9205169677734375, 0.041434451937675476, -0.029110997915267944, 0.1149749755859375, -0.19935099189992156, 0.0008432865896370184, 0.9798892748944511,-0.008678377548291871,0.0396270751953125,0.3615875244140625,-0.8055419921875
20220205-1707,2022-02-05 17:07:33Z,u01, 210,40,movements,el-ex, rt, d,12934.280784791668, -0.023669368735492198, -0.40293176501060396, -0.029352787384310415, -0.10539102554321289, -0.6782762408256531, -0.39304405450820923, -0.021771783009171486, 0.3921169936656952, -0.9196576476097107, 0.027905762195587158, -0.050106585025787354, 0.1292218565940857, -0.20024040689826095, -0.008657280367644321, 0.9796348196065228,-0.012010152581237443,0.009918212890625,0.345489501953125,-0.798431396484375
20220205-1707,2022-02-05 17:07:33Z,u01, 211,40,movements,el-ex, rt, d,12934.305729791668, -0.04409834033799165, -0.4065400119352799, -0.03928584675023671, -0.18711814284324646, -0.6426032781600952, -0.3291362226009369, -0.040490955114364624, 0.3954337239265442, -0.9176015257835388, 0.04296283796429634, -0.06415024399757385, 0.1428213119506836, -0.20220924454836844, -0.017625142258559698, 0.979071990151674,-0.014782681703983724,0.002471923828125,0.3312835693359375,-0.7747802734375
20220205-1707,2022-02-05 17:07:33Z,u01, 212,40,movements,el-ex, rt, d,12934.330674791667, -0.06201955471038787, -0.4097217624177141, -0.04753461688852449, -0.060251012444496155, -0.530162513256073, -0.24942943453788757, -0.05684984102845192, 0.3983541429042816, -0.9154682159423828, 0.00878460705280304, -0.06345430016517639, 0.1739063262939453, -0.20399715485772638, -0.025515675729635715, 0.978492046594313,-0.01695138399552437,-0.0404510498046875,0.33306884765625,-0.74725341796875
20220205-1707,2022-02-05 17:07:33Z,u01, 213,40,movements,el-ex, rt, d,12934.355619791668, -0.0755055047761097, -0.4089420189097024, -0.053307597034530176, 0.0627584308385849, -0.38058146834373474, -0.20315800607204437, -0.06921366602182388, 0.39763879776000977, -0.9149277806282043, 0.006835684180259705, -0.06612643599510193, 0.15027934312820435, -0.20381741129155295, -0.031536863848814226, 0.9783275045690825,-0.018415752559481247,-0.0623779296875,0.331512451171875,-0.7646484375
20220205-1707,2022-02-05 17:07:34Z,u01, 214,40,movements,el-ex, rt, d,12934.380564791667, -0.08736127248623056, -0.40853633983649323, -0.05865337134937517, -0.08269540220499039, -0.42141854763031006, -0.17550712823867798, -0.08006978034973145, 0.39726653695106506, -0.9142035245895386, 0.034293368458747864, -0.09146520495414734, 0.13241946697235107, -0.2038237936758245, -0.03679810997812147, 0.9781146282626747,-0.019831454465876752,-0.0486297607421875,0.3167724609375,-0.792816162109375
20220205-1707,2022-02-05 17:07:34Z,u01, 215,40,movements,el-ex, rt, d,12934.405509791668, -0.10003424830930593, -0.41323748541336525, -0.06296045728906897, -0.3048175871372223, -0.43194106221199036, -0.1073092371225357, -0.0914611965417862, 0.4015763998031616, -0.9112470746040344, 0.02534482628107071, -0.11323115229606628, 0.18617993593215942, -0.2063338506663838, -0.04245953790258344, 0.9773445746809014,-0.02051529548345049,-0.0661163330078125,0.2883453369140625,-0.725067138671875
20220205-1707,2022-02-05 17:07:34Z,u01, 216,40,movements,el-ex, rt, d,12934.430454791667, -0.11033925367356613, -0.4195640208383773, -0.06624846041010823, -0.18786729872226715, -0.2915043532848358, -0.0853845626115799, -0.10056480765342712, 0.40736231207847595, -0.9077128767967224, 0.016107380390167236, -0.050199955701828, 0.1632060408592224, -0.20960197067433076, -0.04701689890934727, 0.9764327104103756,-0.020866051812370057,-0.0894622802734375,0.34722900390625,-0.7490386962890625
20220205-1707,2022-02-05 17:07:34Z,u01, 217,40,movements,el-ex, rt, d,12934.455399791668, -0.11679783859753656, -0.4228866168614228, -0.06857557986141011, -0.12337938696146011, -0.16334187984466553, -0.052775751799345016, -0.10626689344644547, 0.41039448976516724, -0.9056951403617859, 0.02373206615447998, -0.0861605703830719, 0.1911107897758484, -0.21134666688819442, -0.049849983858383726, 0.975908362477685,-0.02121836903817992,-0.0825347900390625,0.3242340087890625,-0.7145843505859375
20220205-1707,2022-02-05 17:07:34Z,u01, 218,40,movements,el-ex, rt, d,12934.480344625, -0.1200701213458206, -0.42491168213665387, -0.06936284559198956, -0.016806066036224365, -0.07731431722640991, 0.010247156955301762, -0.10913024097681046, 0.41224032640457153, -0.9045156240463257, -0.0005652457475662231, -0.09414041042327881, 0.1807454228401184, -0.21238839123914707, -0.05131639680554785, 0.9756067620548832,-0.021189934835369184,-0.1133575439453125,0.3256378173828125,-0.7223663330078125
20220205-1707,2022-02-05 17:07:34Z,u01, 219,40,movements,el-ex, rt, d,12934.505289625, -0.12088298312196992, -0.42547814822280755, -0.06902391750541237, -0.03405210003256798, -0.02640679106116295, 0.011626806110143661, -0.10983727127313614, 0.4127563536167145, -0.9041946530342102, 0.029514960944652557, -0.08824777603149414, 0.1992233395576477, -0.21266426375137296, -0.05173575604454322, 0.9755304264739046,-0.02091951338334158,-0.080322265625,0.3245086669921875,-0.7049713134765625
20220205-1707,2022-02-05 17:07:34Z,u01, 220,40,movements,el-ex, rt, d,12934.530234625001, -0.11972015864828148, -0.4277161228285335, -0.06833855781136951, -0.08603271096944809, 0.06692109256982803, 0.04530174657702446, -0.10867518186569214, 0.4147937595844269, -0.9034023880958557, 0.018739834427833557, -0.10153087973594666, 0.20319175720214844, -0.21372507230158505, -0.05118997467222602, 0.9753333943842452,-0.02063538406806581,-0.0827484130859375,0.3139495849609375,-0.6992340087890625
20220205-1707,2022-02-05 17:07:34Z,u01, 221,40,movements,el-ex, rt, d,12934.555179625, -0.11528972271930099, -0.42955007413899676, -0.06676695336794512, -0.032457299530506134, 0.2154233455657959, 0.07619774341583252, -0.1045839786529541, 0.4164617955684662, -0.9031177759170532, 0.016830630600452423, -0.09590521454811096, 0.17914927005767822, -0.21453388777789786, -0.04915608436750688, 0.9752677742489997,-0.020284176849385438,-0.0877532958984375,0.320556640625,-0.723968505859375
20220205-1707,2022-02-05 17:07:34Z,u01, 222,40,movements,el-ex, rt, d,12934.580124625001, -0.10801958911529674, -0.4304774252239076, -0.06431581670133374, -0.03293956443667412, 0.267807275056839, 0.10425394773483276, -0.09797380864620209, 0.41730472445487976, -0.9034699201583862, 0.02178662270307541, -0.09668710827827454, 0.15975654125213623, -0.21485459135665821, -0.045853518549560796, 0.9753672355483325,-0.01984078442373144,-0.075927734375,0.3267974853515625,-0.73895263671875
20220205-1707,2022-02-05 17:07:34Z,u01, 223,40,movements,el-ex, rt, d,12934.605069625, -0.09977493889324185, -0.4326264146491612, -0.06131254815502817, -0.12808671593666077, 0.28190308809280396, 0.13340863585472107, -0.09043223410844803, 0.41925668716430664, -0.9033525586128235, 0.01706792414188385, -0.09593826532363892, 0.1535966992378235, -0.2157553414839149, -0.04211122120815987, 0.9753499513962711,-0.019202017490293544,-0.0733642578125,0.3233184814453125,-0.749755859375
20220205-1707,2022-02-05 17:07:34Z,u01, 224,40,movements,el-ex, rt, d,12934.630014625001, -0.09049406066128243, -0.43646082055615004, -0.05730276237773205, -0.12360391765832901, 0.3351956903934479, 0.1781386286020279, -0.08189866691827774, 0.42273473739624023, -0.9025452136993408, 0.022755548357963562, -0.08649212121963501, 0.15854191780090332, -0.2174570579823975, -0.03794477908169802, 0.9751630380903747,-0.018150652277583113,-0.0575408935546875,0.3318328857421875,-0.7477874755859375
20220205-1707,2022-02-05 17:07:34Z,u01, 225,40,movements,el-ex, rt, d,12934.654959625, -0.07826751447076712, -0.4388685880384303, -0.0523529872254176, -0.046774618327617645, 0.462933748960495, 0.1813105046749115, -0.0707780197262764, 0.4249155521392822, -0.9024617671966553, 0.02462013065814972, -0.0664713978767395, 0.15142416954040527, -0.2184358005053577, -0.03247950824958841, 0.97516223209156,-0.017012877183890496,-0.0461578369140625,0.3584442138671875,-0.75103759765625
20220205-1707,2022-02-05 17:07:34Z,u01, 226,40,movements,el-ex, rt, d,12934.679904625002, -0.06403138696054293, -0.4414062949357387, -0.04778612839106677, -0.15860843658447266, 0.4989464282989502, 0.1565311998128891, -0.057854536920785904, 0.4272114038467407, -0.9022988677024841, 0.04038316011428833, -0.0651509165763855, 0.15367215871810913, -0.2194873536380246, -0.02599747270826694, 0.9751326884547171,-0.016293801580784473,-0.01690673828125,0.366363525390625,-0.7513580322265625
20220205-1707,2022-02-05 17:07:34Z,u01, 227,40,movements,el-ex, rt, d,12934.704849625, -0.049493381809810666, -0.44766689036254054, -0.043775003735526875, -0.2596959173679352, 0.5456952452659607, 0.16875776648521423, -0.044598065316677094, 0.4328635036945343, -0.9003555774688721, 0.01890219748020172, -0.07341229915618896, 0.16233372688293457, -0.22237599434042715, -0.019264638789878594, 0.974641838979172,-0.0158421288047631,-0.02569580078125,0.3594512939453125,-0.7380218505859375
20220205-1707,2022-02-05 17:07:34Z,u01, 228,40,movements,el-ex, rt, d,12934.729795625, -0.03206364060942769, -0.4505411686964877, -0.03905921433049204, 0.04881465435028076, 0.6739107370376587, 0.17949937283992767, -0.02885911427438259, 0.43545275926589966, -0.8997488617897034, 0.029942438006401062, -0.006406217813491821, 0.11227327585220337, -0.22360398400199544, -0.011261613627095837, 0.9744924764521394,-0.015452317117095105,-0.0058746337890625,0.41583251953125,-0.7889862060546875
20220205-1707,2022-02-05 17:07:34Z,u01, 229,40,movements,el-ex, rt, d,12934.754740625001, -0.012576957527247565, -0.44893287422218275, -0.03403629098843304, 0.011808267794549465, 0.6831755638122559, 0.17474502325057983, -0.011330417357385159, 0.43400439620018005, -0.9008395075798035, 0.04792092740535736, -0.03216427564620972, 0.13246792554855347, -0.2226539298335244, -0.00234204430147425, 0.9747763055524385,-0.015190566770713343,0.036590576171875,0.4018402099609375,-0.76837158203125
20220205-1707,2022-02-05 17:07:34Z,u01, 230,40,movements,el-ex, rt, d,12934.779685625, 0.006376954389784769, -0.45192393601264347, -0.029404329441733504, -0.23092421889305115, 0.6928998231887817, 0.17235511541366577, 0.005736724007874727, 0.4366971254348755, -0.8995903134346008, 0.023499056696891785, -0.056020915508270264, 0.14167094230651855, -0.22397295425594627, 0.00640087865828963, 0.9744582031979281,-0.015042114012592589,0.0207977294921875,0.3688201904296875,-0.7558441162109375
20220205-1707,2022-02-05 17:07:34Z,u01, 231,40,movements,el-ex, rt, d,12934.804630625002, 0.02723015355946256, -0.4574495569949558, -0.02361627221642254, -0.18155519664287567, 0.7807322144508362, 0.23160964250564575, 0.024427380412817, 0.4416613280773163, -0.8968492150306702, 0.061098068952560425, -0.03501465916633606, 0.12043625116348267, -0.22654231062291985, 0.015936172212867153, 0.9737616868000241,-0.014585989592624693,0.0855255126953125,0.406646728515625,-0.7764129638671875
20220205-1707,2022-02-05 17:07:34Z,u01, 232,40,movements,el-ex, rt, d,12934.829575625, 0.05098827845348141, -0.45959497448036285, -0.01696391162254908, 0.012512673623859882, 0.8690953254699707, 0.22889241576194763, 0.045677538961172104, 0.4435851573944092, -0.8950674533843994, 0.011420786380767822, 0.002947986125946045, 0.056368112564086914, -0.22748761304130707, 0.026751755050729006, 0.9733118016285778,-0.014062431359408711,0.066802978515625,0.444732666015625,-0.8223724365234375
20220205-1707,2022-02-05 17:07:34Z,u01, 233,40,movements,el-ex, rt, d,12934.854520625, 0.07577808564177912, -0.4547048488842081, -0.010951868986024165, 0.2855445146560669, 0.8894665241241455, 0.22689005732536316, 0.06801319122314453, 0.4391971826553345, -0.8958125114440918, -0.014500699937343597, -0.006335943937301636, 0.0425868034362793, -0.22503164679671225, 0.03813802229941475, 0.9735059376307407,-0.013869142087550912,0.0535125732421875,0.432861328125,-0.8532257080078125
20220205-1707,2022-02-05 17:07:34Z,u01, 234,40,movements,el-ex, rt, d,12934.879465625001, 0.10001745822511654, -0.44944779804669027, -0.004819615973045634, 0.028122257441282272, 0.8551633358001709, 0.24840351939201355, 0.0899343192577362, 0.43446823954582214, -0.8961858749389648, 0.08192536234855652, -0.03603082895278931, 0.09484004974365234, -0.22244056231474568, 0.04926716032823768, 0.973607194711174,-0.013485407237185831,0.154083251953125,0.404327392578125,-0.8002471923828125
20220205-1707,2022-02-05 17:07:34Z,u01, 235,40,movements,el-ex, rt, d,12934.904410625, 0.12441682489717303, -0.4516604833028703, 0.0025772821340290814, -0.21678662300109863, 0.8455393314361572, 0.24711814522743225, 0.1116521805524826, 0.43646010756492615, -0.892768919467926, 0.08500303328037262, -0.03114098310470581, 0.027214109897613525, -0.22356036796556603, 0.0603017140304969, 0.9727404674775424,-0.012666948977634263,0.1966552734375,0.4053192138671875,-0.8655548095703125
20220205-1707,2022-02-05 17:07:34Z,u01, 236,40,movements,el-ex, rt, d,12934.929355625001, 0.1498075115956566, -0.4559042995838672, 0.010494313159015863, -0.14755256474018097, 0.9207219481468201, 0.2524476647377014, 0.1340041160583496, 0.4402744174003601, -0.8878070116043091, -0.009126245975494385, -0.009549379348754883, 0.014546513557434082, -0.22572888698333307, 0.07171443709429533, 0.9714750896511898,-0.01181386700467224,0.1310272216796875,0.4246826171875,-0.86505126953125
20220205-1707,2022-02-05 17:07:34Z,u01, 237,40,movements,el-ex, rt, d,12934.954300625, 0.17702696421129283, -0.4544418532126869, 0.017491613275149597, 0.20236985385417938, 0.9962161183357239, 0.27801793813705444, 0.15823033452033997, 0.43896088004112244, -0.8844639658927917, 0.001910582184791565, 0.0298500657081604, -0.025387167930603027, -0.22513353283801027, 0.08416005858607342, 0.9706190630120545,-0.011425173135157451,0.1601409912109375,0.46881103515625,-0.90985107421875
20220205-1707,2022-02-05 17:07:34Z,u01, 238,40,movements,el-ex, rt, d,12934.979245625002, 0.20411973066320127, -0.44527832128211187, 0.023739128695760864, 0.33354076743125916, 0.9462556838989258, 0.29112038016319275, 0.18293961882591248, 0.4307090938091278, -0.8837549090385437, 0.06803683936595917, 0.030884474515914917, -0.0282323956489563, -0.22081941118511245, 0.09675397398986842, 0.9704415267195172,-0.010978496571808494,0.2428131103515625,0.4674835205078125,-0.9248504638671875
20220205-1707,2022-02-05 17:07:34Z,u01, 239,40,movements,el-ex, rt, d,12935.004190625, 0.2293702163658612, -0.4394753464245848, 0.0300779098043315, -0.016897745430469513, 0.870582103729248, 0.24679723381996155, 0.2057589888572693, 0.4254647195339203, -0.8812735080718994, 0.07097433507442474, -0.02647799253463745, 0.018022775650024414, -0.21819675422518292, 0.10841320494306846, 0.9698089325212926,-0.010360373914663212,0.2767333984375,0.39898681640625,-0.863250732421875
20220205-1707,2022-02-05 17:07:34Z,u01, 240,40,movements,el-ex, rt, d,12935.029135625, 0.25368934086793415, -0.44160202819483957, 0.03654383576940357, -0.15489119291305542, 0.8719083070755005, 0.2025895118713379, 0.22690023481845856, 0.42738837003707886, -0.8751316666603088, 0.035245686769485474, 0.015208005905151367, 0.008340895175933838, -0.21947070997775775, 0.11944357201299488, 0.9682279765208058,-0.010017251825642448,0.259368896484375,0.43072509765625,-0.8673553466796875
20220205-1707,2022-02-05 17:07:34Z,u01, 241,40,movements,el-ex, rt, d,12935.054080625001, 0.278680871565974, -0.4420443991125957, 0.042677820118467866, -0.05098181590437889, 0.9138696193695068, 0.2028375118970871, 0.24864594638347626, 0.42778825759887695, -0.8690065741539001, 0.04078269004821777, 0.0067972540855407715, 0.006869673728942871, -0.21994431337740383, 0.13084809855793297, 0.9666471071262647,-0.009825051612818547,0.2894287109375,0.4345855712890625,-0.8621368408203125
20220205-1707,2022-02-05 17:07:34Z,u01, 242,40,movements,el-ex, rt, d,12935.079025625, 0.30359437813777174, -0.4439944129322629, 0.048906513558393185, -0.2576742172241211, 0.8517935872077942, 0.1940004825592041, 0.26996663212776184, 0.42955002188682556, -0.8617451786994934, 0.07421049475669861, -0.020355135202407837, 0.03856396675109863, -0.2211879565442281, 0.14213831511261732, 0.9647684398973876,-0.009707761345698118,0.33624267578125,0.4126434326171875,-0.8304443359375
20220205-1707,2022-02-05 17:07:34Z,u01, 243,40,movements,el-ex, rt, d,12935.103970625001, 0.3276649758594734, -0.45125614938260966, 0.05725702941186688, -0.44910138845443726, 0.8078243136405945, 0.192477747797966, 0.2896176278591156, 0.43609628081321716, -0.852022111415863, 0.06705647706985474, -0.034530818462371826, 0.02983272075653076, -0.22518275486214606, 0.1525833374075943, 0.96225308616611,-0.008948175890036825,0.3566741943359375,0.4015655517578125,-0.8221893310546875
20220205-1707,2022-02-05 17:07:34Z,u01, 244,40,movements,el-ex, rt, d,12935.128915625, 0.3524438508611164, -0.45786165668428885, 0.06600052235447099, -0.19164039194583893, 0.8927126526832581, 0.21995657682418823, 0.30963754653930664, 0.44203102588653564, -0.8418628573417664, 0.05057656764984131, 0.021775037050247192, 0.017995059490203857, -0.22893356946109988, 0.1632727466686162, 0.9596171705302694,-0.008127067441712488,0.3586578369140625,0.4557342529296875,-0.8218231201171875
20220205-1707,2022-02-05 17:07:34Z,u01, 245,40,movements,el-ex, rt, d,12935.153860625001, 0.378734665067261, -0.45737535835282395, 0.0722499195720261, 0.025371380150318146, 0.972603976726532, 0.2067221999168396, 0.33174070715904236, 0.4415947496891022, -0.8336319327354431, 0.04624992609024048, 0.018518686294555664, -0.01513826847076416, -0.22912330369285883, 0.1751757799399797, 0.9574708350851748,-0.008097586303179305,0.37799072265625,0.460113525390625,-0.8487701416015625
20220205-1707,2022-02-05 17:07:34Z,u01, 246,40,movements,el-ex, rt, d,12935.178805625, 0.4043414413893459, -0.45453300499179233, 0.07659857152866228, 0.028591975569725037, 0.9079089164733887, 0.1718313992023468, 0.3534686267375946, 0.4390427768230438, -0.8260153532028198, 0.04670828580856323, -0.006578266620635986, -0.002460658550262451, -0.2280550846657135, 0.18703797502537584, 0.9554750458688015,-0.008663742005704522,0.3941497802734375,0.4304656982421875,-0.8419952392578125
20220205-1707,2022-02-05 17:07:34Z,u01, 247,40,movements,el-ex, rt, d,12935.203750625, 0.4285796204444166, -0.45345841506586604, 0.0817741313526946, -0.10965807735919952, 0.8843793272972107, 0.20536105334758759, 0.37357980012893677, 0.43807703256607056, -0.8176347613334656, 0.07165631651878357, -0.020413517951965332, 0.0019456148147583008, -0.22793646495862052, 0.19805954262646347, 0.9532780788369308,-0.008844248621239392,0.4452362060546875,0.41766357421875,-0.8156890869140625
20220205-1707,2022-02-05 17:07:34Z,u01, 248,40,movements,el-ex, rt, d,12935.228695625001, 0.453858408972881, -0.45526931925743114, 0.08923546846675116, -0.21473269164562225, 0.8723764419555664, 0.22400344908237457, 0.39377856254577637, 0.43970420956611633, -0.8072165250778198, 0.07536804676055908, -0.020957350730895996, -0.049457669258117676, -0.22944535950945766, 0.20915676725114984, 0.9505460231773146,-0.008384784456118788,0.47576904296875,0.41693115234375,-0.851348876953125
20220205-1707,2022-02-05 17:07:34Z,u01, 249,40,movements,el-ex, rt, d,12935.253640625, 0.4792678200801234, -0.4553333209705975, 0.0966924333724985, -0.015158702619373798, 0.8968757390975952, 0.2535712718963623, 0.41414716839790344, 0.4397616982460022, -0.7969263792037964, 0.004370778799057007, -0.00654950737953186, -0.06337940692901611, -0.23017368608151978, 0.22035624177166485, 0.9478410118514894,-0.007772821780718309,0.41851806640625,0.4332122802734375,-0.8603057861328125
