SessionID,LoggingTime,UID,RecNo,Hertz,Activity,MoveType,Wrist,Side,TimeStamp,DMRoll,DMPitch,DMYaw,DMRotX,DMRotY,DMRotZ,DMGrvX,DMGrvY,DMGrvZ,DMUAccelX,DMUAccelY,DMUAccelZ,DMQuatX,DMQuatY,DMQuatW,DMQuatZ,AccelroX,AceelroY,AceelroZ
20220205-1807,2022-02-05 18:07:43Z,u01, 1,40,movements,el-ex, rt, d,14442.2765565, 1.5091390695055478, -0.31897441370179025, 0.3001837774327507, 0.05412376672029495, 0.17250403761863708, -0.09885136783123016, 0.9477533102035522, 0.3135928809642792, -0.058510031551122665, -0.0035546422004699707, -0.003900468349456787, -0.05460315942764282, -0.2155279704706804, 0.6513775229623383, 0.7274992471477233,0.0,0.9441986083984375,0.3096923828125,-0.1131134033203125
20220205-1807,2022-02-05 18:07:43Z,u01, 2,40,movements,el-ex, rt, d,14442.3015015, 1.5114879379333603, -0.32106492204926573, 0.29851422774770703, 0.06666302680969238, 0.03680380433797836, -0.08359777927398682, 0.9472315311431885, 0.3155772387981415, -0.05624473839998245, 0.03389334678649902, 0.01700332760810852, -0.06960958242416382, -0.2157089369058745, 0.6521865418258119, 0.7267185881755107,-0.001577658753353639,0.9859619140625,0.3339996337890625,-0.1285400390625
20220205-1807,2022-02-05 18:07:43Z,u01, 3,40,movements,el-ex, rt, d,14442.326446500001, 1.5081988498861227, -0.32303006775456083, 0.2963574902253293, 0.021178700029850006, -0.0279963668435812, -0.07850701361894608, 0.9464207887649536, 0.3174413740634918, -0.05932105332612991, 0.023107528686523438, -0.018124938011169434, -0.08334851264953613, -0.21569234450042485, 0.6510117396302499, 0.7277729644983418,-0.0026814000541274807,0.9695281982421875,0.29931640625,-0.142669677734375
20220205-1807,2022-02-05 18:07:43Z,u01, 4,40,movements,el-ex, rt, d,14442.3513925, 1.5059936991253886, -0.32465254690098627, 0.2955513709947099, 0.02838348224759102, 0.0221946332603693, -0.05939270555973053, 0.9457724690437317, 0.31897950172424316, -0.0613744743168354, 0.005719959735870361, -0.004862070083618164, -0.08410263061523438, -0.21599771723258865, 0.6501213335270433, 0.7284754931648177,-0.0032927816856058167,0.9574127197265625,0.3159637451171875,-0.1533355712890625
20220205-1807,2022-02-05 18:07:43Z,u01, 5,40,movements,el-ex, rt, d,14442.376337500002, 1.5031546739388177, -0.3250202225394881, 0.29288215195275397, 0.07421405613422394, -0.0413987934589386, -0.015553414821624756, 0.9454771280288696, 0.3193279504776001, -0.06405135244131088, 0.050448715686798096, -0.0029522478580474854, -0.08549986779689789, -0.2152638927914493, 0.6493348757003929, 0.7293894205656897,-0.004085363216077054,0.9959259033203125,0.316375732421875,-0.1495513916015625
20220205-1807,2022-02-05 18:07:43Z,u01, 6,40,movements,el-ex, rt, d,14442.401283500001, 1.4984066669920189, -0.32529412556864834, 0.2913654150195126, -0.027575524523854256, -0.14994624257087708, -0.04707958549261093, 0.9450750946998596, 0.31958749890327454, -0.06853342056274414, 0.042000651359558105, -0.025993138551712036, -0.06853615492582321, -0.21487751579305414, 0.6477352420268285, 0.7309232985408048,-0.004222045323294954,0.9788970947265625,0.2937469482421875,-0.13690185546875
20220205-1807,2022-02-05 18:07:43Z,u01, 7,40,movements,el-ex, rt, d,14442.4262285, 1.4922752406417266, -0.3259569430122846, 0.29205918356379595, -0.07991962134838104, -0.16496287286281586, -0.06496869772672653, 0.9444258809089661, 0.32021549344062805, -0.07431013137102127, 0.02635359764099121, 0.002523183822631836, -0.06384283304214478, -0.21534561003219121, 0.645345800532473, 0.732900202484877,-0.0035343879669040845,0.9707794189453125,0.3227386474609375,-0.138153076171875
20220205-1807,2022-02-05 18:07:43Z,u01, 8,40,movements,el-ex, rt, d,14442.4511745, 1.4869148096128704, -0.32770421689944473, 0.29192332560638395, 0.008933317847549915, 0.3444453179836273, -0.4264349639415741, 0.9434549808502197, 0.32187026739120483, -0.07932456582784653, -0.013233363628387451, -0.009278714656829834, -0.06487082690000534, -0.21592441753522193, 0.643206314184505, 0.7346083280639587,-0.0035995585825426835,0.9853515625,0.2968292236328125,-0.15936279296875
20220205-1807,2022-02-05 18:07:43Z,u01, 9,40,movements,el-ex, rt, d,14442.476119500001, 1.4782007011611193, -0.3272148327830855, 0.2910109879306936, -0.012033016420900822, -0.2494051158428192, -0.03758614510297775, 0.9428847432136536, 0.32140690088272095, -0.08755738288164139, 0.009401142597198486, -0.04133179783821106, -0.05727887153625488, -0.21547342320345936, 0.6401503824030603, 0.7374082061764904,-0.0028299193347632867,0.9522857666015625,0.2800750732421875,-0.14483642578125
20220205-1807,2022-02-05 18:07:43Z,u01, 10,40,movements,el-ex, rt, d,14442.5010655, 1.4713498551030926, -0.3269547902188703, 0.29152964614237525, -0.05681630223989487, -0.25166767835617065, -0.01677400805056095, 0.9423456788063049, 0.3211606442928314, -0.09402310848236084, 0.003897547721862793, -0.04306921362876892, -0.044038280844688416, -0.2155551872790502, 0.6375926650258454, 0.7396000397205754,-0.001812585805842426,0.9569549560546875,0.285369873046875,-0.139068603515625
20220205-1807,2022-02-05 18:07:43Z,u01, 11,40,movements,el-ex, rt, d,14442.526010500002, 1.4627967859283695, -0.3263186740623793, 0.2923991419219166, -0.041991181671619415, -0.33728066086769104, 0.04184849560260773, 0.9417101144790649, 0.3205581605434418, -0.10210154205560684, 0.052598416805267334, -0.03750762343406677, -0.04960118979215622, -0.21561070330937027, 0.6343983409848338, 0.7423279442082507,-0.00035502144455812346,0.9943084716796875,0.283050537109375,-0.151702880859375
20220205-1807,2022-02-05 18:07:43Z,u01, 12,40,movements,el-ex, rt, d,14442.550956500001, 1.4551796506658468, -0.3254871818512919, 0.2942351402767756, -0.07543202489614487, -0.34335678815841675, 0.06822989881038666, 0.9411694407463074, 0.3197704255580902, -0.1093023419380188, 0.0362781286239624, -0.03621634840965271, -0.04552847146987915, -0.2158937170973949, 0.6314576256651978, 0.7447477151730572,0.001427078241752755,0.973663330078125,0.2861328125,-0.1527557373046875
20220205-1807,2022-02-05 18:07:43Z,u01, 13,40,movements,el-ex, rt, d,14442.5759015, 1.4492186924807908, -0.3240747443967592, 0.2962824720834277, 0.025382133200764656, -0.36794614791870117, 0.09614714980125427, 0.9409485459327698, 0.3184318244457245, -0.1149652972817421, 0.034118592739105225, -0.022686004638671875, -0.06977271288633347, -0.21602757561094676, 0.6291656684932978, 0.7466403034367115,0.003304343561747747,0.975067138671875,0.295745849609375,-0.1847381591796875
20220205-1807,2022-02-05 18:07:43Z,u01, 14,40,movements,el-ex, rt, d,14442.600847500002, 1.4402735519139152, -0.32194442966920894, 0.2953057172775096, 0.09320772439241409, -0.41101518273353577, 0.10075854510068893, 0.9405528903007507, 0.31641167402267456, -0.12346550077199936, 0.026228666305541992, -0.014363974332809448, -0.09021840989589691, -0.21493992592854044, 0.6261533981213302, 0.7494740986778378,0.004609196581952912,0.966156005859375,0.299957275390625,-0.21649169921875
20220205-1807,2022-02-05 18:07:43Z,u01, 15,40,movements,el-ex, rt, d,14442.6257925, 1.4301478904215719, -0.3194131475776906, 0.29325156228599664, 0.11117396503686905, -0.45973074436187744, 0.09058453887701035, 0.9400447607040405, 0.3140094578266144, -0.13309460878372192, 0.0460394024848938, -0.014723509550094604, -0.09812171757221222, -0.21336061188668587, 0.6228402219329104, 0.7526714721206621,0.005757051370593458,0.986083984375,0.299285888671875,-0.2312164306640625
20220205-1807,2022-02-05 18:07:43Z,u01, 16,40,movements,el-ex, rt, d,14442.6507375, 1.417493323541969, -0.31669107463252893, 0.2911122918985284, 0.09552623331546783, -0.5628085136413574, 0.11026915907859802, 0.9391264319419861, 0.3114238977432251, -0.14510947465896606, 0.08267843723297119, -0.006690621376037598, -0.08581686019897461, -0.21166960573004479, 0.6185800213490661, 0.7566393787767514,0.0071868008680778805,1.028533935546875,0.3079833984375,-0.231597900390625
20220205-1807,2022-02-05 18:07:43Z,u01, 17,40,movements,el-ex, rt, d,14442.675683500001, 1.402029804584717, -0.31383720742860716, 0.28991962230215196, 0.052688054740428925, -0.6799892783164978, 0.12044715881347656, 0.9376426935195923, 0.3087106943130493, -0.15976238250732422, 0.09522479772567749, -0.020258545875549316, -0.09281615912914276, -0.21019753055742094, 0.6131360442449467, 0.7614426560937133,0.009293246572124325,1.032867431640625,0.2884521484375,-0.2525787353515625
20220205-1807,2022-02-05 18:07:43Z,u01, 18,40,movements,el-ex, rt, d,14442.7006285, 1.384133100188358, -0.3112611026819798, 0.28940104856472304, 0.0434395968914032, -0.7273545861244202, 0.09444252401590347, 0.935411810874939, 0.3062593936920166, -0.1766636073589325, 0.06081932783126831, -0.007660120725631714, -0.09938299655914307, -0.20899780725811337, 0.6066202360999695, 0.7669371741356387,0.011800621361994168,0.990203857421875,0.306549072265625,-0.2788238525390625
20220205-1807,2022-02-05 18:07:43Z,u01, 19,40,movements,el-ex, rt, d,14442.7255745, 1.365745650122831, -0.3076023399184109, 0.2877282511593482, 0.1508704125881195, -0.7569551467895508, 0.15371562540531158, 0.9330962300300598, 0.3027743995189667, -0.19405946135520935, 0.08512276411056519, 0.006399184465408325, -0.10476848483085632, -0.20701673867602932, 0.6000952751012061, 0.7725458335135396,0.014235613061923058,1.018218994140625,0.309173583984375,-0.298828125
20220205-1807,2022-02-05 18:07:44Z,u01, 20,40,movements,el-ex, rt, d,14442.750519500001, 1.3438360132627964, -0.3034979779198362, 0.2841304767452641, 0.18535442650318146, -0.8858317732810974, 0.1394425630569458, 0.9298239350318909, 0.2988601326942444, -0.21473288536071777, 0.07598978281021118, 0.007994115352630615, -0.1029701828956604, -0.20423993898220533, 0.592384674801675, 0.7791649668952438,0.01638552919611802,0.9954071044921875,0.2986602783203125,-0.326904296875
20220205-1807,2022-02-05 18:07:44Z,u01, 21,40,movements,el-ex, rt, d,14442.7754655, 1.321275222530821, -0.2984686992406865, 0.27845673790281605, 0.3209746778011322, -0.8053984642028809, 0.16462327539920807, 0.926188051700592, 0.2940569519996643, -0.2360222190618515, 0.02184063196182251, 0.025095880031585693, -0.12329155206680298, -0.2004737901694315, 0.5846359108117887, 0.7859305766435903,0.018011218065964896,0.948028564453125,0.31915283203125,-0.35931396484375
20220205-1807,2022-02-05 18:07:44Z,u01, 22,40,movements,el-ex, rt, d,14442.8004105, 1.295812053242707, -0.29248572324040145, 0.27097418452621164, 0.32446277141571045, -0.9673537611961365, 0.17344766855239868, 0.9215553402900696, 0.2883332669734955, -0.2599999010562897, 0.047866225242614746, 0.037197768688201904, -0.10512751340866089, -0.19577541129946557, 0.5759097432887815, 0.7934880857754883,0.019410719013129796,0.9722747802734375,0.3215484619140625,-0.3654937744140625
20220205-1807,2022-02-05 18:07:44Z,u01, 23,40,movements,el-ex, rt, d,14442.825356500001, 1.269272457037191, -0.2877382179036281, 0.2677291346271211, -0.062497954815626144, -1.1043840646743774, 0.07296746224164963, 0.9156280755996704, 0.2837841510772705, -0.2847664952278137, 0.05792856216430664, 0.01029852032661438, -0.08532005548477173, -0.1927356843351984, 0.5661004397474527, 0.8011828288842486,0.022124064169503188,0.9735565185546875,0.2940826416015625,-0.370086669921875
20220205-1807,2022-02-05 18:07:44Z,u01, 24,40,movements,el-ex, rt, d,14442.8503015, 1.242991066875376, -0.286622913533236, 0.27128695033654515, -0.056143052875995636, -1.1150312423706055, 0.09182810038328171, 0.9081277251243591, 0.28271451592445374, -0.3088310658931732, 0.058531880378723145, 0.029037803411483765, -0.12110042572021484, -0.19297794946883226, 0.5552872959920568, 0.8085280347665708,0.02642023008120198,0.9656829833984375,0.3263702392578125,-0.4369964599609375
20220205-1807,2022-02-05 18:07:44Z,u01, 25,40,movements,el-ex, rt, d,14442.8752475, 1.214883364944686, -0.28519816446472096, 0.2724063092619086, 0.10685528814792633, -1.1273661851882935, 0.15409007668495178, 0.899466335773468, 0.2813476026058197, -0.3343711197376251, 0.08211642503738403, 0.0329376757144928, -0.10607367753982544, -0.1923262087480304, 0.5438980290203205, 0.8162633946573447,0.029996497244078046,0.9815826416015625,0.3142852783203125,-0.4404449462890625
20220205-1807,2022-02-05 18:07:44Z,u01, 26,40,movements,el-ex, rt, d,14442.900192500001, 1.1838450570999353, -0.2835242815534131, 0.27299808431911293, -0.07616260647773743, -1.2893530130386353, -0.0034446874633431435, 0.8890913128852844, 0.27974095940589905, -0.36230069398880005, 0.09387999773025513, 0.03657376766204834, -0.0438728928565979, -0.1913225666529261, 0.5312676580896468, 0.8246303654238206,0.03369284794498095,0.9729766845703125,0.2901458740234375,-0.3970184326171875
20220205-1807,2022-02-05 18:07:44Z,u01, 27,40,movements,el-ex, rt, d,14442.925137791668, 1.1531744544459603, -0.284768961275154, 0.2779337942027386, -0.15714550018310547, -1.2821524143218994, 0.05193141847848892, 0.8772439360618591, 0.28093573451042175, -0.3892534673213959, 0.07946699857711792, 0.034967005252838135, -0.03237724304199219, -0.19256738995253206, 0.5179682127995865, 0.8325606392018072,0.038334720902223396,0.9567108154296875,0.3159027099609375,-0.421630859375
20220205-1807,2022-02-05 18:07:44Z,u01, 28,40,movements,el-ex, rt, d,14442.950082791667, 1.122526948465996, -0.2851835262362267, 0.28046901204631913, -0.03336523473262787, -1.230932354927063, 0.018310075625777245, 0.8647992014884949, 0.2813335657119751, -0.4159013032913208, 0.08876842260360718, 0.018043845891952515, -0.04572269320487976, -0.1927673563091782, 0.5048664183656462, 0.8403373999692902,0.04223460582618738,0.95086669921875,0.2938232421875,-0.4723968505859375
20220205-1807,2022-02-05 18:07:44Z,u01, 29,40,movements,el-ex, rt, d,14442.975027791668, 1.0916379335452475, -0.2840840444799789, 0.27900951000260243, 0.14605821669101715, -1.2567490339279175, 0.010860215872526169, 0.8518158793449402, 0.2802783250808716, -0.4425537884235382, 0.09265744686126709, 0.015543818473815918, -0.03812849521636963, -0.19127816094592787, 0.492072927094032, 0.8480938042933766,0.04487680369089364,0.9444732666015625,0.2958221435546875,-0.480682373046875
20220205-1807,2022-02-05 18:07:44Z,u01, 30,40,movements,el-ex, rt, d,14442.999973791668, 1.0582484487785555, -0.28154101247418667, 0.27468892471788137, 0.2475016862154007, -1.3207646608352661, 0.025902148336172104, 0.8371857404708862, 0.27783632278442383, -0.4710915684700012, 0.09080815315246582, 0.04676389694213867, -0.02439171075820923, -0.1884055303805185, 0.4784951085840628, 0.8563584004135998,0.046864636841234486,0.9210968017578125,0.3267364501953125,-0.5041046142578125
20220205-1807,2022-02-05 18:07:44Z,u01, 31,40,movements,el-ex, rt, d,14443.024918791667, 1.023965404032568, -0.277289174476799, 0.26800195202928034, 0.34515899419784546, -1.2846026420593262, -0.007809208706021309, 0.8215480446815491, 0.27374938130378723, -0.5001201033592224, 0.0742497444152832, 0.03096860647201538, -0.04591554403305054, -0.1842235732381582, 0.46475975100750255, 0.8647147969120658,0.04825322826127659,0.8957977294921875,0.304718017578125,-0.5460357666015625
20220205-1807,2022-02-05 18:07:44Z,u01, 32,40,movements,el-ex, rt, d,14443.049864791668, 0.9895441051807874, -0.2734678737155215, 0.26063916439690177, 0.30798107385635376, -1.3124852180480957, -0.018211649730801582, 0.8047184944152832, 0.2700720727443695, -0.5286675691604614, 0.08264124393463135, 0.02153867483139038, -0.03227591514587402, -0.18007337483526759, 0.45082123619027226, 0.8728807181030735,0.049124894796874874,0.883758544921875,0.290008544921875,-0.567169189453125
20220205-1807,2022-02-05 18:07:44Z,u01, 33,40,movements,el-ex, rt, d,14443.074809791668, 0.954821925147427, -0.2689772991963277, 0.25388274791531407, 0.32335251569747925, -1.3270695209503174, 0.015739060938358307, 0.7868625521659851, 0.2657456398010254, -0.5569798946380615, 0.08886992931365967, 0.005937069654464722, -0.03135305643081665, -0.1757785032405118, 0.4365912943312311, 0.8808849078051412,0.05031663905330469,0.875732421875,0.2716827392578125,-0.5883331298828125
20220205-1807,2022-02-05 18:07:44Z,u01, 34,40,movements,el-ex, rt, d,14443.099755791667, 0.9204054333125287, -0.2647119610168275, 0.24846124633500183, 0.207571342587471, -1.3296635150909424, 0.016490604728460312, 0.7681261301040649, 0.2616312801837921, -0.5844067931175232, 0.09286636114120483, 0.008830755949020386, -0.005970895290374756, -0.17188019395109366, 0.42220113966650863, 0.8885442844475189,0.05188884011380723,0.85870361328125,0.272430419921875,-0.593170166015625
20220205-1807,2022-02-05 18:07:44Z,u01, 35,40,movements,el-ex, rt, d,14443.124700791668, 0.8857465654003537, -0.26122670939730525, 0.24481746584660252, 0.23217259347438812, -1.3668627738952637, 0.03125976026058197, 0.748115599155426, 0.25826582312583923, -0.6112461090087891, 0.08353424072265625, 0.03310072422027588, -0.0014551281929016113, -0.1686766284608041, 0.4073391017084166, 0.8959399516299129,0.05398747956068156,0.8316497802734375,0.2913665771484375,-0.612701416015625
20220205-1807,2022-02-05 18:07:44Z,u01, 36,40,movements,el-ex, rt, d,14443.149646791668, 0.8506428291681914, -0.2560671507940306, 0.2393515615220836, 0.3040376603603363, -1.3185189962387085, 0.014613542705774307, 0.72719407081604, 0.25327789783477783, -0.6379961371421814, 0.07753926515579224, 0.03807342052459717, 0.003062725067138672, -0.16433514220894677, 0.39242311885981546, 0.9032782481934585,0.05555586455518463,0.8028411865234375,0.292938232421875,-0.6320037841796875
20220205-1807,2022-02-05 18:07:44Z,u01, 37,40,movements,el-ex, rt, d,14443.174591791667, 0.8168080278612075, -0.25146325727173247, 0.23504545065715615, 0.22588473558425903, -1.3279045820236206, 0.030319666489958763, 0.7060381174087524, 0.2488214671611786, -0.663021981716156, 0.10669088363647461, 0.012592121958732605, 0.02081012725830078, -0.16049190725808127, 0.37779803773798853, 0.9100701822936721,0.05730090184547937,0.8127288818359375,0.26141357421875,-0.6422119140625
20220205-1807,2022-02-05 18:07:44Z,u01, 38,40,movements,el-ex, rt, d,14443.199537791668, 0.7829471247257691, -0.24780045997687608, 0.23141649547023127, 0.16574004292488098, -1.3090201616287231, -0.013274947181344032, 0.6838254928588867, 0.2452722042798996, -0.6871858835220337, 0.10065954923629761, 0.031903743743896484, 0.04416531324386597, -0.15718269390652628, 0.36290586019966764, 0.9165724663676551,0.05906002450521053,0.7757568359375,0.2801361083984375,-0.642425537109375
20220205-1807,2022-02-05 18:07:44Z,u01, 39,40,movements,el-ex, rt, d,14443.224482791667, 0.750192353022531, -0.24571133944441426, 0.22854617174102207, 0.1399865448474884, -1.2587926387786865, -0.05206162482500076, 0.6613019108772278, 0.24324636161327362, -0.7095850706100464, 0.08598208427429199, 0.04093334078788757, 0.06513023376464844, -0.15474216523415335, 0.3482274020838991, 0.9225556402706488,0.06069332006477418,0.747283935546875,0.2841796875,-0.6444549560546875
20220205-1807,2022-02-05 18:07:44Z,u01, 40,40,movements,el-ex, rt, d,14443.249428791667, 0.7177101195529532, -0.24296331885096178, 0.2244064689630236, 0.25369617342948914, -1.2793301343917847, -0.026123035699129105, 0.6383454203605652, 0.24057996273040771, -0.7311883568763733, 0.10574948787689209, 0.06850206851959229, 0.07226812839508057, -0.15178379097565664, 0.33371770839506, 0.9283203024296741,0.06177075079486716,0.7433013916015625,0.30487060546875,-0.6605377197265625
20220205-1807,2022-02-05 18:07:44Z,u01, 41,40,movements,el-ex, rt, d,14443.274373791668, 0.6846503624974906, -0.23905845128709668, 0.21956296455838703, 0.20575393736362457, -1.2639626264572144, -0.0659993439912796, 0.614417552947998, 0.23678795993328094, -0.7526105046272278, 0.0999685525894165, 0.04170021414756775, 0.07913339138031006, -0.14816450085960522, 0.3189702720902786, 0.9340109233861533,0.06268070858282815,0.714385986328125,0.2784881591796875,-0.6734771728515625
20220205-1807,2022-02-05 18:07:44Z,u01, 42,40,movements,el-ex, rt, d,14443.299318791667, 0.6525220493237599, -0.23769375316798075, 0.21555309460624342, 0.09141377359628677, -1.2439119815826416, -0.08593203872442245, 0.5901201963424683, 0.23546184599399567, -0.772214949131012, 0.10532975196838379, 0.032070502638816833, 0.09058964252471924, -0.14589362734908642, 0.3043149509864542, 0.9391957315146443,0.06339401474567974,0.6945648193359375,0.2634429931640625,-0.6847076416015625
20220205-1807,2022-02-05 18:07:44Z,u01, 43,40,movements,el-ex, rt, d,14443.324264791667, 0.6209992653784128, -0.23724084890293587, 0.2123263635167192, 0.10465448349714279, -1.2163788080215454, -0.10672653466463089, 0.565550684928894, 0.2350216507911682, -0.7905170917510986, 0.10606503486633301, 0.04928010702133179, 0.07904565334320068, -0.14419710392763152, 0.28973891181544875, 0.9439982771888746,0.06423365496373129,0.6716156005859375,0.2843017578125,-0.7114715576171875
20220205-1807,2022-02-05 18:07:44Z,u01, 44,40,movements,el-ex, rt, d,14443.349209791668, 0.5897264599953888, -0.23530036584447178, 0.20736835333671574, 0.2750862240791321, -1.208313226699829, -0.12270557135343552, 0.5408090949058533, 0.23313508927822113, -0.8081915378570557, 0.10688084363937378, 0.056156307458877563, 0.06746894121170044, -0.14157960806003597, 0.27542592026706175, 0.9486548726290202,0.06441892791317133,0.640777587890625,0.2884674072265625,-0.74285888671875
20220205-1807,2022-02-05 18:07:44Z,u01, 45,40,movements,el-ex, rt, d,14443.374155791667, 0.5578247517561402, -0.2281949932286947, 0.1990971062296518, 0.5597811341285706, -1.1959657669067383, -0.11380527913570404, 0.5156194567680359, 0.22621968388557434, -0.8264147043228149, 0.08424943685531616, 0.04795025289058685, 0.03924435377120972, -0.1360921065867593, 0.2612883112089159, 0.9534912641223455,0.06373341131536747,0.5998687744140625,0.274169921875,-0.78717041015625
20220205-1807,2022-02-05 18:07:44Z,u01, 46,40,movements,el-ex, rt, d,14443.399100791668, 0.5263654138059827, -0.21534355259782176, 0.18801879507580324, 0.8084545135498047, -1.13948392868042, -0.08172544091939926, 0.4907902777194977, 0.21368305385112762, -0.8446682691574097, 0.07528036832809448, 0.040741994976997375, 0.03813451528549194, -0.12758494107508503, 0.24776594387402667, 0.9583607246430527,0.06228001758449275,0.5636749267578125,0.2510833740234375,-0.8137054443359375
20220205-1807,2022-02-05 18:07:44Z,u01, 47,40,movements,el-ex, rt, d,14443.424046791668, 0.4945995667437521, -0.1921763603316506, 0.17301843392710575, 1.3676713705062866, -1.1466315984725952, -0.06781255453824997, 0.46594083309173584, 0.19099564850330353, -0.8639559149742126, 0.07574626803398132, 0.07151657342910767, 0.015017986297607422, -0.11372606032005908, 0.23470922334667557, 0.9635244600668057,0.05998920759526433,0.54168701171875,0.26251220703125,-0.84893798828125
20220205-1807,2022-02-05 18:07:44Z,u01, 48,40,movements,el-ex, rt, d,14443.448991791667, 0.46382791879427526, -0.15799038332788023, 0.1531826179223296, 1.640189290046692, -1.0510674715042114, -0.06740129739046097, 0.4418030083179474, 0.15733394026756287, -0.8832078576087952, 0.06410223245620728, 0.06098882853984833, -0.006989836692810059, -0.09410700812389555, 0.22257568395915, 0.9687368216043728,0.056151484301347976,0.4937896728515625,0.1948089599609375,-0.8889923095703125
20220205-1807,2022-02-05 18:07:44Z,u01, 49,40,movements,el-ex, rt, d,14443.473937791667, 0.43488739558785666, -0.12510135382392903, 0.13492925354447452, 1.32030189037323, -1.0777291059494019, -0.07776279747486115, 0.4180157780647278, 0.12477529793977737, -0.8998299837112427, 0.05506780743598938, -0.005771994590759277, 0.003849208354949951, -0.07541400467413992, 0.21070771577251532, 0.9732347796046197,0.05224243588613853,0.47308349609375,0.1190032958984375,-0.8959808349609375
20220205-1807,2022-02-05 18:07:44Z,u01, 50,40,movements,el-ex, rt, d,14443.498882791668, 0.40517320085270253, -0.10164865422811503, 0.12301293367040575, 0.7507363557815552, -1.202382206916809, -0.015382906422019005, 0.39214327931404114, 0.10147369652986526, -0.9142903089523315, 0.08419042825698853, -0.009981989860534668, 0.022063136100769043, -0.06202096755459828, 0.19750507419620641, 0.9770629969043381,0.04993058251467303,0.472747802734375,0.0789337158203125,-0.8931427001953125
20220205-1807,2022-02-05 18:07:44Z,u01, 51,40,movements,el-ex, rt, d,14443.523828791667, 0.3743949316122567, -0.09009104627668588, 0.117557655451595, 0.30917996168136597, -1.218587040901184, -0.02339509129524231, 0.3642263412475586, 0.0899692252278328, -0.9269545674324036, 0.08189499378204346, -0.021060526371002197, 0.041685402393341064, -0.05508889042151659, 0.18299709558397148, 0.9803303187855978,0.0492942042219488,0.4461212158203125,0.06890869140625,-0.8852691650390625
20220205-1807,2022-02-05 18:07:44Z,u01, 52,40,movements,el-ex, rt, d,14443.548773791668, 0.3431331124461337, -0.08603999137986393, 0.11586273653876841, 0.0764259472489357, -1.2830406427383423, 0.012022819370031357, 0.3351946771144867, 0.0859338715672493, -0.9382216930389404, 0.09214305877685547, -0.021022982895374298, 0.032826244831085205, -0.052179956821910234, 0.16782852693161007, 0.9831806418963989,0.04966609018498713,0.418548583984375,0.0688018798828125,-0.906036376953125
20220205-1807,2022-02-05 18:07:44Z,u01, 53,40,movements,el-ex, rt, d,14443.573719791668, 0.3111750144424306, -0.08466364461831759, 0.11566607060705453, 0.05201081186532974, -1.2821708917617798, 0.003428931348025799, 0.305080771446228, 0.08456254005432129, -0.9485646486282349, 0.06053519248962402, -0.007414087653160095, 0.03567713499069214, -0.050686907556409866, 0.15214632250730856, 0.9857645938494026,0.05050460783861005,0.3656158447265625,0.0771484375,-0.9128875732421875
20220205-1807,2022-02-05 18:07:44Z,u01, 54,40,movements,el-ex, rt, d,14443.598664791667, 0.28001219091324336, -0.08295318556297074, 0.11478513409792014, 0.11698684841394424, -1.1875766515731812, -0.02665873058140278, 0.2754170298576355, 0.08285807818174362, -0.9577473402023315, 0.054630666971206665, 0.004803672432899475, 0.05869954824447632, -0.048989174117432775, 0.136844374232788, 0.9880664775052257,0.05097410789402068,0.321502685546875,0.0906219482421875,-0.895538330078125
20220205-1807,2022-02-05 18:07:44Z,u01, 55,40,movements,el-ex, rt, d,14443.623610791668, 0.25222490320358454, -0.079663998400683, 0.1131661598802283, 0.16290700435638428, -1.069352626800537, -0.020284054800868034, 0.24876759946346283, 0.07957976311445236, -0.9652884006500244, 0.055126532912254333, 0.024271562695503235, 0.08473426103591919, -0.046549486121627806, 0.1232433898421755, 0.9899683160057324,0.05105860157185382,0.30389404296875,0.103851318359375,-0.88055419921875
20220205-1807,2022-02-05 18:07:44Z,u01, 56,40,movements,el-ex, rt, d,14443.648555791668, 0.22574944640303474, -0.07512203206453719, 0.11168720247052202, 0.23349419236183167, -1.0656485557556152, -0.03268273174762726, 0.22320556640625, 0.07505139708518982, -0.9718778729438782, 0.08586131036281586, 0.010748781263828278, 0.08312970399856567, -0.04353730246374473, 0.11029766474532096, 0.9916238377864308,0.05119717726247491,0.3063507080078125,0.085052490234375,-0.8892059326171875
20220205-1807,2022-02-05 18:07:44Z,u01, 57,40,movements,el-ex, rt, d,14443.698446791668, 0.1713410448157326, -0.06277699369601783, 0.10735550844655929, 0.22436870634555817, -1.0372611284255981, -0.04569233953952789, 0.17016804218292236, 0.06273576617240906, -0.9834160208702087, 0.060270264744758606, 0.010170720517635345, 0.07397699356079102, -0.03581171700562341, 0.08372282699928348, 0.9945516018289479,0.05074740675517536,0.270751953125,0.0764923095703125,-0.904876708984375
20220205-1807,2022-02-05 18:07:44Z,u01, 58,40,movements,el-ex, rt, d,14443.673501791667, 0.19847382138594213, -0.06890458088345709, 0.10946785663391012, 0.27833956480026245, -1.1064773797988892, -0.03337908536195755, 0.19670546054840088, 0.0688500702381134, -0.9780422449111938, 0.07404658198356628, 0.007642239332199097, 0.07316559553146362, -0.039641468936337465, 0.09699191761511894, 0.9931869555070354,0.05099760256167951,0.21368408203125,0.0720977783203125,-0.9048004150390625
20220205-1807,2022-02-05 18:07:44Z,u01, 59,40,movements,el-ex, rt, d,14443.723391791667, 0.14680945175780324, -0.0586235841178223, 0.10562941118051751, 0.11683967709541321, -0.9388039112091064, -0.0017595719546079636, 0.14603136479854584, 0.058590009808540344, -0.9875434637069702, 0.04165184497833252, 0.006519246846437454, 0.09772717952728271, -0.033057820438398576, 0.07166211472117788, 0.9956021425031742,0.05047899230346359,0.18768310546875,0.0651092529296875,-0.8898162841796875
20220205-1807,2022-02-05 18:07:45Z,u01, 60,40,movements,el-ex, rt, d,14443.748337791667, 0.12362542204298445, -0.05615991767674992, 0.10482000757679917, 0.10967384278774261, -0.9160952568054199, -0.03166460618376732, 0.12311635911464691, 0.05613040179014206, -0.990803599357605, 0.06153034418821335, 0.02112485095858574, 0.09470069408416748, -0.03121895506599803, 0.06019622164614408, 0.9964176789611945,0.05053337066512392,0.1806793212890625,0.072906494140625,-0.899261474609375
20220205-1807,2022-02-05 18:07:45Z,u01, 61,40,movements,el-ex, rt, d,14443.773282791668, 0.1007337692796454, -0.05395778090436078, 0.10399174668698963, 0.06533078104257584, -0.9138211011886597, -0.008563482202589512, 0.1004171371459961, 0.05393160134553909, -0.9934826493263245, 0.052949048578739166, 0.026894204318523407, 0.11739927530288696, -0.02952062902221781, 0.0488590429955651, 0.9970897304280165,0.05053138111240246,0.1533660888671875,0.0808258056640625,-0.8760833740234375
20220205-1807,2022-02-05 18:07:45Z,u01, 62,40,movements,el-ex, rt, d,14443.798228791667, 0.07875683719597887, -0.05300963463243314, 0.10384204905343723, 0.012328381650149822, -0.8489871025085449, 0.0016611246392130852, 0.07856493443250656, 0.0529848113656044, -0.9954999685287476, 0.0569942444562912, 0.019112970679998398, 0.11612069606781006, -0.028487886061083125, 0.03792706841351787, 0.997581908677722,0.05079733170133299,0.13037109375,0.0684661865234375,-0.8813934326171875
20220205-1807,2022-02-05 18:07:45Z,u01, 63,40,movements,el-ex, rt, d,14443.823173791667, 0.05874657032217589, -0.053183902274793256, 0.10371766176572816, -0.0049288347363471985, -0.7528276443481445, -0.020075995475053787, 0.05862976983189583, 0.05315883457660675, -0.9968634247779846, 0.054361648857593536, 0.0072659775614738464, 0.13809877634048462, -0.028063440527074823, 0.027941555309825866, 0.9979124711558767,0.05101506949690987,0.1129913330078125,0.0604248046875,-0.8587646484375
20220205-1807,2022-02-05 18:07:45Z,u01, 64,40,movements,el-ex, rt, d,14443.848119791668, 0.0406938591096528, -0.05310695509371588, 0.10253857560392911, 0.021160423755645752, -0.6997932195663452, -0.055384986102581024, 0.04062527418136597, 0.053081996738910675, -0.997763454914093, 0.060220152139663696, 0.025195598602294922, 0.14542275667190552, -0.027552257532937725, 0.01895128877941816, 0.9981550169857234,0.05067868827521549,0.0949859619140625,0.0756683349609375,-0.8468475341796875
20220205-1807,2022-02-05 18:07:45Z,u01, 65,40,movements,el-ex, rt, d,14443.873064791667, 0.02392036689780843, -0.052593738990652096, 0.1016191055517827, 0.01315542683005333, -0.6339293718338013, -0.02378910779953003, 0.023885013535618782, 0.052569497376680374, -0.998331606388092, 0.030558427795767784, -0.019381627440452576, 0.16758209466934204, -0.02686523378028867, 0.010605026221542467, 0.9983087256925582,0.05045243818326356,0.054443359375,0.0331878662109375,-0.83074951171875
20220205-1807,2022-02-05 18:07:45Z,u01, 66,40,movements,el-ex, rt, d,14443.898010791667, 0.00950047385076187, -0.05283017819789347, 0.10123283954805731, -0.03152089938521385, -0.5193153023719788, -0.009412698447704315, 0.009487075731158257, 0.05280560627579689, -0.9985597729682922, 0.03023163415491581, -0.011088069528341293, 0.19518452882766724, -0.026618143437020098, 0.00340618429481708, 0.9983660092816581,0.050451282219364735,0.03643798828125,0.052001953125,-0.801361083984375
20220205-1807,2022-02-05 18:07:45Z,u01, 67,40,movements,el-ex, rt, d,14443.922954625, -0.0021856751875289357, -0.05379997570403382, 0.10091362960333658, -0.0599411204457283, -0.4321764409542084, -0.005165022797882557, -0.0021825111471116543, 0.05377402529120445, -0.9985507726669312, 0.04034482315182686, -0.002596043050289154, 0.19691503047943115, -0.02680739738275283, -0.002447598770518724, 0.9983639916055369,0.050446484136480174,0.0381622314453125,0.051177978515625,-0.8016357421875
20220205-1807,2022-02-05 18:07:45Z,u01, 68,40,movements,el-ex, rt, d,14443.947900625, -0.012906852449084604, -0.05724255249134765, 0.100849877902531, -0.2585391700267792, -0.4406681954860687, 0.011314618401229382, -0.012885354459285736, 0.057211294770240784, -0.9982789158821106, 0.0543893426656723, -0.023504626005887985, 0.2228425145149231, -0.02825525725993535, -0.007884926068236743, 0.998289848763295,0.050566321520337465,0.039031982421875,0.0306854248046875,-0.7616119384765625
20220205-1807,2022-02-05 18:07:45Z,u01, 69,40,movements,el-ex, rt, d,14443.972845625001, -0.022265055317440934, -0.06773098467973035, 0.10136495657324233, -0.5653087496757507, -0.2588984966278076, 0.024200256913900375, -0.02221217006444931, 0.06767921149730682, -0.9974598288536072, -0.0011947304010391235, -0.033148571848869324, 0.30202531814575195, -0.03324979645218846, -0.012826845049520315, 0.9980623997715132,0.051005038515962386,-0.023406982421875,0.0345306396484375,-0.6954345703125
20220205-1807,2022-02-05 18:07:45Z,u01, 70,40,movements,el-ex, rt, d,14443.997791625, -0.025047838290822532, -0.08147849174636804, 0.1010128074948256, -0.40978550910949707, -0.01206274051219225, -0.006848607212305069, -0.024962130934000015, 0.08138836920261383, -0.9963698387145996, -0.005814766511321068, 0.010957829654216766, 0.2883772850036621, -0.04004112387457085, -0.01455323182601575, 0.9977921550256275,0.0509484985993543,-0.0193023681640625,0.09844970703125,-0.7231597900390625
20220205-1807,2022-02-05 18:07:45Z,u01, 71,40,movements,el-ex, rt, d,14444.022736625, -0.022832173044091086, -0.08607130986270227, 0.10126686586349673, 0.09565453231334686, 0.09681826829910278, 0.029734237119555473, -0.022745676338672638, 0.08596507459878922, -0.9960384964942932, 0.044321686029434204, 0.018923848867416382, 0.2282009720802307, -0.04238719178831708, -0.013567948812376161, 0.9977038640500916,0.05105214933995117,0.021575927734375,0.104888916015625,-0.7678375244140625
20220205-1807,2022-02-05 18:07:45Z,u01, 72,40,movements,el-ex, rt, d,14444.047681625001, -0.01992023580860981, -0.08234930959717496, 0.10247302448670804, 0.13790664076805115, 0.12720626592636108, 0.08592666685581207, -0.01985141821205616, 0.0822562649846077, -0.9964134693145752, 0.04132061451673508, 0.0235024094581604, 0.2453300952911377, -0.040597303802800425, -0.012046473568706466, 0.9977708281772959,0.05157759298359876,0.0134735107421875,0.098480224609375,-0.7469024658203125
20220205-1807,2022-02-05 18:07:45Z,u01, 73,40,movements,el-ex, rt, d,14444.072627625, -0.014529739201378318, -0.08227483537117912, 0.1045642893260647, -0.10785571485757828, 0.2743653357028961, 0.06400672346353531, -0.01448008045554161, 0.08218204230070114, -0.9965121150016785, -0.007309388369321823, 0.007982142269611359, 0.27783846855163574, -0.04068920969970485, -0.009397850061965602, 0.9977468565229828,0.052511099224586244,-0.02178955078125,0.0901641845703125,-0.7186737060546875
20220205-1807,2022-02-05 18:07:45Z,u01, 74,40,movements,el-ex, rt, d,14444.097572625002, -0.005766712377993822, -0.08472695808316656, 0.10518393098969366, -0.0497022345662117, 0.39738214015960693, -0.002423364669084549, -0.00574599439278245, 0.08462562412023544, -0.9963962435722351, -0.0033176448196172714, 0.020309075713157654, 0.2345096468925476, -0.042140641557121536, -0.005103058532246423, 0.9977108446388757,0.05264228579402663,-0.0034027099609375,0.1052398681640625,-0.771728515625
20220205-1807,2022-02-05 18:07:45Z,u01, 75,40,movements,el-ex, rt, d,14444.122518625001, 0.005030785643334176, -0.08552849313215187, 0.10490310387742394, -0.026957403868436813, 0.46250489354133606, -0.0045041595585644245, 0.0050123753026127815, 0.0854242593050003, -0.996332049369812, 0.01815054938197136, 0.02308100461959839, 0.224237322807312, -0.042824033145038354, 0.0002683025255230606, 0.9977143577053583,0.0522720119827057,0.023162841796875,0.1085052490234375,-0.7720947265625
20220205-1807,2022-02-05 18:07:45Z,u01, 76,40,movements,el-ex, rt, d,14444.147463625, 0.01681384415403177, -0.08649844420118676, 0.10468843591897918, -0.06506437808275223, 0.49105414748191833, -0.012867417186498642, 0.016750194132328033, 0.08639062196016312, -0.9961205124855042, 0.03067420795559883, 0.01727759838104248, 0.18366628885269165, -0.043614427967555484, 0.006125430263368916, 0.9976804164891868,0.051906562491024044,0.0454864501953125,0.1017303466796875,-0.813873291015625
20220205-1807,2022-02-05 18:07:45Z,u01, 77,40,movements,el-ex, rt, d,14444.172409625, 0.029948469667112877, -0.08895647461621854, 0.10424990091937543, -0.10565135627985, 0.5645914673805237, -0.02760108932852745, 0.029825594276189804, 0.08883919566869736, -0.9955993294715881, 0.0013787150382995605, 0.008572913706302643, 0.15632015466690063, -0.04517757805763205, 0.012622196104173138, 0.9975770791501393,0.05137910315404537,0.0312042236328125,0.097412109375,-0.8392791748046875
20220205-1807,2022-02-05 18:07:45Z,u01, 78,40,movements,el-ex, rt, d,14444.197354625001, 0.044708806187249144, -0.09179196074254072, 0.10327112602736309, -0.16754837334156036, 0.6251739263534546, -0.05132020264863968, 0.044505756348371506, 0.09166311472654343, -0.994795024394989, 0.009373117238283157, 0.0033228546380996704, 0.150770366191864, -0.04695972721435073, 0.019931853190447255, 0.9974192869080923,0.050521221170472475,0.062896728515625,0.094696044921875,-0.83978271484375
20220205-1807,2022-02-05 18:07:45Z,u01, 79,40,movements,el-ex, rt, d,14444.222300625, 0.06094192610863878, -0.10046191139832368, 0.10184631096096769, -0.5714238882064819, 0.7002371549606323, -0.09919385612010956, 0.06059712916612625, 0.10029301047325134, -0.9931108951568604, -0.005207635462284088, 0.0009185522794723511, 0.15624266862869263, -0.051670279375142264, 0.02783382413176136, 0.9970589071093283,0.04928562473427517,0.055389404296875,0.1012115478515625,-0.8368682861328125
20220205-1807,2022-02-05 18:07:45Z,u01, 80,40,movements,el-ex, rt, d,14444.247245625002, 0.07919452799367505, -0.11841772342791347, 0.10091998433129705, -0.7585299611091614, 0.7244089841842651, -0.08817608654499054, 0.07855773717164993, 0.11814115941524506, -0.9898844957351685, 0.0035804063081741333, -0.01320645958185196, 0.04902756214141846, -0.06104583078742485, 0.03648491851483362, 0.9963138165909877,0.04797117845396781,0.1001129150390625,0.11456298828125,-0.967742919921875
20220205-1807,2022-02-05 18:07:45Z,u01, 81,40,movements,el-ex, rt, d,14444.272191625001, 0.09630583946718202, -0.13746020431392625, 0.10020153199085689, -0.7655887603759766, 0.6753915548324585, -0.09050755202770233, 0.09525001049041748, 0.13702772557735443, -0.9859771132469177, 0.04423066973686218, -0.0012550055980682373, 0.037414491176605225, -0.07091518590639778, 0.04452511600160304, 0.995397881638759,0.04660213223578874,0.1394805908203125,0.135772705078125,-0.9485626220703125
20220205-1807,2022-02-05 18:07:45Z,u01, 82,40,movements,el-ex, rt, d,14444.297136625, 0.11368948350996003, -0.15815563028676974, 0.1003545983249615, -0.9206824898719788, 0.7159742116928101, -0.0717143565416336, 0.11202887445688248, 0.1574971228837967, -0.9811443090438843, -0.005980215966701508, -0.09705705940723419, 0.14947932958602905, -0.08160923575840767, 0.052609585472239644, 0.994237334658428,0.04543633518712392,0.0998992919921875,0.064697265625,-0.8128814697265625
20220205-1807,2022-02-05 18:07:45Z,u01, 83,40,movements,el-ex, rt, d,14444.322082625002, 0.13232198537640952, -0.18143973146117578, 0.10270755465632285, -0.8144822716712952, 0.7419260144233704, 0.03485136851668358, 0.1297704428434372, 0.1804458647966385, -0.9749866127967834, 0.010015413165092468, -0.029917895793914795, 0.08451426029205322, -0.09365778046005713, 0.061113860893894256, 0.9927064421034102,0.045026658812405806,0.1397857666015625,0.1505279541015625,-0.890472412109375
20220205-1807,2022-02-05 18:07:45Z,u01, 84,40,movements,el-ex, rt, d,14444.347027625001, 0.1526444419693204, -0.1921668382842598, 0.10544174262261861, -0.0730406790971756, 0.8455190062522888, 0.049565598368644714, 0.1492534875869751, 0.1909862905740738, -0.9701792001724243, 0.031181782484054565, 0.018486380577087402, 0.0036722421646118164, -0.09952292452364092, 0.0707502459277751, 0.991496395369208,0.04499593917015571,0.185211181640625,0.216583251953125,-0.9612274169921875
20220205-1807,2022-02-05 18:07:45Z,u01, 85,40,movements,el-ex, rt, d,14444.371973625, 0.1747045579081326, -0.19003531270652102, 0.10687796986997075, 0.11979271471500397, 0.8836888074874878, 0.10264619439840317, 0.17068806290626526, 0.18889357149600983, -0.9670495390892029, 0.027920424938201904, -0.017232179641723633, 0.08271116018295288, -0.09901692954131858, 0.08167545064396062, 0.9907201074404164,0.04470470627046619,0.1986083984375,0.171661376953125,-0.88433837890625
20220205-1807,2022-02-05 18:07:45Z,u01, 86,40,movements,el-ex, rt, d,14444.396918625001, 0.19783501822697833, -0.18799747989046944, 0.10972335558706564, -0.03020266816020012, 0.9204015135765076, 0.14114931225776672, 0.1930839717388153, 0.18689203262329102, -0.9632185101509094, 0.02896203100681305, -0.03879021108150482, 0.0999830961227417, -0.09865233546155681, 0.09305077833477658, 0.9897363603161402,0.04506986739253471,0.2298583984375,0.15576171875,-0.8719024658203125
20220205-1807,2022-02-05 18:07:45Z,u01, 87,40,movements,el-ex, rt, d,14444.421864625001, 0.22191394499971095, -0.18924777044504992, 0.11401490470823095, -0.10071048140525818, 0.9606466889381409, 0.1528257429599762, 0.21616743505001068, 0.18812014162540436, -0.9580618143081665, 0.033115506172180176, 0.006307363510131836, 0.04055088758468628, -0.1000299425752354, 0.1047048122807107, 0.9883934770172202,0.045927862728817326,0.2492828369140625,0.194427490234375,-0.917510986328125
20220205-1807,2022-02-05 18:07:45Z,u01, 88,40,movements,el-ex, rt, d,14444.446809625, 0.2471334127778036, -0.18994356654384226, 0.11795027949437581, -0.03821971267461777, 0.9957910776138306, 0.13798761367797852, 0.2402258664369583, 0.18880347907543182, -0.952178955078125, 0.030282050371170044, 0.02475854754447937, 0.025405943393707275, -0.10117431406516747, 0.1169370513401948, 0.9868746935945296,0.046560365075695775,0.2772979736328125,0.2126617431640625,-0.915618896484375
20220205-1807,2022-02-05 18:07:45Z,u01, 89,40,movements,el-ex, rt, d,14444.471754625001, 0.272874749987532, -0.1905859626111336, 0.1215966086218142, -0.07745290547609329, 1.000855803489685, 0.13395552337169647, 0.26462119817733765, 0.18943427503108978, -0.9455634951591492, 0.06033006310462952, 0.0030248314142227173, 0.054450273513793945, -0.10231728395590274, 0.1294196133821543, 0.9851762554641542,0.047005383299907166,0.324951171875,0.1924591064453125,-0.89111328125
20220205-1807,2022-02-05 18:07:45Z,u01, 90,40,movements,el-ex, rt, d,14444.496700625, 0.29806472441129384, -0.19120310002332525, 0.12484889724210618, -0.029435109347105026, 0.9748051762580872, 0.10264033824205399, 0.28831905126571655, 0.1900402009487152, -0.9384864568710327, 0.06168714165687561, 0.00621834397315979, 0.02085345983505249, -0.10343454716885402, 0.14162646198239634, 0.9833664148185923,0.04726486886857345,0.3545379638671875,0.200042724609375,-0.92657470703125
20220205-1807,2022-02-05 18:07:45Z,u01, 91,40,movements,el-ex, rt, d,14444.521645625, 0.3231380361921502, -0.19026830765154942, 0.12705782940881838, 0.017518917098641396, 1.0130001306533813, 0.0773777887225151, 0.31181320548057556, 0.18912236392498016, -0.9311311841011047, 0.0374758243560791, 0.00568661093711853, 0.02741420269012451, -0.10373108184516722, 0.15386445890789816, 0.9815013391178455,0.047125970986696686,0.3492889404296875,0.1948089599609375,-0.903717041015625
20220205-1807,2022-02-05 18:07:45Z,u01, 92,40,movements,el-ex, rt, d,14444.546591625001, 0.3497282087946819, -0.19068315181768433, 0.12988172720187882, -0.0889020636677742, 1.0624568462371826, 0.1569535732269287, 0.3364320993423462, 0.18952970206737518, -0.9224380254745483, 0.06095266342163086, -0.007828041911125183, 0.07176059484481812, -0.10478667448745149, 0.16673550270695772, 0.97928637183725,0.047088398882813076,0.424774169921875,0.1728668212890625,-0.8684844970703125
20220205-1807,2022-02-05 18:07:45Z,u01, 93,40,movements,el-ex, rt, d,14444.571536625, 0.3751805465528881, -0.19107761602513498, 0.1345721149812684, -0.07403956353664398, 0.8841975331306458, 0.16177776455879211, 0.35977137088775635, 0.18991701304912567, -0.9135075807571411, 0.0960698127746582, -0.027975469827651978, -0.05316716432571411, -0.1059895761826771, 0.17892013653378191, 0.97695929231644,0.048004641618496324,0.455841064453125,0.1619415283203125,-0.9666748046875
20220205-1807,2022-02-05 18:07:45Z,u01, 94,40,movements,el-ex, rt, d,14444.596482625, 0.3988125776531608, -0.18934653820759997, 0.138279183218326, 0.1082480251789093, 0.9919469952583313, 0.148618683218956, 0.381384015083313, 0.1882171481847763, -0.9050527811050415, 0.003580063581466675, 0.0025635063648223877, -0.07500392198562622, -0.10606080501146542, 0.19032791635444415, 0.9747572408236032,0.0487314819820156,0.377197265625,0.196746826171875,-0.9667510986328125
20220205-1807,2022-02-05 18:07:45Z,u01, 95,40,movements,el-ex, rt, d,14444.621427625001, 0.4251619420881546, -0.18458432040765146, 0.13937051107242973, 0.19004058837890625, 1.0673229694366455, 0.10239066183567047, 0.4054615795612335, 0.18353793025016785, -0.8954969644546509, 0.05121883749961853, 0.008875399827957153, -0.025630295276641846, -0.10449597624898116, 0.2033030181382268, 0.9723212218727054,0.0483745388698148,0.4566802978515625,0.192413330078125,-0.9211273193359375
20220205-1807,2022-02-05 18:07:45Z,u01, 96,40,movements,el-ex, rt, d,14444.646373625, 0.45110704452289113, -0.181194138495098, 0.14037636523370664, -0.0399252325296402, 0.9688912034034729, 0.08801945298910141, 0.4288250505924225, 0.18020428717136383, -0.8852319121360779, 0.08037608861923218, -0.04154767096042633, -0.06944942474365234, -0.10358450493063417, 0.21599606985531813, 0.9697023565185641,0.04788972768280986,0.50982666015625,0.1365203857421875,-0.9509735107421875
20220205-1807,2022-02-05 18:07:45Z,u01, 97,40,movements,el-ex, rt, d,14444.671318625002, 0.4748659165425564, -0.18433473410667384, 0.1448509017089924, -0.31403303146362305, 0.9080787897109985, 0.09624335914850235, 0.44947320222854614, 0.18329258263111115, -0.874286949634552, 0.023549377918243408, -0.02956026792526245, -0.04240000247955322, -0.10616825624117596, 0.2271229071103563, 0.9668489685594801,0.04844240383550935,0.4730224609375,0.1537322998046875,-0.91668701171875
20220205-1807,2022-02-05 18:07:45Z,u01, 98,40,movements,el-ex, rt, d,14444.696264625001, 0.5003067927571981, -0.19154800102793695, 0.1515169162587153, -0.3621866703033447, 1.031904697418213, 0.1063336730003357, 0.47092148661613464, 0.1903788149356842, -0.8613877892494202, 0.009989887475967407, 0.01283775269985199, 0.02448904514312744, -0.11103583342917166, 0.23869888503742206, 0.9634597462922284,0.04938921301093313,0.5010833740234375,0.208465576171875,-0.842529296875
20220205-1807,2022-02-05 18:07:45Z,u01, 99,40,movements,el-ex, rt, d,14444.721209625, 0.5270840355131388, -0.19454225473362752, 0.1565132262566093, -0.05210563540458679, 1.0020676851272583, 0.12768849730491638, 0.49352654814720154, 0.1933174431324005, -0.8479740619659424, 0.08469012379646301, 0.03324507176876068, -0.08053851127624512, -0.1137466039687593, 0.2511467538595224, 0.9599465061220803,0.04989884398203953,0.578216552734375,0.2265625,-0.9285125732421875
20220205-1807,2022-02-05 18:07:46Z,u01, 100,40,movements,el-ex, rt, d,14444.746155625, 0.5519456701764233, -0.19221669840047148, 0.15848913351540994, 0.044684890657663345, 0.9641279578208923, 0.07450424134731293, 0.5146881937980652, 0.19103524088859558, -0.8358239531517029, 0.041510045528411865, 0.015843436121940613, -0.055304527282714844, -0.1135102794955481, 0.26306549195261913, 0.9567848079541619,0.04974918096119496,0.5468292236328125,0.194793701171875,-0.8724517822265625
20220205-1807,2022-02-05 18:07:46Z,u01, 101,40,movements,el-ex, rt, d,14444.771100625001, 0.5756080342850775, -0.19277727384256393, 0.1606122801088954, -0.19050505757331848, 0.8991975784301758, 0.059766702353954315, 0.5342614650726318, 0.1915854513645172, -0.8233223557472229, 0.023203253746032715, -0.014110460877418518, 0.006427884101867676, -0.1146481636581748, 0.27421638086535655, 0.9535341133958091,0.04933405564369592,0.557464599609375,0.1774749755859375,-0.81689453125
20220205-1807,2022-02-05 18:07:46Z,u01, 102,40,movements,el-ex, rt, d,14444.796046625, 0.5992063608438798, -0.19778177300163366, 0.1663095051921159, -0.3909839987754822, 0.9186023473739624, 0.06775372475385666, 0.5529922842979431, 0.19649483263492584, -0.8096847534179688, 0.026536643505096436, -0.01689887046813965, -0.00562286376953125, -0.11840011770987005, 0.2848491669476699, 0.9499206201189415,0.049932729527309705,0.5830841064453125,0.1908721923828125,-0.8052520751953125
20220205-1807,2022-02-05 18:07:46Z,u01, 103,40,movements,el-ex, rt, d,14444.820991625002, 0.6238276176193661, -0.20447141572045122, 0.17376676932972318, -0.36867666244506836, 0.929009735584259, 0.09800304472446442, 0.571977436542511, 0.20304961502552032, -0.7947406768798828, 0.05110001564025879, 0.010008856654167175, -0.0059032440185546875, -0.12325707200159781, 0.29569810653381884, 0.9459250036577742,0.050954464463567606,0.623077392578125,0.2130584716796875,-0.8006439208984375
20220205-1807,2022-02-05 18:07:46Z,u01, 104,40,movements,el-ex, rt, d,14444.845936625, 0.6484645763186289, -0.2105521572823532, 0.18156466319189782, -0.38426777720451355, 0.9133340120315552, 0.11256693303585052, 0.5906252264976501, 0.208999902009964, -0.7794106006622314, 0.04002058506011963, 0.011886343359947205, 0.014487624168395996, -0.12791825591791628, 0.3064826499423113, 0.9418009340203158,0.05211905286692775,0.63787841796875,0.2160491943359375,-0.762542724609375
20220205-1807,2022-02-05 18:07:46Z,u01, 105,40,movements,el-ex, rt, d,14444.870882625, 0.6728280276656325, -0.21728747492409994, 0.1902220861083819, -0.4349648356437683, 0.8762390613555908, 0.09010203927755356, 0.6085461378097534, 0.21558167040348053, -0.7636728286743164, 0.04085278511047363, 0.0017187446355819702, 0.013978064060211182, -0.13305383779262198, 0.3169546743649515, 0.9375371594749409,0.05348423582958878,0.6493988037109375,0.2173004150390625,-0.74969482421875
20220205-1807,2022-02-05 18:07:46Z,u01, 106,40,movements,el-ex, rt, d,14444.895827625001, 0.6968565033108817, -0.22321709140341364, 0.19753870254133146, -0.2767986059188843, 0.917839527130127, 0.058720480650663376, 0.6258871555328369, 0.22136804461479187, -0.7478379011154175, 0.028852343559265137, 0.013449475169181824, -0.014369010925292969, -0.137631832230995, 0.3273202214535369, 0.9332600499109727,0.05426573008328317,0.6607818603515625,0.2443389892578125,-0.759124755859375
20220205-1807,2022-02-05 18:07:46Z,u01, 107,40,movements,el-ex, rt, d,14444.920775375002, 0.7201184169819762, -0.22586580335806278, 0.2020592633193656, -0.13355514407157898, 0.878527820110321, 0.058948714286088943, 0.6427235007286072, 0.22395025193691254, -0.7326342463493347, 0.03362250328063965, 0.011553898453712463, -0.024720430374145508, -0.14023770872798189, 0.33766295197741847, 0.9291772061473861,0.05428653951287965,0.6763458251953125,0.235504150390625,-0.757354736328125
20220205-1807,2022-02-05 18:07:46Z,u01, 108,40,movements,el-ex, rt, d,14444.945720375, 0.7435947941512884, -0.22839750613999388, 0.2063380194955581, -0.25705406069755554, 0.9382630586624146, 0.06132825091481209, 0.6593584418296814, 0.2264169305562973, -0.7169252634048462, 0.006748855113983154, 0.010536804795265198, 0.006964445114135742, -0.14277078702800242, 0.3480716356092881, 0.9249490532874546,0.054147577221531906,0.6719512939453125,0.2412109375,-0.6997222900390625
20220205-1807,2022-02-05 18:07:46Z,u01, 109,40,movements,el-ex, rt, d,14444.970666375, 0.7703725788585392, -0.2333990001083696, 0.2135029110968948, -0.41065457463264465, 1.0311998128890991, 0.06942392885684967, 0.6775203347206116, 0.2312856912612915, -0.6981927752494812, 0.0750279426574707, 0.016776442527770996, 0.04330092668533325, -0.14705067329674465, 0.3595548793048632, 0.9198469574455398,0.05457099693602513,0.7525482177734375,0.2480621337890625,-0.6548919677734375
20220205-1807,2022-02-05 18:07:46Z,u01, 110,40,movements,el-ex, rt, d,14444.995611375001, 0.795617357078042, -0.24091979075878805, 0.2239602857204075, -0.5883176922798157, 0.7854984402656555, 0.07563594728708267, 0.6936662197113037, 0.23859594762325287, -0.6796317100524902, 0.10761868953704834, -0.004816025495529175, -0.004892706871032715, -0.15306786125880545, 0.36980315084940774, 0.9147014166456657,0.05601199656283706,0.790191650390625,0.236724853515625,-0.686798095703125
20220205-1807,2022-02-05 18:07:46Z,u01, 111,40,movements,el-ex, rt, d,14445.020557375, 0.8186330373027358, -0.24983833248189755, 0.23724843152097697, -0.6248535513877869, 0.8519179821014404, 0.12074463814496994, 0.7075412273406982, 0.24724730849266052, -0.6620076894760132, -0.02222311496734619, 0.04064026474952698, 0.023396968841552734, -0.16023157003236213, 0.37857891309515995, 0.9097160651133488,0.05848602617073384,0.6853179931640625,0.2878875732421875,-0.63861083984375
20220205-1807,2022-02-05 18:07:46Z,u01, 112,40,movements,el-ex, rt, d,14445.045502375, 0.8461707193951497, -0.2583603851485441, 0.25175509152542147, -0.6886196136474609, 1.0339151620864868, 0.1130843237042427, 0.723896861076355, 0.25549569725990295, -0.6408551335334778, 0.034373462200164795, 0.06442004442214966, 0.045228421688079834, -0.16764960024492057, 0.3891863741603249, 0.9037149216621023,0.06104940226182687,0.79461669921875,0.31927490234375,-0.5987548828125
20220205-1807,2022-02-05 18:07:46Z,u01, 113,40,movements,el-ex, rt, d,14445.070448375001, 0.8755107880048204, -0.2679355280851311, 0.2688788959978, -0.8489314913749695, 0.9274019002914429, 0.1768157035112381, 0.7404728531837463, 0.2647411823272705, -0.6177476644515991, 0.1348934769630432, 0.015700101852416992, -0.003773212432861328, -0.17619038156219016, 0.4001038646715218, 0.8970800386823863,0.06419902606146444,0.8753662109375,0.2804412841796875,-0.62152099609375
20220205-1807,2022-02-05 18:07:46Z,u01, 114,40,movements,el-ex, rt, d,14445.095393375, 0.9026559015999654, -0.27868075739775944, 0.28916573052553113, -0.8250041007995605, 0.8276548981666565, 0.11542864143848419, 0.7546901106834412, 0.27508753538131714, -0.5956254601478577, 0.07483881711959839, 0.015058338642120361, -0.018769562244415283, -0.18591146285730994, 0.4094193286246699, 0.890577011234179,0.06844987864862967,0.8108978271484375,0.2946624755859375,-0.6229400634765625
20220205-1807,2022-02-05 18:07:46Z,u01, 115,40,movements,el-ex, rt, d,14445.120339375, 0.9286397475916822, -0.2865135812355673, 0.30326266128179713, -0.406032532453537, 0.9496649503707886, 0.08360332995653152, 0.7681611776351929, 0.28260964155197144, -0.5745087265968323, -0.03242802619934082, 0.041349709033966064, -0.052306950092315674, -0.19313723319159923, 0.4188599278067613, 0.8844703078365374,0.07047539967064331,0.7357330322265625,0.3239593505859375,-0.6268157958984375
20220205-1807,2022-02-05 18:07:46Z,u01, 116,40,movements,el-ex, rt, d,14445.145284375001, 0.9548015128994205, -0.2878620200011497, 0.3101706595667288, -0.20060352981090546, 0.9571947455406189, 0.11836390197277069, 0.7826149463653564, 0.2839028537273407, -0.553997278213501, 0.02072983980178833, 0.013094186782836914, -0.0563693642616272, -0.19610671044601846, 0.4295852926532314, 0.87863843085779,0.07066223965778307,0.8225860595703125,0.293212890625,-0.5956573486328125
20220205-1807,2022-02-05 18:07:46Z,u01, 117,40,movements,el-ex, rt, d,14445.170230375, 0.9799857189862109, -0.28986671158284366, 0.31950071788406603, -0.5167379379272461, 0.8695972561836243, 0.14061221480369568, 0.7958430647850037, 0.2858245074748993, -0.5337960720062256, 0.06556147336959839, -0.03355094790458679, -0.004915356636047363, -0.19988750297199465, 0.4394848809623033, 0.8727805540179657,0.07177875070067613,0.8614044189453125,0.2522735595703125,-0.5387115478515625
20220205-1807,2022-02-05 18:07:46Z,u01, 118,40,movements,el-ex, rt, d,14445.195175375002, 1.0069260325540166, -0.2953696668497343, 0.3335134175326761, -0.4874778389930725, 0.976650059223175, 0.07440323382616043, 0.8085915446281433, 0.29109352827072144, -0.5113162994384766, 0.01637500524520874, -0.0026108622550964355, -0.05209910869598389, -0.20631164661450424, 0.44919634732907016, 0.8661478594001822,0.07379763245976786,0.825531005859375,0.305877685546875,-0.580352783203125
20220205-1807,2022-02-05 18:07:46Z,u01, 119,40,movements,el-ex, rt, d,14445.220120375001, 1.0338839202375865, -0.2972185771378662, 0.3397041181467836, -0.0037905662320554256, 0.9906128644943237, 0.055971696972846985, 0.8216161727905273, 0.2928618788719177, -0.48905909061431885, 0.03763681650161743, 0.04806521534919739, -0.09184285998344421, -0.20948505216240482, 0.45998528913260567, 0.8597501763253457,0.07320641598929267,0.8592529296875,0.3409271240234375,-0.580902099609375
20220205-1807,2022-02-05 18:07:46Z,u01, 120,40,movements,el-ex, rt, d,14445.245066375, 1.056968916235007, -0.29546923283799464, 0.3387364930291595, 0.06440852582454681, 0.8692773580551147, 0.029466988518834114, 0.8331311345100403, 0.2911887764930725, -0.4702146053314209, 0.05074959993362427, 0.01194232702255249, -0.057708919048309326, -0.20936328500568718, 0.4701698817169893, 0.8544542748883867,0.07081900527958282,0.8908233642578125,0.2931060791015625,-0.5220947265625
20220205-1807,2022-02-05 18:07:46Z,u01, 121,40,movements,el-ex, rt, d,14445.270011375002, 1.079010630470865, -0.2963705310153494, 0.34166581784323413, -0.35013169050216675, 0.8602033257484436, -0.0023855483159422874, 0.8430605530738831, 0.29205089807510376, -0.451614111661911, 0.048510611057281494, -0.04061657190322876, -0.011291682720184326, -0.21120425102789558, 0.4791510261099395, 0.8491023296457979,0.06951580593513826,0.891571044921875,0.251434326171875,-0.4629058837890625
20220205-1807,2022-02-05 18:07:46Z,u01, 122,40,movements,el-ex, rt, d,14445.294957375001, 1.105690179106807, -0.3034097166619321, 0.35437112191107667, -0.6772366762161255, 0.9703501462936401, -0.05961441993713379, 0.8529493808746338, 0.29877591133117676, -0.4280308783054352, 0.03384578227996826, -0.04212307929992676, -0.058495521545410156, -0.21809067707566143, 0.48828374023709914, 0.8420761493295305,0.07016617619473026,0.8877716064453125,0.264617919921875,-0.5022125244140625
20220205-1807,2022-02-05 18:07:46Z,u01, 123,40,movements,el-ex, rt, d,14445.319902375, 1.1349443937740156, -0.3106192645030954, 0.36630756195607955, -0.3002561628818512, 1.0669373273849487, -0.0211403276771307, 0.863129198551178, 0.3056483268737793, -0.40197908878326416, 0.023803234100341797, 0.008621662855148315, -0.14546039700508118, -0.22497692075636458, 0.4983932628456066, 0.8343213126521181,0.06998264282108485,0.886932373046875,0.31427001953125,-0.5474395751953125
20220205-1807,2022-02-05 18:07:46Z,u01, 124,40,movements,el-ex, rt, d,14445.344848375002, 1.1619093073222506, -0.31205659650894874, 0.369136466140855, 0.010408942587673664, 0.9816941618919373, -0.036650776863098145, 0.8732495307922363, 0.3070165514945984, -0.37838655710220337, -0.008808434009552002, 0.0170038640499115, -0.061463236808776855, -0.22719272181817723, 0.5091072462600381, 0.8274106864253173,0.06771344987277142,0.860107421875,0.3412933349609375,-0.41241455078125
20220205-1807,2022-02-05 18:07:46Z,u01, 125,40,movements,el-ex, rt, d,14445.369793375, 1.185307882477223, -0.30972534235809884, 0.3634972582944951, 0.517287015914917, 1.1041885614395142, 0.04861105605959892, 0.8825240135192871, 0.30479705333709717, -0.3581201136112213, 0.010801732540130615, 0.05776697397232056, -0.014850318431854248, -0.22558459264037403, 0.5196648294420421, 0.8216088749631857,0.06339427238083231,0.8933258056640625,0.3625640869140625,-0.3729705810546875
20220205-1807,2022-02-05 18:07:46Z,u01, 126,40,movements,el-ex, rt, d,14445.394739375, 1.2088719085581736, -0.3031460931818597, 0.34753670135988046, 0.7766129970550537, 1.0157854557037354, 0.009187484160065651, 0.8925731778144836, 0.29852432012557983, -0.3379295766353607, 0.09331250190734863, 0.041899293661117554, -0.031348228454589844, -0.21949916966923422, 0.5318414551409567, 0.8159755114699344,0.056114070363498914,1.0095672607421875,0.304107666015625,-0.404266357421875
20220205-1807,2022-02-05 18:07:46Z,u01, 127,40,movements,el-ex, rt, d,14445.419684375001, 1.2249922421537147, -0.29760024857608947, 0.32819009780597513, 0.6285021901130676, 0.7768905758857727, -0.09957015514373779, 0.8994482755661011, 0.29322677850723267, -0.32405388355255127, 0.0458032488822937, -0.046598970890045166, -0.13203120231628418, -0.21255178711991407, 0.5411051567020242, 0.8122274627115373,0.04809971685681291,0.94525146484375,0.2466278076171875,-0.456085205078125
20220205-1807,2022-02-05 18:07:46Z,u01, 128,40,movements,el-ex, rt, d,14445.444630375001, 1.240856976898958, -0.2958608564077175, 0.31845466733560057, 0.07552759349346161, 0.7269595265388489, -0.01253512129187584, 0.9049570560455322, 0.2915634214878082, -0.30990898609161377, -0.05940645933151245, -0.030958563089370728, -0.05611869692802429, -0.20957977156920984, 0.5487456872378863, 0.808150044071168,0.04298930525580291,0.8347930908203125,0.28369140625,-0.342620849609375
20220205-1807,2022-02-05 18:07:46Z,u01, 129,40,movements,el-ex, rt, d,14445.469575375, 1.260827946810253, -0.29453049753988086, 0.3208082568444896, -0.1403728723526001, 0.8207414150238037, 0.13990822434425354, 0.9113339185714722, 0.29029059410095215, -0.29189354181289673, 0.009137272834777832, -0.040519505739212036, -0.07675865292549133, -0.21013823465486803, 0.556682272499657, 0.8025976439202194,0.04223442100620878,0.92047119140625,0.2497711181640625,-0.36865234375
20220205-1807,2022-02-05 18:07:46Z,u01, 130,40,movements,el-ex, rt, d,14445.494521375002, 1.28234961468633, -0.29484679716234424, 0.3261588516385011, -0.24237817525863647, 0.7297830581665039, -0.002337545156478882, 0.9173164367675781, 0.2905932664871216, -0.2721879482269287, 0.09949886798858643, 0.011225610971450806, -0.08598148822784424, -0.2122135168613412, 0.5646870410895302, 0.7964481004864505,0.04200631450922862,1.0320892333984375,0.3108062744140625,-0.3516845703125
20220205-1807,2022-02-05 18:07:46Z,u01, 131,40,movements,el-ex, rt, d,14445.519466375, 1.30024965220546, -0.29570990571969297, 0.33081495511941433, -0.09652216732501984, 0.6095058917999268, 0.009225633926689625, 0.92179936170578, 0.29141902923583984, -0.2556580603122711, 0.07699531316757202, 0.019173651933670044, -0.03785985708236694, -0.2142403824404587, 0.5712022613153485, 0.7912594510797989,0.04168439266131846,0.9987945556640625,0.3105926513671875,-0.29351806640625
20220205-1807,2022-02-05 18:07:46Z,u01, 132,40,movements,el-ex, rt, d,14445.544412375, 1.3159828862715595, -0.2960724318767883, 0.3303726883814781, 0.14424990117549896, 0.695946455001831, -0.04209095239639282, 0.9256052374839783, 0.2917657792568207, -0.24109752476215363, -0.006568253040313721, 0.02689880132675171, -0.023978054523468018, -0.21457119311619988, 0.5774170423428487, 0.7867476814358867,0.03971218907513904,0.902252197265625,0.32611083984375,-0.256561279296875
20220205-1807,2022-02-05 18:07:46Z,u01, 133,40,movements,el-ex, rt, d,14445.569357375001, 1.3329660100823524, -0.2942930029680368, 0.32029050736616266, 0.6962384581565857, 0.8805907964706421, 0.008617434650659561, 0.9300692081451416, 0.2900633215904236, -0.2254658043384552, 0.01066577434539795, 0.044043123722076416, -0.07003575563430786, -0.2112836054764655, 0.585342922053036, 0.7820120369841339,0.034500565937948785,0.94073486328125,0.3341064453125,-0.295501708984375
20220205-1807,2022-02-05 18:07:46Z,u01, 134,40,movements,el-ex, rt, d,14445.594303375, 1.3471209780969022, -0.288584635983748, 0.2973673834573699, 1.0576051473617554, 0.726093590259552, 0.02395271696150303, 0.9347665309906006, 0.28459566831588745, -0.21264232695102692, 0.08433747291564941, 0.03348901867866516, -0.10565583407878876, -0.20259200775676944, 0.5938310483414345, 0.7782361523155307,0.025877035277115212,1.0237884521484375,0.2992706298828125,-0.3152313232421875
20220205-1807,2022-02-05 18:07:46Z,u01, 135,40,movements,el-ex, rt, d,14445.619248375, 1.3569792499739037, -0.2837065494779186, 0.27292828923616375, 0.8037801384925842, 0.6304968595504761, -0.02371913194656372, 0.9381629228591919, 0.2799159288406372, -0.20370914041996002, 0.021569132804870605, -0.030205875635147095, -0.04885421693325043, -0.19356672532330282, 0.6005641977434444, 0.7756078998481313,0.0169405877904919,0.9597320556640625,0.2497100830078125,-0.2525634765625
20220205-1807,2022-02-05 18:07:46Z,u01, 136,40,movements,el-ex, rt, d,14445.644193375001, 1.3684708409952884, -0.2818450974073847, 0.2572621945038453, 0.42656707763671875, 0.6221712827682495, -0.10107490420341492, 0.9409506916999817, 0.27812841534614563, -0.1930193156003952, -0.027529001235961914, -0.023489713668823242, -0.013874471187591553, -0.18821840104417728, 0.606682929986136, 0.7722707953740131,0.010370104291422155,0.908538818359375,0.2646942138671875,-0.2021636962890625
20220205-1807,2022-02-05 18:07:46Z,u01, 137,40,movements,el-ex, rt, d,14445.669139375, 1.382021452684522, -0.28268943043586414, 0.24669677164069853, 0.4427712857723236, 0.7137290239334106, -0.10798913985490799, 0.9432487487792969, 0.2789393365383148, -0.18020738661289215, 0.0123940110206604, 0.001181483268737793, -0.07748286426067352, -0.18536421494317418, 0.612810257500446, 0.7681673264356745,0.0047666704318121145,0.9556427001953125,0.280120849609375,-0.2576904296875
20220205-1807,2022-02-05 18:07:46Z,u01, 138,40,movements,el-ex, rt, d,14445.694084375002, 1.3947305322027823, -0.2825216135151373, 0.2333845485927206, 0.5502055287361145, 0.5433287024497986, -0.075318343937397, 0.9455088376998901, 0.27877816557884216, -0.16821353137493134, 0.07168781757354736, 0.025146394968032837, -0.09275738894939423, -0.18121298926010387, 0.6189144449154644, 0.7642674114966304,-0.0014443137672898176,1.020538330078125,0.2991485595703125,-0.25274658203125
20220205-1807,2022-02-05 18:07:46Z,u01, 139,40,movements,el-ex, rt, d,14445.719030375001, 1.4037227331214048, -0.28253852955459235, 0.2210511435097051, 0.306493878364563, 0.4750322997570038, -0.10227346420288086, 0.9469785690307617, 0.27879443764686584, -0.15970385074615479, 0.02312946319580078, -0.023423343896865845, -0.011972591280937195, -0.17736969666457472, 0.6234485245688062, 0.7614483106273116,-0.006960246946187909,0.9701080322265625,0.25537109375,-0.1716766357421875
20220205-1807,2022-02-05 18:07:47Z,u01, 140,40,movements,el-ex, rt, d,14445.743975375, 1.4137558578713016, -0.2854194308594444, 0.21735104541984232, -0.021281609311699867, 0.38313964009284973, -0.1814846694469452, 0.9477360248565674, 0.28155994415283203, -0.15006859600543976, 0.018252253532409668, -0.016468971967697144, -0.007737636566162109, -0.17723530934202897, 0.6273383048520755, 0.7582417489408613,-0.010190288323126462,0.96368408203125,0.2698211669921875,-0.1580810546875
20220205-1807,2022-02-05 18:07:47Z,u01, 141,40,movements,el-ex, rt, d,14445.768921375, 1.424668435967306, -0.2907916655648066, 0.21987541140894773, -0.18473178148269653, 0.42322075366973877, -0.1934281438589096, 0.9478070735931396, 0.2867107391357422, -0.1394953727722168, -0.007438302040100098, -0.012098312377929688, -0.011429190635681152, -0.179946048845867, 0.630770747722986, 0.7547216270721869,-0.011963454718406097,0.94036865234375,0.2746124267578125,-0.1509246826171875
20220205-1807,2022-02-05 18:07:47Z,u01, 142,40,movements,el-ex, rt, d,14445.818812375, 1.4476410201176901, -0.298112665304176, 0.2194119314600682, 0.17321500182151794, 0.4192917048931122, -0.12147145718336105, 0.9486526250839233, 0.2937166392803192, -0.11742588132619858, 0.016389548778533936, 0.008254796266555786, -0.04385935515165329, -0.1823064222979315, 0.638789032500477, 0.7472860414227941,-0.01663033594239094,0.9574127197265625,0.3004913330078125,-0.1650238037109375
20220205-1807,2022-02-05 18:07:47Z,u01, 143,40,movements,el-ex, rt, d,14445.793866375001, 1.4367948370430739, -0.29553134527852826, 0.22220556236256875, -0.010050193406641483, 0.47983676195144653, -0.13392393290996552, 0.9480714201927185, 0.2912482023239136, -0.12780889868736267, 0.002993643283843994, 0.007198423147201538, -0.0383591502904892, -0.18233919776066118, 0.6347030572340283, 0.7508099646926113,-0.013741881257871014,0.9650421142578125,0.301971435546875,-0.161285400390625
20220205-1807,2022-02-05 18:07:47Z,u01, 144,40,movements,el-ex, rt, d,14445.843757375002, 1.455647878472527, -0.30079842253482403, 0.21406332622160498, 0.20552712678909302, 0.35648930072784424, -0.130543515086174, 0.9487753510475159, 0.29628288745880127, -0.10973544418811798, -0.005629539489746094, 0.01560676097869873, -0.02710520476102829, -0.1814929288212844, 0.6420222706583191, 0.7446192938393522,-0.020245872117121533,0.936737060546875,0.307586669921875,-0.13458251953125
20220205-1807,2022-02-05 18:07:47Z,u01, 145,40,movements,el-ex, rt, d,14445.868703375001, 1.4633033536420548, -0.30302930456909566, 0.20811455294785594, 0.19494372606277466, 0.3854634463787079, -0.11995318531990051, 0.9489282965660095, 0.29841285943984985, -0.10239782184362411, 0.00413590669631958, -0.010067462921142578, -0.03438182175159454, -0.1802996547559038, 0.645207814960931, 0.7420432941315714,-0.023893504753766115,0.95306396484375,0.2883453369140625,-0.13677978515625
20220205-1807,2022-02-05 18:07:47Z,u01, 146,40,movements,el-ex, rt, d,14445.893648375, 1.4706869785375487, -0.3051250430019771, 0.20393303020547432, 0.11324255168437958, 0.2956434190273285, -0.08854347467422485, 0.9490339756011963, 0.30041244626045227, -0.09532583504915237, 0.043565571308135986, -0.02551010251045227, -0.0392259880900383, -0.17960845251817004, 0.6481341587145093, 0.7395568094877445,-0.026808598249055626,0.991363525390625,0.2777557373046875,-0.1329193115234375
20220205-1807,2022-02-05 18:07:47Z,u01, 147,40,movements,el-ex, rt, d,14445.918593625001, 1.4774960243881516, -0.3070068734218875, 0.20140109372043216, 0.08643627166748047, 0.30492353439331055, -0.07558685541152954, 0.9490966200828552, 0.302206814289093, -0.08880884200334549, 0.009765803813934326, -0.01106908917427063, -0.03872394561767578, -0.17936659417835427, 0.6507097683840309, 0.7372681932102342,-0.028987001201801255,0.9588623046875,0.2911376953125,-0.127532958984375
20220205-1807,2022-02-05 18:07:47Z,u01, 148,40,movements,el-ex, rt, d,14445.943538625, 1.4843717399001586, -0.30902074193832013, 0.19881842204437503, 0.09150253236293793, 0.287218302488327, -0.1142444983124733, 0.9490764141082764, 0.30412590503692627, -0.08222836256027222, 0.003987610340118408, -0.014956623315811157, -0.03013717383146286, -0.17914153018094425, 0.6532948260994348, 0.7349413036996818,-0.031233134637792703,0.9558563232421875,0.290435791015625,-0.108795166015625
20220205-1807,2022-02-05 18:07:47Z,u01, 149,40,movements,el-ex, rt, d,14445.968484625, 1.4901903951630815, -0.31133745545537433, 0.19599418868741106, 0.10352766513824463, 0.23822233080863953, -0.08181166648864746, 0.9488339424133301, 0.3063320815563202, -0.07664771378040314, 0.021106243133544922, -0.02793547511100769, -0.036175601184368134, -0.17894947816996676, 0.6554793862459692, 0.7329369981726209,-0.03357441985539095,0.969940185546875,0.2783966064453125,-0.112823486328125
20220205-1807,2022-02-05 18:07:47Z,u01, 150,40,movements,el-ex, rt, d,14445.993429625001, 1.4951125223039936, -0.3132348327667263, 0.1935062766034643, 0.07602010667324066, 0.21454836428165436, -0.08232545852661133, 0.9486186504364014, 0.3081376850605011, -0.07193246483802795, 0.025395870208740234, -0.025560110807418823, -0.04572785645723343, -0.17872288112425944, 0.6573369756890932, 0.7312327350874331,-0.035568995945214454,0.974700927734375,0.2798614501953125,-0.11370849609375
20220205-1807,2022-02-05 18:07:47Z,u01, 151,40,movements,el-ex, rt, d,14446.018375625, 1.4994621965874348, -0.3148577630878869, 0.19258173409366622, -0.015440931543707848, 0.14038018882274628, -0.07584911584854126, 0.9484224319458008, 0.309681236743927, -0.06776987761259079, 0.034533679485321045, -0.022297143936157227, -0.04014015942811966, -0.17891603628795766, 0.6588657776029275, 0.7297447282867745,-0.03684753619737274,0.9829559326171875,0.287384033203125,-0.10791015625
20220205-1807,2022-02-05 18:07:47Z,u01, 152,40,movements,el-ex, rt, d,14446.043320625, 1.5033341816243666, -0.31703972527168267, 0.1942734134299414, -0.09655492007732391, 0.1421901434659958, -0.08940134197473526, 0.9480012059211731, 0.3117551803588867, -0.06405139714479446, 0.01484370231628418, -0.03140541911125183, -0.026555120944976807, -0.18017481013952313, 0.6599328302363731, 0.7284455146367556,-0.037322074264648175,0.9600372314453125,0.2766571044921875,-0.0878448486328125
20220205-1807,2022-02-05 18:07:47Z,u01, 153,40,movements,el-ex, rt, d,14446.068265625001, 1.5056599834981688, -0.3179050256250001, 0.19594905125932602, -0.09426340460777283, 0.11664270609617233, -0.08657999336719513, 0.9478780627250671, 0.3125772476196289, -0.06182877719402313, 0.03175151348114014, -0.045411109924316406, -0.03179895877838135, -0.18099052936354348, 0.6605513149825356, 0.7276876633501603,-0.03721746969052869,0.9796295166015625,0.2671661376953125,-0.0936279296875
20220205-1807,2022-02-05 18:07:47Z,u01, 154,40,movements,el-ex, rt, d,14446.093211625, 1.5067864851531325, -0.31806271991549084, 0.19793713914443453, -0.09480120241641998, 0.02959255874156952, -0.016761958599090576, 0.9478979110717773, 0.31272703409194946, -0.060757797211408615, 0.04119217395782471, -0.04252439737319946, -0.05633801221847534, -0.18168213680585113, 0.6607667539001943, 0.7273484098248943,-0.036650307932724,0.983551025390625,0.273223876953125,-0.1185760498046875
20220205-1807,2022-02-05 18:07:47Z,u01, 155,40,movements,el-ex, rt, d,14446.118156625002, 1.5066778755022763, -0.31663841729290626, 0.19950008094306027, -0.06599615514278412, 0.03072580322623253, 0.02056816965341568, 0.948334813117981, 0.31137385964393616, -0.06088922545313835, 0.010283410549163818, -0.04039302468299866, -0.06250840425491333, -0.18169770126756576, 0.6607127458938914, 0.7274464753622673,-0.035585170316276615,0.9586181640625,0.2709808349609375,-0.1233978271484375
20220205-1807,2022-02-05 18:07:47Z,u01, 156,40,movements,el-ex, rt, d,14446.143102625001, 1.5073431798936614, -0.3150737450554419, 0.20113293065504323, -0.07310386002063751, 0.024060707539319992, 0.018492769449949265, 0.9488602876663208, 0.3098865747451782, -0.06028910353779793, 0.01702117919921875, -0.04349863529205322, -0.06210148334503174, -0.18167334133397248, 0.660946476188545, 0.7272917465229737,-0.034516821807564435,0.972320556640625,0.2635345458984375,-0.1258392333984375
20220205-1807,2022-02-05 18:07:47Z,u01, 157,40,movements,el-ex, rt, d,14446.168047625, 1.5064586397856723, -0.3125118773477055, 0.2025315148462146, -0.08048038184642792, -0.004126919433474541, 0.030439244583249092, 0.9495957493782043, 0.3074498176574707, -0.061179231852293015, 0.03880774974822998, -0.038696736097335815, -0.07347948104143143, -0.18124613476067364, 0.6607270410713002, 0.7276657141286506,-0.033051939590588,0.9884033203125,0.2687530517578125,-0.1346588134765625
20220205-1807,2022-02-05 18:07:47Z,u01, 158,40,movements,el-ex, rt, d,14446.192993625002, 1.504529032847255, -0.31038174703124205, 0.20382197306327693, -0.059791915118694305, -0.06398312747478485, 0.06070813164114952, 0.9501270651817322, 0.3054221570491791, -0.06305467337369919, 0.025291025638580322, -0.031816840171813965, -0.07251947373151779, -0.18095100984522744, 0.6600980184158939, 0.7283706283824656,-0.03167966124561211,0.96978759765625,0.2722930908203125,-0.141754150390625
20220205-1807,2022-02-05 18:07:47Z,u01, 159,40,movements,el-ex, rt, d,14446.217938625, 1.501075130844847, -0.30742070667808313, 0.20554618272683864, -0.1081513911485672, -0.11051693558692932, 0.08221089839935303, 0.9508017301559448, 0.30260127782821655, -0.06639865785837173, 0.014942407608032227, -0.032535940408706665, -0.08394598960876465, -0.18052509703766073, 0.6589471610605396, 0.7295996526244529,-0.02972862085793071,0.9657440185546875,0.2700653076171875,-0.1503448486328125
20220205-1807,2022-02-05 18:07:47Z,u01, 160,40,movements,el-ex, rt, d,14446.242884625, 1.4971791530222858, -0.30458397326692466, 0.20887972035933725, -0.17622502148151398, -0.18017970025539398, 0.08054289221763611, 0.9513881206512451, 0.29989632964134216, -0.07016530632972717, 0.033215880393981934, -0.026260435581207275, -0.08315485715866089, -0.18067225886495164, 0.6574761465028767, 0.730987927118866,-0.027193262904759985,0.98858642578125,0.2756805419921875,-0.1531219482421875
20220205-1807,2022-02-05 18:07:47Z,u01, 161,40,movements,el-ex, rt, d,14446.267829625001, 1.49145662916711, -0.30163571133183936, 0.21333680977928604, -0.17911478877067566, -0.2448182851076126, 0.09998003393411636, 0.9518482089042664, 0.29708245396614075, -0.07567820698022842, 0.03368651866912842, -0.012902766466140747, -0.06874608993530273, -0.18116111457035255, 0.655241593509911, 0.732981026726765,-0.024042388438400453,0.98553466796875,0.2841796875,-0.1444244384765625
20220205-1807,2022-02-05 18:07:47Z,u01, 162,40,movements,el-ex, rt, d,14446.292775625001, 1.4852381777514787, -0.2992259363425386, 0.21760835386936184, -0.16158179938793182, -0.26926863193511963, 0.09273770451545715, 0.9520696401596069, 0.2947806417942047, -0.08165665715932846, 0.026308655738830566, -0.003139406442642212, -0.07112943381071091, -0.18176994536376168, 0.6527873751916318, 0.7351077293730781,-0.02109388476369395,0.9781646728515625,0.2910308837890625,-0.15313720703125
20220205-1807,2022-02-05 18:07:47Z,u01, 163,40,movements,el-ex, rt, d,14446.317720625, 1.4778699047366681, -0.2966545672147901, 0.2218853962502262, -0.18619023263454437, -0.3266121447086334, 0.10769901424646378, 0.9521937370300293, 0.2923225462436676, -0.0887395367026329, 0.025131702423095703, 0.00047835707664489746, -0.06239854544401169, -0.18231637173862256, 0.6499161265772482, 0.737595117340582,-0.017980176769326728,0.977325439453125,0.2928009033203125,-0.1511383056640625
20220205-1807,2022-02-05 18:07:47Z,u01, 164,40,movements,el-ex, rt, d,14446.342666625002, 1.4705794276751738, -0.2940145446715772, 0.22733247609420076, -0.20946483314037323, -0.3789105713367462, 0.13901850581169128, 0.9522859454154968, 0.2897968292236328, -0.095755934715271, 0.0344846248626709, 0.010236740112304688, -0.052772924304008484, -0.1831954808877964, 0.6469632515234681, 0.7400474251197747,-0.014413597249768428,0.991058349609375,0.296722412109375,-0.1476287841796875
20220205-1807,2022-02-05 18:07:47Z,u01, 165,40,movements,el-ex, rt, d,14446.367611625, 1.4626529322926647, -0.2913558191299714, 0.23319290655883462, -0.19421327114105225, -0.41156113147735596, 0.12697097659111023, 0.95225989818573, 0.28725117444992065, -0.10338395833969116, 0.02746129035949707, 0.012477219104766846, -0.04825770854949951, -0.18418033911961096, 0.6437279105869919, 0.7426839088832379,-0.01062220438226541,0.9797210693359375,0.2997283935546875,-0.151641845703125
20220205-1807,2022-02-05 18:07:47Z,u01, 166,40,movements,el-ex, rt, d,14446.392557625, 1.4536375979375, -0.28892135617462744, 0.23758215973872837, -0.14429421722888947, -0.42531269788742065, 0.09959761053323746, 0.951980710029602, 0.2849184572696686, -0.11204597353935242, 0.023193299770355225, 0.01630529761314392, -0.07234107702970505, -0.18475143032010907, 0.6401905362817406, 0.7456333403819848,-0.007345315436666999,0.978057861328125,0.3062591552734375,-0.1895294189453125
20220205-1807,2022-02-05 18:07:47Z,u01, 167,40,movements,el-ex, rt, d,14446.417502625001, 1.4434339016577094, -0.28723655622504374, 0.24259284286900767, -0.2418753206729889, -0.5333392024040222, 0.09139540046453476, 0.9512627124786377, 0.28330308198928833, -0.12181449681520462, 0.037537455558776855, 0.008048266172409058, -0.06547170877456665, -0.18576870792343153, 0.6360681876776368, 0.7489269430584036,-0.003968680217435017,0.988800048828125,0.291351318359375,-0.187286376953125
20220205-1807,2022-02-05 18:07:47Z,u01, 168,40,movements,el-ex, rt, d,14446.442447625, 1.4314797009369902, -0.2861600382620363, 0.25059550687027726, -0.32961440086364746, -0.5920726656913757, 0.07773731648921967, 0.9500401020050049, 0.28227052092552185, -0.1332193911075592, 0.014162898063659668, 0.012224137783050537, -0.05385321378707886, -0.1879222219298405, 0.6309322817623204, 0.7527347278527504,0.000507708256567041,0.9573822021484375,0.2964935302734375,-0.1886749267578125
20220205-1807,2022-02-05 18:07:47Z,u01, 169,40,movements,el-ex, rt, d,14446.467393625, 1.4197271117748718, -0.28582892303540197, 0.2585720789191572, -0.23773591220378876, -0.5603289008140564, 0.0501791276037693, 0.9485011100769043, 0.281952828168869, -0.14438940584659576, 0.015244066715240479, 0.03398039937019348, -0.0630536675453186, -0.19029188948171605, 0.6257749540137455, 0.7564207189904696,0.004737018812312421,0.9637451171875,0.3159332275390625,-0.2074432373046875
20220205-1807,2022-02-05 18:07:47Z,u01, 170,40,movements,el-ex, rt, d,14446.492338625001, 1.4063092882103883, -0.2858385751953754, 0.2625877857030048, -0.0833246037364006, -0.6243371367454529, 0.005773644894361496, 0.9464757442474365, 0.2819620966911316, -0.15710240602493286, 0.03768569231033325, 0.014317810535430908, -0.06855964660644531, -0.1915052401004319, 0.6203019740458682, 0.7605882357687563,0.007537590565130925,0.9827880859375,0.293914794921875,-0.22503662109375
20220205-1807,2022-02-05 18:07:47Z,u01, 171,40,movements,el-ex, rt, d,14446.517284625, 1.3907401507912007, -0.28582515891441496, 0.26333279451727665, 0.044735223054885864, -0.6372838020324707, 0.02265329286456108, 0.9439189434051514, 0.2819492220878601, -0.171819269657135, 0.006749510765075684, 0.015429317951202393, -0.06482917070388794, -0.19166462539295917, 0.6142923081228838, 0.7653906888450558,0.009317559659654528,0.9506683349609375,0.2973785400390625,-0.2366485595703125
20220205-1807,2022-02-05 18:07:47Z,u01, 172,40,movements,el-ex, rt, d,14446.542229625002, 1.3748261469649687, -0.28448006807735055, 0.2600565139551047, 0.24257878959178925, -0.5783872008323669, 0.04104747623205185, 0.9414364099502563, 0.28065845370292664, -0.1868920922279358, 4.6253204345703125e-05, 0.012752801179885864, -0.06574755907058716, -0.1900855395808737, 0.6086225753715773, 0.7702896012993143,0.010008973458233095,0.9487152099609375,0.2938690185546875,-0.26129150390625
20220205-1807,2022-02-05 18:07:47Z,u01, 173,40,movements,el-ex, rt, d,14446.567175625001, 1.358160910287156, -0.2817881831307418, 0.25229609220347643, 0.3578077256679535, -0.6335081458091736, 0.05440443381667137, 0.9389262199401855, 0.2780737578868866, -0.20271337032318115, 0.072517991065979, 0.014513552188873291, -0.07128852605819702, -0.18664390497711122, 0.6031644624181266, 0.7754146150890079,0.009432812481901531,1.011444091796875,0.2925872802734375,-0.2740020751953125
20220205-1807,2022-02-05 18:07:47Z,u01, 174,40,movements,el-ex, rt, d,14446.592120625, 1.3387270916626988, -0.2789963812808494, 0.24470339806451177, 0.21793733537197113, -0.7550081610679626, 0.043582476675510406, 0.9355615377426147, 0.27539098262786865, -0.22109854221343994, 0.0824286937713623, -0.0023654401302337646, -0.03553885221481323, -0.18321991754237624, 0.5965577833258954, 0.7813230118111292,0.009149909348931673,1.009918212890625,0.26507568359375,-0.2548065185546875
20220205-1807,2022-02-05 18:07:47Z,u01, 175,40,movements,el-ex, rt, d,14446.617066625, 1.3193298408626941, -0.2772700294785097, 0.24228222514603476, 0.022380350157618523, -0.7424947023391724, 0.05029044672846794, 0.931556224822998, 0.27373096346855164, -0.23932108283042908, 0.036873459815979004, -0.006824225187301636, -0.036481380462646484, -0.18174776349510266, 0.5893277607150511, 0.7871151817821457,0.010505087003359226,0.9684295654296875,0.26690673828125,-0.2758026123046875
20220205-1807,2022-02-05 18:07:47Z,u01, 176,40,movements,el-ex, rt, d,14446.642011625001, 1.3011973582059944, -0.27566463456064927, 0.2419084086492638, 0.06867367774248123, -0.7088621854782104, 0.06502837687730789, 0.9274861812591553, 0.2721865475177765, -0.25628894567489624, 0.04224050045013428, -0.0027010440826416016, -0.04160827398300171, -0.1809163158963583, 0.5823442386474871, 0.7924572526411885,0.012492916010662047,0.971649169921875,0.272308349609375,-0.3034820556640625
20220205-1807,2022-02-05 18:07:47Z,u01, 177,40,movements,el-ex, rt, d,14446.666957625, 1.282914847449952, -0.2731022008109967, 0.23985960888176072, 0.13505613803863525, -0.744594931602478, 0.0980970561504364, 0.9233116507530212, 0.2697199583053589, -0.27339911460876465, 0.05930870771408081, 0.013208508491516113, -0.0230942964553833, -0.17920829526847176, 0.5754866085958596, 0.7978101036370697,0.01409973552242727,0.9826202392578125,0.282928466796875,-0.2964935302734375
20220205-1807,2022-02-05 18:07:47Z,u01, 178,40,movements,el-ex, rt, d,14446.691902625002, 1.2625562428891586, -0.2693974604382386, 0.2370275952569382, 0.1450148969888687, -0.8212692141532898, 0.11923403292894363, 0.9185004234313965, 0.26615068316459656, -0.29243960976600647, 0.059481263160705566, 0.01839524507522583, -0.012598693370819092, -0.17679820084115733, 0.5679107281534157, 0.803721080418573,0.0158847182191873,0.97198486328125,0.280548095703125,-0.3083038330078125
20220205-1807,2022-02-05 18:07:47Z,u01, 179,40,movements,el-ex, rt, d,14446.716848625001, 1.2418589685837773, -0.2661733575455035, 0.23472468665837806, 0.0917619913816452, -0.7838583588600159, 0.07905185222625732, 0.9130587577819824, 0.26304149627685547, -0.31166163086891174, 0.03280317783355713, 0.014088630676269531, 0.00035196542739868164, -0.1747041185860331, 0.5600425465896084, 0.8096398609872513,0.017724859056788334,0.94586181640625,0.277130126953125,-0.311309814453125
20220205-1807,2022-02-05 18:07:48Z,u01, 180,40,movements,el-ex, rt, d,14446.741793625, 1.2220018889613842, -0.263577588757212, 0.23311399066185712, 0.11399372667074203, -0.7767806053161621, 0.06360512226819992, 0.9073290228843689, 0.260536253452301, -0.329961895942688, 0.04431593418121338, 0.004173219203948975, -0.006555229425430298, -0.1730397757230971, 0.5523371093483016, 0.815229221918495,0.019551391575362342,0.9525604248046875,0.263214111328125,-0.3448944091796875
20220205-1807,2022-02-05 18:07:48Z,u01, 181,40,movements,el-ex, rt, d,14446.766739625002, 1.202149839856818, -0.2615446151844859, 0.23052074696966426, 0.13597768545150757, -0.7960895895957947, 0.04814540222287178, 0.901092529296875, 0.25857293605804443, -0.3480982184410095, 0.06784063577651978, 0.02008303999900818, -0.02101173996925354, -0.1713144479899248, 0.5446120226379352, 0.8207418820361589,0.02078262940270026,0.96893310546875,0.278656005859375,-0.369110107421875
20220205-1807,2022-02-05 18:07:48Z,u01, 182,40,movements,el-ex, rt, d,14446.791684625001, 1.1802195713042885, -0.25958663313044544, 0.22907587518140404, 0.03825734928250313, -0.9162715077400208, 0.06363961100578308, 0.8937090039253235, 0.25668105483055115, -0.3679661750793457, 0.06985312700271606, 0.011217504739761353, 0.004562973976135254, -0.16989614753250304, 0.5358658567212012, 0.8267235590258772,0.022611292417884954,0.9527587890625,0.264556884765625,-0.3651580810546875
20220205-1807,2022-02-05 18:07:48Z,u01, 183,40,movements,el-ex, rt, d,14446.816630625, 1.1572253602056497, -0.25859418641852605, 0.22944114988284076, -0.04266006872057915, -0.9129664301872253, 0.026373330503702164, 0.8852452039718628, 0.2557217478752136, -0.38851937651634216, 0.013161838054656982, 0.004577904939651489, -0.015243232250213623, -0.16931584322013757, 0.526376722632982, 0.832847660126718,0.02498863686182745,0.898406982421875,0.2602996826171875,-0.4037628173828125
20220205-1807,2022-02-05 18:07:48Z,u01, 184,40,movements,el-ex, rt, d,14446.841575625001, 1.1353699488643794, -0.25834031213840897, 0.23063683472755206, -0.03445037454366684, -0.8898893594741821, 0.014371460303664207, 0.8766021132469177, 0.25547629594802856, -0.4077998697757721, 0.030761897563934326, 0.013169944286346436, -0.015677213668823242, -0.1692374419204981, 0.5171641521113508, 0.8385397108911508,0.02740748588653641,0.916107177734375,0.2696533203125,-0.4286346435546875
20220205-1807,2022-02-05 18:07:48Z,u01, 185,40,movements,el-ex, rt, d,14446.866520625, 1.1126792438774011, -0.2550883011321832, 0.22834114210346768, 0.1795642226934433, -0.9817050099372864, 0.06094595417380333, 0.8678645491600037, 0.25233083963394165, -0.42794907093048096, 0.09847468137741089, 0.05453866720199585, -0.020415067672729492, -0.16698483518931606, 0.5080763076550753, 0.844464705340945,0.029222722479125107,0.966339111328125,0.3068695068359375,-0.4483642578125
20220205-1807,2022-02-05 18:07:48Z,u01, 186,40,movements,el-ex, rt, d,14446.891466625, 1.0874313406258067, -0.25162810959094367, 0.2247291664368059, 0.15789397060871124, -0.9949802160263062, 0.08156874030828476, 0.8575522303581238, 0.24898113310337067, -0.45012521743774414, 0.08110755681991577, -0.0019870996475219727, -0.015267729759216309, -0.16425730587282736, 0.49795274194832395, 0.8509527300165853,0.030694960462854803,0.9294891357421875,0.2550201416015625,-0.4681396484375
20220205-1807,2022-02-05 18:07:48Z,u01, 187,40,movements,el-ex, rt, d,14446.916412125001, 1.0618024253701113, -0.24835363989212725, 0.22325389621844405, 0.1132151186466217, -0.996884286403656, 0.09063081443309784, 0.8464431166648865, 0.2458084523677826, -0.4723479151725769, 0.0485156774520874, 0.024470552802085876, -0.034686118364334106, -0.16211057466622286, 0.4873871256628236, 0.8573710321905398,0.03300187248045727,0.89495849609375,0.2702789306640625,-0.5070343017578125
20220205-1807,2022-02-05 18:07:48Z,u01, 188,40,movements,el-ex, rt, d,14446.941358125001, 1.0368594385658683, -0.24495946792949203, 0.22154988603377426, 0.14462202787399292, -0.9653188586235046, 0.08450953662395477, 0.8351126313209534, 0.24251700937747955, -0.49373337626457214, 0.06349283456802368, 0.02423715591430664, -0.04075139760971069, -0.15983773544177993, 0.4770589224079135, 0.8635001381269412,0.0351348740944436,0.900054931640625,0.266143798828125,-0.5409393310546875
20220205-1807,2022-02-05 18:07:48Z,u01, 189,40,movements,el-ex, rt, d,14446.966303125, 1.012191711045985, -0.24087643709884954, 0.2188596712091878, 0.18686600029468536, -0.9965522289276123, 0.07969260960817337, 0.8235133290290833, 0.23855385184288025, -0.5147019028663635, 0.09820932149887085, 0.01593226194381714, -0.044807255268096924, -0.15701602952655486, 0.46689935544873495, 0.8694751692675904,0.03693432603623498,0.921722412109375,0.254486083984375,-0.55950927734375
20220205-1807,2022-02-05 18:07:48Z,u01, 190,40,movements,el-ex, rt, d,14446.991249125002, 0.9858088784214425, -0.2362320350450762, 0.21560055001303682, 0.24713444709777832, -1.0405476093292236, 0.10848251730203629, 0.8105639815330505, 0.2340409755706787, -0.5368528366088867, 0.06709116697311401, 0.013014078140258789, -0.01995551586151123, -0.15376751094986388, 0.455992459579327, 0.8757453474930215,0.038686368202347166,0.860687255859375,0.2496795654296875,-0.5562286376953125
20220205-1807,2022-02-05 18:07:48Z,u01, 191,40,movements,el-ex, rt, d,14447.016194125, 0.9593735095784832, -0.23001025578961307, 0.2114432056224476, 0.2994164526462555, -1.004172682762146, 0.11776342242956161, 0.797267496585846, 0.22798751294612885, -0.5589154362678528, 0.022633254528045654, 0.014352619647979736, -0.006025850772857666, -0.14961054852473907, 0.445150487291662, 0.8819473499360595,0.04033438732744832,0.8199005126953125,0.242340087890625,-0.56494140625
20220205-1807,2022-02-05 18:07:48Z,u01, 192,40,movements,el-ex, rt, d,14447.041140125, 0.933292081002679, -0.22377295630015825, 0.20684157195875644, 0.2615181803703308, -1.0418120622634888, 0.07964500039815903, 0.78354811668396, 0.22191007435321808, -0.5803519487380981, 0.06871640682220459, 0.03983917832374573, -0.029663801193237305, -0.14533767936112743, 0.4343972527787917, 0.8879418752535271,0.04165857792219546,0.8558349609375,0.261962890625,-0.6107025146484375
20220205-1807,2022-02-05 18:07:48Z,u01, 193,40,movements,el-ex, rt, d,14447.066085125001, 0.9049424533084536, -0.2201808004323561, 0.20415404329375483, 0.09260484576225281, -1.1627002954483032, 0.01420887466520071, 0.7674046158790588, 0.2184060662984848, -0.6028175950050354, 0.05043607950210571, 0.03243318200111389, -0.02369290590286255, -0.1425775336515189, 0.42221184504291964, 0.8941663363935457,0.043307642916607825,0.817840576171875,0.2508392333984375,-0.6265106201171875
20220205-1807,2022-02-05 18:07:48Z,u01, 194,40,movements,el-ex, rt, d,14447.091031125, 0.87517865891139, -0.2192637119203293, 0.2020727679667587, 0.1272517740726471, -1.1810888051986694, -0.05735638737678528, 0.7492786645889282, 0.21751102805137634, -0.6255161762237549, 0.04089784622192383, 0.05090634524822235, -0.04353588819503784, -0.1410831557722442, 0.4090690151836603, 0.9004228924987077,0.04468437197159908,0.7878570556640625,0.27056884765625,-0.677093505859375
20220205-1807,2022-02-05 18:07:48Z,u01, 195,40,movements,el-ex, rt, d,14447.115976125, 0.844586352583886, -0.21781101936759623, 0.19715851027097078, 0.198830708861351, -1.210155725479126, -0.10606513917446136, 0.7300305366516113, 0.21609288454055786, -0.64835125207901, 0.06573063135147095, 0.03758448362350464, -0.052133917808532715, -0.1387593772619616, 0.3956895505965175, 0.9067296758455372,0.04491097748747247,0.7957611083984375,0.2536773681640625,-0.7004852294921875
20220205-1807,2022-02-05 18:07:48Z,u01, 196,40,movements,el-ex, rt, d,14447.140922125001, 0.8128310039762696, -0.2177267176892747, 0.19271883613329552, 0.06728311628103256, -1.2766902446746826, -0.1150716170668602, 0.709090530872345, 0.21601057052612305, -0.6712153553962708, 0.1060798168182373, 0.016670718789100647, -0.026202797889709473, -0.1371440715144688, 0.3815545028911791, 0.9130026000105849,0.04509869072222278,0.81744384765625,0.220489501953125,-0.6977081298828125
20220205-1807,2022-02-05 18:07:48Z,u01, 197,40,movements,el-ex, rt, d,14447.165867125, 0.779844230812179, -0.2211031594263143, 0.19108667002330157, -0.1535639464855194, -1.3258873224258423, -0.15703006088733673, 0.6860508322715759, 0.2193060666322708, -0.6937140226364136, 0.10337799787521362, -0.02561098337173462, -0.010036468505859375, -0.13762085706598454, 0.3663379503972157, 0.9191002755761151,0.04595302606213403,0.7894287109375,0.193695068359375,-0.7037506103515625
20220205-1807,2022-02-05 18:07:48Z,u01, 198,40,movements,el-ex, rt, d,14447.190813125, 0.747026738509766, -0.226520519523078, 0.19077032114530904, -0.07297083735466003, -1.2977615594863892, -0.14631961286067963, 0.6621025800704956, 0.2245882898569107, -0.714968740940094, 0.09323811531066895, -0.009515658020973206, -0.02459418773651123, -0.13927701591881325, 0.35088110629993857, 0.9248082523794439,0.04705407282034796,0.753265380859375,0.224334716796875,-0.7479095458984375
20220205-1807,2022-02-05 18:07:48Z,u01, 199,40,movements,el-ex, rt, d,14447.215758125001, 0.7141968080752958, -0.22723924200806153, 0.1874660018678563, 0.19486117362976074, -1.286682367324829, -0.08888235688209534, 0.6381717920303345, 0.22528859972953796, -0.7361941933631897, 0.09943819046020508, 0.00582103431224823, -0.026394248008728027, -0.13826286596511736, 0.33583667617654345, 0.9304971800678767,0.047668725868074746,0.73760986328125,0.231109619140625,-0.7625885009765625
20220205-1807,2022-02-05 18:07:48Z,u01, 200,40,movements,el-ex, rt, d,14447.240703125, 0.6809996038873873, -0.2234384932801582, 0.18195817280719745, 0.2755959928035736, -1.2803523540496826, -0.05804454907774925, 0.6139196753501892, 0.22158394753932953, -0.7576299905776978, 0.10364019870758057, -0.02424202859401703, -0.004317522048950195, -0.13480384104372212, 0.3209562781410292, 0.9362203690476212,0.048025638568737705,0.71112060546875,0.1904144287109375,-0.760894775390625
20220205-1807,2022-02-05 18:07:48Z,u01, 201,40,movements,el-ex, rt, d,14447.265649125, 0.6481564978857391, -0.22065063219441877, 0.17792283771220777, 0.10666197538375854, -1.2855368852615356, -0.0386047400534153, 0.5890808701515198, 0.2188645303249359, -0.7778702974319458, 0.09349066019058228, -0.03145606815814972, -0.007270634174346924, -0.1320766080878881, 0.30597487678419766, 0.9415706828480137,0.04878569982699915,0.6825714111328125,0.187408447265625,-0.7851409912109375
20220205-1807,2022-02-05 18:07:48Z,u01, 202,40,movements,el-ex, rt, d,14447.290594125001, 0.6162612592894054, -0.22094637719217758, 0.1771427837952682, -0.09708243608474731, -1.2509773969650269, -0.024182789027690887, 0.5639376044273376, 0.21915309131145477, -0.7962074875831604, 0.0897642970085144, -0.02232995629310608, 0.012928128242492676, -0.1313074276496559, 0.2909546825073317, 0.9463384994352229,0.05047084229022425,0.64788818359375,0.2056884765625,-0.7753143310546875
20220205-1807,2022-02-05 18:07:48Z,u01, 203,40,movements,el-ex, rt, d,14447.315540125, 0.5857187403160126, -0.2235506555733426, 0.17848721692565156, -0.09300589561462402, -1.2277607917785645, -0.019663605839014053, 0.5390428900718689, 0.22169332206249237, -0.8125791549682617, 0.09558552503585815, -0.008436471223831177, 0.050890982151031494, -0.13193757423296468, 0.2762297913926549, 0.950531320971864,0.05272472133517758,0.6346282958984375,0.2132568359375,-0.761688232421875
20220205-1807,2022-02-05 18:07:48Z,u01, 204,40,movements,el-ex, rt, d,14447.340485125002, 0.5547927540950619, -0.22450985044188362, 0.17882401596429462, 0.025456268340349197, -1.2595895528793335, 0.004249916411936283, 0.5135470628738403, 0.22262853384017944, -0.828677237033844, 0.10333538055419922, 0.01379115879535675, 0.04217827320098877, -0.13160581375695654, 0.26142165844401316, 0.9546399389813732,0.0547846566152676,0.6073455810546875,0.23602294921875,-0.79595947265625
20220205-1807,2022-02-05 18:07:48Z,u01, 205,40,movements,el-ex, rt, d,14447.365431125001, 0.5232275101102583, -0.2232790397660146, 0.17824319793461604, 0.06303480267524719, -1.2556160688400269, 0.004421691410243511, 0.48727473616600037, 0.22142845392227173, -0.8447086811065674, 0.06863358616828918, 0.004096463322639465, 0.04130297899246216, -0.13006646264260338, 0.24643125619374998, 0.9587152890488185,0.056739884400317964,0.555908203125,0.22552490234375,-0.80340576171875
20220205-1807,2022-02-05 18:07:48Z,u01, 206,40,movements,el-ex, rt, d,14447.390376125, 0.4926800815418557, -0.22292179363859466, 0.17793151053642992, -0.03894602507352829, -1.1832807064056396, -0.02275613322854042, 0.46128514409065247, 0.22108006477355957, -0.8592669367790222, 0.07680091261863708, -0.011393770575523376, 0.07137942314147949, -0.12897752074132682, 0.23180017827314192, 0.9623918331162656,0.058614637297546845,0.5388336181640625,0.2113189697265625,-0.783935546875
20220205-1807,2022-02-05 18:07:48Z,u01, 207,40,movements,el-ex, rt, d,14447.415322125002, 0.4628321712826271, -0.22406047739345936, 0.17796733754279714, -0.008819679729640484, -1.2039239406585693, -0.013478480279445648, 0.43532347679138184, 0.22219042479991913, -0.8724247217178345, 0.09188306331634521, 0.008629292249679565, 0.07036179304122925, -0.12863957761182837, 0.21734649246415635, 0.9656926677486403,0.060415447170152015,0.5272064208984375,0.2308197021484375,-0.80206298828125
20220205-1807,2022-02-05 18:07:48Z,u01, 208,40,movements,el-ex, rt, d,14447.440267125, 0.43320677865428797, -0.2231527584942308, 0.1771529385593481, 0.1215779036283493, -1.1697051525115967, -0.013976690359413624, 0.40937480330467224, 0.22130529582500458, -0.8851193785667419, 0.07200959324836731, 0.00028283894062042236, 0.07937902212142944, -0.12721008870144263, 0.20312044202361118, 0.9688721913536529,0.06202067154143831,0.47259521484375,0.218048095703125,-0.81494140625
20220205-1807,2022-02-05 18:07:48Z,u01, 209,40,movements,el-ex, rt, d,14447.465213125, 0.40394745351042405, -0.2197554765003776, 0.17531901701470962, 0.1795804351568222, -1.1481294631958008, 0.007293044589459896, 0.38359856605529785, 0.21799097955226898, -0.8974029421806335, 0.03784927725791931, 0.017253771424293518, 0.0834534764289856, -0.12447161611476106, 0.18922298206375948, 0.9719515891826241,0.06333740019530643,0.42144775390625,0.2352447509765625,-0.8139495849609375
20220205-1807,2022-02-05 18:07:48Z,u01, 210,40,movements,el-ex, rt, d,14447.490158125001, 0.37554859189030315, -0.21471223987255877, 0.17341538377379825, 0.30590367317199707, -1.0951238870620728, 0.006168524734675884, 0.35836079716682434, 0.21306627988815308, -0.9089446067810059, 0.02295646071434021, 0.019950702786445618, 0.11063534021377563, -0.12094370269137289, 0.1757848314560125, 0.9748289791188058,0.0646602088556798,0.37841796875,0.2403717041015625,-0.8043060302734375
20220205-1807,2022-02-05 18:07:48Z,u01, 211,40,movements,el-ex, rt, d,14447.515104125001, 0.3492590926594851, -0.2036627768592027, 0.1692099269695509, 0.6335521340370178, -0.9304955005645752, -0.003264124970883131, 0.3351292312145233, 0.20225775241851807, -0.920206606388092, 0.045684486627578735, 0.08064019680023193, 0.07337439060211182, -0.11435727209072424, 0.16376537608549585, 0.9776778352816479,0.06518894799005487,0.3808135986328125,0.28289794921875,-0.846832275390625
20220205-1807,2022-02-05 18:07:48Z,u01, 212,40,movements,el-ex, rt, d,14447.540049125, 0.32534516733573543, -0.1877468240149, 0.16301608132100254, 0.6962201595306396, -0.927515983581543, -0.030304796993732452, 0.31401899456977844, 0.18664579093456268, -0.9308896064758301, 0.09651881456375122, 0.05636569857597351, 0.06168794631958008, -0.10531906155138293, 0.1531766940011484, 0.9804275785381067,0.06485854790634005,0.416229248046875,0.2362060546875,-0.8785552978515625
20220205-1807,2022-02-05 18:07:48Z,u01, 213,40,movements,el-ex, rt, d,14447.564995125002, 0.3003430164899697, -0.17154993414902864, 0.1565649780037529, 0.693191647529602, -0.9719606041908264, -0.060176074504852295, 0.29150524735450745, 0.1707097440958023, -0.9412135481834412, 0.08087033033370972, 0.06041514873504639, 0.06184953451156616, -0.09610292424098654, 0.14197699613220913, 0.9830958534351347,0.06426053662325537,0.37237548828125,0.2311248779296875,-0.879364013671875
20220205-1807,2022-02-05 18:07:48Z,u01, 214,40,movements,el-ex, rt, d,14447.589940125, 0.27512508734730734, -0.15592415162098655, 0.1500716505806958, 0.6474595069885254, -0.9571316838264465, -0.08432222902774811, 0.26837158203125, 0.15529310703277588, -0.9507158994674683, 0.07650768756866455, 0.059794798493385315, 0.03447145223617554, -0.0871790039760081, 0.13054448074419087, 0.9855662470354943,0.06338169851862718,0.338104248046875,0.2056121826171875,-0.922943115234375
20220205-1807,2022-02-05 18:07:48Z,u01, 215,40,movements,el-ex, rt, d,14447.639831125001, 0.22559106577231808, -0.13172016667495093, 0.1359618589813032, 0.4366023540496826, -0.9733661413192749, -0.18077991902828217, 0.2217448204755783, 0.13133959472179413, -0.9662190079689026, 0.08068445324897766, 0.023033559322357178, 0.026765942573547363, -0.07287243811543612, 0.10761091681008317, 0.9897042092689281,0.05996006797125686,0.33160400390625,0.1918792724609375,-0.9344024658203125
20220205-1807,2022-02-05 18:07:48Z,u01, 216,40,movements,el-ex, rt, d,14447.614886125, 0.25060588116420857, -0.14294946353841845, 0.1431748452045446, 0.5451953411102295, -0.9512243866920471, -0.15233290195465088, 0.24546147882938385, 0.1424631029367447, -0.9588810801506042, 0.08614261448383331, 0.049416154623031616, 0.024478673934936523, -0.0795887102705577, 0.11926900455471862, 0.9877303455217997,0.061882209990372694,0.2941436767578125,0.14129638671875,-0.9272918701171875
20220205-1807,2022-02-05 18:07:48Z,u01, 217,40,movements,el-ex, rt, d,14447.664777125001, 0.20053207366208464, -0.12261097889978229, 0.12960326462723012, 0.4388916492462158, -0.9565849900245667, -0.1353663057088852, 0.19769538938999176, 0.12230399996042252, -0.9726038575172424, 0.0684942752122879, 0.028696976602077484, 0.07088577747344971, -0.06730124008809175, 0.09575286866816812, 0.9914211736470457,0.05819016356965584,0.2661895751953125,0.1510009765625,-0.9017181396484375
20220205-1807,2022-02-05 18:07:48Z,u01, 218,40,movements,el-ex, rt, d,14447.689722125, 0.17700377657236813, -0.10938647927906334, 0.12478142974701814, 0.6555796265602112, -0.8765659928321838, -0.07167939841747284, 0.17502856254577637, 0.10916846990585327, -0.9784923195838928, 0.0672048032283783, 0.005791261792182922, 0.0576092004776001, -0.05984875033294357, 0.08468741965866877, 0.9929629897746486,0.057191024451198946,0.233673095703125,0.11297607421875,-0.9221649169921875
20220205-1807,2022-02-05 18:07:48Z,u01, 219,40,movements,el-ex, rt, d,14447.714668125001, 0.15561540830712772, -0.09428064554959316, 0.12043630309191507, 0.5264065265655518, -0.8474418520927429, -0.04849571734666824, 0.1542997807264328, 0.09414103627204895, -0.9835288524627686, 0.06637293100357056, -0.007684729993343353, 0.08187180757522583, -0.05156782699468364, 0.07467478186504606, 0.994282307082222,0.05627684762979035,0.220672607421875,0.086456298828125,-0.9016571044921875
20220205-1807,2022-02-05 18:07:49Z,u01, 220,40,movements,el-ex, rt, d,14447.739613125, 0.13381718312147786, -0.08595629159572653, 0.11819612066622717, 0.16066734492778778, -0.881625771522522, -0.0407620333135128, 0.1329255849123001, 0.08585048466920853, -0.9874008893966675, 0.07738639414310455, -0.04324793815612793, 0.07500159740447998, -0.04673920952586157, 0.06414833818656157, 0.9952705619473489,0.05600952380767532,0.2009735107421875,0.04302978515625,-0.9163665771484375
20220205-1807,2022-02-05 18:07:49Z,u01, 221,40,movements,el-ex, rt, d,14447.764558125002, 0.1121442402374536, -0.08500819259897308, 0.11722889860112497, -0.03692758083343506, -0.8582761883735657, -0.021303312852978706, 0.11150521785020828, 0.08490584790706635, -0.9901300668716431, 0.04996336251497269, -0.02403853088617325, 0.07849377393722534, -0.04563172884497255, 0.05341070150817102, 0.9959530720556449,0.056058758479460624,0.161468505859375,0.0608673095703125,-0.9116363525390625
20220205-1807,2022-02-05 18:07:49Z,u01, 222,40,movements,el-ex, rt, d,14447.789504125001, 0.09124363660437777, -0.08583033423623525, 0.11703322206441674, -0.007320586591959, -0.8174209594726562, -0.011788970790803432, 0.09078166633844376, 0.08572498708963394, -0.9921743273735046, 0.05968533456325531, -0.012787975370883942, 0.07683014869689941, -0.04544872892852547, 0.04297957859772371, 0.996445961992282,0.05641533834306489,0.1451873779296875,0.076690673828125,-0.9151763916015625
20220205-1807,2022-02-05 18:07:49Z,u01, 223,40,movements,el-ex, rt, d,14447.814449125, 0.07135878166569586, -0.08586945304995533, 0.11669870720070968, 0.015406263992190361, -0.7789705395698547, -0.004849904216825962, 0.07103553414344788, 0.08576396107673645, -0.9937798976898193, 0.05361359566450119, -0.00972941517829895, 0.08853697776794434, -0.04489954637302243, 0.03307686359708811, 0.9968327713065442,0.05669693902925027,0.1246490478515625,0.0760345458984375,-0.905242919921875
20220205-1807,2022-02-05 18:07:49Z,u01, 224,40,movements,el-ex, rt, d,14447.839395125, 0.05270469318586245, -0.08559136346012393, 0.11632503151097184, 0.022244662046432495, -0.7123509645462036, -0.02470390312373638, 0.05248744785785675, 0.08548689633607864, -0.9949557781219482, 0.05639936029911041, 0.0016713142395019531, 0.11675149202346802, -0.044225720312483084, 0.02379457725971703, 0.9971142547825816,0.05693095331835957,0.1069183349609375,0.083953857421875,-0.868865966796875
20220205-1807,2022-02-05 18:07:49Z,u01, 225,40,movements,el-ex, rt, d,14447.864340125001, 0.03576969471074322, -0.08602384935834985, 0.11527690131756682, -0.03841675445437431, -0.6410499811172485, -0.050503410398960114, 0.03562982752919197, 0.08591779321432114, -0.9956649541854858, 0.045913226902484894, 0.0047346800565719604, 0.13186490535736084, -0.04394966353888211, 0.015361072905167887, 0.9973009476700483,0.05677634464825965,0.08154296875,0.0906524658203125,-0.863800048828125
20220205-1807,2022-02-05 18:07:49Z,u01, 226,40,movements,el-ex, rt, d,14447.889286125, 0.020270256657598507, -0.08718300785251916, 0.11414947842322178, -0.05120415613055229, -0.6240687966346741, -0.033017829060554504, 0.020191887393593788, 0.08707260340452194, -0.9959973096847534, 0.06891952455043793, 0.012262120842933655, 0.14649474620819092, -0.04408209433595867, 0.007623131749714542, 0.9973972117717737,0.05654570327763875,0.0853729248046875,0.097808837890625,-0.84356689453125
20220205-1807,2022-02-05 18:07:49Z,u01, 227,40,movements,el-ex, rt, d,14447.914231125002, 0.005633144677458307, -0.08969234441723248, 0.11352358791701439, -0.17074696719646454, -0.5631977915763855, -0.023188166320323944, 0.0056104715913534164, 0.08957213163375854, -0.995964527130127, 0.0540819950401783, -0.009448230266571045, 0.18470054864883423, -0.04491838514672737, 0.0002658859883848119, 0.9973889852759654,0.05654798297327157,0.0596923828125,0.0801239013671875,-0.8112640380859375
20220205-1807,2022-02-05 18:07:49Z,u01, 228,40,movements,el-ex, rt, d,14447.939176041667, -0.00763937326826818, -0.09490715871887252, 0.11264522199307425, -0.1615910828113556, -0.4648343324661255, -0.03817710280418396, -0.0076049198396503925, 0.09476474672555923, -0.9954706430435181, 0.03146974742412567, -0.01090242713689804, 0.18188726902008057, -0.04714542715427819, -0.006479601721439784, 0.9972729396188854,0.05640995789572817,0.014892578125,0.0872955322265625,-0.8248291015625
20220205-1807,2022-02-05 18:07:49Z,u01, 229,40,movements,el-ex, rt, d,14447.964121041667, -0.01742959970855121, -0.09571055551670372, 0.11160236317327908, 0.09049785137176514, -0.3248229920864105, -0.033796802163124084, -0.01734895072877407, 0.09556449949741364, -0.9952720403671265, 0.0073545221239328384, 0.010972380638122559, 0.15617597103118896, -0.04727526245841625, -0.011359039635213175, 0.9972393161747366,0.056122498180097624,-0.0099945068359375,0.106536865234375,-0.8390960693359375
20220205-1807,2022-02-05 18:07:49Z,u01, 230,40,movements,el-ex, rt, d,14447.989067041668, -0.02451392634502278, -0.09231048663069118, 0.11152675158090561, 0.15706123411655426, -0.2885604202747345, 0.008040261454880238, -0.02440711110830307, 0.09217943996191025, -0.9954432249069214, 0.032936856150627136, -0.024033695459365845, 0.11946672201156616, -0.04538128829711428, -0.014795903868056529, 0.9972759028886743,0.05623557090482423,0.016937255859375,0.0579376220703125,-0.8820343017578125
20220205-1807,2022-02-05 18:07:49Z,u01, 231,40,movements,el-ex, rt, d,14448.014012041667, -0.03203437228394808, -0.09065022823259385, 0.11194865736473439, -0.019898362457752228, -0.31398534774780273, 0.030506152659654617, -0.03189738467335701, 0.09052612632513046, -0.9953831434249878, 0.021658815443515778, -0.035701289772987366, 0.1445225477218628, -0.04433770774184114, -0.018509518822554676, 0.9972398999751303,0.056605044421203066,-0.0102386474609375,0.0548248291015625,-0.850860595703125
20220205-1807,2022-02-05 18:07:49Z,u01, 232,40,movements,el-ex, rt, d,14448.038958041667, -0.03890659698821478, -0.09338678333223695, 0.11310893390306523, -0.13707631826400757, -0.2486075609922409, 0.0495779849588871, -0.0387272946536541, 0.09325110167264938, -0.9948891401290894, -0.007537271827459335, -0.044834963977336884, 0.13455289602279663, -0.04549466499528542, -0.022037657600083457, 0.9970730415385759,0.0573585324629714,-0.054656982421875,0.0509796142578125,-0.870025634765625
20220205-1807,2022-02-05 18:07:49Z,u01, 233,40,movements,el-ex, rt, d,14448.063903041668, -0.04280133502651508, -0.09753051445251897, 0.11412642871153311, -0.14345209300518036, -0.14606314897537231, 0.03829570114612579, -0.042584922164678574, 0.09737596660852432, -0.9943361878395081, 0.009824380278587341, -0.022287458181381226, 0.16596704721450806, -0.047436458414652424, -0.02411825751783786, 0.9968977226441894,0.057992821387654436,-0.0327606201171875,0.0750885009765625,-0.828369140625
20220205-1807,2022-02-05 18:07:49Z,u01, 234,40,movements,el-ex, rt, d,14448.088849041667, -0.044871361819612446, -0.10334192867169838, 0.1156830738867989, -0.25766652822494507, -0.11926289647817612, 0.0837993323802948, -0.04461699724197388, 0.10315808653831482, -0.9936637878417969, 0.039413824677467346, -0.03832348436117172, 0.18835067749023438, -0.050253470497537985, -0.025351369692717018, 0.9966773978217982,0.058874323836857145,-0.00714111328125,0.0705718994140625,-0.7974395751953125
20220205-1807,2022-02-05 18:07:49Z,u01, 235,40,movements,el-ex, rt, d,14448.113794041668, -0.0457542395187791, -0.11086549607584179, 0.11752495645160357, -0.2579149603843689, 0.008922569453716278, 0.07651139795780182, -0.04545747488737106, 0.11063852161169052, -0.9928206205368042, -0.013746548444032669, -0.0036591440439224243, 0.2061384916305542, -0.05395290046443637, -0.02605353911015697, 0.9964053735834806,0.05988830953079477,-0.0592041015625,0.1069793701171875,-0.78668212890625
20220205-1807,2022-02-05 18:07:49Z,u01, 236,40,movements,el-ex, rt, d,14448.138740041668, -0.04320219153472743, -0.11516580838763106, 0.11906496234325727, -0.061991557478904724, 0.14390482008457184, 0.05499378591775894, -0.04290265962481499, 0.11491139978170395, -0.9924488663673401, -0.003560274839401245, 0.010988876223564148, 0.1900654435157776, -0.056152752802732755, -0.024948751868112105, 0.996267523772269,0.060625718743105184,-0.0413818359375,0.12646484375,-0.8048248291015625
20220205-1807,2022-02-05 18:07:49Z,u01, 237,40,movements,el-ex, rt, d,14448.163685041667, -0.03822255254329171, -0.11640361302795742, 0.12012021686306969, -0.07768256962299347, 0.23900005221366882, 0.03533846139907837, -0.03795464709401131, 0.11614091694355011, -0.99250727891922, -0.005853254348039627, 0.007287435233592987, 0.20954829454421997, -0.05690834251636376, -0.022534251700115263, 0.9962580606768064,0.06102103804738146,-0.0438079833984375,0.1234283447265625,-0.782958984375
20220205-1807,2022-02-05 18:07:49Z,u01, 238,40,movements,el-ex, rt, d,14448.188631041667, -0.03154890336413317, -0.12043737225201545, 0.12091619820362844, -0.2351556122303009, 0.2801401615142822, 0.026381850242614746, -0.03131517395377159, 0.12014642357826233, -0.9922621846199036, 0.013950750231742859, -0.002302788197994232, 0.20477133989334106, -0.059113526346403586, -0.019352279098616296, 0.9961823059561404,0.06125182423777781,-0.015533447265625,0.1199493408203125,-0.79656982421875
20220205-1807,2022-02-05 18:07:49Z,u01, 239,40,movements,el-ex, rt, d,14448.213576041668, -0.023347790929861768, -0.12665603334152625, 0.12149677415782113, -0.2022833377122879, 0.36296510696411133, 0.021647948771715164, -0.023158667609095573, 0.12631767988204956, -0.9917194843292236, 0.002666192129254341, 0.026132896542549133, 0.17299389839172363, -0.06245734873840703, -0.015470614704514997, 0.9960419373084225,0.061322606076370134,-0.0204925537109375,0.1524505615234375,-0.8187255859375
20220205-1807,2022-02-05 18:07:49Z,u01, 240,40,movements,el-ex, rt, d,14448.238521041667, -0.013355670655416856, -0.1305599462315662, 0.12133494721634809, -0.12978166341781616, 0.43411293625831604, -0.018672708421945572, -0.013241608627140522, 0.13018934428691864, -0.9914007186889648, -0.00020130351185798645, 0.033629029989242554, 0.17652034759521484, -0.06470813548757702, -0.010606344632997701, 0.9959857153501999,0.060934583651737984,-0.0088958740234375,0.159454345703125,-0.809173583984375
20220205-1807,2022-02-05 18:07:49Z,u01, 241,40,movements,el-ex, rt, d,14448.263467041668, -0.002136419577477952, -0.1349101497472863, 0.12082029006895487, -0.22783061861991882, 0.471340149641037, -0.01745038479566574, -0.0021170051768422127, 0.13450127840042114, -0.9909111857414246, 0.010097432881593704, -0.00034599006175994873, 0.16859978437423706, -0.06721658934466192, -0.005133237959739686, 0.9959009304802793,0.06030793720293498,0.0079803466796875,0.1341552734375,-0.8223114013671875
20220205-1807,2022-02-05 18:07:49Z,u01, 242,40,movements,el-ex, rt, d,14448.288412041667, 0.010889293388426967, -0.14196402051725346, 0.1208359705931399, -0.3151475787162781, 0.5655725598335266, 0.015421479009091854, 0.010779534466564655, 0.14148764312267303, -0.9898813366889954, -0.0009833090007305145, -0.005409762263298035, 0.18173009157180786, -0.07111988935591526, 0.0011386802503417434, 0.9956703660555973,0.05984285128174194,0.0164947509765625,0.1390228271484375,-0.8131561279296875
20220205-1807,2022-02-05 18:07:49Z,u01, 243,40,movements,el-ex, rt, d,14448.313358041667, 0.02586368087704893, -0.14919333203627153, 0.12160840680571118, -0.2386469542980194, 0.6179795861244202, 0.020158709958195686, 0.025573518127202988, 0.1486404687166214, -0.9885605573654175, 0.019455252215266228, 0.003169223666191101, 0.13116925954818726, -0.07516716770568817, 0.008343271228542833, 0.995351487226434,0.059630708283686606,0.0450286865234375,0.1518096923828125,-0.857391357421875
20220205-1807,2022-02-05 18:07:49Z,u01, 244,40,movements,el-ex, rt, d,14448.338303041668, 0.04234543554807098, -0.15470989050782294, 0.12210536269775253, -0.21265573799610138, 0.6887527704238892, 0.017090415582060814, 0.04182717204093933, 0.15409345924854279, -0.9871705770492554, 0.013959042727947235, 0.012944519519805908, 0.14070451259613037, -0.07840443674009479, 0.016354467349996807, 0.9950288998429526,0.05918565087007055,0.059844970703125,0.1638641357421875,-0.845489501953125
20220205-1807,2022-02-05 18:07:49Z,u01, 245,40,movements,el-ex, rt, d,14448.363249041668, 0.06035710119555159, -0.15996767347787078, 0.1227375397145195, -0.18549595773220062, 0.75821852684021, 0.010767405852675438, 0.059550315141677856, 0.1592862904071808, -0.9854347705841064, 0.00452142208814621, -0.003799229860305786, 0.10301899909973145, -0.08155651935052884, 0.025122913485600296, 0.9946214324291174,0.058700024899933034,0.0640716552734375,0.155487060546875,-0.882415771484375
20220205-1807,2022-02-05 18:07:49Z,u01, 246,40,movements,el-ex, rt, d,14448.388194041667, 0.08044536545655974, -0.16282336467703498, 0.12297205545912963, -0.06333968043327332, 0.8227546811103821, -0.009988740086555481, 0.07929576933383942, 0.16210487484931946, -0.9835823178291321, 0.01564449816942215, 0.014851301908493042, 0.08032310009002686, -0.08356517821014504, 0.03500995341593066, 0.9942008708642746,0.05793031619753636,0.1033782958984375,0.177947998046875,-0.904022216796875
20220205-1807,2022-02-05 18:07:49Z,u01, 247,40,movements,el-ex, rt, d,14448.413140041668, 0.10098794521061492, -0.1642098103022607, 0.12261534445309294, -0.048301875591278076, 0.8112391233444214, -0.029491335153579712, 0.0994601771235466, 0.16347281634807587, -0.9815214276313782, 0.04449132829904556, -0.010198265314102173, 0.039565861225128174, -0.08483626771255377, 0.04518953071060906, 0.993744696491039,0.056853434502436795,0.143951416015625,0.1532745361328125,-0.94195556640625
20220205-1807,2022-02-05 18:07:49Z,u01, 248,40,movements,el-ex, rt, d,14448.438085041667, 0.12080516198217231, -0.16756083771780886, 0.12231421244412788, -0.21188415586948395, 0.7647911906242371, -0.015449019148945808, 0.11882371455430984, 0.1667778491973877, -0.9788085222244263, 0.03974570333957672, -0.0043022483587265015, 0.05322563648223877, -0.08705022177930755, 0.054936401085646194, 0.993124475776727,0.05575142014388623,0.1585693359375,0.15484619140625,-0.9186248779296875
20220205-1807,2022-02-05 18:07:49Z,u01, 249,40,movements,el-ex, rt, d,14448.463031041667, 0.14047066520479373, -0.17360893211444275, 0.1228235225042659, -0.23680821061134338, 0.8296701908111572, -0.012519142590463161, 0.13790450990200043, 0.17273814976215363, -0.9752660393714905, 0.00423121452331543, -0.011223852634429932, 0.053818345069885254, -0.09060951909792356, 0.06447391617335145, 0.9922787406672893,0.05491872768746625,0.1421356201171875,0.1615142822265625,-0.92144775390625
20220205-1807,2022-02-05 18:07:49Z,u01, 250,40,movements,el-ex, rt, d,14448.487976041668, 0.16237260467202058, -0.17834776476048758, 0.12343308134011914, -0.15729251503944397, 0.9009770750999451, -0.0008553620427846909, 0.15909582376480103, 0.1774037927389145, -0.9711933135986328, 0.026771575212478638, 0.010798126459121704, 0.04141426086425781, -0.09357539999102443, 0.07514649773991805, 0.9913013859615382,0.0540215383874883,0.19482421875,0.1858367919921875,-0.932159423828125
