SessionID,LoggingTime,UID,RecNo,Hertz,Activity,MoveType,Wrist,Side,TimeStamp,DMRoll,DMPitch,DMYaw,DMRotX,DMRotY,DMRotZ,DMGrvX,DMGrvY,DMGrvZ,DMUAccelX,DMUAccelY,DMUAccelZ,DMQuatX,DMQuatY,DMQuatW,DMQuatZ,AccelroX,AceelroY,AceelroZ
20220205-1812,2022-02-05 18:12:41Z,u01, 1,40,movements,el-ex, rt, d,14740.331334541668, 1.1716811433515755, -0.2129631461706475, 0.14161068942863755, 0.04086601734161377, 0.42580845952033997, -0.08397415280342102, 0.9005897045135498, 0.2113570272922516, -0.37982428073883057, 0.01476985216140747, -0.009040728211402893, -0.04357647895812988, -0.12723007360328104, 0.5421257876038319, 0.8306095525070001,0.0,0.9153594970703125,0.2023162841796875,-0.42340087890625
20220205-1812,2022-02-05 18:12:41Z,u01, 2,40,movements,el-ex, rt, d,14740.356280541668, 1.1826930162307274, -0.21637606958959174, 0.14385796604967066, -0.33208978176116943, 0.3929835557937622, -0.0518171489238739, 0.9040446281433105, 0.21469160914421082, -0.36960911750793457, -0.02143043279647827, -0.013779118657112122, 0.012156844139099121, -0.12923991992363054, 0.54634465446454, 0.8275288980721001,-0.0007248870647315053,0.8839111328125,0.2064208984375,-0.3452301025390625
20220205-1812,2022-02-05 18:12:41Z,u01, 3,40,movements,el-ex, rt, d,14740.381225541667, 1.198052751106647, -0.22373361363494618, 0.15276595357919548, -0.3922661542892456, 0.7607195377349854, -0.30230334401130676, 0.9081192016601562, 0.22187171876430511, -0.35509535670280457, 0.3616105318069458, -0.02420935034751892, -0.12186378240585327, -0.13468457673480663, 0.5516451683982945, 0.8231329292095749,-0.00013151321564175422,1.2697296142578125,0.197662353515625,-0.476959228515625
20220205-1812,2022-02-05 18:12:41Z,u01, 4,40,movements,el-ex, rt, d,14740.406171541668, 1.2107227375533947, -0.22733438744387746, 0.15678181058684854, -0.010770811699330807, 0.4403594434261322, -0.08489267528057098, 0.9117915630340576, 0.2253812998533249, -0.34327757358551025, 0.015118896961212158, 0.05359514057636261, -0.10792475938796997, -0.13725638890179157, 0.556346927386853, 0.8195356801205019,-0.00036693222890060717,0.910888671875,0.29046630859375,-0.448638916015625
20220205-1812,2022-02-05 18:12:41Z,u01, 5,40,movements,el-ex, rt, d,14740.431117541668, 1.2208411935784946, -0.22850929661442154, 0.15350626789312466, 0.15313027799129486, 0.4280399978160858, -0.08960959315299988, 0.9149688482284546, 0.22652582824230194, -0.3339431881904602, -0.03923642635345459, 0.015081837773323059, -0.061610251665115356, -0.13680854870942377, 0.5606352029446952, 0.816678695905681,-0.0027366892609198556,0.875732421875,0.241607666015625,-0.3955535888671875
20220205-1812,2022-02-05 18:12:41Z,u01, 6,40,movements,el-ex, rt, d,14740.456062541667, 1.2312587322081932, -0.2304855645498495, 0.15097872855896166, -0.025549989193677902, 0.46149757504463196, -0.11500683426856995, 0.9179741144180298, 0.22845026850700378, -0.32424378395080566, -0.02686077356338501, 0.01326422393321991, -0.026265740394592285, -0.13687265177873245, 0.5649282970068886, 0.8136930973547623,-0.005049853776290691,0.9052886962890625,0.2451629638671875,-0.3455352783203125
20220205-1812,2022-02-05 18:12:41Z,u01, 7,40,movements,el-ex, rt, d,14740.481008541668, 1.243278685846505, -0.23422592283682156, 0.15170872449552752, -0.14160658419132233, 0.46925368905067444, -0.14298580586910248, 0.9209895133972168, 0.23209011554718018, -0.3129095137119293, 0.06599467992782593, 0.0017813295125961304, -0.011171787977218628, -0.13854396733155447, 0.5695180491946952, 0.8101914571748622,-0.006668653562731164,0.9869842529296875,0.2338714599609375,-0.3240814208984375
20220205-1812,2022-02-05 18:12:41Z,u01, 8,40,movements,el-ex, rt, d,14740.505953541668, 1.254477206674095, -0.23905768028464328, 0.15570465970831027, -0.2726859748363495, 0.36455854773521423, -0.13057321310043335, 0.9233593940734863, 0.23678721487522125, -0.3022240698337555, 0.06804996728897095, 0.006422653794288635, 0.008141517639160156, -0.14157453126443184, 0.5734497480101364, 0.8068826069362971,-0.007253605400173779,0.9782867431640625,0.2462310791015625,-0.285247802734375
20220205-1812,2022-02-05 18:12:41Z,u01, 9,40,movements,el-ex, rt, d,14740.530899541667, 1.265327617354465, -0.2450380476020958, 0.16131662175183129, -0.28348612785339355, 0.4330282509326935, -0.19876044988632202, 0.9252170920372009, 0.24259322881698608, -0.2917565405368805, -0.023865163326263428, -0.000558316707611084, 0.027550727128982544, -0.14552272076549497, 0.5770137501023168, 0.8036301689869545,-0.007539108600048361,0.9013519287109375,0.242034912109375,-0.2642059326171875
20220205-1812,2022-02-05 18:12:41Z,u01, 10,40,movements,el-ex, rt, d,14740.555845541667, 1.277761334634435, -0.2507570339034545, 0.16520574823622353, -0.04812946915626526, 0.43715840578079224, -0.13059937953948975, 0.927429735660553, 0.24813738465309143, -0.2798250615596771, -0.009888172149658203, 0.021958470344543457, -0.0039577484130859375, -0.1488572183963072, 0.5813166041643082, 0.7998991740131607,-0.008597600420941709,0.9353485107421875,0.269622802734375,-0.2972564697265625
20220205-1812,2022-02-05 18:12:41Z,u01, 11,40,movements,el-ex, rt, d,14740.580790541668, 1.2882092022924945, -0.2525977591848162, 0.1629870172376194, 0.13330259919166565, 0.42244914174079895, -0.07860521972179413, 0.9298624396324158, 0.24992012977600098, -0.26999250054359436, 0.02678745985031128, -0.012859567999839783, -0.014141321182250977, -0.14888273049777126, 0.5855234292230596, 0.7967932019256933,-0.01081308369634737,0.9566497802734375,0.237060546875,-0.2841339111328125
20220205-1812,2022-02-05 18:12:41Z,u01, 12,40,movements,el-ex, rt, d,14740.605736541667, 1.2972639026682262, -0.25431520653918566, 0.1601798813756512, 0.05304132401943207, 0.4325326979160309, -0.12102537602186203, 0.9318543076515198, 0.25158271193504333, -0.2614455819129944, -0.0001220703125, 0.005436360836029053, -0.010893166065216064, -0.1486766474399777, 0.5892134323031237, 0.7940721948455886,-0.013121490182628037,0.9171295166015625,0.259765625,-0.2687835693359375
20220205-1812,2022-02-05 18:12:42Z,u01, 13,40,movements,el-ex, rt, d,14740.655627541668, 1.319713007424209, -0.2590326614991666, 0.1514830147545249, 0.27750924229621887, 0.4672839045524597, -0.10234396904706955, 0.9363282322883606, 0.2561455965042114, -0.2401646226644516, 0.02679133415222168, -0.029995083808898926, -0.04743295907974243, -0.14774680758863776, 0.5984050226081525, 0.7872076139352642,-0.01966125023914239,0.9149932861328125,0.254669189453125,-0.2651824951171875
20220205-1812,2022-02-05 18:12:42Z,u01, 14,40,movements,el-ex, rt, d,14740.630682541667, 1.3085690779659418, -0.2572481307472716, 0.15723569844748578, 0.12009456008672714, 0.5180047750473022, -0.15820357203483582, 0.9340336322784424, 0.2544201910495758, -0.2507019340991974, -0.019040405750274658, 0.00024896860122680664, -0.014480441808700562, -0.14886758186383708, 0.5937065543338611, 0.7906290609697748,-0.016019808034740235,0.9689483642578125,0.2232818603515625,-0.281982421875
20220205-1812,2022-02-05 18:12:42Z,u01, 15,40,movements,el-ex, rt, d,14740.680573541667, 1.328335479641001, -0.25968804680648827, 0.1441774062940135, 0.22225195169448853, 0.38444167375564575, -0.08514560759067535, 0.9382010698318481, 0.2567790746688843, -0.23204198479652405, 0.021271705627441406, -0.026279807090759277, -0.030271708965301514, -0.14571477524417836, 0.6022841611824276, 0.7845222577155193,-0.023366131676877677,0.95947265625,0.230499267578125,-0.2623138427734375
20220205-1812,2022-02-05 18:12:42Z,u01, 16,40,movements,el-ex, rt, d,14740.705518541668, 1.3369553825815024, -0.2612190673053267, 0.13981565057557252, 0.09239641577005386, 0.41247105598449707, -0.11873459070920944, 0.9397827386856079, 0.2582584619522095, -0.2238548845052719, -0.00640261173248291, -0.026629984378814697, -0.024191856384277344, -0.14488140724600904, 0.605872869219989, 0.7818199458436893,-0.02617389610724452,0.929962158203125,0.2366180419921875,-0.242401123046875
20220205-1812,2022-02-05 18:12:42Z,u01, 17,40,movements,el-ex, rt, d,14740.730464541668, 1.3476157364376942, -0.2641377106218891, 0.13776042057427826, 0.0434107668697834, 0.4773584306240082, -0.1258460283279419, 0.9413765668869019, 0.26107698678970337, -0.21365618705749512, 0.015883564949035645, -0.022841542959213257, -0.011273488402366638, -0.1452325665895131, 0.6099831204594892, 0.778464442777212,-0.028656697743621284,0.9572601318359375,0.2382354736328125,-0.2249298095703125
20220205-1812,2022-02-05 18:12:42Z,u01, 18,40,movements,el-ex, rt, d,14740.755410541668, 1.3585281879800755, -0.26661098643958064, 0.13508942225556128, 0.12616689503192902, 0.4370213747024536, -0.11298242956399918, 0.9430178999900818, 0.26346367597579956, -0.20323430001735687, 0.04566013813018799, -0.00938957929611206, -0.028867006301879883, -0.14519820303314573, 0.6142477800405094, 0.775009649943684,-0.03126072472943553,0.986114501953125,0.2576141357421875,-0.2276763916015625
20220205-1812,2022-02-05 18:12:42Z,u01, 19,40,movements,el-ex, rt, d,14740.780355541667, 1.3677573277335644, -0.26857056794318884, 0.13013859982007642, 0.19416607916355133, 0.4152783453464508, -0.12428774684667587, 0.9443459510803223, 0.2653535306453705, -0.1944180428981781, 0.00835186243057251, -0.008960068225860596, -0.022516056895256042, -0.1442683201665331, 0.6180433898918198, 0.7720243180198064,-0.03446053898494417,0.95269775390625,0.2563934326171875,-0.2169342041015625
20220205-1812,2022-02-05 18:12:42Z,u01, 20,40,movements,el-ex, rt, d,14740.805301541668, 1.3767366136444659, -0.2705443069128973, 0.12479040131627507, 0.16718244552612305, 0.41440755128860474, -0.10451265424489975, 0.9455377459526062, 0.2672559916973114, -0.18582938611507416, -0.0009271502494812012, -0.0268690288066864, -0.022575005888938904, -0.14319818855277658, 0.6217552431574748, 0.7690816057510408,-0.037791236377627824,0.945068359375,0.242340087890625,-0.1997222900390625
20220205-1812,2022-02-05 18:12:42Z,u01, 21,40,movements,el-ex, rt, d,14740.830246541667, 1.3858680809184305, -0.27239577111724916, 0.12036074653935212, 0.1333269476890564, 0.42674317955970764, -0.10826490819454193, 0.9467072486877441, 0.2690396308898926, -0.17709633708000183, 0.015649378299713135, -0.01572844386100769, -0.01539313793182373, -0.14233855106312138, 0.6254530913783252, 0.7660868602949341,-0.04073227617895947,0.9623565673828125,0.2533111572265625,-0.1924896240234375
20220205-1812,2022-02-05 18:12:42Z,u01, 22,40,movements,el-ex, rt, d,14740.855192541667, 1.3953353247469498, -0.2741062784164625, 0.1168204234070475, 0.12515197694301605, 0.40690743923187256, -0.09102919697761536, 0.9478869438171387, 0.27068668603897095, -0.1680452525615692, 0.038075029850006104, -0.015971720218658447, -0.032607659697532654, -0.14167419486238816, 0.629210454133101, 0.7629858385012256,-0.043304970039356905,0.9842987060546875,0.2613983154296875,-0.2020263671875
20220205-1812,2022-02-05 18:12:42Z,u01, 23,40,movements,el-ex, rt, d,14740.880138541668, 1.4042887470655898, -0.2755940106011633, 0.11223220084181035, 0.21809342503547668, 0.4148179292678833, -0.07729567587375641, 0.948955237865448, 0.27211856842041016, -0.15948486328125, 0.011020958423614502, -0.012780219316482544, -0.047347888350486755, -0.14058522483064778, 0.6328454479626368, 0.7600075668315271,-0.046162069002253836,0.9599761962890625,0.25933837890625,-0.2068328857421875
20220205-1812,2022-02-05 18:12:42Z,u01, 24,40,movements,el-ex, rt, d,14740.905083541667, 1.4124172832337865, -0.2764175547680037, 0.10521462250057323, 0.30013707280158997, 0.3775545358657837, -0.07308834791183472, 0.9499987363815308, 0.2729109525680542, -0.15173068642616272, -0.00010854005813598633, -0.028907597064971924, -0.03961443901062012, -0.13847218993707772, 0.6363647614093482, 0.7572315673889372,-0.049656997901483646,0.9513397216796875,0.2475128173828125,-0.1890106201171875
20220205-1812,2022-02-05 18:12:42Z,u01, 25,40,movements,el-ex, rt, d,14740.930029541667, 1.418853982995765, -0.27603025097984063, 0.09709801116101542, 0.2868911325931549, 0.322864830493927, -0.011809876188635826, 0.9510600566864014, 0.27253833413124084, -0.14562870562076569, 0.011006653308868408, -0.021439701318740845, -0.05194199085235596, -0.13557357367227246, 0.6393789579121439, 0.7549841568399687,-0.05304094771535833,0.962066650390625,0.2510986328125,-0.19757080078125
20220205-1812,2022-02-05 18:12:42Z,u01, 26,40,movements,el-ex, rt, d,14740.954975541668, 1.4258526036217267, -0.27560272171065536, 0.09132745076147204, 0.14743773639202118, 0.370619535446167, -0.028341514989733696, 0.952171266078949, 0.2721269726753235, -0.13898591697216034, -0.0010145902633666992, -0.01828169822692871, -0.05136740207672119, -0.13337505080765133, 0.6424314261586032, 0.7526005673909295,-0.05554731713474986,0.9511566162109375,0.2578887939453125,-0.1885223388671875
20220205-1812,2022-02-05 18:12:42Z,u01, 27,40,movements,el-ex, rt, d,14740.979920541668, 1.4343327089437705, -0.2763589050626616, 0.0884167526141304, 0.07927282154560089, 0.35799354314804077, -0.06717033684253693, 0.9531114101409912, 0.2728545367717743, -0.13087846338748932, 0.02908158302307129, 0.005374282598495483, -0.033550143241882324, -0.13247905494592732, 0.6457631667101061, 0.7497590863761213,-0.05745123268819757,0.9821929931640625,0.278228759765625,-0.1644287109375
20220205-1812,2022-02-05 18:12:42Z,u01, 28,40,movements,el-ex, rt, d,14741.004866541667, 1.4415203724714012, -0.2776355947289575, 0.08580173238055383, 0.10627065598964691, 0.28756311535835266, -0.07254985719919205, 0.953681230545044, 0.2740825414657593, -0.12397947907447815, 0.032036542892456055, 0.003505319356918335, -0.023786529898643494, -0.13189582768947525, 0.648547415303643, 0.7473087995143205,-0.05932390334745241,0.9814910888671875,0.2782135009765625,-0.14385986328125
20220205-1812,2022-02-05 18:12:42Z,u01, 29,40,movements,el-ex, rt, d,14741.029811541668, 1.4475872638883343, -0.2787578658271926, 0.0825501848111966, 0.1326909065246582, 0.2890333831310272, -0.06098834052681923, 0.9541101455688477, 0.2751616835594177, -0.11815349757671356, 0.00586622953414917, 0.00019851326942443848, -0.026347175240516663, -0.13107092919045243, 0.6509559598811149, 0.7451970261166695,-0.06130548570710098,0.9599761962890625,0.275360107421875,-0.144500732421875
20220205-1812,2022-02-05 18:12:42Z,u01, 30,40,movements,el-ex, rt, d,14741.054757541668, 1.4537316598609338, -0.27977155088528494, 0.07833128240238212, 0.17936082184314728, 0.2964029014110565, -0.05583619326353073, 0.954540491104126, 0.2761361002922058, -0.11225622892379761, 0.00018674135208129883, -0.0011116266250610352, -0.04284924268722534, -0.1298766337211668, 0.6534553893247719, 0.7430221331144822,-0.06361081688991149,0.9537811279296875,0.2740631103515625,-0.15325927734375
20220205-1812,2022-02-05 18:12:42Z,u01, 31,40,movements,el-ex, rt, d,14741.079703541667, 1.4597346507455087, -0.2802932601353082, 0.07338205210043201, 0.1857258677482605, 0.2858942449092865, -0.03319326043128967, 0.9550539255142212, 0.276637464761734, -0.10650816559791565, 0.005822598934173584, -0.003688216209411621, -0.027753829956054688, -0.12825364520564214, 0.6559702124212138, 0.7408760412482054,-0.06600709027137075,0.96087646484375,0.27294921875,-0.1342620849609375
20220205-1812,2022-02-05 18:12:42Z,u01, 32,40,movements,el-ex, rt, d,14741.104648541668, 1.4649535159693148, -0.2804398807887232, 0.069234203103919, 0.11401925981044769, 0.22523850202560425, -0.025159437209367752, 0.9555562734603882, 0.27677837014198303, -0.10151813924312592, 0.010645508766174316, -0.0070182085037231445, -0.02023160457611084, -0.12676996387018927, 0.6581567488702571, 0.739016601730897,-0.06792314747940992,0.96356201171875,0.2681732177734375,-0.123382568359375
20220205-1812,2022-02-05 18:12:42Z,u01, 33,40,movements,el-ex, rt, d,14741.129594541668, 1.4697353810643095, -0.2808984571100936, 0.06694420118233933, 0.05495114624500275, 0.19979864358901978, -0.03423868864774704, 0.955904483795166, 0.2772189974784851, -0.09693484753370285, 0.01083141565322876, -0.017331242561340332, -0.0536845326423645, -0.12601913325882563, 0.6600392070713548, 0.7373436388301867,-0.06922330557146877,0.96673583984375,0.2598876953125,-0.1506195068359375
20220205-1812,2022-02-05 18:12:42Z,u01, 34,40,movements,el-ex, rt, d,14741.154539541667, 1.4730882180394216, -0.2814750416764583, 0.06691088877480848, -0.08456121385097504, 0.07165053486824036, -0.008716016076505184, 0.9560648798942566, 0.2777729332447052, -0.09371370077133179, 0.019444823265075684, -0.023225843906402588, -0.07195084542036057, -0.12610232809590072, 0.6612422789392699, 0.736211413757159,-0.06963937476254795,0.97314453125,0.246368408203125,-0.1651153564453125
20220205-1812,2022-02-05 18:12:42Z,u01, 35,40,movements,el-ex, rt, d,14741.179485541668, 1.4754639998065824, -0.2815366407141125, 0.07243122032713821, -0.32762080430984497, 0.011368416249752045, 0.05269048735499382, 0.9562678337097168, 0.27783212065696716, -0.09144041687250137, -0.0024561285972595215, -0.046279966831207275, -0.07466667890548706, -0.12786902685358273, 0.661762270587092, 0.7356128522596933,-0.06777956638805344,0.9538116455078125,0.2315521240234375,-0.166107177734375
20220205-1812,2022-02-05 18:12:42Z,u01, 36,40,movements,el-ex, rt, d,14741.204431541668, 1.4780940530012137, -0.2808015865147255, 0.08230041607209083, -0.39151570200920105, -0.025180939584970474, 0.06910262256860733, 0.9567080140113831, 0.27712592482566833, -0.08894394338130951, 0.006136834621429443, -0.025432229042053223, -0.10015808790922165, -0.1307812109505705, 0.6621361670372583, 0.7350962095460667,-0.06407472367535799,0.9689788818359375,0.25762939453125,-0.1927490234375
20220205-1812,2022-02-05 18:12:42Z,u01, 37,40,movements,el-ex, rt, d,14741.229377000001, 1.479298226747567, -0.27976856433170566, 0.09191868876432505, -0.3550708591938019, -0.1082148402929306, 0.06812523305416107, 0.9570991396903992, 0.2761332094669342, -0.0878179520368576, 0.035164833068847656, -0.02150973677635193, -0.10381705313920975, -0.13355233560771776, 0.6620081539060325, 0.7350349213938779,-0.060272639525428495,0.9922637939453125,0.2546234130859375,-0.1916351318359375
20220205-1812,2022-02-05 18:12:42Z,u01, 38,40,movements,el-ex, rt, d,14741.254323000001, 1.4782170094141842, -0.2788492944877067, 0.10172724042340864, -0.39123213291168213, -0.17571333050727844, 0.0607374906539917, 0.9572558999061584, 0.27524957060813904, -0.0888761654496193, 0.028355121612548828, -0.026180356740951538, -0.09386295080184937, -0.1364942346101889, 0.661007748066078, 0.7357107024706244,-0.05628454115283982,0.981658935546875,0.2481536865234375,-0.1796417236328125
20220205-1812,2022-02-05 18:12:42Z,u01, 39,40,movements,el-ex, rt, d,14741.279269, 1.4762712213295712, -0.2791805324064638, 0.11128662219899585, -0.30051445960998535, -0.17445890605449677, -0.0005273940041661263, 0.9569904804229736, 0.27556800842285156, -0.09073001146316528, 0.014750421047210693, 0.0030575692653656006, -0.09649521857500076, -0.13982361467732513, 0.6596092423060658, 0.7366026226262065,-0.0527426808626672,0.97174072265625,0.27862548828125,-0.187225341796875
20220205-1812,2022-02-05 18:12:42Z,u01, 40,40,movements,el-ex, rt, d,14741.304214000002, 1.4739215309724025, -0.2795383268904068, 0.1155496473582299, -0.022883733734488487, -0.12357275933027267, -0.0026352200657129288, 0.956676185131073, 0.27591192722320557, -0.09296882152557373, 0.024479150772094727, 0.008603423833847046, -0.09340190142393112, -0.1414192964926578, 0.6584194505240294, 0.7374757135997225,-0.05112647600758352,0.9887237548828125,0.27947998046875,-0.1856231689453125
20220205-1812,2022-02-05 18:12:42Z,u01, 41,40,movements,el-ex, rt, d,14741.329160000001, 1.4695515248173419, -0.27979401994593667, 0.1145019206680693, 0.02791532874107361, -0.20687976479530334, -0.009659705683588982, 0.9561906456947327, 0.2761576771736145, -0.09714147448539734, 0.05160665512084961, -0.027118951082229614, -0.07256662845611572, -0.14127966520047408, 0.6568632415466609, 0.7388776147464706,-0.0512899155554245,1.0077972412109375,0.2490386962890625,-0.169708251953125
20220205-1812,2022-02-05 18:12:42Z,u01, 42,40,movements,el-ex, rt, d,14741.354105, 1.463574367358916, -0.2799619311630395, 0.11588569304656589, -0.14580665528774261, -0.2794266641139984, -0.007136360742151737, 0.9555467963218689, 0.27631905674934387, -0.102850042283535, 0.029408037662506104, -0.038159847259521484, -0.05037861317396164, -0.141946523112561, 0.6545427124465221, 0.7408669302315414,-0.050410837348971116,0.97601318359375,0.2367401123046875,-0.155792236328125
20220205-1812,2022-02-05 18:12:42Z,u01, 43,40,movements,el-ex, rt, d,14741.379051000002, 1.4580291411366384, -0.28063505444335457, 0.12024017968520066, -0.1422141194343567, -0.2591622769832611, -0.0037601394578814507, 0.9547767639160156, 0.2769659161567688, -0.108126200735569, -0.000476837158203125, -0.0208471417427063, -0.05865226686000824, -0.14375225681207804, 0.6521289649357493, 0.7427643416790776,-0.04862367563878456,0.9542999267578125,0.2561187744140625,-0.166778564453125
20220205-1812,2022-02-05 18:12:42Z,u01, 44,40,movements,el-ex, rt, d,14741.403997000001, 1.452240125484171, -0.2805334399394724, 0.12197769307844543, 0.013213117606937885, -0.25800493359565735, 0.034837253391742706, 0.9541627764701843, 0.2768682837486267, -0.11365491151809692, 0.02001941204071045, -0.014386564493179321, -0.059471189975738525, -0.14441975129196244, 0.649858046918228, 0.7446936988113299,-0.04752677705992864,0.9823150634765625,0.2557830810546875,-0.1756744384765625
20220205-1812,2022-02-05 18:12:42Z,u01, 45,40,movements,el-ex, rt, d,14741.428942, 1.4448212053383038, -0.27953528244266135, 0.12100268630812724, 0.07165958732366562, -0.31590113043785095, 0.053272053599357605, 0.9535669684410095, 0.2759090065956116, -0.12076523154973984, 0.02890068292617798, -0.020629465579986572, -0.05042295902967453, -0.1439122922888372, 0.6472299715347399, 0.7471085761240268,-0.04702562189877829,0.9824676513671875,0.255279541015625,-0.1711883544921875
20220205-1812,2022-02-05 18:12:42Z,u01, 46,40,movements,el-ex, rt, d,14741.453888, 1.4354831761980176, -0.2777973837796341, 0.11901114328744376, 0.04207882285118103, -0.3599790334701538, 0.016122622415423393, 0.9528713226318359, 0.27423813939094543, -0.1297287493944168, 0.006784319877624512, -0.021506816148757935, -0.054643064737319946, -0.14284684419188312, 0.6439956543226546, 0.7501328481062596,-0.046529757655306314,0.9517059326171875,0.247955322265625,-0.18841552734375
20220205-1812,2022-02-05 18:12:42Z,u01, 47,40,movements,el-ex, rt, d,14741.478834000001, 1.4265247490688129, -0.27689162455931765, 0.11979706506903154, -0.08020248264074326, -0.379023015499115, 0.07378672063350677, 0.9519163370132446, 0.2733669877052307, -0.13829532265663147, 0.015185654163360596, -0.0314083993434906, -0.06269334256649017, -0.14296942485909075, 0.6406341276648426, 0.75305756640125,-0.0452977607386853,0.96710205078125,0.2419586181640625,-0.20098876953125
20220205-1812,2022-02-05 18:12:42Z,u01, 48,40,movements,el-ex, rt, d,14741.503779, 1.4176141819127592, -0.2754970305916066, 0.12361744209897806, -0.19462932646274567, -0.4262928068637848, 0.08968499302864075, 0.9510223865509033, 0.2720252573490143, -0.14682988822460175, 0.059307992458343506, -0.020911306142807007, -0.057286813855171204, -0.1438674095794205, 0.6370927892866508, 0.7560333723848387,-0.04276310562248298,1.01861572265625,0.25408935546875,-0.201904296875
20220205-1812,2022-02-05 18:12:42Z,u01, 49,40,movements,el-ex, rt, d,14741.528725, 1.4070209120769337, -0.2740237311996806, 0.1287409948532725, -0.16455784440040588, -0.5093807578086853, 0.0668579712510109, 0.9498078227043152, 0.27060723304748535, -0.15696105360984802, 0.04477524757385254, -0.002037256956100464, -0.05173330008983612, -0.1451621268755645, 0.6328091602925794, 0.7595485667963967,-0.03957895547879703,0.9945831298828125,0.2685699462890625,-0.2086944580078125
20220205-1812,2022-02-05 18:12:42Z,u01, 50,40,movements,el-ex, rt, d,14741.553670000001, 1.3952650672395388, -0.2732821397614566, 0.132459469700043, -0.10826367884874344, -0.5049048066139221, 0.05686312913894653, 0.948094367980957, 0.26989322900772095, -0.16815073788166046, 0.015208184719085693, -0.00713685154914856, -0.08506874740123749, -0.14628148946772948, 0.6281133335454403, 0.7633487441807514,-0.03706786662953099,0.962371826171875,0.261138916015625,-0.25860595703125
20220205-1812,2022-02-05 18:12:42Z,u01, 51,40,movements,el-ex, rt, d,14741.578616, 1.3825308727853847, -0.2719794059693999, 0.13476690232076677, -0.0573885440826416, -0.5664582848548889, 0.09534067660570145, 0.9462209343910217, 0.26863861083984375, -0.18027564883232117, 0.025550365447998047, -0.01349639892578125, -0.0923987627029419, -0.14674122142588403, 0.6231606424367544, 0.7674140867935972,-0.03483535620491385,0.971771240234375,0.2551422119140625,-0.272674560546875
20220205-1812,2022-02-05 18:12:42Z,u01, 52,40,movements,el-ex, rt, d,14741.603562, 1.3686811329102855, -0.2700527312150806, 0.13766478094343443, -0.14472408592700958, -0.6054601669311523, 0.08343614637851715, 0.944138765335083, 0.2667822539806366, -0.1934663951396942, 0.018187284469604492, -0.009519040584564209, -0.07521027326583862, -0.1471418022928132, 0.617750832580733, 0.7718182314186794,-0.032091260594476256,0.9610137939453125,0.259033203125,-0.26715087890625
20220205-1812,2022-02-05 18:12:42Z,u01, 53,40,movements,el-ex, rt, d,14741.628507000001, 1.3548620595617222, -0.2691571296229893, 0.14202731029326812, -0.11511442810297012, -0.6020926237106323, 0.06484854966402054, 0.9416083097457886, 0.2659189999103546, -0.20654577016830444, 0.03222304582595825, 0.0022542178630828857, -0.0868348777294159, -0.14835326927320516, 0.6121424846633814, 0.7761612338632078,-0.02910016535227672,0.9738311767578125,0.2681732177734375,-0.2933807373046875
20220205-1812,2022-02-05 18:12:42Z,u01, 54,40,movements,el-ex, rt, d,14741.653453, 1.3395397804278797, -0.26844412900184417, 0.1430828604725783, 0.07711430639028549, -0.6368175745010376, 0.03295619785785675, 0.9385173320770264, 0.2652316093444824, -0.22099190950393677, 0.028157472610473633, 0.01778838038444519, -0.09529213607311249, -0.1486176368682279, 0.6061491922627975, 0.7808643006814333,-0.02732924296789052,0.964263916015625,0.278228759765625,-0.32171630859375
20220205-1812,2022-02-05 18:12:43Z,u01, 55,40,movements,el-ex, rt, d,14741.678398, 1.3218492995441073, -0.2664639927126148, 0.1389725863775037, 0.22954611480236053, -0.6842371225357056, 0.03365913778543472, 0.9349685907363892, 0.2633218765258789, -0.23768827319145203, 0.02131521701812744, 0.012419790029525757, -0.0889413058757782, -0.14685463758378958, 0.5996578869793938, 0.786202405218756,-0.02702118782498314,0.9562835693359375,0.2757415771484375,-0.326629638671875
20220205-1812,2022-02-05 18:12:43Z,u01, 56,40,movements,el-ex, rt, d,14741.703344000001, 1.3033336600546863, -0.26448381923615855, 0.13494820696365462, 0.08160389214754105, -0.7043589949607849, 0.04034653678536415, 0.9309085011482239, 0.26141107082366943, -0.25509533286094666, 0.03166168928146362, -0.0010961294174194336, -0.055130988359451294, -0.14513315122163756, 0.5927804797197509, 0.7917306045945058,-0.026652662368020885,0.9639434814453125,0.2555389404296875,-0.3060150146484375
20220205-1812,2022-02-05 18:12:43Z,u01, 57,40,movements,el-ex, rt, d,14741.728290000001, 1.2856566099418518, -0.26400258532357657, 0.13524176096583207, -0.08001862466335297, -0.7173385620117188, -0.034150734543800354, 0.9263745546340942, 0.2609465420246124, -0.2715457081794739, 0.03946101665496826, -0.005316048860549927, -0.03060874342918396, -0.14525983459468347, 0.5857702054258213, 0.7969582563281351,-0.025107534787210728,0.9658355712890625,0.2556304931640625,-0.302154541015625
20220205-1812,2022-02-05 18:12:43Z,u01, 58,40,movements,el-ex, rt, d,14741.753235, 1.2684345968042945, -0.26472676257011774, 0.13522783234831764, 0.08179564028978348, -0.6972009539604187, 0.003823944367468357, 0.9213802218437195, 0.2616455554962158, -0.28740233182907104, 0.03999978303909302, 0.008114546537399292, -0.03532090783119202, -0.14575317443262886, 0.5788392240500819, 0.8019485828466828,-0.02407616351829045,0.9659576416015625,0.2789764404296875,-0.3270416259765625
20220205-1812,2022-02-05 18:12:43Z,u01, 59,40,movements,el-ex, rt, d,14741.778181000001, 1.2488518574422391, -0.2621869944467811, 0.12994904972150312, 0.4142952263355255, -0.7568963766098022, 0.0669867992401123, 0.9162032604217529, 0.25919342041015625, -0.30559849739074707, 0.045817673206329346, 0.00955963134765625, -0.03166639804840088, -0.14346158572190287, 0.5715063620812808, 0.8076023596623546,-0.02403612316957693,0.9620208740234375,0.2687530517578125,-0.3372650146484375
20220205-1812,2022-02-05 18:12:43Z,u01, 60,40,movements,el-ex, rt, d,14741.803127000001, 1.226408931577118, -0.25590017173560264, 0.11615244767197551, 0.7176975011825562, -0.7471954822540283, 0.06370026618242264, 0.9106304049491882, 0.2531163692474365, -0.326625794172287, 0.029021143913269043, 0.06731820106506348, -0.006763339042663574, -0.13730790642148613, 0.5637673618604884, 0.8140177992820853,-0.026229090090129192,0.9354248046875,0.3225860595703125,-0.3322601318359375
20220205-1812,2022-02-05 18:12:43Z,u01, 61,40,movements,el-ex, rt, d,14741.828072, 1.2042572124140107, -0.2484060518505399, 0.09982881549286803, 0.5972462892532349, -0.6857142448425293, 0.04312760755419731, 0.90491783618927, 0.24585925042629242, -0.3473861515522003, 0.0024614334106445312, 0.032613664865493774, 0.01611793041229248, -0.13001152214689707, 0.5562408900527164, 0.8202658391831422,-0.029277988555727164,0.907379150390625,0.278472900390625,-0.331268310546875
20220205-1812,2022-02-05 18:12:43Z,u01, 62,40,movements,el-ex, rt, d,14741.853018000002, 1.1849764488326853, -0.24348626281994687, 0.08964186478492978, 0.3290097117424011, -0.6859583258628845, 0.024290934205055237, 0.8991618752479553, 0.24108751118183136, -0.36521872878074646, 0.013100087642669678, 0.01463453471660614, -0.0020602047443389893, -0.12547764797204414, 0.549223081366704, 0.8256254156130552,-0.030854897718067154,0.916259765625,0.2547760009765625,-0.37969970703125
20220205-1812,2022-02-05 18:12:43Z,u01, 63,40,movements,el-ex, rt, d,14741.877963, 1.1654094901425018, -0.24059949989483903, 0.08321545184022222, 0.21730656921863556, -0.7642943263053894, 0.009717985987663269, 0.8924798369407654, 0.2382849007844925, -0.383014440536499, 0.038703083992004395, 0.0316125750541687, -0.005352199077606201, -0.12284277746874969, 0.5416663437317157, 0.8309722551525349,-0.03150188436199236,0.931182861328125,0.2698974609375,-0.38836669921875
20220205-1812,2022-02-05 18:12:43Z,u01, 64,40,movements,el-ex, rt, d,14741.902909, 1.1449936745059723, -0.23913613095702274, 0.08128074715266112, -0.04776032269001007, -0.8299461007118225, 0.028564510866999626, 0.884791374206543, 0.23686343431472778, -0.4012976288795471, 0.03653430938720703, 0.023771941661834717, 0.027457445859909058, -0.12203397004639197, 0.5333468775750769, 0.8364859448794323,-0.03065924721921226,0.917755126953125,0.25750732421875,-0.379241943359375
20220205-1812,2022-02-05 18:12:43Z,u01, 65,40,movements,el-ex, rt, d,14741.927855000002, 1.1245653337817392, -0.2402459497634347, 0.08429629239157825, -0.16739493608474731, -0.8544024229049683, -0.024780401960015297, 0.8761719465255737, 0.23794151842594147, -0.41917383670806885, 0.019274890422821045, 0.022068262100219727, -0.026138603687286377, -0.12359605152878056, 0.5245351303948653, 0.8418897624864073,-0.02843757922017881,0.89544677734375,0.260009765625,-0.4453125
20220205-1812,2022-02-05 18:12:43Z,u01, 66,40,movements,el-ex, rt, d,14741.952800000001, 1.1040591713908514, -0.2434831239416429, 0.08746049138177893, -0.14490897953510284, -0.8551745414733887, -0.07298262417316437, 0.866700291633606, 0.24108447134494781, -0.4367024600505829, 0.021162986755371094, 0.026737824082374573, -0.04597872495651245, -0.126059452694896, 0.5155170075836374, 0.8471361341104725,-0.026677522727853287,0.8927459716796875,0.2653656005859375,-0.489501953125
20220205-1812,2022-02-05 18:12:43Z,u01, 67,40,movements,el-ex, rt, d,14741.977746, 1.0819488987890535, -0.2459210794535315, 0.08900344194305647, -0.09498625993728638, -0.9599086046218872, -0.05945209413766861, 0.856312096118927, 0.24344979226589203, -0.4554797410964966, 0.06966757774353027, 0.030704885721206665, -0.07975268363952637, -0.1277697646859114, 0.5059002047296167, 0.8527028597130802,-0.025252517813344255,0.9259796142578125,0.2741546630859375,-0.5352325439453125
20220205-1812,2022-02-05 18:12:43Z,u01, 68,40,movements,el-ex, rt, d,14742.002691000002, 1.0573654365481837, -0.24860817394275458, 0.0897234130714656, -0.036217883229255676, -1.008345365524292, -0.12318127602338791, 0.8442843556404114, 0.24605515599250793, -0.47606807947158813, 0.0481259822845459, 0.02591751515865326, -0.12012320756912231, -0.12939517565384168, 0.495199799836296, 0.8587524198250149,-0.024049204075100472,0.8805084228515625,0.2687835693359375,-0.6049957275390625
20220205-1812,2022-02-05 18:12:43Z,u01, 69,40,movements,el-ex, rt, d,14742.027637000001, 1.0304241988984537, -0.24398202709344322, 0.08265468998291811, 0.05610169097781181, -1.1683781147003174, -0.13701392710208893, 0.8321208357810974, 0.24156862497329712, -0.4992188811302185, 0.017259716987609863, 0.11203858256340027, -0.018740594387054443, -0.12600733200870323, 0.48426512083642137, 0.8654609860172817,-0.02422202751053787,0.8493804931640625,0.353607177734375,-0.5179595947265625
20220205-1812,2022-02-05 18:12:43Z,u01, 70,40,movements,el-ex, rt, d,14742.052583, 1.0016703469388408, -0.24458073895153074, 0.0783490523179414, 0.09171517938375473, -1.0510890483856201, -0.12471205741167068, 0.8173024654388428, 0.24214956164360046, -0.5228579044342041, 0.04632985591888428, -0.11632557213306427, -0.05145227909088135, -0.12558633934184935, 0.4720160013472789, 0.8722570332269682,-0.024429709043831238,0.8594818115234375,0.1690673828125,-0.567169189453125
20220205-1812,2022-02-05 18:12:43Z,u01, 71,40,movements,el-ex, rt, d,14742.077528000002, 0.9755259818516951, -0.24701805995784643, 0.07703181846588453, -0.0484396293759346, -1.0103240013122559, -0.03722661733627319, 0.8028637766838074, 0.2445136308670044, -0.5437120795249939, 0.04705077409744263, -0.028708577156066895, -0.031055867671966553, -0.12665652870397015, 0.46054543545818805, 0.8782272236543394,-0.02393596811027171,0.84991455078125,0.2158050537109375,-0.57476806640625
20220205-1812,2022-02-05 18:12:43Z,u01, 72,40,movements,el-ex, rt, d,14742.102474000001, 0.951735686294115, -0.2503914576227464, 0.07920304341733993, -0.2158452421426773, -0.9642148017883301, -0.07868025451898575, 0.7890264987945557, 0.24778322875499725, -0.562174916267395, 0.05772954225540161, -0.006953731179237366, -0.00897669792175293, -0.12890356390377145, 0.4497737211861216, 0.8835116212899041,-0.022241889677339532,0.84161376953125,0.2444915771484375,-0.573150634765625
20220205-1812,2022-02-05 18:12:43Z,u01, 73,40,movements,el-ex, rt, d,14742.12742, 0.9279692554595825, -0.25412926460908386, 0.08231725244050138, -0.12944349646568298, -1.0012867450714111, -0.03360572084784508, 0.7746973037719727, 0.25140273571014404, -0.5802074670791626, 0.07479006052017212, 0.028290867805480957, 0.00022107362747192383, -0.13149486123350107, 0.43886826799230133, 0.8886490856626992,-0.020162266585201483,0.8494873046875,0.279693603515625,-0.579986572265625
20220205-1812,2022-02-05 18:12:43Z,u01, 74,40,movements,el-ex, rt, d,14742.152365000002, 0.903217722106175, -0.25570539361629296, 0.08305783741322746, 0.0009523238986730576, -0.985515296459198, -0.02916569635272026, 0.7597883939743042, 0.2529279291629791, -0.5989567637443542, 0.05843377113342285, 0.03694331645965576, 0.0063054561614990234, -0.13259359837488624, 0.4277155148258414, 0.8939432516719669,-0.01854693577729355,0.8140106201171875,0.2860107421875,-0.5964202880859375
20220205-1812,2022-02-05 18:12:43Z,u01, 75,40,movements,el-ex, rt, d,14742.177311000001, 0.8787112992914214, -0.25575277741697244, 0.08194451950090899, 0.05881145969033241, -0.9474262595176697, -0.024914294481277466, 0.7448741793632507, 0.2529737651348114, -0.617387056350708, 0.05171096324920654, 0.007570028305053711, 0.02031075954437256, -0.1326001060161492, 0.41680173453737784, 0.8991049344173481,-0.01743149286642992,0.7965850830078125,0.2605438232421875,-0.597076416015625
20220205-1812,2022-02-05 18:12:43Z,u01, 76,40,movements,el-ex, rt, d,14742.202256, 0.8546149973391804, -0.2548132145588215, 0.08033880336731178, 0.08357500284910202, -0.9566914439201355, 0.009370708838105202, 0.7299615740776062, 0.25206464529037476, -0.6353105306625366, 0.07068240642547607, 0.0075025856494903564, 0.022975504398345947, -0.13205181640576583, 0.4060874798943255, 0.9040948506598361,-0.01636337613456862,0.796661376953125,0.26153564453125,-0.620635986328125
20220205-1812,2022-02-05 18:12:43Z,u01, 77,40,movements,el-ex, rt, d,14742.227201916667, 0.8304971667796212, -0.25289284844367405, 0.07856364157644681, 0.11932085454463959, -0.9551556706428528, 0.017108991742134094, 0.714784562587738, 0.2502058446407318, -0.6530544757843018, 0.057539165019989014, 0.008644282817840576, 0.011422514915466309, -0.13101982451126648, 0.39535623642177015, 0.909008628930717,-0.015188245104395093,0.7723236083984375,0.25885009765625,-0.641632080078125
20220205-1812,2022-02-05 18:12:43Z,u01, 78,40,movements,el-ex, rt, d,14742.252147916668, 0.8059830967433412, -0.25134199725661033, 0.07702239240801559, 0.0236305370926857, -0.9751962423324585, 0.001410987228155136, 0.6988414525985718, 0.24870401620864868, -0.6706466674804688, 0.0618855357170105, 0.004073098301887512, 0.0290910005569458, -0.13019439527570775, 0.38435152130732075, 0.9138533165949602,-0.013980501505601428,0.75909423828125,0.2486572265625,-0.6427459716796875
20220205-1812,2022-02-05 18:12:43Z,u01, 79,40,movements,el-ex, rt, d,14742.277092916667, 0.7818768292931068, -0.25200291880089926, 0.07786623543980523, -0.08951549232006073, -0.9669148921966553, 0.014802094548940659, 0.6823572516441345, 0.2493441104888916, -0.6871798634529114, 0.07403624057769775, -0.013778895139694214, 0.013031363487243652, -0.1308132017712267, 0.3732264421581546, 0.9183912057072211,-0.012149094210950506,0.7563934326171875,0.235565185546875,-0.6741485595703125
20220205-1812,2022-02-05 18:12:43Z,u01, 80,40,movements,el-ex, rt, d,14742.302038916667, 0.7583720115598718, -0.2531168344572957, 0.07987046854628814, -0.06203696131706238, -0.9723612666130066, 0.03585684671998024, 0.6658267378807068, 0.2504226863384247, -0.702825129032135, 0.08687406778335571, -0.013194292783737183, -0.0075781941413879395, -0.13182188933769454, 0.36222977570302844, 0.9226671644164445,-0.009893215660280785,0.746246337890625,0.235443115234375,-0.7210693359375
20220205-1812,2022-02-05 18:12:43Z,u01, 81,40,movements,el-ex, rt, d,14742.326984916668, 0.7342010395510083, -0.2525405408570177, 0.08035356240216239, 0.06490670144557953, -0.9700515270233154, 0.01624499447643757, 0.6487425565719604, 0.24986471235752106, -0.7188190221786499, 0.041977107524871826, -0.007295727729797363, -0.020194590091705322, -0.13175054738737946, 0.35104456875638934, 0.9270091876975111,-0.007971614517333026,0.6907196044921875,0.2425689697265625,-0.739013671875
20220205-1812,2022-02-05 18:12:43Z,u01, 82,40,movements,el-ex, rt, d,14742.351929916667, 0.7094389446256438, -0.24971461357154412, 0.07897950856908918, 0.1595785915851593, -0.9783135652542114, 0.057882651686668396, 0.6312034726142883, 0.24712742865085602, -0.7351940274238586, 0.058707475662231445, -0.002696886658668518, -0.03386414051055908, -0.1302947165574016, 0.33974440514846865, 0.9314264016014133,-0.00648657737925018,0.69122314453125,0.241546630859375,-0.77569580078125
20220205-1812,2022-02-05 18:12:43Z,u01, 83,40,movements,el-ex, rt, d,14742.376875916667, 0.684568279660668, -0.2456948989596048, 0.07769182343451891, 0.1071731373667717, -0.9898105263710022, 0.07568741589784622, 0.6133486032485962, 0.2432304173707962, -0.7514269948005676, 0.07335805892944336, -0.022664591670036316, -0.0438457727432251, -0.12827990512387238, 0.3283759569240712, 0.9357834351343726,-0.004790230483337821,0.68670654296875,0.2205657958984375,-0.7952728271484375
20220205-1812,2022-02-05 18:12:43Z,u01, 84,40,movements,el-ex, rt, d,14742.401820916668, 0.6601500292544067, -0.24406893358718648, 0.07903318535435233, -0.0690210685133934, -1.0002425909042358, 0.07372652739286423, 0.5950607657432556, 0.2416529506444931, -0.7664898037910461, 0.07565462589263916, -0.03257700800895691, -0.011952519416809082, -0.12777988058596706, 0.31690283868410885, 0.9398082856508985,-0.0023284368224424923,0.6614227294921875,0.209228515625,-0.7776031494140625
20220205-1812,2022-02-05 18:12:43Z,u01, 85,40,movements,el-ex, rt, d,14742.426766916667, 0.6356372548278274, -0.24492013921560737, 0.08112685878000868, -0.04961900785565376, -0.9944638609886169, 0.01435215212404728, 0.5759727358818054, 0.2424788475036621, -0.7806788086891174, 0.044495463371276855, 0.010008364915847778, -0.010443568229675293, -0.12851869921429104, 0.3051942473912579, 0.9435780370626826,9.173792426703242e-05,0.6204681396484375,0.2524871826171875,-0.7911224365234375
20220205-1812,2022-02-05 18:12:43Z,u01, 86,40,movements,el-ex, rt, d,14742.451712916667, 0.6112044690862423, -0.24454922506873653, 0.08050933207701302, 0.09988399595022202, -0.9604894518852234, -0.023081373423337936, 0.5567801594734192, 0.2421189844608307, -0.7945906519889832, 0.06286406517028809, 0.019004687666893005, 0.0012862682342529297, -0.12824218927221515, 0.29369817392764885, 0.9472557283991097,0.001425460424187508,0.626953125,0.2594451904296875,-0.796112060546875
20220205-1812,2022-02-05 18:12:43Z,u01, 87,40,movements,el-ex, rt, d,14742.476657916668, 0.5863343565054636, -0.24160523601359624, 0.0779427068261025, 0.18640950322151184, -0.9939892292022705, -0.02138347364962101, 0.5372405052185059, 0.23926155269145966, -0.8087809085845947, 0.09563308954238892, 0.0018425732851028442, 0.001697838306427002, -0.1264569705423496, 0.2821669534599629, 0.950991816532571,0.00222836523015435,0.63287353515625,0.2411041259765625,-0.8070831298828125
20220205-1812,2022-02-05 18:12:43Z,u01, 88,40,movements,el-ex, rt, d,14742.501603916668, 0.5600554260757422, -0.23701704499915016, 0.07393604164706094, 0.30600008368492126, -1.0200445652008057, -0.0455644428730011, 0.5163813233375549, 0.23480410873889923, -0.8235395550727844, 0.06536006927490234, 0.007932722568511963, 0.006461977958679199, -0.12369164904957655, 0.27005667929302096, 0.954862771867341,0.0026160916043826976,0.5650482177734375,0.2454071044921875,-0.8204498291015625
20220205-1812,2022-02-05 18:12:43Z,u01, 89,40,movements,el-ex, rt, d,14742.526549916667, 0.5344726038899797, -0.22920050832027897, 0.06721186271651731, 0.5001636743545532, -0.9099112153053284, -0.060754649341106415, 0.49606597423553467, 0.2271990180015564, -0.8380329608917236, 0.030881136655807495, 0.017765626311302185, 0.005727052688598633, -0.1190427258066484, 0.2584808621454844, 0.9586514293867764,0.002015518518999282,0.526947021484375,0.244964599609375,-0.832305908203125
20220205-1812,2022-02-05 18:12:43Z,u01, 90,40,movements,el-ex, rt, d,14742.551494916668, 0.5101141429474804, -0.218481652706122, 0.059514898386965276, 0.4871159791946411, -0.9280058741569519, -0.044311027973890305, 0.47666940093040466, 0.21674762666225433, -0.8519429564476013, 0.0692901611328125, 0.0026279985904693604, 0.016234397888183594, -0.11291190420116823, 0.24754681514406457, 0.9622735220851,0.0011243340651490574,0.5473480224609375,0.2131500244140625,-0.84033203125
20220205-1812,2022-02-05 18:12:43Z,u01, 91,40,movements,el-ex, rt, d,14742.576440916668, 0.48465707564781413, -0.21098097051843517, 0.05399717003642973, 0.24892973899841309, -1.0250412225723267, -0.03819094970822334, 0.4555739760398865, 0.20941922068595886, -0.8652144074440002, 0.07433333992958069, -0.0014724135398864746, 0.03484642505645752, -0.10862304075459045, 0.23578342931373697, 0.9657156438195247,0.0008031111179547801,0.5299072265625,0.20794677734375,-0.8303680419921875
20220205-1812,2022-02-05 18:12:43Z,u01, 92,40,movements,el-ex, rt, d,14742.601385916667, 0.4580937828120905, -0.20719168664566845, 0.050690093985231166, 0.1782112717628479, -1.01212477684021, -0.07061167061328888, 0.43278083205223083, 0.2057124674320221, -0.8777147531509399, 0.04648253321647644, 0.006277903914451599, 0.02599966526031494, -0.10640064999520242, 0.22320736860030857, 0.9689460264897864,0.001076375535595031,0.46368408203125,0.2184600830078125,-0.8523712158203125
20220205-1812,2022-02-05 18:12:43Z,u01, 93,40,movements,el-ex, rt, d,14742.626331916668, 0.4331360567409353, -0.20278615778012862, 0.04634248779905324, 0.32336631417274475, -0.9137306213378906, -0.08394432067871094, 0.4111189544200897, 0.20139917731285095, -0.8890554308891296, 0.02973806858062744, 0.02372901141643524, 0.012621164321899414, -0.10378148207492432, 0.21142772234440405, 0.9718678708135899,0.0007676376200208557,0.44085693359375,0.225128173828125,-0.876434326171875
20220205-1812,2022-02-05 18:12:43Z,u01, 94,40,movements,el-ex, rt, d,14742.651277916668, 0.40925010120181815, -0.19439092668869914, 0.040274827808401886, 0.46082204580307007, -0.9188220500946045, -0.06115398928523064, 0.3904268145561218, 0.19316896796226501, -0.9001403450965881, 0.05819693207740784, 0.020774543285369873, 0.02361452579498291, -0.09907099825662394, 0.20028670093953876, 0.9747154282222603,-9.213823363957152e-05,0.44940185546875,0.2079010009765625,-0.875823974609375
20220205-1812,2022-02-05 18:12:44Z,u01, 95,40,movements,el-ex, rt, d,14742.676222916667, 0.3845934832340961, -0.18489539062552748, 0.03490583625719941, 0.37049973011016846, -0.9656234383583069, -0.02595479041337967, 0.368787556886673, 0.1838437020778656, -0.9111515879631042, 0.05864173173904419, 0.014291688799858093, 0.04303336143493652, -0.09392176706796138, 0.188687312791761, 0.9775354023484926,-0.0005829842294434173,0.42742919921875,0.1981353759765625,-0.8681182861328125
20220205-1812,2022-02-05 18:12:44Z,u01, 96,40,movements,el-ex, rt, d,14742.701168916668, 0.3605477170573185, -0.17859828091422086, 0.03139574098199233, 0.20952105522155762, -0.9071500301361084, -0.04964980110526085, 0.3471752405166626, 0.1776503324508667, -0.9208201169967651, 0.04027599096298218, 0.012107998132705688, 0.05640977621078491, -0.09052777504995933, 0.17718537895519032, 0.9800049301975692,-0.0006066916453444371,0.3822021484375,0.1949005126953125,-0.8668212890625
20220205-1812,2022-02-05 18:12:44Z,u01, 97,40,movements,el-ex, rt, d,14742.726113916668, 0.3380307868487008, -0.17390301215049664, 0.028217457263379153, 0.2650549113750458, -0.8579376935958862, -0.06640394777059555, 0.3266279697418213, 0.17302779853343964, -0.9291800260543823, 0.045854419469833374, 0.03346940875053406, 0.0335196852684021, -0.08796024007273717, 0.16635194149335805, 0.9821352527458713,-0.0007517037961054518,0.3724822998046875,0.2064971923828125,-0.895660400390625
20220205-1812,2022-02-05 18:12:44Z,u01, 98,40,movements,el-ex, rt, d,14742.751059916667, 0.31550433958717855, -0.16736186383543322, 0.024065308604138646, 0.3510180413722992, -0.9101148247718811, -0.05577413737773895, 0.30596038699150085, 0.1665816605091095, -0.9373573660850525, 0.06632360816001892, 0.02932596206665039, 0.03348773717880249, -0.08442310975260969, 0.15554439749915638, 0.9842140382513641,-0.0012884970329557488,0.3699493408203125,0.1873626708984375,-0.9098358154296875
20220205-1812,2022-02-05 18:12:44Z,u01, 99,40,movements,el-ex, rt, d,14742.776005916667, 0.291665272382335, -0.15888501105335232, 0.019904272430118043, 0.3678044378757477, -0.9162865281105042, -0.05331351235508919, 0.28392571210861206, 0.15821735560894012, -0.9457026124000549, 0.026728063821792603, 0.01930341124534607, 0.03550064563751221, -0.07995433016532834, 0.1440693990535414, 0.986330743400121,-0.0017162995212997578,0.3106536865234375,0.177520751953125,-0.9102020263671875
20220205-1812,2022-02-05 18:12:44Z,u01, 100,40,movements,el-ex, rt, d,14742.825896916667, 0.24935258448791522, -0.1454549175346972, 0.014075624480235202, 0.21579338610172272, -0.827930212020874, -0.036229465156793594, 0.244170680642128, 0.14494255185127258, -0.9588390588760376, 0.060913607478141785, 0.006561964750289917, 0.03481262922286987, -0.07297041702802788, 0.1235143274130317, 0.9896541242079835,-0.002071055349220252,0.2880706787109375,0.18157958984375,-0.909820556640625
20220205-1812,2022-02-05 18:12:44Z,u01, 101,40,movements,el-ex, rt, d,14742.800950916668, 0.26975531755187115, -0.15162284624059924, 0.016469635888775064, 0.2799791395664215, -0.8038007020950317, -0.029242195188999176, 0.2634381651878357, 0.15104256570339203, -0.9527782797813416, 0.020527958869934082, 0.03448908030986786, 0.05025148391723633, -0.07615253605046117, 0.13346026942961384, 0.988121976345613,-0.0020476864167011666,0.305084228515625,0.1515045166015625,-0.9240264892578125
20220205-1812,2022-02-05 18:12:44Z,u01, 102,40,movements,el-ex, rt, d,14742.850842916667, 0.22750907087370936, -0.14258178370003782, 0.012663676588295023, 0.045218586921691895, -0.8775323629379272, -0.023537904024124146, 0.22326268255710602, 0.14209917187690735, -0.9643451571464539, 0.05463044345378876, 0.007192820310592651, 0.06380200386047363, -0.07148562595809867, 0.11277066415988128, 0.9910445382374962,-0.0018102753922537573,0.266357421875,0.1454010009765625,-0.898162841796875
20220205-1812,2022-02-05 18:12:44Z,u01, 103,40,movements,el-ex, rt, d,14742.875787916668, 0.20602631317050732, -0.14194843819616185, 0.011722479283246916, 0.050797946751117706, -0.8255385756492615, -0.03535374999046326, 0.20251433551311493, 0.1414722204208374, -0.9690064787864685, 0.027801886200904846, 0.03128780424594879, 0.06469440460205078, -0.07113869678277551, 0.102156962329846, 0.9922203414906099,-0.0014766452260657759,0.230316162109375,0.172760009765625,-0.9043121337890625
20220205-1812,2022-02-05 18:12:44Z,u01, 104,40,movements,el-ex, rt, d,14742.900733916667, 0.18626413475880624, -0.13845343151271602, 0.009844969103499893, 0.24673481285572052, -0.7380084991455078, -0.06605307757854462, 0.18341681361198425, 0.13801151514053345, -0.9732990860939026, 0.030938729643821716, 0.03877684473991394, 0.05262953042984009, -0.06932751772925912, 0.09243460450373397, 0.9933011269877723,-0.0015432993557963903,0.2099761962890625,0.172027587890625,-0.9206085205078125
20220205-1812,2022-02-05 18:12:44Z,u01, 105,40,movements,el-ex, rt, d,14742.925678916668, 0.1676379355728518, -0.13335876084885123, 0.006914385649169364, 0.14956983923912048, -0.7421400547027588, -0.0721854642033577, 0.1653723567724228, 0.13296382129192352, -0.977226972579956, 0.04550418257713318, -0.005674988031387329, 0.09661179780960083, -0.06668445886105001, 0.08330476606019692, 0.9942881256478634,-0.0021408930270190862,0.21087646484375,0.127288818359375,-0.880615234375
20220205-1812,2022-02-05 18:12:44Z,u01, 106,40,movements,el-ex, rt, d,14742.950624916668, 0.14846948103374874, -0.1324683007323747, 0.0053780691492948726, -0.020750507712364197, -0.7568811774253845, -0.0407460555434227, 0.14662864804267883, 0.13208122551441193, -0.9803339242935181, 0.043694302439689636, -0.02218739688396454, 0.11065924167633057, -0.06620221231498698, 0.07382620421798963, 0.9950687806618579,-0.0022330066762204503,0.1805267333984375,0.115478515625,-0.871734619140625
20220205-1812,2022-02-05 18:12:44Z,u01, 107,40,movements,el-ex, rt, d,14742.975570916667, 0.13091707041877415, -0.13177857373299035, 0.0041645304549828436, 0.12591415643692017, -0.6430331468582153, -0.05756977200508118, 0.12941157817840576, 0.13139750063419342, -0.9828465580940247, 0.030088603496551514, 0.022517919540405273, 0.08843737840652466, -0.06583638051737546, 0.0651329147165875, 0.9956998773232165,-0.0022335142184244927,0.1595001220703125,0.1539154052734375,-0.8944091796875
20220205-1812,2022-02-05 18:12:44Z,u01, 108,40,movements,el-ex, rt, d,14743.000515916667, 0.11537443555128385, -0.12802215977295378, 0.001578200606342703, 0.12035961449146271, -0.6451658010482788, -0.08543416857719421, 0.11417654901742935, 0.12767274677753448, -0.9852225184440613, 0.04030350595712662, 0.013059094548225403, 0.11559361219406128, -0.06390634727627677, 0.05748673447845856, 0.9962946236671234,-0.002901877507271944,0.1546173095703125,0.1309967041015625,-0.8686065673828125
20220205-1812,2022-02-05 18:12:44Z,u01, 109,40,movements,el-ex, rt, d,14743.025461916668, 0.09871390141836459, -0.1266328711221652, -0.000362101802403293, 0.0270688459277153, -0.6352885961532593, -0.04944653436541557, 0.0977645218372345, 0.12629470229148865, -0.9871634840965271, -0.0029310807585716248, -0.022687509655952454, 0.10306930541992188, -0.06318816698664301, 0.04924949223935591, 0.9967802374738393,-0.0033022186800847897,0.0948333740234375,0.103607177734375,-0.88409423828125
20220205-1812,2022-02-05 18:12:44Z,u01, 110,40,movements,el-ex, rt, d,14743.050407916668, 0.08463196825964671, -0.12500864714465507, -0.0012034279538515873, 0.11872382462024689, -0.4896000921726227, -0.027247155085206032, 0.08387134224176407, 0.12468331307172775, -0.9886453747749329, 0.0026155412197113037, 0.012142270803451538, 0.11605626344680786, -0.062382299628462146, 0.04225829175477282, 0.9971520395885982,-0.0032424221193733116,0.08935546875,0.1364898681640625,-0.8661956787109375
20220205-1812,2022-02-05 18:12:44Z,u01, 111,40,movements,el-ex, rt, d,14743.075352916667, 0.0729451826556931, -0.12233748935442385, -0.002324545965690497, 0.05066312104463577, -0.4540503919124603, -0.053428757935762405, 0.07233580946922302, 0.12203256040811539, -0.9898866415023804, 0.02695319801568985, -0.006813429296016693, 0.13957542181015015, -0.06104761005032912, 0.03646728852675869, 0.9974626722227453,-0.003388423579658406,0.0992889404296875,0.1152191162109375,-0.850311279296875
20220205-1812,2022-02-05 18:12:44Z,u01, 112,40,movements,el-ex, rt, d,14743.100298916668, 0.061128166558830944, -0.1235429599665795, -0.0035186134714455925, -0.11540977656841278, -0.46262186765670776, -0.03763015568256378, 0.060624491423368454, 0.12322892993688583, -0.9905247688293457, 0.015120204538106918, -0.023299098014831543, 0.1390690803527832, -0.061649616442902205, 0.03060954873984125, 0.997621721963666,-0.003641621900747627,0.0731353759765625,0.0939483642578125,-0.8504638671875
20220205-1812,2022-02-05 18:12:44Z,u01, 113,40,movements,el-ex, rt, d,14743.125243916667, 0.04993001349252537, -0.12596398899694142, -0.004614985211450599, -0.03160522133111954, -0.40754514932632446, -0.051565010100603104, 0.049513839185237885, 0.12563113868236542, -0.9908406734466553, 0.003693625330924988, 0.009973734617233276, 0.09000754356384277, -0.06286309028715178, 0.02505804022128535, 0.9977001284577419,-0.0038733362895509993,0.0532073974609375,0.1356048583984375,-0.9008331298828125
20220205-1812,2022-02-05 18:12:44Z,u01, 114,40,movements,el-ex, rt, d,14743.150189916667, 0.04126656384210982, -0.12363991631198554, -0.006238824465884161, 0.21747000515460968, -0.2948448956012726, -0.07967887073755264, 0.040939927101135254, 0.12332514673471451, -0.9915214776992798, 0.0028986409306526184, 0.03937934339046478, 0.08566820621490479, -0.0617028985456389, 0.020784982414859404, 0.9978685315469709,-0.004387424870712475,0.0432891845703125,0.15869140625,-0.9149932861328125
20220205-1812,2022-02-05 18:12:44Z,u01, 115,40,movements,el-ex, rt, d,14743.175135916668, 0.03368476116875995, -0.11616864601359739, -0.009464527353670371, 0.3418082296848297, -0.30891305208206177, -0.14234837889671326, 0.03345140069723129, 0.11590753495693207, -0.9926965236663818, -0.002231847494840622, -0.000642627477645874, 0.07555180788040161, -0.05796321977631168, 0.017087669722940214, 0.9981561959244153,-0.0057012664567411275,0.031219482421875,0.115264892578125,-0.917144775390625
20220205-1812,2022-02-05 18:12:44Z,u01, 116,40,movements,el-ex, rt, d,14743.200080916668, 0.025500495935676947, -0.10778718634913116, -0.013093332955240426, 0.3565807640552521, -0.27001598477363586, -0.13379323482513428, 0.025349758565425873, 0.10757859796285629, -0.9938733577728271, -0.0325365848839283, -0.013920128345489502, 0.05847907066345215, -0.053778624973096156, 0.013083738780069638, 0.9984410797940297,-0.00722337362332004,-0.0176849365234375,0.0991058349609375,-0.9385986328125
20220205-1812,2022-02-05 18:12:44Z,u01, 117,40,movements,el-ex, rt, d,14743.225025875001, 0.020101788881882056, -0.0971424661480338, -0.015720278415019714, 0.5068380832672119, -0.12680090963840485, -0.09315966069698334, 0.020005669444799423, 0.09698975831270218, -0.995084285736084, -0.03544750064611435, 0.006480105221271515, 0.06852489709854126, -0.04846927864541898, 0.01042016500922665, 0.9987355222488992,-0.008338360979428805,-0.01544189453125,0.1034698486328125,-0.9265594482421875
20220205-1812,2022-02-05 18:12:44Z,u01, 118,40,movements,el-ex, rt, d,14743.249971875, 0.017579077745020655, -0.0841073441427584, -0.018124090851756123, 0.4767087996006012, -0.08748899400234222, -0.08231240510940552, 0.017516033723950386, 0.08400821685791016, -0.9963111281394958, -0.00041086599230766296, -0.0074701085686683655, 0.09473031759262085, -0.04195834621926052, 0.009162253549321608, 0.9990329766651002,-0.009423062630018963,0.0203704833984375,0.065887451171875,-0.8850250244140625
20220205-1812,2022-02-05 18:12:44Z,u01, 119,40,movements,el-ex, rt, d,14743.274916875002, 0.01449360499649053, -0.07831345647877987, -0.019777968469719482, -0.0521710142493248, -0.15423525869846344, -0.026048067957162857, 0.014448677189648151, 0.07823342829942703, -0.9968303442001343, 0.031922850757837296, -0.06184547394514084, 0.21986806392669678, -0.03907217287627136, 0.007627934778879507, 0.9991556041751892,-0.010164655432875869,0.0463714599609375,0.016387939453125,-0.7769622802734375
20220205-1812,2022-02-05 18:12:44Z,u01, 120,40,movements,el-ex, rt, d,14743.299862875001, 0.010479611633258142, -0.08692070986213976, -0.019654659536407302, -0.5921822786331177, -0.15290068089962006, 0.019791658967733383, 0.010439857840538025, 0.08681130409240723, -0.9961700439453125, 0.04195889085531235, -0.07374976575374603, 0.23706060647964478, -0.04339253682064045, 0.005661533434709497, 0.9989915564406557,-0.0100453975564338,0.0457000732421875,0.027435302734375,-0.7545623779296875
20220205-1812,2022-02-05 18:12:44Z,u01, 121,40,movements,el-ex, rt, d,14743.324807875, 0.00814809866756558, -0.10283625085583327, -0.01941057296723671, -0.604299008846283, -0.03027523308992386, -0.017292924225330353, 0.008104962296783924, 0.1026550903916359, -0.9946839809417725, 0.0006536496803164482, -0.011331222951412201, 0.24117451906204224, -0.05135313485099911, 0.0045672575977002, 0.9986210839886278,-0.009901603830326289,0.008758544921875,0.0913238525390625,-0.753509521484375
20220205-1812,2022-02-05 18:12:44Z,u01, 122,40,movements,el-ex, rt, d,14743.349753875002, 0.00882067940966618, -0.11412947540411957, -0.020604694842129387, -0.27539312839508057, 0.10022085160017014, -0.07211503386497498, 0.008763181045651436, 0.11388187110424042, -0.9934556484222412, -0.015141289681196213, -0.0031640753149986267, 0.2390153408050537, -0.0569848265982925, 0.0049904782313687605, 0.9983070028135771,-0.01053681953843072,-0.0065155029296875,0.11151123046875,-0.754364013671875
20220205-1812,2022-02-05 18:12:44Z,u01, 123,40,movements,el-ex, rt, d,14743.374699875001, 0.012600184431293073, -0.11790929856537431, -0.021970416988024332, -0.06937097012996674, 0.19447198510169983, -0.03471412509679794, 0.012512367218732834, 0.11763627827167511, -0.9929779171943665, -0.0015870071947574615, -0.034216463565826416, 0.22535401582717896, -0.05884668940521999, 0.006935953347077507, 0.9981786400672622,-0.01133686424135072,0.01092529296875,0.0834197998046875,-0.7676239013671875
20220205-1812,2022-02-05 18:12:44Z,u01, 124,40,movements,el-ex, rt, d,14743.399644875, 0.018595552206169604, -0.12082831278351024, -0.022355180903216292, -0.22571240365505219, 0.2779306173324585, -0.016131188720464706, 0.018458910286426544, 0.12053452432155609, -0.9925374984741211, 0.00769471563398838, -0.0475211963057518, 0.20420747995376587, -0.06026729554648129, 0.009954930316349482, 0.9980638839258497,-0.011717815749355931,0.03204345703125,0.0745086669921875,-0.7898101806640625
20220205-1812,2022-02-05 18:12:44Z,u01, 125,40,movements,el-ex, rt, d,14743.424590875002, 0.025459391154125783, -0.13090366551939328, -0.022570162303942008, -0.5856883525848389, 0.2718786895275116, -0.01840326376259327, 0.025238841772079468, 0.13053013384342194, -0.9911230206489563, 0.006484245881438255, -0.04518771171569824, 0.21292483806610107, -0.06525230053728406, 0.013439312044409204, 0.9977051003004027,-0.012092276570501492,0.0317230224609375,0.0853424072265625,-0.7781982421875
20220205-1812,2022-02-05 18:12:44Z,u01, 126,40,movements,el-ex, rt, d,14743.449536875001, 0.034476561053209676, -0.14784424866690593, -0.023137649563165254, -0.7004045248031616, 0.4590187668800354, -0.058758676052093506, 0.0340937003493309, 0.14730624854564667, -0.9885031580924988, -0.02542664110660553, -0.02000214159488678, 0.17353123426437378, -0.07364002739856987, 0.018043466185445826, 0.9970395004770178,-0.012808238899108593,0.0223236083984375,0.144134521484375,-0.81787109375
20220205-1812,2022-02-05 18:12:44Z,u01, 127,40,movements,el-ex, rt, d,14743.474481875, 0.046869979375549674, -0.16345588039986805, -0.02370377124840544, -0.5246812701225281, 0.5105902552604675, -0.05968152731657028, 0.0462283119559288, 0.16272899508476257, -0.9855872392654419, 0.05830971896648407, 2.1263957023620605e-05, 0.16480177640914917, -0.08133204595061477, 0.0243202514966639, 0.9962958490325365,-0.013721657396700004,0.1045379638671875,0.162750244140625,-0.8207855224609375
20220205-1812,2022-02-05 18:12:44Z,u01, 128,40,movements,el-ex, rt, d,14743.499427875, 0.05854602968168922, -0.17497325777993367, -0.025073224557863125, -0.3856651186943054, 0.45960837602615356, -0.07994092255830765, 0.05761917307972908, 0.17408180236816406, -0.9830440282821655, 0.02352713793516159, -0.020563095808029175, 0.16975057125091553, -0.08696524464059427, 0.030249490155212454, 0.9956384911221368,-0.01504015183078744,0.066375732421875,0.1529083251953125,-0.816009521484375
20220205-1812,2022-02-05 18:12:44Z,u01, 129,40,movements,el-ex, rt, d,14743.524372875001, 0.07328519483669321, -0.18127097836051922, -0.026284469875026834, -0.10094697773456573, 0.7574059963226318, -0.04087049141526222, 0.07201993465423584, 0.18027986586093903, -0.9809751510620117, -0.02812032401561737, -0.003964543342590332, 0.1659727692604065, -0.08996341146878523, 0.037669568168010904, 0.99509738979598,-0.016394675231622358,0.0438995361328125,0.1763153076171875,-0.81500244140625
20220205-1812,2022-02-05 18:12:44Z,u01, 130,40,movements,el-ex, rt, d,14743.549318875, 0.09467538810943969, -0.18004746141079706, -0.026653311748915047, 0.1578613817691803, 0.9280452728271484, 0.0007855445146560669, 0.09300588816404343, 0.17907626926898956, -0.9794292449951172, 0.024303749203681946, -0.007735311985015869, 0.1532878875732422, -0.0891654502877696, 0.048320929655122136, 0.9946899275745842,-0.017511224102221168,0.1320648193359375,0.1692047119140625,-0.8362274169921875
20220205-1812,2022-02-05 18:12:44Z,u01, 131,40,movements,el-ex, rt, d,14743.574264875, 0.11730747317529622, -0.1768796057218595, -0.027332193971498567, 0.050121232867240906, 0.8869991302490234, -0.02827560156583786, 0.11521252244710922, 0.17595872282981873, -0.9776321649551392, 0.06824396550655365, -0.04798322916030884, 0.09707796573638916, -0.08736648452404466, 0.05959049494181563, 0.9942152366167442,-0.018765966126544575,0.1834564208984375,0.1279754638671875,-0.88055419921875
20220205-1812,2022-02-05 18:12:44Z,u01, 132,40,movements,el-ex, rt, d,14743.599209875001, 0.13722638489722114, -0.18048477101427365, -0.027683290717531298, -0.3295753002166748, 0.7231834530830383, -0.032184191048145294, 0.13457410037517548, 0.17950649559497833, -0.9745087027549744, 0.0516137033700943, -0.05729883909225464, 0.09204721450805664, -0.08895420447902097, 0.06951828640177032, 0.9934068593490818,-0.01993042136374562,0.1729888916015625,0.124114990234375,-0.8810272216796875
20220205-1812,2022-02-05 18:12:44Z,u01, 133,40,movements,el-ex, rt, d,14743.624155875, 0.15643066971261416, -0.189887177376649, -0.02662387561472021, -0.3124893605709076, 0.8384687900543213, 0.017668122425675392, 0.15299315750598907, 0.18874810636043549, -0.970034658908844, -0.009590983390808105, 0.005404755473136902, 0.035021841526031494, -0.09346738327047238, 0.07903490297256438, 0.9922662330747438,-0.02061775704110197,0.143402099609375,0.19415283203125,-0.9350128173828125
20220205-1812,2022-02-05 18:12:44Z,u01, 134,40,movements,el-ex, rt, d,14743.649100875002, 0.17923609231154397, -0.19344107711053285, -0.02464861085170048, -0.01929805427789688, 0.9340835809707642, 0.08078483492136002, 0.17495281994342804, 0.19223691523075104, -0.9656274914741516, 0.02829432487487793, 0.020333290100097656, 0.011922717094421387, -0.09507713901557754, 0.09025841478116625, 0.991150265073233,-0.020859325960369934,0.217041015625,0.2063140869140625,-0.952423095703125
20220205-1812,2022-02-05 18:12:45Z,u01, 135,40,movements,el-ex, rt, d,14743.674046875001, 0.20239002387360025, -0.1938420524329438, -0.022933450815248908, -0.11270809918642044, 0.864870011806488, 0.0518270879983902, 0.1972464770078659, 0.19263041019439697, -0.9612426161766052, 0.053226619958877563, -0.032626718282699585, 0.040588319301605225, -0.09511503196386885, 0.10164558414646291, 0.9900378446822359,-0.021129501592523747,0.2504730224609375,0.160003662109375,-0.920654296875
20220205-1812,2022-02-05 18:12:45Z,u01, 136,40,movements,el-ex, rt, d,14743.698992875, 0.2234854188575391, -0.19916982484002987, -0.020363008441393493, -0.3185521960258484, 0.8369382619857788, 0.05642583966255188, 0.2172483503818512, 0.1978556364774704, -0.9558537006378174, 0.008200332522392273, -0.0466868132352829, 0.03648120164871216, -0.09766551088237607, 0.11195799372255932, 0.9886756430440364,-0.021153522820207604,0.2226104736328125,0.163482666015625,-0.9156646728515625
20220205-1812,2022-02-05 18:12:45Z,u01, 137,40,movements,el-ex, rt, d,14743.723937875, 0.24666827169133312, -0.20613403772113134, -0.016332897040661667, -0.25162452459335327, 0.9389075636863708, 0.1329323947429657, 0.23900514841079712, 0.20467731356620789, -0.9492016434669495, 0.04187871515750885, -0.000880897045135498, 0.021497786045074463, -0.1011004129024824, 0.12319858521155858, 0.9870013064273175,-0.020717939324070955,0.2808837890625,0.20379638671875,-0.927703857421875
20220205-1812,2022-02-05 18:12:45Z,u01, 138,40,movements,el-ex, rt, d,14743.748883875001, 0.27100338235924093, -0.21110695499983895, -0.010816196535639087, -0.27227598428726196, 0.9051613807678223, 0.1814078539609909, 0.2617553174495697, 0.2095424085855484, -0.9421126246452332, 0.05729079246520996, -0.018990635871887207, -0.0029709935188293457, -0.10366381272437464, 0.134898165269921, 0.9852277774485945,-0.019560949857371723,0.3233489990234375,0.1856231689453125,-0.938812255859375
20220205-1812,2022-02-05 18:12:45Z,u01, 139,40,movements,el-ex, rt, d,14743.773829875001, 0.29462478435577194, -0.2162414578341883, -0.00427523062862663, -0.20422978699207306, 0.9067752957344055, 0.19191701710224152, 0.28361809253692627, 0.2145601361989975, -0.9346254467964172, 0.017132729291915894, 0.0035795271396636963, -0.004232525825500488, -0.10642926137688977, 0.14615090113546533, 0.9833569468703012,-0.017941153592057113,0.300750732421875,0.2181396484375,-0.9388580322265625
20220205-1812,2022-02-05 18:12:45Z,u01, 140,40,movements,el-ex, rt, d,14743.798774875, 0.3194002265289208, -0.21661028859448359, 0.0002559280869996553, 0.03406553715467453, 0.9964808225631714, 0.13915753364562988, 0.3066595494747162, 0.21492037177085876, -0.9272373914718628, -0.007037907838821411, 0.030517280101776123, -0.03975784778594971, -0.106738273609088, 0.1580767336193307, 0.9814924835054949,-0.01706367007553422,0.3089752197265625,0.2507171630859375,-0.961029052734375
20220205-1812,2022-02-05 18:12:45Z,u01, 141,40,movements,el-ex, rt, d,14743.823720875002, 0.3448283656302482, -0.2141148371172583, 0.002659552401281969, 0.037434130907058716, 0.9654725193977356, 0.11820371448993683, 0.33031606674194336, 0.21248255670070648, -0.9196425676345825, 0.06528335809707642, 0.018108278512954712, -0.025639355182647705, -0.10549551498960512, 0.17043888960362358, 0.9795566362648216,-0.01702926484966838,0.395599365234375,0.2305908203125,-0.945281982421875
20220205-1812,2022-02-05 18:12:45Z,u01, 142,40,movements,el-ex, rt, d,14743.848665875, 0.3675569492118412, -0.2150370499881918, 0.00718206371246572, -0.28826358914375305, 0.793170154094696, 0.19063490629196167, 0.35106056928634644, 0.21338362991809845, -0.9117148518562317, 0.08146512508392334, -0.006337091326713562, -0.02692955732345581, -0.10615615134776589, 0.18131038582203823, 0.9775471142914367,-0.0161004188015883,0.4342041015625,0.202178955078125,-0.927459716796875
20220205-1812,2022-02-05 18:12:45Z,u01, 143,40,movements,el-ex, rt, d,14743.873611875, 0.3879834931439971, -0.2252482187489567, 0.016732933805794586, -0.7534458041191101, 0.6803056001663208, 0.16952961683273315, 0.368765652179718, 0.22334831953048706, -0.9022901058197021, 0.049615174531936646, -0.020711585879325867, 0.003593266010284424, -0.11187685345743019, 0.19062663239909672, 0.9751731633825547,-0.013507313155523226,0.4183807373046875,0.20263671875,-0.8986968994140625
20220205-1812,2022-02-05 18:12:45Z,u01, 144,40,movements,el-ex, rt, d,14743.898557875002, 0.40756399985934294, -0.24387315818899813, 0.02993017176176759, -0.9494893550872803, 0.6715033650398254, 0.21363423764705658, 0.38464534282684326, 0.24146297574043274, -0.8909229040145874, 0.019300639629364014, 0.022742971777915955, 0.014778494834899902, -0.1221104015135428, 0.19906682449061458, 0.9722963716940312,-0.01006691863120035,0.402557373046875,0.2805633544921875,-0.8745880126953125
20220205-1812,2022-02-05 18:12:45Z,u01, 145,40,movements,el-ex, rt, d,14743.923502875, 0.42921284486148975, -0.26121603439728824, 0.043860078825516145, -0.7222467064857483, 0.7926617860794067, 0.19816826283931732, 0.4020377993583679, 0.2582555115222931, -0.8784473538398743, 0.025711923837661743, 0.0383143424987793, -0.010789096355438232, -0.13184894029858504, 0.20830792921717728, 0.9691138503779562,-0.00648620671253286,0.4277496337890625,0.29656982421875,-0.8892364501953125
20220205-1812,2022-02-05 18:12:45Z,u01, 146,40,movements,el-ex, rt, d,14743.948448875, 0.4516827794896775, -0.2708333746643994, 0.053892072013867656, -0.263666033744812, 0.7930315136909485, 0.15168949961662292, 0.4205697178840637, 0.2675345242023468, -0.8669177889823914, 0.030388593673706055, 0.044446706771850586, -0.06170159578323364, -0.13750512803322787, 0.21825090807941855, 0.9661476566554268,-0.004201613134712512,0.4398345947265625,0.3181915283203125,-0.922943115234375
20220205-1812,2022-02-05 18:12:45Z,u01, 147,40,movements,el-ex, rt, d,14743.973394875002, 0.47280004489503463, -0.2697741885089731, 0.05606363474595851, 0.29017022252082825, 0.8826902508735657, 0.04920300841331482, 0.4389103353023529, 0.26651379466056824, -0.858095645904541, -0.06011080741882324, 0.07989123463630676, -0.06365722417831421, -0.13719154825593075, 0.2283213660206114, 0.9638609425902875,-0.004481948728762231,0.3787994384765625,0.346405029296875,-0.9217529296875
20220205-1812,2022-02-05 18:12:45Z,u01, 148,40,movements,el-ex, rt, d,14743.998339875001, 0.4967593384093253, -0.25667239051649193, 0.04964865633385908, 0.8190449476242065, 1.1574327945709229, 0.018375787883996964, 0.4609663784503937, 0.2538633644580841, -0.8503313064575195, -0.0286390483379364, 0.0923280417919159, -0.05570495128631592, -0.1300702533663296, 0.24065757481753397, 0.9618253191590226,-0.0075909518660677855,0.4697265625,0.3365020751953125,-0.8985595703125
20220205-1812,2022-02-05 18:12:45Z,u01, 149,40,movements,el-ex, rt, d,14744.023285875, 0.5213040165274169, -0.23845537284892754, 0.03977488023074288, 0.7078689932823181, 0.9082548022270203, 0.019324874505400658, 0.483919620513916, 0.23620198667049408, -0.8426330089569092, 0.12856826186180115, 0.007053673267364502, -0.06502074003219604, -0.11999345099250008, 0.25354498762655425, 0.9597825939547711,-0.011569420487106907,0.61248779296875,0.243255615234375,-0.90765380859375
20220205-1812,2022-02-05 18:12:45Z,u01, 150,40,movements,el-ex, rt, d,14744.048230875002, 0.5392850247559324, -0.22904075829507747, 0.03391166033265863, 0.17538917064666748, 0.7159265279769897, -0.0388333722949028, 0.5001118183135986, 0.22704343497753143, -0.8356671333312988, 0.05004394054412842, -0.0028460323810577393, -0.05442380905151367, -0.11461237278468878, 0.26273646741603035, 0.9579311258132834,-0.014200386541995902,0.5240478515625,0.2275390625,-0.879974365234375
20220205-1812,2022-02-05 18:12:45Z,u01, 151,40,movements,el-ex, rt, d,14744.073176875001, 0.5584355539686869, -0.229442544945401, 0.03212002149844009, -0.05482368916273117, 0.8618261814117432, -0.09738250076770782, 0.515974223613739, 0.22743470966815948, -0.8258596062660217, -0.017026960849761963, 0.03405517339706421, 0.002373337745666504, -0.11441925964794712, 0.2719897671546938, 0.9553361073966112,-0.016208353595240588,0.4989471435546875,0.2614898681640625,-0.823486328125
20220205-1812,2022-02-05 18:12:45Z,u01, 152,40,movements,el-ex, rt, d,14744.098122875, 0.5796263245554955, -0.2314234466193932, 0.030523824899406513, -0.023325052112340927, 0.8096569180488586, -0.09513965249061584, 0.5331098437309265, 0.22936324775218964, -0.8143625855445862, 0.06492793560028076, 0.021964281797409058, -0.013853907585144043, -0.11495816983223543, 0.28214061112170186, 0.9522817551094434,-0.018462635946087158,0.6115264892578125,0.2405853271484375,-0.8264312744140625
20220205-1812,2022-02-05 18:12:45Z,u01, 153,40,movements,el-ex, rt, d,14744.123067875002, 0.5974350025533217, -0.23427648367129575, 0.0300938511102847, -0.13954585790634155, 0.6636523604393005, -0.08244103193283081, 0.5471569299697876, 0.23213928937911987, -0.8041956424713135, 0.03517955541610718, -0.02129332721233368, 0.00011861324310302734, -0.11607996679713878, 0.2905642915660971, 0.9495754584437441,-0.02010900786547337,0.58233642578125,0.210845947265625,-0.8040771484375
20220205-1812,2022-02-05 18:12:45Z,u01, 154,40,movements,el-ex, rt, d,14744.148013875001, 0.6158835194425488, -0.23858469879575261, 0.030466359552492658, -0.1253860741853714, 0.8261524438858032, -0.08321887999773026, 0.5613162517547607, 0.2363276481628418, -0.7931414246559143, -0.02426779270172119, 0.01637318730354309, 0.025899052619934082, -0.11798232610880852, 0.29918129792219267, 0.9466265903336044,-0.021654493335920955,0.54345703125,0.2583160400390625,-0.7562255859375
20220205-1812,2022-02-05 18:12:45Z,u01, 155,40,movements,el-ex, rt, d,14744.172959875, 0.6372122433120324, -0.2409410430140832, 0.02892669846501898, 0.052118875086307526, 0.8957921266555786, -0.13173355162143707, 0.5777710676193237, 0.23861658573150635, -0.7805400490760803, 0.018466174602508545, 0.01570168137550354, 0.016135811805725098, -0.11861667034663627, 0.30928961297670876, 0.9432358394559468,-0.02400598335473203,0.5962371826171875,0.2543182373046875,-0.764404296875
20220205-1812,2022-02-05 18:12:45Z,u01, 156,40,movements,el-ex, rt, d,14744.197904875002, 0.6588051775684323, -0.24085705507118843, 0.025722605603333126, 0.07009390741586685, 0.8848018050193787, -0.03730977699160576, 0.5945014953613281, 0.23853503167629242, -0.7678991556167603, 0.03355032205581665, -0.005853742361068726, -0.01339656114578247, -0.11779922407460897, 0.3196463331697753, 0.939804594452287,-0.026777290036054946,0.6316680908203125,0.224456787109375,-0.7794036865234375
20220205-1812,2022-02-05 18:12:45Z,u01, 157,40,movements,el-ex, rt, d,14744.222852500001, 0.6796389918632932, -0.24169337528451407, 0.02499238898165618, -0.10546223074197769, 0.8117970824241638, -0.06141890585422516, 0.6102439761161804, 0.23934713006019592, -0.755192220211029, 0.02616971731185913, -0.005277261137962341, -0.008906841278076172, -0.11778476736680205, 0.32943990342343094, 0.9363678791310175,-0.028483767040253127,0.63641357421875,0.23406982421875,-0.76409912109375
20220205-1812,2022-02-05 18:12:45Z,u01, 158,40,movements,el-ex, rt, d,14744.2477975, 0.7010712634377023, -0.2450566504958902, 0.026074738457539666, -0.12016374617815018, 0.902759313583374, -0.06479859352111816, 0.625765323638916, 0.24261128902435303, -0.7413215637207031, 0.013364434242248535, 0.01160016655921936, 0.007816314697265625, -0.11922310552015696, 0.33930087444595314, 0.9326156523862625,-0.029815152295896263,0.6463165283203125,0.2599639892578125,-0.73333740234375
20220205-1812,2022-02-05 18:12:45Z,u01, 159,40,movements,el-ex, rt, d,14744.272743500002, 0.7238591526973852, -0.2474738991436409, 0.02519323140325476, 0.005380094982683659, 0.9193484783172607, -0.09511515498161316, 0.6421042680740356, 0.24495559930801392, -0.7264288663864136, 0.0642099380493164, 0.03128954768180847, -0.001644134521484375, -0.1198424466933169, 0.34989047246556804, 0.9285418899468412,-0.03200735638747265,0.7063140869140625,0.2762451171875,-0.7280731201171875
20220205-1812,2022-02-05 18:12:45Z,u01, 160,40,movements,el-ex, rt, d,14744.297689500001, 0.7453479065819866, -0.24876505728721193, 0.02396754108549022, -0.08044277131557465, 0.8215351700782776, -0.06339896470308304, 0.6573498249053955, 0.24620722234249115, -0.7122312188148499, 0.06758010387420654, -0.0001744776964187622, 0.01957380771636963, -0.11986733273491354, 0.35988360634044986, 0.9246368769450193,-0.034093949766667964,0.7202606201171875,0.2385711669921875,-0.6818084716796875
20220205-1812,2022-02-05 18:12:45Z,u01, 161,40,movements,el-ex, rt, d,14744.3226345, 0.7656569240942264, -0.2539415116789367, 0.0269826977473569, -0.3448333740234375, 0.7398492097854614, -0.04552110284566879, 0.6707857251167297, 0.2512210011482239, -0.6978069543838501, 0.005956888198852539, -0.030838310718536377, 0.03501105308532715, -0.1224515790612358, 0.3689202201564182, 0.9206990160645504,-0.03488411464070312,0.6767425537109375,0.2203826904296875,-0.6627960205078125
20220205-1812,2022-02-05 18:12:45Z,u01, 162,40,movements,el-ex, rt, d,14744.347580500002, 0.7873332711149684, -0.2606370208627678, 0.0321821737310881, -0.2536710202693939, 0.9152166247367859, -0.032691389322280884, 0.6845458149909973, 0.25769612193107605, -0.6819015741348267, -0.03363633155822754, 0.003885328769683838, -0.003736734390258789, -0.12611396493952115, 0.3783443748406061, 0.916361559061335,-0.03510575677979377,0.6646270751953125,0.269134521484375,-0.688934326171875
20220205-1812,2022-02-05 18:12:45Z,u01, 163,40,movements,el-ex, rt, d,14744.372526500001, 0.8118970256099758, -0.263833242592317, 0.03587226252321716, -0.16688492894172668, 0.9417895674705505, 0.031665097922086716, 0.7004864811897278, 0.26078304648399353, -0.6643124222755432, 0.05996584892272949, 0.0007373690605163574, -0.0023287534713745117, -0.12784576801098785, 0.3892290471164423, 0.9115311982546395,-0.03559889646033637,0.7604522705078125,0.2615203857421875,-0.6666412353515625
20220205-1812,2022-02-05 18:12:45Z,u01, 164,40,movements,el-ex, rt, d,14744.3974715, 0.8346411455981302, -0.2662131451233995, 0.03968228073412428, -0.1676550954580307, 0.8206303715705872, 0.019814029335975647, 0.7149512767791748, 0.2630798816680908, -0.6477914452552795, 0.052779555320739746, 0.005337506532669067, -0.024510741233825684, -0.12927044819958605, 0.399241064438777, 0.9069806819904933,-0.03580327326345589,0.7547149658203125,0.2708282470703125,-0.670440673828125
20220205-1812,2022-02-05 18:12:45Z,u01, 165,40,movements,el-ex, rt, d,14744.422417500002, 0.8564334300103152, -0.26825606470293495, 0.04140037051287618, 0.0072409119457006454, 0.923550009727478, -0.04026375338435173, 0.7284896373748779, 0.2650502920150757, -0.6317050457000732, -0.029911696910858154, 0.025675475597381592, -0.04587674140930176, -0.13014363333749665, 0.4089133464904633, 0.9024932939848558,-0.03685715497521008,0.698577880859375,0.2907257080078125,-0.677581787109375
20220205-1812,2022-02-05 18:12:45Z,u01, 167,40,movements,el-ex, rt, d,14744.4723085, 0.9023450532910725, -0.2665747072621708, 0.03877929551144274, -0.06606023013591766, 0.8683801889419556, 0.050580065697431564, 0.7570631504058838, 0.2634286880493164, -0.5978803634643555, 0.08589351177215576, -0.01503080129623413, -0.02533423900604248, -0.12795159339922813, 0.42975366086443223, 0.8929103257163256,-0.04063965739861658,0.7975006103515625,0.2729949951171875,-0.67608642578125
20220205-1812,2022-02-05 18:12:45Z,u01, 167,40,movements,el-ex, rt, d,14744.447362500001, 0.8797787856564291, -0.26742937172774656, 0.03914196001996194, 0.11224829405546188, 0.9496865272521973, -0.015300881117582321, 0.743205726146698, 0.26425305008888245, -0.6146669983863831, 0.036732017993927, 0.016203492879867554, -0.06648522615432739, -0.12886075180014211, 0.41959672479758237, 0.8976613461056715,-0.03921197142261412,0.84295654296875,0.2483978271484375,-0.6232147216796875
20220205-1812,2022-02-05 18:12:45Z,u01, 168,40,movements,el-ex, rt, d,14744.4972545, 0.9245817226396867, -0.26856756819876737, 0.04278107442243448, -0.2496790885925293, 0.8340170979499817, -0.0064148446545004845, 0.7697490453720093, 0.2653506398200989, -0.5805820226669312, 0.057964026927948, 0.004562109708786011, -0.021529674530029297, -0.12925370298687844, 0.4393204517247842, 0.8880498157727793,-0.04072559454113095,0.81951904296875,0.2691192626953125,-0.6007843017578125
20220205-1812,2022-02-05 18:12:45Z,u01, 169,40,movements,el-ex, rt, d,14744.522199500001, 0.9468145951877548, -0.2722716772964742, 0.046316054623623475, -0.10697034746408463, 0.8697901368141174, -0.0534309558570385, 0.7816627621650696, 0.2689201235771179, -0.5627481341362, 0.03002864122390747, 0.02378922700881958, -0.07462668418884277, -0.13121693560547143, 0.4487850787826583, 0.8829818382073724,-0.04144052775258933,0.8116912841796875,0.2927093505859375,-0.6373748779296875
20220205-1812,2022-02-05 18:12:45Z,u01, 170,40,movements,el-ex, rt, d,14744.5471455, 0.967527143274841, -0.27361711535208794, 0.047416913268454264, -0.09960074722766876, 0.7629054188728333, 0.000329410657286644, 0.7928515076637268, 0.2702157497406006, -0.5462325811386108, 0.04732799530029297, -0.015317648649215698, -0.07769918441772461, -0.1316215745232974, 0.4577766514022694, 0.8782366073855187,-0.04262557345922435,0.8426666259765625,0.2440338134765625,-0.6159515380859375
20220205-1812,2022-02-05 18:12:45Z,u01, 171,40,movements,el-ex, rt, d,14744.5720915, 0.9867724868325041, -0.2760999219632629, 0.052520233818386775, -0.3283795118331909, 0.6771758198738098, 0.045964740216732025, 0.8026542663574219, 0.27260535955429077, -0.5305020809173584, 0.0582924485206604, -0.045096784830093384, -0.05177319049835205, -0.13347504255956483, 0.4657610611130114, 0.8737656019967105,-0.0422465149531035,0.8609466552734375,0.227508544921875,-0.582275390625
20220205-1812,2022-02-05 18:12:45Z,u01, 172,40,movements,el-ex, rt, d,14744.597036500001, 1.0069539261212304, -0.28099423050727257, 0.06116733372099931, -0.3722550570964813, 0.7600408792495728, -0.005317622795701027, 0.8120590448379517, 0.2773110270500183, -0.5134772658348083, 0.026213109493255615, -0.007230430841445923, -0.056499481201171875, -0.1372091858135307, 0.4737457181660504, 0.8689400870317439,-0.04101134558045161,0.8350830078125,0.2743072509765625,-0.568572998046875
20220205-1812,2022-02-05 18:12:45Z,u01, 173,40,movements,el-ex, rt, d,14744.6219825, 1.0282066380407824, -0.28290362878449343, 0.06418645773821412, 0.21389688551425934, 0.848595917224884, 0.010810348205268383, 0.8223325610160828, 0.2791450321674347, -0.4958297908306122, 0.02843654155731201, 0.03817674517631531, -0.12787309288978577, -0.13831504917084572, 0.4826531411020745, 0.8638180921310349,-0.04163128828401297,0.85076904296875,0.31732177734375,-0.6237030029296875
20220205-1812,2022-02-05 18:12:45Z,u01, 174,40,movements,el-ex, rt, d,14744.646927500002, 1.0432448670555496, -0.27383735018744304, 0.048808152200578665, 1.072202205657959, 0.6394526958465576, 0.012653389014303684, 0.8318483233451843, 0.27042779326438904, -0.4846619665622711, 0.09071338176727295, 0.06583017110824585, -0.12184429168701172, -0.13034956584996088, 0.49058945172588353, 0.8603016557957623,-0.047033110243084764,0.93609619140625,0.3277435302734375,-0.5950164794921875
20220205-1812,2022-02-05 18:12:46Z,u01, 175,40,movements,el-ex, rt, d,14744.671873500001, 1.0513792305281024, -0.2613373155489093, 0.02698244885028791, 0.6960168480873108, 0.5372176170349121, -0.022446010261774063, 0.838632345199585, 0.2583726942539215, -0.4795199930667877, 0.055639564990997314, -0.03283253312110901, -0.02961990237236023, -0.11940601087399305, 0.49596593642796916, 0.8584082360735128,-0.0538086184008254,0.8942718505859375,0.2255401611328125,-0.5091400146484375
20220205-1812,2022-02-05 18:12:46Z,u01, 176,40,movements,el-ex, rt, d,14744.6968195, 1.06375874911466, -0.259186332278523, 0.01860790382158572, 0.033018115907907486, 0.6189721822738647, -0.12515588104724884, 0.8449880480766296, 0.2562941610813141, -0.46937045454978943, 0.006269335746765137, -0.0381697416305542, 0.003046691417694092, -0.11605228786600769, 0.5018432461611554, 0.8552012848570018,-0.05758572582327337,0.8468017578125,0.22613525390625,-0.4600372314453125
20220205-1812,2022-02-05 18:12:46Z,u01, 177,40,movements,el-ex, rt, d,14744.7217645, 1.0798086298020748, -0.2628155871153732, 0.018078307024230706, -0.05793416127562523, 0.677460789680481, -0.1381925791501999, 0.8515862822532654, 0.2598004937171936, -0.4553070068359375, -0.009163737297058105, -0.038517504930496216, -0.007583498954772949, -0.11699384891272693, 0.5085852237142849, 0.8509367428853274,-0.05966724176092619,0.8424224853515625,0.221282958984375,-0.462890625
20220205-1812,2022-02-05 18:12:46Z,u01, 178,40,movements,el-ex, rt, d,14744.746710500001, 1.0961226399901023, -0.2650839886543451, 0.01690033393677717, 0.06956636905670166, 0.6293008923530579, -0.04430343955755234, 0.8583741188049316, 0.26199033856391907, -0.44108375906944275, 0.013986170291900635, -0.05265498161315918, -0.04525947570800781, -0.11715858016264785, 0.5154919828209645, 0.8466016443246985,-0.06170516025594125,0.876556396484375,0.216400146484375,-0.490234375
20220205-1812,2022-02-05 18:12:46Z,u01, 179,40,movements,el-ex, rt, d,14744.771656500001, 1.1108658324084042, -0.2634447492169187, 0.013386336468393488, 0.2078692615032196, 0.6497675180435181, 0.0010011931881308556, 0.8651673197746277, 0.2604079842567444, -0.4285711944103241, -0.03444826602935791, -0.032594233751297, -0.03717273473739624, -0.11509375179851855, 0.5219845079919507, 0.8427564137696086,-0.06361874259706773,0.830718994140625,0.227813720703125,-0.4657440185546875
20220205-1812,2022-02-05 18:12:46Z,u01, 180,40,movements,el-ex, rt, d,14744.7966015, 1.1276653931482838, -0.2616218842684124, 0.008659671159453482, 0.17863939702510834, 0.7603120803833008, -0.021995600312948227, 0.8726720213890076, 0.2586475908756256, -0.4141797721385956, -0.03340810537338257, -0.0009571611881256104, 0.003825277090072632, -0.11254124720434464, 0.5293813151338334, 0.838285832262798,-0.06608102480023442,0.8582763671875,0.2553253173828125,-0.4068145751953125
20220205-1812,2022-02-05 18:12:46Z,u01, 181,40,movements,el-ex, rt, d,14744.821547500002, 1.1447865720211212, -0.26117062972807276, 0.005283670141012883, 0.07614168524742126, 0.6806010007858276, -0.030738428235054016, 0.8797412514686584, 0.2582116723060608, -0.3992268443107605, 0.05281490087509155, -0.01660400629043579, -0.07051488757133484, -0.11087759706404166, 0.5367427109173801, 0.8336334431862193,-0.06832800223041263,0.93255615234375,0.241607666015625,-0.4697418212890625
20220205-1812,2022-02-05 18:12:46Z,u01, 182,40,movements,el-ex, rt, d,14744.8464925, 1.15979527342618, -0.26105922928101816, 0.005196765514530059, -0.0944034606218338, 0.5347763895988464, 0.016834352165460587, 0.8856602311134338, 0.25810402631759644, -0.38599011301994324, 0.03130149841308594, -0.04094097018241882, -0.06701269745826721, -0.11029193965894146, 0.5429922972846147, 0.829585130403709,-0.06916389986681609,0.9072418212890625,0.218780517578125,-0.4481964111328125
20220205-1812,2022-02-05 18:12:46Z,u01, 183,40,movements,el-ex, rt, d,14744.8714385, 1.174392994135359, -0.263173134787556, 0.011161307423026023, -0.41894108057022095, 0.5260688662528992, 0.0019301706925034523, 0.8906949162483215, 0.26014572381973267, -0.3728093206882477, -0.014031648635864258, -0.032881319522857666, -0.053551673889160156, -0.11229298734137044, 0.548621571173557, 0.8256930499823054,-0.06808578414267874,0.8766632080078125,0.227264404296875,-0.426361083984375
20220205-1812,2022-02-05 18:12:46Z,u01, 184,40,movements,el-ex, rt, d,14744.896384500002, 1.1917264670829866, -0.26924364309445875, 0.025293743306388155, -0.7471626400947571, 0.5684069991111755, -0.03361663967370987, 0.8955392241477966, 0.2660024166107178, -0.35672423243522644, 0.0014792084693908691, -0.02454736828804016, -0.021937698125839233, -0.11810986853118241, 0.5546962562618791, 0.8210627330045308,-0.06494651980683519,0.9070587158203125,0.244659423828125,-0.373992919921875
20220205-1812,2022-02-05 18:12:46Z,u01, 185,40,movements,el-ex, rt, d,14744.9213295, 1.2111253622676605, -0.2763670032686884, 0.04239088108349232, -0.5871258974075317, 0.5941248536109924, -0.011641298420727253, 0.9004940390586853, 0.2728623151779175, -0.33861029148101807, 0.06351065635681152, 0.010905444622039795, -0.05596664547920227, -0.12517438454885, 0.5612719723167936, 0.8158237620123939,-0.06113065499610715,0.9640045166015625,0.2837677001953125,-0.3945770263671875
20220205-1812,2022-02-05 18:12:46Z,u01, 186,40,movements,el-ex, rt, d,14744.9462755, 1.2264123509093159, -0.27800272087617206, 0.04850958364276346, 0.11819019913673401, 0.509997546672821, 0.03897247463464737, 0.9051435589790344, 0.2744356095790863, -0.3246542811393738, 0.03897881507873535, 0.052712827920913696, -0.08228227496147156, -0.12709972008705994, 0.567026037548442, 0.8116148680227226,-0.060070925379729634,0.9278106689453125,0.3285064697265625,-0.40283203125
20220205-1812,2022-02-05 18:12:46Z,u01, 187,40,movements,el-ex, rt, d,14744.971220500001, 1.237521895838506, -0.27445307353968873, 0.04100143834337066, 0.40747666358947754, 0.5611136555671692, 0.018991712480783463, 0.9096091985702515, 0.2710205316543579, -0.3148953914642334, -0.032427072525024414, 0.022238194942474365, -0.04403698444366455, -0.12318885100529497, 0.5721685111362036, 0.808396899846378,-0.062787053697405,0.8771820068359375,0.2932586669921875,-0.3589324951171875
20220205-1812,2022-02-05 18:12:46Z,u01, 188,40,movements,el-ex, rt, d,14744.996166500001, 1.250001743832388, -0.2724345356034661, 0.033459393007519635, 0.1655406355857849, 0.5779294371604919, -0.037093061953783035, 0.9139853119850159, 0.26907697319984436, -0.30369123816490173, 0.01930326223373413, 0.0024684369564056396, -0.018406420946121216, -0.11980778235712236, 0.5777546804321197, 0.8046671825763491,-0.06600223217697138,0.951080322265625,0.2671051025390625,-0.3153228759765625
20220205-1812,2022-02-05 18:12:46Z,u01, 189,40,movements,el-ex, rt, d,14745.0211125, 1.2641358110872005, -0.27440043545804466, 0.033483004854626144, -0.18682973086833954, 0.562052309513092, -0.1008673831820488, 0.9176802635192871, 0.27096983790397644, -0.2905827760696411, 0.032316744327545166, -0.0036205947399139404, -0.006032675504684448, -0.12012945705634293, 0.5833331131482283, 0.8004665237719816,-0.067414854911022,0.9499969482421875,0.2673492431640625,-0.2966156005859375
20220205-1812,2022-02-05 18:12:46Z,u01, 190,40,movements,el-ex, rt, d,14745.046057500002, 1.2786944567004075, -0.27963395041884126, 0.039078326425148045, -0.34691426157951355, 0.4985145032405853, -0.1661839336156845, 0.9204426407814026, 0.2760038375854492, -0.2767800986766815, 0.019681870937347412, 0.014172583818435669, -0.009932368993759155, -0.12335849061839488, 0.5885512961074082, 0.7961273335499983,-0.06761152700653289,0.934356689453125,0.2946929931640625,-0.28167724609375
20220205-1812,2022-02-05 18:12:46Z,u01, 191,40,movements,el-ex, rt, d,14745.071003500001, 1.2924711549579493, -0.2856598424453851, 0.04675438179689557, -0.3305469751358032, 0.4473067820072174, -0.13136783242225647, 0.9225524067878723, 0.2817906141281128, -0.2636118531227112, -0.005514383316040039, 0.031609684228897095, 0.006806552410125732, -0.12754359087730854, 0.593234103009046, 0.7920145807093419,-0.06722291236111805,0.9170379638671875,0.3134002685546875,-0.256805419921875
20220205-1812,2022-02-05 18:12:46Z,u01, 192,40,movements,el-ex, rt, d,14745.0959495, 1.3059695570221748, -0.29098234307646426, 0.052534631105504936, -0.21873073279857635, 0.5223085284233093, -0.16112925112247467, 0.9245659112930298, 0.28689339756965637, -0.25073909759521484, 0.0005134940147399902, 0.027452915906906128, 0.0007545053958892822, -0.13090140057733468, 0.5979090835776094, 0.7879245992042541,-0.06741204161490727,0.9323883056640625,0.317352294921875,-0.2467803955078125
20220205-1812,2022-02-05 18:12:46Z,u01, 193,40,movements,el-ex, rt, d,14745.120894500002, 1.319932512647696, -0.29657682506778354, 0.0569739170090767, -0.21227839589118958, 0.4929724931716919, -0.1862662434577942, 0.9264074563980103, 0.2922481894493103, -0.2374032586812973, 0.03187507390975952, 0.05144083499908447, -0.0009083747863769531, -0.13394459861452818, 0.6027911845598616, 0.7836059104209071,-0.06828951839306263,0.958282470703125,0.34368896484375,-0.238311767578125
20220205-1812,2022-02-05 18:12:46Z,u01, 194,40,movements,el-ex, rt, d,14745.1707855, 1.345721360928189, -0.30877194783028544, 0.06231926902598018, -0.11166619509458542, 0.5154556632041931, -0.24385875463485718, 0.9286777377128601, 0.30388888716697693, -0.21262472867965698, 0.014880061149597168, 0.012425839900970459, -0.008581817150115967, -0.13938429555043177, 0.6117676487923288, 0.7753511476342454,-0.07171459992867074,0.9423065185546875,0.326629638671875,-0.234832763671875
20220205-1812,2022-02-05 18:12:46Z,u01, 195,40,movements,el-ex, rt, d,14745.145840500001, 1.3329542029352497, -0.30231765069473315, 0.060200051869695036, -0.14783695340156555, 0.46622559428215027, -0.2008931189775467, 0.9277744293212891, 0.2977335453033447, -0.2249210923910141, 0.019475996494293213, 0.03483176231384277, -0.013695776462554932, -0.13669945523474158, 0.6073324545985305, 0.779491643732806,-0.06966644093014951,0.9435577392578125,0.316314697265625,-0.2212066650390625
20220205-1812,2022-02-05 18:12:46Z,u01, 196,40,movements,el-ex, rt, d,14745.195731500002, 1.3583666257976579, -0.3144741409093828, 0.06301725837966878, -0.03281349688768387, 0.46232128143310547, -0.19848760962486267, 0.9295830130577087, 0.3093164563179016, -0.20049603283405304, 0.035718441009521484, 0.005624949932098389, -0.023243457078933716, -0.14132497367609545, 0.6162623092182616, 0.7712045567008936,-0.07410441526240791,0.964141845703125,0.3168182373046875,-0.226226806640625
20220205-1812,2022-02-05 18:12:46Z,u01, 197,40,movements,el-ex, rt, d,14745.220677166668, 1.3692549516115178, -0.31903917416323707, 0.061758981733751835, 0.05638296157121658, 0.44893863797187805, -0.17890140414237976, 0.9303178787231445, 0.313654363155365, -0.19007812440395355, 0.0013533234596252441, -0.009577184915542603, -0.04194687306880951, -0.14226723237447678, 0.6202587918547959, 0.7675562404014561,-0.0767890458494152,0.931671142578125,0.3040771484375,-0.232025146484375
20220205-1812,2022-02-05 18:12:46Z,u01, 198,40,movements,el-ex, rt, d,14745.245622166667, 1.3793947559938005, -0.3234484152797286, 0.05822329249564888, 0.1307053565979004, 0.47462233901023865, -0.20739755034446716, 0.9308305978775024, 0.31783804297447205, -0.18037043511867523, -0.012098848819732666, -0.015652954578399658, -0.04915213584899902, -0.1424440799567839, 0.6241189509614452, 0.76403195596538,-0.0802526373385381,0.924041748046875,0.306243896484375,-0.229949951171875
20220205-1812,2022-02-05 18:12:46Z,u01, 199,40,movements,el-ex, rt, d,14745.270568166668, 1.3890482937734463, -0.32736747274198236, 0.053252899065783725, 0.180784672498703, 0.4366827607154846, -0.187965989112854, 0.9312960505485535, 0.3215514123439789, -0.17114989459514618, 0.023141145706176758, -0.009295552968978882, -0.05673997104167938, -0.1419742221022755, 0.6279079361547488, 0.7605961608485575,-0.08407389328421061,0.954437255859375,0.312255859375,-0.2278900146484375
20220205-1812,2022-02-05 18:12:46Z,u01, 200,40,movements,el-ex, rt, d,14745.295514166668, 1.3985826131881807, -0.33083817747233296, 0.04828840506418431, 0.1529918909072876, 0.4071442186832428, -0.1617797315120697, 0.9317803382873535, 0.324835866689682, -0.16207073628902435, 0.01882690191268921, -0.013114064931869507, -0.05439029633998871, -0.14130910232011054, 0.6316615926368332, 0.7571905633863412,-0.08773687489685172,0.95086669921875,0.3060150146484375,-0.212432861328125
20220205-1812,2022-02-05 18:12:46Z,u01, 201,40,movements,el-ex, rt, d,14745.320459166667, 1.4073265977964668, -0.3337060475850831, 0.043718389172857024, 0.1437705010175705, 0.40327826142311096, -0.13232183456420898, 0.9322389364242554, 0.3275468647480011, -0.15376494824886322, 0.002255082130432129, -0.0356920063495636, -0.04028098285198212, -0.14054757475204976, 0.6351093672396697, 0.7540571335914991,-0.09099619391832342,0.9344940185546875,0.2918548583984375,-0.1940460205078125
20220205-1812,2022-02-05 18:12:46Z,u01, 202,40,movements,el-ex, rt, d,14745.345405166667, 1.4156539342182741, -0.3360473073557691, 0.03925989795246132, 0.13852562010288239, 0.3967569172382355, -0.11976484209299088, 0.9327268600463867, 0.32975807785987854, -0.14587774872779846, 0.004635870456695557, -0.028717398643493652, -0.04525373876094818, -0.13961864915778954, 0.6384103388656771, 0.751066775046321,-0.09400867500541704,0.9384765625,0.30548095703125,-0.186798095703125
20220205-1812,2022-02-05 18:12:46Z,u01, 203,40,movements,el-ex, rt, d,14745.370350166668, 1.4245399407921524, -0.3385207788762351, 0.03625330341404995, 0.059364430606365204, 0.375456303358078, -0.11583014577627182, 0.933176577091217, 0.33209219574928284, -0.13746459782123566, 0.022466301918029785, -0.012588351964950562, -0.02987845242023468, -0.13915487608393762, 0.6417971803778776, 0.7479372348803479,-0.0965522773357167,0.9556427001953125,0.3195037841796875,-0.1673431396484375
20220205-1812,2022-02-05 18:12:46Z,u01, 204,40,movements,el-ex, rt, d,14745.395296166667, 1.432718965206537, -0.34089239503296154, 0.03524545827470191, -0.002090004738420248, 0.3122405409812927, -0.08001463115215302, 0.9334867596626282, 0.3343282639980316, -0.1297188252210617, 0.03309643268585205, -0.015175461769104004, -0.026378437876701355, -0.13931290567932814, 0.6447732198024605, 0.7451195399731164,-0.09826612562726139,0.964508056640625,0.318267822265625,-0.1531829833984375
20220205-1812,2022-02-05 18:12:46Z,u01, 205,40,movements,el-ex, rt, d,14745.420242166667, 1.4407273902382387, -0.3425332065477404, 0.035354121318176286, -0.023284539580345154, 0.3222273588180542, -0.062300413846969604, 0.9339504837989807, 0.33587419986724854, -0.12216766923666, 0.013482928276062012, -0.0018898248672485352, -0.03342609107494354, -0.13955939386712565, 0.6476413685127338, 0.74244175225341,-0.09931790668810714,0.9474334716796875,0.333984375,-0.1555938720703125
20220205-1812,2022-02-05 18:12:46Z,u01, 206,40,movements,el-ex, rt, d,14745.445187166668, 1.4484408457586755, -0.3453446977291456, 0.03565385117953852, -0.039734385907649994, 0.2780348062515259, -0.15508580207824707, 0.9339243173599243, 0.3385210335254669, -0.1148444414138794, 0.02547222375869751, 0.0074262917041778564, -0.03130413591861725, -0.14030718436856696, 0.6503012186301771, 0.7397897965118784,-0.10066519423921155,0.9629974365234375,0.3450164794921875,-0.1408843994140625
20220205-1812,2022-02-05 18:12:46Z,u01, 207,40,movements,el-ex, rt, d,14745.470133166667, 1.4557738230293393, -0.3486696589703599, 0.03668860997792619, -0.06881926953792572, 0.2692117989063263, -0.1434842199087143, 0.933617889881134, 0.34164780378341675, -0.1078631728887558, 0.029181182384490967, -0.021091192960739136, -0.00128280371427536, -0.14149382712161157, 0.6527234570657399, 0.737258385217399,-0.10189062143155025,0.962799072265625,0.320556640625,-0.1091461181640625
20220205-1812,2022-02-05 18:12:46Z,u01, 208,40,movements,el-ex, rt, d,14745.495079166667, 1.4626221867111524, -0.35345643417482503, 0.038524291421679215, -0.09124238789081573, 0.2306506335735321, -0.20199085772037506, 0.9326983094215393, 0.34614261984825134, -0.10128922760486603, 0.03100121021270752, -0.03176572918891907, -0.012327626347541809, -0.14349377486310308, 0.6548014374516771, 0.734832071115309,-0.10327938315736523,0.967254638671875,0.3200531005859375,-0.1221923828125
20220205-1812,2022-02-05 18:12:46Z,u01, 209,40,movements,el-ex, rt, d,14745.520024166668, 1.4679226919517572, -0.35846626474094057, 0.039114229035405075, 0.01928921975195408, 0.1712624728679657, -0.17863939702510834, 0.9314852952957153, 0.35083839297294617, -0.0961647555232048, 0.03816503286361694, -0.01342076063156128, -0.04217129945755005, -0.14523769640945774, 0.6563715662864404, 0.732827631123512,-0.10510053650479956,0.9696502685546875,0.3374176025390625,-0.138336181640625
20220205-1812,2022-02-05 18:12:46Z,u01, 210,40,movements,el-ex, rt, d,14745.544970166668, 1.4710257484895004, -0.36170228191684733, 0.036313760289025464, 0.12795650959014893, 0.16205233335494995, -0.1116381362080574, 0.9306447505950928, 0.3538668751716614, -0.09316027909517288, 0.018177330493927002, -0.0260317325592041, -0.054514169692993164, -0.14533026244743846, 0.6574944670606669, 0.7314648075408655,-0.1074221491707415,0.941741943359375,0.32208251953125,-0.1480865478515625
20220205-1812,2022-02-05 18:12:46Z,u01, 211,40,movements,el-ex, rt, d,14745.569915166667, 1.4740464104023194, -0.36347048367989654, 0.03284090556645142, 0.10984688252210617, 0.1803296059370041, -0.05817411467432976, 0.9302976131439209, 0.3555201292037964, -0.09028811007738113, -0.004699409008026123, -0.05708873271942139, -0.06632798910140991, -0.14466610585872175, 0.6587318602337172, 0.730174464207792,-0.10949609090500045,0.92559814453125,0.298431396484375,-0.1566162109375
20220205-1812,2022-02-05 18:12:46Z,u01, 212,40,movements,el-ex, rt, d,14745.594861166668, 1.4781967341129016, -0.364094852283447, 0.030579870379867025, 0.061894237995147705, 0.19901692867279053, -0.008364545181393623, 0.9304430484771729, 0.3561036288738251, -0.08640575408935547, -0.0041735172271728516, -0.054574668407440186, -0.06235206127166748, -0.1439183757274731, 0.6603670360783171, 0.7286427108697799,-0.11082736532492321,0.927764892578125,0.300506591796875,-0.14276123046875
20220205-1812,2022-02-05 18:12:46Z,u01, 213,40,movements,el-ex, rt, d,14745.619807166668, 1.4807280837390324, -0.36328372206613224, 0.02866504181396303, 0.05275203660130501, 0.14686591923236847, -0.0031622587703168392, 0.9309461712837219, 0.35534554719924927, -0.0840761587023735, 0.015876948833465576, -0.04197576642036438, -0.06556665152311325, -0.14285107398635757, 0.6614797728126413, 0.7277500012357885,-0.11143637422317443,0.9468231201171875,0.3133697509765625,-0.1496429443359375
20220205-1812,2022-02-05 18:12:46Z,u01, 214,40,movements,el-ex, rt, d,14745.644752166667, 1.4796439579370588, -0.3612230898531209, 0.02570038516384928, 0.10059818625450134, 0.07503953576087952, 0.013939362950623035, 0.9315817356109619, 0.35341864824295044, -0.08515184372663498, 0.021405935287475586, -0.02713996171951294, -0.07245605438947678, -0.1411844952622627, 0.6614310358669333, 0.7280708727587385,-0.11175316096353588,0.9480743408203125,0.32525634765625,-0.159454345703125
20220205-1812,2022-02-05 18:12:46Z,u01, 215,40,movements,el-ex, rt, d,14745.669698166668, 1.4762614823427553, -0.3574840082529151, 0.020773896651745113, 0.1497688889503479, 0.10912980139255524, 0.020588677376508713, 0.9325973987579346, 0.3499184250831604, -0.08842652291059494, -0.0023148059844970703, -0.026630401611328125, -0.06168931722640991, -0.13838835753084702, 0.66078392781742, 0.7291458524797851,-0.11206977954862407,0.9302825927734375,0.3232879638671875,-0.150115966796875
20220205-1812,2022-02-05 18:12:47Z,u01, 216,40,movements,el-ex, rt, d,14745.694644166668, 1.4754104147502765, -0.35471865696240656, 0.016323595689173465, 0.11040464788675308, 0.10081687569618225, 0.028581757098436356, 0.9334815740585327, 0.3473265469074249, -0.08931202441453934, 0.019353628158569336, -0.029653728008270264, -0.037518925964832306, -0.1359603935561994, 0.6609529178485348, 0.7293497254634628,-0.11271695435441931,0.96014404296875,0.315582275390625,-0.1227569580078125
20220205-1812,2022-02-05 18:12:47Z,u01, 217,40,movements,el-ex, rt, d,14745.719589166667, 1.4725821599759938, -0.3516367907443872, 0.012817058527717307, 0.07915707677602768, 0.026004083454608917, 0.05599920079112053, 0.9342860579490662, 0.344434916973114, -0.09205631166696548, 0.05068409442901611, -0.016615062952041626, -0.03335559368133545, -0.13383959439737658, 0.6603474897039306, 0.7302793140049991,-0.1127848079692591,0.9849700927734375,0.32781982421875,-0.1254119873046875
20220205-1812,2022-02-05 18:12:47Z,u01, 218,40,movements,el-ex, rt, d,14745.744535166668, 1.4697229653979598, -0.3491864067246325, 0.009778471986313686, 0.08224611729383469, -0.0032903552055358887, 0.07127302885055542, 0.9348558187484741, 0.34213343262672424, -0.09481210261583328, 0.03493177890777588, -0.03077787160873413, -0.04709451645612717, -0.13210449563716098, 0.6596532064212677, 0.7312050744360356,-0.11289452559952179,0.9658050537109375,0.3154449462890625,-0.146759033203125
20220205-1812,2022-02-05 18:12:47Z,u01, 219,40,movements,el-ex, rt, d,14745.769480166668, 1.4674534669473878, -0.3464618513606242, 0.008698976150478877, -0.05014091730117798, -0.07136361300945282, 0.08504962176084518, 0.935562014579773, 0.3395720422267914, -0.09702931344509125, 0.041305720806121826, -0.034808218479156494, -0.061417870223522186, -0.13088111518660342, 0.6590565046510042, 0.732063395185315,-0.11224036154838246,0.97686767578125,0.3047637939453125,-0.158447265625
20220205-1812,2022-02-05 18:12:47Z,u01, 220,40,movements,el-ex, rt, d,14745.794426166667, 1.4657286688803626, -0.3445634036761584, 0.012906365533262819, -0.23538893461227417, -0.15077562630176544, 0.0722600594162941, 0.9360325932502747, 0.3377857804298401, -0.09871024638414383, 0.029574096202850342, -0.020189344882965088, -0.05291622132062912, -0.13166839718669082, 0.6582615815713241, 0.7329829268763799,-0.10995963056606017,0.96124267578125,0.3187713623046875,-0.150848388671875
20220205-1812,2022-02-05 18:12:47Z,u01, 221,40,movements,el-ex, rt, d,14745.819372166667, 1.4634455294420887, -0.34312992734201536, 0.019678245480541312, -0.24868640303611755, -0.16376711428165436, 0.05839744210243225, 0.9362853765487671, 0.3364362120628357, -0.1008988693356514, 0.0030609965324401855, -0.014750391244888306, -0.04634832590818405, -0.13349449829766322, 0.6570614757398704, 0.7341881912670417,-0.1068515231228101,0.9393463134765625,0.321685791015625,-0.147247314453125
20220205-1812,2022-02-05 18:12:47Z,u01, 222,40,movements,el-ex, rt, d,14745.844317166668, 1.4601212139287214, -0.3418240881435651, 0.024358573949471014, -0.08682556450366974, -0.1901525855064392, 0.06349000334739685, 0.9363805055618286, 0.33520621061325073, -0.10405924171209335, 0.010915637016296387, -0.009965121746063232, -0.05574595183134079, -0.13472786819529817, 0.6556056601281068, 0.7356044206011119,-0.10447848567811002,0.947662353515625,0.323211669921875,-0.166778564453125
20220205-1812,2022-02-05 18:12:47Z,u01, 223,40,movements,el-ex, rt, d,14745.869263166667, 1.4541414175642524, -0.3391469779723352, 0.024326783460785113, 0.05663985759019852, -0.22622349858283997, 0.09812121838331223, 0.936629593372345, 0.3326827883720398, -0.10976078361272812, 0.010895490646362305, -0.0073806047439575195, -0.06629502773284912, -0.13404555326570977, 0.653568205386407, 0.7377185338671378,-0.10320805177377085,0.9475250244140625,0.3253021240234375,-0.176055908203125
20220205-1812,2022-02-05 18:12:47Z,u01, 224,40,movements,el-ex, rt, d,14745.894208166668, 1.4465743741163999, -0.33596408990150106, 0.023231695650173922, 0.009326267056167126, -0.301238089799881, 0.12739256024360657, 0.9368181228637695, 0.3296795189380646, -0.11697567999362946, 0.006510794162750244, -0.023084640502929688, -0.05085563659667969, -0.13290482356247188, 0.6510364557596896, 0.7403179346112931,-0.10206484080100958,0.93670654296875,0.305023193359375,-0.1646881103515625
20220205-1812,2022-02-05 18:12:47Z,u01, 225,40,movements,el-ex, rt, d,14745.919154166668, 1.4380883817572152, -0.3327217175975616, 0.024188767262810322, -0.06599312275648117, -0.3114875257015228, 0.12268807739019394, 0.9368463754653931, 0.32661667466163635, -0.1250619888305664, -0.003634035587310791, -0.01060718297958374, -0.04211317002773285, -0.1324461135655503, 0.6480177706656214, 0.7433123245684317,-0.10008909775309133,0.9332122802734375,0.316009521484375,-0.16717529296875
20220205-1812,2022-02-05 18:12:47Z,u01, 226,40,movements,el-ex, rt, d,14745.944100166667, 1.4307491880198178, -0.32994807073824634, 0.02611329479756321, -0.04268856346607208, -0.35067296028137207, 0.12318189442157745, 0.9367967247962952, 0.32399389147758484, -0.1320601999759674, 0.025559842586517334, 0.0017049312591552734, -0.050968870520591736, -0.13240292045720303, 0.6453211319836005, 0.7459416736870461,-0.09798546974198913,0.9675140380859375,0.3270111083984375,-0.1833648681640625
20220205-1812,2022-02-05 18:12:47Z,u01, 227,40,movements,el-ex, rt, d,14745.969045166668, 1.4221364253234228, -0.3271118037380972, 0.027899352086917118, -0.05730871856212616, -0.40120309591293335, 0.13222026824951172, 0.9365296959877014, 0.32130932807922363, -0.14025917649269104, 0.01882314682006836, 0.006830960512161255, -0.05270332098007202, -0.1323392235584746, 0.6421500954047032, 0.7489634537414306,-0.0958302752738257,0.955352783203125,0.3281402587890625,-0.192962646484375
20220205-1812,2022-02-05 18:12:47Z,u01, 228,40,movements,el-ex, rt, d,14745.993991166668, 1.4129180675495179, -0.3241014974825499, 0.030474963400542166, -0.0882592424750328, -0.4134814739227295, 0.1429244428873062, 0.936147928237915, 0.3184571862220764, -0.14903774857521057, 0.008844196796417236, -0.0022492706775665283, -0.043253421783447266, -0.1324746815908152, 0.6386952209108188, 0.7522081123405318,-0.09328403146930198,0.9467926025390625,0.31427001953125,-0.19091796875
20220205-1812,2022-02-05 18:12:47Z,u01, 229,40,movements,el-ex, rt, d,14746.018937166667, 1.4033057848804367, -0.32121036852923357, 0.03354637582904709, -0.07787777483463287, -0.4683283567428589, 0.13773034512996674, 0.9355760812759399, 0.3157152533531189, -0.1581820845603943, 0.03283834457397461, 0.006382584571838379, -0.03893083333969116, -0.13280952797782689, 0.6350358951438105, 0.7555723988307763,-0.0905624612638064,0.968414306640625,0.3220977783203125,-0.197113037109375
20220205-1812,2022-02-05 18:12:47Z,u01, 230,40,movements,el-ex, rt, d,14746.043882166667, 1.3921344454255042, -0.3184226506142115, 0.03540225446694523, -0.02806917391717434, -0.48088109493255615, 0.1148727685213089, 0.9346131086349487, 0.3130688965320587, -0.1687793880701065, 0.028857409954071045, 0.015208721160888672, -0.03939616680145264, -0.13284532186546538, 0.6308426310092026, 0.7593454010973606,-0.08822955211345096,0.96014404296875,0.327667236328125,-0.2093658447265625
20220205-1812,2022-02-05 18:12:47Z,u01, 231,40,movements,el-ex, rt, d,14746.068828166668, 1.380764879146196, -0.3153239855204176, 0.036940482835423345, -0.03600369766354561, -0.5319576859474182, 0.12128905206918716, 0.9335818290710449, 0.3101244866847992, -0.17957675457000732, 0.031109392642974854, 0.012507319450378418, -0.02963636815547943, -0.13265006441955282, 0.6265904458034248, 0.7631566705141498,-0.08590853637401474,0.964691162109375,0.3226318359375,-0.2092132568359375
20220205-1812,2022-02-05 18:12:47Z,u01, 232,40,movements,el-ex, rt, d,14746.093774166668, 1.3687443073117327, -0.3129718283361711, 0.03852966230307857, -0.022481929510831833, -0.46833372116088867, 0.10698461532592773, 0.9320677518844604, 0.307887464761734, -0.1909315288066864, 0.02655029296875, 0.016239702701568604, -0.016145378351211548, -0.1327605707002517, 0.6220199870124763, 0.7671045345019878,-0.08376337389907629,0.9675445556640625,0.3237152099609375,-0.2093963623046875
20220205-1812,2022-02-05 18:12:47Z,u01, 233,40,movements,el-ex, rt, d,14746.118719166667, 1.3574303665674297, -0.3102827244941823, 0.03892445317016651, 0.04546809196472168, -0.47980156540870667, 0.12526535987854004, 0.9306538701057434, 0.3053278625011444, -0.2016390562057495, 0.09781903028488159, 0.02478078007698059, -0.032781586050987244, -0.1323230622880089, 0.6177953383129952, 0.770773585814545,-0.0820220092141769,1.028472900390625,0.330108642578125,-0.2344207763671875
20220205-1812,2022-02-05 18:12:47Z,u01, 234,40,movements,el-ex, rt, d,14746.143665166668, 1.344237317342839, -0.3071604864324077, 0.03785372008603655, 0.06362725049257278, -0.5419557690620422, 0.1068786233663559, 0.9288371801376343, 0.30235323309898376, -0.21411241590976715, 0.079326331615448, 0.020049750804901123, -0.027403593063354492, -0.13132918884387845, 0.6129408107533681, 0.7749581663575077,-0.08059831363954878,0.9964141845703125,0.318389892578125,-0.2357940673828125
20220205-1812,2022-02-05 18:12:47Z,u01, 235,40,movements,el-ex, rt, d,14746.168610166667, 1.3305351971144785, -0.3046480585034268, 0.03741635347424845, 0.018359310925006866, -0.5634419918060303, 0.09518001973628998, 0.9265511631965637, 0.2999574542045593, -0.22699899971485138, 0.046776533126831055, -0.003189265727996826, 0.0007570385932922363, -0.1307709981192051, 0.6077824001934654, 0.7792580125303308,-0.07909801442264519,0.97332763671875,0.2967681884765625,-0.2262420654296875
20220205-1812,2022-02-05 18:12:47Z,u01, 236,40,movements,el-ex, rt, d,14746.193556166667, 1.3170161943247678, -0.30197899811967616, 0.03770927649925419, 0.0372348316013813, -0.5564334392547607, 0.11907836049795151, 0.9241694808006287, 0.297410249710083, -0.23970407247543335, 0.05755054950714111, 0.0010974705219268799, -0.0059928297996521, -0.1303500491885341, 0.6026249462898021, 0.7835041578120276,-0.07728739525598005,0.986907958984375,0.30267333984375,-0.2527008056640625
20220205-1812,2022-02-05 18:12:47Z,u01, 237,40,movements,el-ex, rt, d,14746.218502166668, 1.302752268890964, -0.29841152794824083, 0.03731275066346468, 0.059818439185619354, -0.5786857604980469, 0.1510796993970871, 0.921673595905304, 0.2940022945404053, -0.2531408965587616, 0.041720569133758545, 0.013584375381469727, -0.004015296697616577, -0.12938026901355565, 0.5972355476067264, 0.7879589721708459,-0.07543893019325221,0.9633941650390625,0.307586669921875,-0.2571563720703125
20220205-1812,2022-02-05 18:12:47Z,u01, 238,40,movements,el-ex, rt, d,14746.243447875, 1.288413102444373, -0.294128358492777, 0.03801535514539132, -0.011823225766420364, -0.6674318313598633, 0.12766100466251373, 0.9191501140594482, 0.28990575671195984, -0.26667889952659607, 0.016595125198364258, 0.007671177387237549, 0.013825654983520508, -0.1284359225169766, 0.591747212039326, 0.7924752855551022,-0.07295443123407996,0.927001953125,0.30029296875,-0.2662200927734375
20220205-1812,2022-02-05 18:12:47Z,u01, 239,40,movements,el-ex, rt, d,14746.268393875001, 1.2732221554894487, -0.2915271593385277, 0.039273185975899745, 0.005100829526782036, -0.6091944575309753, 0.12833571434020996, 0.9157111644744873, 0.2874152958393097, -0.2808305621147156, -0.0063481926918029785, 0.010710984468460083, 0.0026781857013702393, -0.12832243938519725, 0.5857628144295248, 0.7971297584061384,-0.07070781032616669,0.90936279296875,0.298126220703125,-0.2781524658203125
20220205-1812,2022-02-05 18:12:47Z,u01, 240,40,movements,el-ex, rt, d,14746.293338875, 1.2579295336766525, -0.2883438484929566, 0.03983493803054726, 0.02295059710741043, -0.6296625733375549, 0.13147278130054474, 0.9121754765510559, 0.28436484932899475, -0.29508090019226074, 0.015162229537963867, 0.024930834770202637, 0.008200526237487793, -0.12775151928218226, 0.5797750449703047, 0.8017722949894275,-0.06856933539552434,0.9271392822265625,0.3106842041015625,-0.2922515869140625
20220205-1812,2022-02-05 18:12:47Z,u01, 241,40,movements,el-ex, rt, d,14746.318284875, 1.2423732572748252, -0.28542802395002337, 0.03976813029912293, 0.0744921863079071, -0.6358875036239624, 0.08838649839162827, 0.9082558155059814, 0.28156816959381104, -0.3095007538795471, 0.0034263134002685547, 0.038011908531188965, 0.005439013242721558, -0.1270911004269145, 0.5736701735968269, 0.8064079573100804,-0.0667575532505078,0.91168212890625,0.319580078125,-0.3040618896484375
20220205-1812,2022-02-05 18:12:47Z,u01, 242,40,movements,el-ex, rt, d,14746.343230875002, 1.2260739490526864, -0.2826282128586712, 0.03732784079983344, 0.1899821013212204, -0.6274020075798035, 0.061038896441459656, 0.9038292169570923, 0.2788805365562439, -0.3245280981063843, 0.00792926549911499, 0.033009111881256104, 0.010197103023529053, -0.12580777080485156, 0.5673696800117318, 0.8111227662752911,-0.06590892846446789,0.9163970947265625,0.30755615234375,-0.322296142578125
20220205-1812,2022-02-05 18:12:47Z,u01, 243,40,movements,el-ex, rt, d,14746.368175875, 1.208829728161016, -0.27910907634615795, 0.031796562657991884, 0.32020747661590576, -0.6486601829528809, 0.0703572928905487, 0.8990110754966736, 0.2754993140697479, -0.3404103219509125, 0.048636019229888916, 0.019086837768554688, -0.013974934816360474, -0.12338997033833382, 0.5608651900175794, 0.8159888933693004,-0.06608506161344857,0.9476470947265625,0.294586181640625,-0.3543853759765625
20220205-1812,2022-02-05 18:12:47Z,u01, 244,40,movements,el-ex, rt, d,14746.393121875, 1.1908204910407105, -0.2742496280336016, 0.023932678990871054, 0.3557463586330414, -0.6258915662765503, 0.08458670228719711, 0.893967866897583, 0.270824670791626, -0.3570370674133301, 0.026167690753936768, 0.033786505460739136, 0.005200058221817017, -0.11981276360804366, 0.554189824408777, 0.8210055645993234,-0.06684604187930554,0.915496826171875,0.3002471923828125,-0.3524932861328125
20220205-1812,2022-02-05 18:12:47Z,u01, 245,40,movements,el-ex, rt, d,14746.418067875002, 1.1735069179466575, -0.2695635349737101, 0.016977461303869495, 0.29965078830718994, -0.6306111216545105, 0.07353391498327255, 0.8888130784034729, 0.26631075143814087, -0.3729475140571594, 0.0321311354637146, 0.01001065969467163, -0.012382537126541138, -0.11655216152185205, 0.5476694608513996, 0.8257918895187628,-0.06739019143970937,0.9209442138671875,0.2763214111328125,-0.3853302001953125
20220205-1812,2022-02-05 18:12:47Z,u01, 246,40,movements,el-ex, rt, d,14746.443012875001, 1.1550815279844782, -0.26485701313067384, 0.010251531306307142, 0.3330938518047333, -0.7081213593482971, 0.05779862776398659, 0.8829277753829956, 0.2617712616920471, -0.38976189494132996, 0.049292683601379395, 0.01274961233139038, -0.01857849955558777, -0.11339815336607856, 0.5406106863878324, 0.8308307290464283,-0.06783248176244261,0.929901123046875,0.2737884521484375,-0.4132843017578125
20220205-1812,2022-02-05 18:12:47Z,u01, 247,40,movements,el-ex, rt, d,14746.467958875, 1.1347832684865569, -0.25962832153504045, 0.0032070168396293804, 0.3772103488445282, -0.7630304098129272, 0.11300123482942581, 0.8760637044906616, 0.2567213475704193, -0.4081747531890869, 0.060887038707733154, 0.02179732918739319, -0.03657302260398865, -0.11002019616987413, 0.5327365038606879, 0.8363205700301829,-0.06822982930730975,0.93695068359375,0.2785186767578125,-0.4447479248046875
20220205-1812,2022-02-05 18:12:47Z,u01, 248,40,movements,el-ex, rt, d,14746.492903875002, 1.1141827627132308, -0.25487276305413786, -0.0021001417952366407, 0.14365650713443756, -0.7820044159889221, 0.07255593687295914, 0.8685557842254639, 0.25212228298187256, -0.426667720079422, 0.03889971971511841, 0.0007616281509399414, -0.01914823055267334, -0.1073242695816454, 0.5245451767364525, 0.8418427043335489,-0.06807991050876383,0.9015655517578125,0.247528076171875,-0.4342803955078125
20220205-1812,2022-02-05 18:12:47Z,u01, 249,40,movements,el-ex, rt, d,14746.517849875001, 1.0938890174576605, -0.2523557344425093, -0.003969120883573944, 0.14598514139652252, -0.8259645104408264, 0.04735757037997246, 0.86027991771698, 0.24968576431274414, -0.4444947838783264, 0.037913501262664795, 0.009042292833328247, -0.04132968187332153, -0.106460859685156, 0.5161576223896727, 0.8471960108132113,-0.06713001683305181,0.898193359375,0.25872802734375,-0.4858245849609375
