SessionID,LoggingTime,UID,RecNo,Hertz,Activity,MoveType,Wrist,Side,TimeStamp,DMRoll,DMPitch,DMYaw,DMRotX,DMRotY,DMRotZ,DMGrvX,DMGrvY,DMGrvZ,DMUAccelX,DMUAccelY,DMUAccelZ,DMQuatX,DMQuatY,DMQuatW,DMQuatZ,AccelroX,AceelroY,AceelroZ
20220205-1709,2022-02-05 17:09:45Z,u01, 1,40,movements,el-ex, rt, d,13065.793411875, 1.193315177151278, -0.42687100403043177, 0.2923331099218317, -0.2261222004890442, 0.6224084496498108, 0.044332824647426605, 0.8461793661117554, 0.41402462124824524, -0.3355058431625366, 0.03503096103668213, 0.007911384105682373, -0.06280961632728577, -0.25333094982451465, 0.5177552530395685, 0.8171615360865581,-5.551115123125783e-17,0.8812103271484375,0.42193603515625,-0.3983154296875
20220205-1709,2022-02-05 17:09:45Z,u01, 2,40,movements,el-ex, rt, d,13065.818356875001, 1.2107569449719051, -0.4273811006005519, 0.29606876486994804, -0.02543291077017784, 0.6442943811416626, 0.027895793318748474, 0.8517042994499207, 0.41448888182640076, -0.32062220573425293, -0.02690577507019043, 0.00849992036819458, -0.06859895586967468, -0.25449942952270826, 0.5243271249599328, 0.8125947741644728,-0.0008382865917679894,0.818267822265625,0.4229583740234375,-0.3828277587890625
20220205-1709,2022-02-05 17:09:45Z,u01, 3,40,movements,el-ex, rt, d,13065.843301875, 1.2264879955412715, -0.42617024072163917, 0.29610804730445783, 0.0691337063908577, 0.7533431649208069, -0.03339173272252083, 0.857114315032959, 0.41338664293289185, -0.3073541224002838, -0.2975287437438965, 0.022328078746795654, -0.017063021659851074, -0.25402766168879, 0.5308416786580997, 0.808499214025074,-0.0024718331932022664,0.5595855712890625,0.4357147216796875,-0.3244171142578125
20220205-1709,2022-02-05 17:09:45Z,u01, 4,40,movements,el-ex, rt, d,13065.868246875001, 1.2428464888567334, -0.425122915723967, 0.29593955787232645, -0.04109056666493416, 0.6149369478225708, 0.03513532876968384, 0.8624367117881775, 0.4124327600002289, -0.29343181848526, 0.08258587121963501, -0.002596914768218994, -0.05999225378036499, -0.25355154614545933, 0.5375832020423295, 0.804174998033832,-0.004309222600554219,0.940185546875,0.4142303466796875,-0.3510894775390625
20220205-1709,2022-02-05 17:09:45Z,u01, 5,40,movements,el-ex, rt, d,13065.893191875, 1.258938826602242, -0.4251931595474432, 0.29875157026633814, -0.12649677693843842, 0.5991215705871582, 0.012460443191230297, 0.8670192360877991, 0.41249674558639526, -0.2795068919658661, 0.03880351781845093, 0.0014131367206573486, -0.04155328869819641, -0.2543001377289541, 0.5436708462037217, 0.7998286909197434,-0.005245505988253907,0.90582275390625,0.413909912109375,-0.3210601806640625
20220205-1709,2022-02-05 17:09:45Z,u01, 6,40,movements,el-ex, rt, d,13065.918137875, 1.2749227937533514, -0.4263436903304648, 0.3012889744349144, -0.05602797120809555, 0.5934029221534729, -0.03662807494401932, 0.8709213733673096, 0.41354456543922424, -0.2654748260974884, 0.00949549674987793, 0.005843251943588257, -0.06446599960327148, -0.2553836061448329, 0.5495832912606642, 0.7954204738497461,-0.0066139793341203346,0.878173828125,0.4184722900390625,-0.3305206298828125
20220205-1709,2022-02-05 17:09:45Z,u01, 7,40,movements,el-ex, rt, d,13065.943082875001, 1.2892549231214252, -0.4275402727946678, 0.3014647999072754, -0.005540196318179369, 0.5390104651451111, -0.028394177556037903, 0.8741605877876282, 0.41463372111320496, -0.2528281509876251, 0.01692211627960205, 0.0015496611595153809, -0.05562826991081238, -0.25582912072458813, 0.5551012399754891, 0.791414978811407,-0.008736910314323665,0.891082763671875,0.4161834716796875,-0.3084564208984375
20220205-1709,2022-02-05 17:09:45Z,u01, 8,40,movements,el-ex, rt, d,13065.968027875, 1.3023607343827694, -0.42793914955517015, 0.3028623510089728, -0.1526237577199936, 0.4711049795150757, 0.0063569433987140656, 0.877239465713501, 0.4149966835975647, -0.24130631983280182, 0.03186392784118652, -0.021960824728012085, -0.06449507176876068, -0.2563071794352356, 0.5600477418712613, 0.7877521628262583,-0.009984511414713015,0.9061737060546875,0.39227294921875,-0.3016510009765625
20220205-1709,2022-02-05 17:09:45Z,u01, 9,40,movements,el-ex, rt, d,13065.992972875001, 1.316798702251132, -0.4294791388807525, 0.3098955679905483, -0.33096209168434143, 0.47180506587028503, -0.004827867262065411, 0.8800123333930969, 0.4163973033428192, -0.22845521569252014, -0.006843388080596924, 0.0013273060321807861, -0.039794325828552246, -0.25878874513533234, 0.5646244575018451, 0.783668593253888,-0.009553320921106945,0.8731689453125,0.417724609375,-0.26824951171875
20220205-1709,2022-02-05 17:09:45Z,u01, 10,40,movements,el-ex, rt, d,13066.017917875, 1.3331030914649142, -0.43197580351515175, 0.31802852307122753, -0.2589215040206909, 0.5621618032455444, -0.04461875557899475, 0.8826068639755249, 0.41866591572761536, -0.21383196115493774, -0.025856375694274902, 0.011677682399749756, -0.043736398220062256, -0.2619423223645503, 0.5696228916205708, 0.7789929999589797,-0.009272322460828764,0.86468505859375,0.4298553466796875,-0.255706787109375
20220205-1709,2022-02-05 17:09:45Z,u01, 11,40,movements,el-ex, rt, d,13066.042862875001, 1.3487307117417908, -0.4336856941850918, 0.32139842800484486, 3.871507942676544e-06, 0.5508554577827454, -0.03279764950275421, 0.8851410746574402, 0.4202181398868561, -0.19985541701316833, 0.041708290576934814, 0.02366006374359131, -0.03754085302352905, -0.2634569879196207, 0.5750327872711247, 0.7744782222800422,-0.010551340839950352,0.926849365234375,0.443878173828125,-0.237396240234375
20220205-1709,2022-02-05 17:09:45Z,u01, 12,40,movements,el-ex, rt, d,13066.067807875, 1.3607844740422157, -0.4336958484968854, 0.318848867263176, 0.13231924176216125, 0.5048225522041321, -0.016057685017585754, 0.8874815702438354, 0.4202273488044739, -0.1891709864139557, 0.0402529239654541, 0.0245969295501709, -0.04923239350318909, -0.26265311901572663, 0.5800240050383583, 0.7709820676747434,-0.013125023887994691,0.9197235107421875,0.4401702880859375,-0.2355804443359375
20220205-1709,2022-02-05 17:09:45Z,u01, 13,40,movements,el-ex, rt, d,13066.092752875002, 1.3721394773232016, -0.4335491855684307, 0.31597630362182494, 0.05619184672832489, 0.5187602639198303, -0.0239129438996315, 0.8896327018737793, 0.42009425163269043, -0.17909380793571472, -0.008208751678466797, -0.00661158561706543, -0.054167330265045166, -0.26168160538769086, 0.5847870008801388, 0.7676596634746815,-0.015671887278135066,0.8814239501953125,0.413482666015625,-0.2332611083984375
20220205-1709,2022-02-05 17:09:45Z,u01, 14,40,movements,el-ex, rt, d,13066.117697875, 1.38396128411059, -0.4341023680515452, 0.3151730461626254, -0.001084728166460991, 0.46974509954452515, -0.022830035537481308, 0.8914591670036316, 0.420596182346344, -0.16852125525474548, 0.008824646472930908, -0.009249776601791382, -0.055859193205833435, -0.2615471452322162, 0.5893491835302052, 0.7641644010163713,-0.017702714802981745,0.9037322998046875,0.4129638671875,-0.2218780517578125
20220205-1709,2022-02-05 17:09:45Z,u01, 15,40,movements,el-ex, rt, d,13066.142642875, 1.3962930691799669, -0.43482428236339354, 0.3169873064410616, -0.08994919061660767, 0.43188726902008057, -0.02280040830373764, 0.8931702375411987, 0.4212510287761688, -0.1574626863002777, 0.03396904468536377, 0.004545420408248901, -0.061912938952445984, -0.2622305232354615, 0.5937203120794774, 0.7605101605422322,-0.01885827947579216,0.9271392822265625,0.4257965087890625,-0.2193756103515625
20220205-1709,2022-02-05 17:09:45Z,u01, 16,40,movements,el-ex, rt, d,13066.167587875001, 1.4065520267187273, -0.43496480260637277, 0.31738025681255916, 0.06564480066299438, 0.378621369600296, 0.010308008641004562, 0.8946801424026489, 0.421378493309021, -0.14828187227249146, 0.0329321026802063, 0.02877098321914673, -0.08116452395915985, -0.26229788060695663, 0.5975440430898606, 0.7574541982237402,-0.02009995766814454,0.921142578125,0.4528045654296875,-0.23297119140625
20220205-1709,2022-02-05 17:09:45Z,u01, 17,40,movements,el-ex, rt, d,13066.192532875, 1.413931234734636, -0.4345033798937526, 0.3138568878167963, 0.18277998268604279, 0.3399728536605835, -0.00011100899428129196, 0.8959418535232544, 0.4209599792957306, -0.1417062133550644, -0.0017006397247314453, 0.012618422508239746, -0.087267205119133, -0.2609998006861486, 0.6008543869981842, 0.7552205128383,-0.02224763058288426,0.8942413330078125,0.4335784912109375,-0.228973388671875
20220205-1709,2022-02-05 17:09:45Z,u01, 18,40,movements,el-ex, rt, d,13066.217477875001, 1.4198050893918104, -0.43411839404396085, 0.3086805297702912, 0.17003998160362244, 0.3129253387451172, -0.024375535547733307, 0.8969191908836365, 0.4206107258796692, -0.13646557927131653, -0.0004347562789916992, 0.0033699870109558105, -0.08927297592163086, -0.25923486528482886, 0.6037917653121406, 0.7534029398410458,-0.024838129771522888,0.8989410400390625,0.42138671875,-0.226318359375
20220205-1709,2022-02-05 17:09:45Z,u01, 19,40,movements,el-ex, rt, d,13066.242422875, 1.4251811819686726, -0.43393412323804237, 0.3045099740536305, 0.13690432906150818, 0.25843292474746704, -0.008881397545337677, 0.8977163434028625, 0.4204435646533966, -0.13165292143821716, 0.009510159492492676, -0.009799093008041382, -0.10435472428798676, -0.2578380041430739, 0.6063770280714761, 0.7517281020665602,-0.02704208929123797,0.9072265625,0.41064453125,-0.2360076904296875
20220205-1709,2022-02-05 17:09:45Z,u01, 20,40,movements,el-ex, rt, d,13066.267367875002, 1.429434157499576, -0.43381093552058675, 0.30102411184597877, 0.10797354578971863, 0.19641655683517456, -0.016791652888059616, 0.8983193635940552, 0.42033177614212036, -0.1278410702943802, 0.0066487789154052734, -0.007032275199890137, -0.11098955571651459, -0.25667626377647, 0.608437968572773, 0.7503916560500306,-0.028857767990565997,0.90716552734375,0.4141082763671875,-0.2401885986328125
20220205-1709,2022-02-05 17:09:45Z,u01, 21,40,movements,el-ex, rt, d,13066.292312875, 1.432068593231717, -0.433657041841998, 0.29952441783793066, -0.0029825973324477673, 0.05392160266637802, 0.014994906261563301, 0.8987171649932861, 0.4201921224594116, -0.12548302114009857, 0.030375182628631592, -0.006404310464859009, -0.11520914733409882, -0.2561265340372791, 0.6096373416728054, 0.7495725253319421,-0.029707257803156417,0.9290924072265625,0.413787841796875,-0.240692138671875
20220205-1709,2022-02-05 17:09:46Z,u01, 22,40,movements,el-ex, rt, d,13066.317258875, 1.4325685046188619, -0.43308213881646324, 0.3005310021053756, -0.05635284632444382, -0.01735304296016693, 0.03131881728768349, 0.8990189433097839, 0.41967037320137024, -0.12506699562072754, 0.012892067432403564, -0.013313621282577515, -0.12102673947811127, -0.25622270677471715, 0.6097675200990353, 0.7494535099655151,-0.02920487033340441,0.906829833984375,0.4072418212890625,-0.2440185546875
20220205-1709,2022-02-05 17:09:46Z,u01, 23,40,movements,el-ex, rt, d,13066.342203875001, 1.4256082996077553, -0.430304537403482, 0.2992299323550551, -0.053161412477493286, -0.03332874923944473, 0.0047064488753676414, 0.8992766737937927, 0.41714760661125183, -0.13148942589759827, 0.014114439487457275, 0.003170996904373169, -0.09624801576137543, -0.2549419212133945, 0.6076675958579711, 0.7516427726039834,-0.027891146711351067,0.91339111328125,0.420318603515625,-0.2277374267578125
20220205-1709,2022-02-05 17:09:46Z,u01, 24,40,movements,el-ex, rt, d,13066.367148875, 1.4205256937789033, -0.42895913867954727, 0.2988891290915887, -0.03981008380651474, -0.11570198088884354, 0.003305559977889061, 0.8991507291793823, 0.41592445969581604, -0.13614225387573242, 0.0344277024269104, 0.0022883713245391846, -0.08851294219493866, -0.2544299265552772, 0.6059655810818613, 0.753223601724334,-0.026931577616327973,0.9323883056640625,0.4193115234375,-0.2255401611328125
20220205-1709,2022-02-05 17:09:46Z,u01, 25,40,movements,el-ex, rt, d,13066.392093875002, 1.4125316949083881, -0.4269616790066832, 0.2978731602532712, -0.03493863344192505, -0.1754942089319229, 0.018323924392461777, 0.8988523483276367, 0.41410714387893677, -0.14345629513263702, 0.012021064758300781, 0.0016032755374908447, -0.09654927253723145, -0.2535153607577487, 0.6033256289119531, 0.75569196774336,-0.025647931796276724,0.9108734130859375,0.41571044921875,-0.2400054931640625
20220205-1709,2022-02-05 17:09:46Z,u01, 26,40,movements,el-ex, rt, d,13066.417038875, 1.4057456820996381, -0.42603744674818766, 0.2989408406588629, -0.1354239583015442, -0.23842470347881317, 0.024738680571317673, 0.8982352614402771, 0.4132657051086426, -0.14961537718772888, 0.012241363525390625, -0.014050036668777466, -0.08683483302593231, -0.2535902645611404, 0.6007364578500444, 0.7577780629932445,-0.024083301863106754,0.91387939453125,0.397369384765625,-0.2351837158203125
20220205-1709,2022-02-05 17:09:46Z,u01, 27,40,movements,el-ex, rt, d,13066.441983875, 1.3980403762341516, -0.42525497552065944, 0.30291511706732466, -0.21346333622932434, -0.32070326805114746, 0.0270993709564209, 0.8973742127418518, 0.412553071975708, -0.156587615609169, 0.028422296047210693, -0.00711175799369812, -0.06939506530761719, -0.25458722415656876, 0.5974039992497363, 0.7601568450543049,-0.021342859047832452,0.9257965087890625,0.4054412841796875,-0.225982666015625
20220205-1709,2022-02-05 17:09:46Z,u01, 28,40,movements,el-ex, rt, d,13066.466928875001, 1.390058987953252, -0.425203095235895, 0.30837279224638087, -0.22814926505088806, -0.3690730631351471, 0.028062239289283752, 0.8961169123649597, 0.4125058054924011, -0.16374868154525757, 0.01811349391937256, 0.008148491382598877, -0.06290543079376221, -0.25627264587947185, 0.5936749860182138, 0.7625891071225135,-0.018229119444430952,0.907623291015625,0.41851806640625,-0.2262725830078125
20220205-1709,2022-02-05 17:09:46Z,u01, 29,40,movements,el-ex, rt, d,13066.491873875, 1.3801433610316411, -0.4244619862887315, 0.31301096007205353, -0.18840254843235016, -0.3786908686161041, 0.008132672868669033, 0.894749104976654, 0.4118305742740631, -0.1726839244365692, 0.007976114749908447, 0.019016563892364502, -0.07900983095169067, -0.2574590013310685, 0.589383490796455, 0.765583860607798,-0.014945836338216889,0.9027252197265625,0.43084716796875,-0.2516937255859375
20220205-1709,2022-02-05 17:09:46Z,u01, 30,40,movements,el-ex, rt, d,13066.516818875001, 1.3721389497880352, -0.42518053212219625, 0.3171347180127854, -0.09927740693092346, -0.4625885486602783, 0.02874753624200821, 0.8930478692054749, 0.4124852418899536, -0.17978180944919586, 0.04297208786010742, 0.024999499320983887, -0.09725677967071533, -0.25898587479347895, 0.5856922531558493, 0.767940844599404,-0.012560849015440134,0.9392852783203125,0.4319610595703125,-0.27593994140625
20220205-1709,2022-02-05 17:09:46Z,u01, 31,40,movements,el-ex, rt, d,13066.541763875, 1.3623459349720948, -0.4259938674499105, 0.321175552596079, -0.16157039999961853, -0.5370165705680847, 0.015160755254328251, 0.8909158706665039, 0.41322603821754456, -0.1884491741657257, 0.01971334218978882, -0.0031155645847320557, -0.07432244718074799, -0.26051564864078236, 0.5812976940509221, 0.7707948507378566,-0.009992976746772853,0.9106292724609375,0.4101104736328125,-0.2627716064453125
20220205-1709,2022-02-05 17:09:46Z,u01, 32,40,movements,el-ex, rt, d,13066.566708875001, 1.3519975079460131, -0.42726687006439473, 0.3259025570614051, -0.15400660037994385, -0.5308353900909424, 9.052548557519913e-05, 0.8884037733078003, 0.4143849313259125, -0.1975441426038742, 0.012047767639160156, 0.007779955863952637, -0.06451031565666199, -0.2623927642777416, 0.5765223020319068, 0.7737699213703194,-0.007217127432890269,0.902923583984375,0.4268798828125,-0.2608489990234375
20220205-1709,2022-02-05 17:09:46Z,u01, 33,40,movements,el-ex, rt, d,13066.591653875, 1.341811313083504, -0.428873097241842, 0.33017489153280666, -0.09009076654911041, -0.5438069105148315, 0.018949635326862335, 0.8856961727142334, 0.41584622859954834, -0.20643185079097748, 0.014801204204559326, 0.016572564840316772, -0.07271246612071991, -0.2642375357426222, 0.5718064356140843, 0.7766553497819778,-0.0047247023726325055,0.9004974365234375,0.4324188232421875,-0.279144287109375
20220205-1709,2022-02-05 17:09:46Z,u01, 34,40,movements,el-ex, rt, d,13066.616598625002, 1.3298718120093425, -0.42986780023779736, 0.33179727976255685, -0.010533390566706657, -0.5600719451904297, -0.018106188625097275, 0.8827664852142334, 0.41675063967704773, -0.21689289808273315, 0.018494009971618652, 0.027646422386169434, -0.08181318640708923, -0.2650873506256682, 0.5668176465808265, 0.780024780417663,-0.0028238612749278413,0.9051055908203125,0.441986083984375,-0.29620361328125
20220205-1709,2022-02-05 17:09:46Z,u01, 35,40,movements,el-ex, rt, d,13066.641543625, 1.3157506921812323, -0.43031350024678666, 0.3307804695552746, 0.12555061280727386, -0.6241474151611328, 0.0018034707754850388, 0.8794358968734741, 0.41715574264526367, -0.22928960621356964, 0.03874647617340088, 0.05516481399536133, -0.08789485692977905, -0.2649804329289225, 0.5613738181498757, 0.7839915082843578,-0.0014882457252683445,0.918182373046875,0.472320556640625,-0.3171844482421875
20220205-1709,2022-02-05 17:09:46Z,u01, 36,40,movements,el-ex, rt, d,13066.666488625, 1.3002206495213342, -0.4303251153688769, 0.33076347712607757, -0.13127215206623077, -0.6753664612770081, -0.00602975208312273, 0.8757643699645996, 0.4171662926673889, -0.24291777610778809, 0.03713846206665039, -0.010641664266586304, -0.05946563184261322, -0.26498363001990705, 0.5552700161603746, 0.7883264234290348,0.0005590933205621984,0.9111480712890625,0.4211273193359375,-0.2966461181640625
20220205-1709,2022-02-05 17:09:46Z,u01, 37,40,movements,el-ex, rt, d,13066.691434625001, 1.2847959681921708, -0.432153843845165, 0.3350265416735291, -0.11086887866258621, -0.7124083638191223, -0.002467507030814886, 0.8711801171302795, 0.4188275933265686, -0.25618109107017517, 0.053258419036865234, 0.038417279720306396, -0.05700558423995972, -0.2668269956653513, 0.5483728734656821, 0.7925128608348893,0.0037383752036297957,0.9244384765625,0.457244873046875,-0.3131866455078125
20220205-1709,2022-02-05 17:09:46Z,u01, 38,40,movements,el-ex, rt, d,13066.716379625, 1.2677393132656092, -0.4324786454803141, 0.33662966650824816, -0.012427598237991333, -0.7130303382873535, -0.00727331405505538, 0.8665540814399719, 0.41912251710891724, -0.2709618806838989, 0.051704585552215576, 0.025198131799697876, -0.04652777314186096, -0.26734200406677977, 0.5413384398705396, 0.7971436218620644,0.006555440057078199,0.910430908203125,0.4468536376953125,-0.317901611328125
20220205-1709,2022-02-05 17:09:46Z,u01, 39,40,movements,el-ex, rt, d,13066.741324625002, 1.2494231836647622, -0.43245044185397147, 0.3358394639569399, 0.05014290660619736, -0.7269747853279114, 0.0016734413802623749, 0.861457347869873, 0.4190969169139862, -0.28679123520851135, 0.036705613136291504, 0.02977091073989868, -0.04327169060707092, -0.2670490032968519, 0.5341247093726911, 0.8020724282732163,0.008694943885533657,0.898162841796875,0.4488677978515625,-0.3300628662109375
20220205-1709,2022-02-05 17:09:46Z,u01, 40,40,movements,el-ex, rt, d,13066.766269625, 1.2297337173131844, -0.43312419878456215, 0.33407096546542575, 0.029062289744615555, -0.8158886432647705, -0.06450285017490387, 0.8553774952888489, 0.4197085499763489, -0.30360162258148193, 0.05311548709869385, 0.03398096561431885, -0.044954925775527954, -0.2667431866722413, 0.5263527951587785, 0.8072746032014338,0.010412642824993434,0.9091796875,0.4425506591796875,-0.346893310546875
20220205-1709,2022-02-05 17:09:46Z,u01, 41,40,movements,el-ex, rt, d,13066.791214625, 1.2094105181736907, -0.43450892300488725, 0.3341400601257578, -0.05466250330209732, -0.8052385449409485, -0.03696589544415474, 0.8484868407249451, 0.4209650158882141, -0.320715993642807, 0.017708957195281982, 0.011087656021118164, -0.009987801313400269, -0.2671758773147128, 0.517937303844067, 0.8125241885112844,0.012751271394776942,0.8661956787109375,0.4320526123046875,-0.3307037353515625
20220205-1709,2022-02-05 17:09:46Z,u01, 42,40,movements,el-ex, rt, d,13066.816159625001, 1.1900571924878982, -0.43642842449706765, 0.33464260470336116, 0.011998049914836884, -0.7796244025230408, -0.05981548875570297, 0.8413695693016052, 0.42270535230636597, -0.336775004863739, 0.0431976318359375, 0.019967347383499146, -0.010057300329208374, -0.26791399987082687, 0.5097397175161315, 0.817412172269131,0.014994871223517836,0.8923187255859375,0.449798583984375,-0.3524169921875
20220205-1709,2022-02-05 17:09:46Z,u01, 43,40,movements,el-ex, rt, d,13066.841104625, 1.1695249389225786, -0.43708300079109874, 0.33198525534585027, 0.14615868031978607, -0.7886197566986084, -0.08193030953407288, 0.8340230584144592, 0.42329850792884827, -0.35386988520622253, 0.03629249334335327, 0.04056867957115173, -0.016872942447662354, -0.26733591472876495, 0.5015940281912613, 0.8225957288575525,0.016467766295469255,0.8703155517578125,0.4638671875,-0.3707427978515625
20220205-1709,2022-02-05 17:09:46Z,u01, 44,40,movements,el-ex, rt, d,13066.866049625001, 1.1473515157392593, -0.43725059924293075, 0.32590256210207647, 0.24588938057422638, -0.7951339483261108, -0.09857699275016785, 0.8259074687957764, 0.4234503209590912, -0.37224534153938293, 0.03493231534957886, 0.03701406717300415, -0.031090229749679565, -0.2657041967034872, 0.4932328088384583, 0.8281534647910269,0.016865634756553616,0.86016845703125,0.45465087890625,-0.4049530029296875
20220205-1709,2022-02-05 17:09:46Z,u01, 45,40,movements,el-ex, rt, d,13066.890994625, 1.1245277742786488, -0.4376919435266284, 0.31980717180561935, 0.09178075939416885, -0.8369036912918091, -0.11204646527767181, 0.8170285224914551, 0.4238501191139221, -0.3909164369106293, 0.04098856449127197, 0.0031824111938476562, 0.005021572113037109, -0.26419470727786193, 0.48450277942600994, 0.8337633301261282,0.017235817957570954,0.8580169677734375,0.427032470703125,-0.385894775390625
20220205-1709,2022-02-05 17:09:46Z,u01, 46,40,movements,el-ex, rt, d,13066.915939625002, 1.1027172314787848, -0.44022384109028995, 0.3179116410078838, -0.014167306944727898, -0.8439364433288574, -0.12728573381900787, 0.8073484301567078, 0.42614197731018066, -0.4081563651561737, 0.058954060077667236, -0.0014441311359405518, -0.0011911988258361816, -0.26455674872622403, 0.4753225728309881, 0.8388865271137731,0.018644401031819302,0.8664398193359375,0.4327850341796875,-0.4162139892578125
20220205-1709,2022-02-05 17:09:46Z,u01, 47,40,movements,el-ex, rt, d,13066.940884625, 1.0807111526445157, -0.44244431310500076, 0.3152162574843729, 0.12435199320316315, -0.84195876121521, -0.11001933366060257, 0.7973349094390869, 0.4281497001647949, -0.42537620663642883, 0.049390554428100586, 0.02990385890007019, -0.010094374418258667, -0.2646050823747448, 0.4661502348367743, 0.843975563548607,0.019833477342406425,0.8467254638671875,0.4580535888671875,-0.4354705810546875
20220205-1709,2022-02-05 17:09:46Z,u01, 48,40,movements,el-ex, rt, d,13066.965829625, 1.0571818914529585, -0.4424294726507121, 0.30871930490508753, 0.2608441710472107, -0.8474840521812439, -0.1126527339220047, 0.7871118187904358, 0.42813628911972046, -0.444020539522171, 0.050626158714294434, 0.02045685052871704, -0.01624557375907898, -0.26286409842442204, 0.45704726407347973, 0.8494719170848728,0.020189447992403298,0.837738037109375,0.45245361328125,-0.4638519287109375
20220205-1709,2022-02-05 17:09:46Z,u01, 49,40,movements,el-ex, rt, d,13066.990774625001, 1.032187843162244, -0.441532252688864, 0.3007852331489246, 0.20262666046619415, -0.8846244812011719, -0.13198621571063995, 0.7760986685752869, 0.4273252785205841, -0.4637497663497925, 0.04592275619506836, 0.008862435817718506, -0.012736499309539795, -0.26044921253013203, 0.44753918700038475, 0.8552557716999939,0.020306726592670465,0.822021484375,0.436187744140625,-0.4764862060546875
20220205-1709,2022-02-05 17:09:46Z,u01, 50,40,movements,el-ex, rt, d,13067.015719625, 1.0085236135593612, -0.4434934136716059, 0.29691911654272873, -0.017036132514476776, -0.8988160490989685, -0.13673929870128632, 0.7641976475715637, 0.4290975332260132, -0.48153629899024963, 0.05400913953781128, -0.005681425333023071, -1.5795230865478516e-05, -0.26015773158885974, 0.4376640295023498, 0.8604167874851865,0.021238469068897037,0.821441650390625,0.4280853271484375,-0.485137939453125
20220205-1709,2022-02-05 17:09:46Z,u01, 51,40,movements,el-ex, rt, d,13067.040665625002, 0.9851727220577656, -0.44642019531949667, 0.29513732809521265, 0.024181747809052467, -0.9040648937225342, -0.13047313690185547, 0.7516962289810181, 0.43173933029174805, -0.4985518157482147, 0.05970507860183716, 0.011192768812179565, -0.0035538971424102783, -0.2607325097958063, 0.4274840913410662, 0.865307066418495,0.022793874125454527,0.8114013671875,0.44293212890625,-0.502105712890625
20220205-1709,2022-02-05 17:09:46Z,u01, 52,40,movements,el-ex, rt, d,13067.065610625, 0.960978350725986, -0.44758859678716983, 0.2914444968870578, 0.1416614055633545, -0.905440092086792, -0.09761472791433334, 0.7390012145042419, 0.43279293179512024, -0.516301691532135, 0.05584436655044556, 0.00997135043144226, 0.0013633370399475098, -0.2601584445038038, 0.4173328819903655, 0.8703860389437128,0.024061877625726702,0.789337158203125,0.440277099609375,-0.517822265625
20220205-1709,2022-02-05 17:09:46Z,u01, 53,40,movements,el-ex, rt, d,13067.090555625, 0.9358709558487573, -0.4469392197824216, 0.2858734378666715, 0.20881155133247375, -0.9082878232002258, -0.09059970080852509, 0.7260328531265259, 0.4322074353694916, -0.534857988357544, 0.045970380306243896, 0.016843467950820923, -0.0016105175018310547, -0.2584278459121336, 0.40716831858882413, 0.8756724134051033,0.025037361495290678,0.772003173828125,0.4490509033203125,-0.536468505859375
20220205-1709,2022-02-05 17:09:46Z,u01, 54,40,movements,el-ex, rt, d,13067.115500625001, 0.9108815531490428, -0.4454096850576422, 0.2796744654711769, 0.2149607092142105, -0.8869235515594482, -0.08259543776512146, 0.7129632234573364, 0.43082761764526367, -0.5532369017601013, 0.058444857597351074, 0.023319721221923828, -0.005265355110168457, -0.25621272453571736, 0.3971606656129565, 0.880879497301639,0.025880510702464832,0.7724456787109375,0.4534912109375,-0.560394287109375
20220205-1709,2022-02-05 17:09:46Z,u01, 55,40,movements,el-ex, rt, d,13067.140445625, 0.8860591047014635, -0.4438356354980521, 0.2735028745261348, 0.22119095921516418, -0.8943629860877991, -0.09662756323814392, 0.6995366811752319, 0.42940661311149597, -0.571190357208252, 0.06921631097793579, 0.01961374282836914, -0.008613109588623047, -0.2540019209931717, 0.3871535350076439, 0.8859366680119571,0.02667237712447934,0.7687530517578125,0.4490203857421875,-0.579803466796875
20220205-1709,2022-02-05 17:09:46Z,u01, 56,40,movements,el-ex, rt, d,13067.165390625001, 0.8604778209868892, -0.44212347054535717, 0.2669268607501657, 0.24276630580425262, -0.9352848529815674, -0.10835099220275879, 0.6852540373802185, 0.42785972356796265, -0.5893750786781311, 0.070193350315094, 0.016262590885162354, -0.011378705501556396, -0.25166115075937473, 0.37680115858469304, 0.891032646458598,0.027357778833123847,0.750732421875,0.440216064453125,-0.6060333251953125
20220205-1709,2022-02-05 17:09:46Z,u01, 57,40,movements,el-ex, rt, d,13067.190335625, 0.8340808722548297, -0.4399658634415596, 0.2600776597669464, 0.2601674199104309, -0.9352368712425232, -0.08539295196533203, 0.6701415777206421, 0.42590856552124023, -0.6078750491142273, 0.058129847049713135, 0.01446002721786499, -0.01657557487487793, -0.249084766753318, 0.36608638968879426, 0.896186450737845,0.02805923269463667,0.728271484375,0.44036865234375,-0.62445068359375
20220205-1709,2022-02-05 17:09:46Z,u01, 58,40,movements,el-ex, rt, d,13067.215280625001, 0.807748745046053, -0.43685452926244694, 0.2529418396648517, 0.2928050756454468, -0.9332563877105713, -0.07853837311267853, 0.6548590660095215, 0.42309150099754333, -0.6262214183807373, 0.06544727087020874, 0.019611746072769165, 0.0021979212760925293, -0.24605985128499896, 0.3554487960823027, 0.9012680302774928,0.02875275210062117,0.7187652587890625,0.4465179443359375,-0.6281280517578125
20220205-1709,2022-02-05 17:09:46Z,u01, 59,40,movements,el-ex, rt, d,13067.240225625, 0.7811713115377504, -0.43243943778929345, 0.24505719012985944, 0.38456717133522034, -0.9370895624160767, -0.08262932300567627, 0.6392954587936401, 0.41908693313598633, -0.6447228193283081, 0.05682575702667236, 0.03719663619995117, -0.013785481452941895, -0.24234401099329525, 0.34483033991721473, 0.9063674883306267,0.02931664866907635,0.6961212158203125,0.4562835693359375,-0.65850830078125
20220205-1709,2022-02-05 17:09:46Z,u01, 60,40,movements,el-ex, rt, d,13067.265170625002, 0.7539769844587685, -0.4261475178070079, 0.23526685280760098, 0.45672059059143066, -0.9321467280387878, -0.08007747679948807, 0.6233211755752563, 0.4133659303188324, -0.6637766361236572, 0.05838048458099365, 0.0420936644077301, -0.013301610946655273, -0.2374833603050706, 0.33423545978122327, 0.9116069658278507,0.029346120016571886,0.6814117431640625,0.4528045654296875,-0.678558349609375
20220205-1709,2022-02-05 17:09:46Z,u01, 61,40,movements,el-ex, rt, d,13067.290115625, 0.7267325699110982, -0.419426349714374, 0.22548650970172027, 0.4069538414478302, -0.9411811828613281, -0.07786566019058228, 0.606840193271637, 0.40723660588264465, -0.6825711727142334, 0.07258790731430054, 0.03325411677360535, 0.008804082870483398, -0.2324616316625825, 0.3235367164790438, 0.9167471000381696,0.029332777644393238,0.6794281005859375,0.44049072265625,-0.67376708984375
20220205-1709,2022-02-05 17:09:47Z,u01, 62,40,movements,el-ex, rt, d,13067.315060625, 0.6998276737847599, -0.4141198814859793, 0.21704772632817237, 0.33500978350639343, -0.9380702376365662, -0.10768527537584305, 0.589641809463501, 0.40238437056541443, -0.7002923488616943, 0.06727957725524902, 0.03824368119239807, 0.016103506088256836, -0.22832717924132073, 0.3126028315818258, 0.9215613369740121,0.029511309172467082,0.65045166015625,0.4394073486328125,-0.6867523193359375
20220205-1709,2022-02-05 17:09:47Z,u01, 63,40,movements,el-ex, rt, d,13067.340005625001, 0.6736001230485688, -0.40918944998829965, 0.20862826294516174, 0.37406760454177856, -0.9174416661262512, -0.11264380812644958, 0.5723048448562622, 0.39786583185195923, -0.7170565128326416, 0.06645858287811279, 0.03685712814331055, 0.020507991313934326, -0.22440565226852427, 0.3018507091586502, 0.9260999846906994,0.02944885814513748,0.638763427734375,0.434722900390625,-0.6965484619140625
20220205-1709,2022-02-05 17:09:47Z,u01, 64,40,movements,el-ex, rt, d,13067.364950625, 0.6468564492731697, -0.40347685983697323, 0.1999237300832061, 0.4006938636302948, -0.9549123644828796, -0.10727354884147644, 0.554286539554596, 0.3926183879375458, -0.7339054942131042, 0.08314937353134155, 0.034200459718704224, 0.03422898054122925, -0.22010901077098827, 0.290859530977083, 0.9306407026363394,0.029337919131709245,0.635711669921875,0.4238739013671875,-0.706329345703125
20220205-1709,2022-02-05 17:09:47Z,u01, 65,40,movements,el-ex, rt, d,13067.389895625001, 0.6198143514867366, -0.3986714477128634, 0.19224577679421015, 0.2017032355070114, -0.9982873797416687, -0.13110464811325073, 0.5353296995162964, 0.38819432258605957, -0.750151515007019, 0.06255537271499634, 0.03462669253349304, 0.04606521129608154, -0.21640440298263192, 0.27945194664576084, 0.9349900937573461,0.029482036105665244,0.5978851318359375,0.422821044921875,-0.7040863037109375
20220205-1709,2022-02-05 17:09:47Z,u01, 66,40,movements,el-ex, rt, d,13067.414841625001, 0.59331164492511, -0.3973558956360852, 0.18664418949396833, 0.12827898561954498, -0.9581971168518066, -0.15078480541706085, 0.5155481100082397, 0.3869816064834595, -0.7644968628883362, 0.057922959327697754, 0.030498862266540527, 0.04454141855239868, -0.21463554214094485, 0.2677370851142974, 0.9388043143096683,0.029917303835119036,0.5713958740234375,0.420501708984375,-0.718475341796875
20220205-1709,2022-02-05 17:09:47Z,u01, 67,40,movements,el-ex, rt, d,13067.439786625, 0.567465201339362, -0.39670291383523754, 0.1809802700329583, 0.1877836287021637, -0.9369191527366638, -0.16834695637226105, 0.49575427174568176, 0.3863794207572937, -0.7777780294418335, 0.06117627024650574, 0.0395238995552063, 0.042868971824645996, -0.21320196226074886, 0.2562340882685421, 0.9423280457196045,0.030114968842323786,0.5569305419921875,0.4259033203125,-0.7349090576171875
20220205-1709,2022-02-05 17:09:47Z,u01, 68,40,movements,el-ex, rt, d,13067.464731625001, 0.5410533604895064, -0.39274339298713346, 0.1729264445985251, 0.3950560390949249, -0.9343011975288391, -0.1699136346578598, 0.4758254289627075, 0.3827243745326996, -0.7919042110443115, 0.07109531760215759, 0.052563101053237915, 0.03125357627868652, -0.2099475452229301, 0.24488758001902688, 0.9460824572713146,0.029668733469970066,0.541717529296875,0.4356689453125,-0.761810302734375
20220205-1709,2022-02-05 17:09:47Z,u01, 69,40,movements,el-ex, rt, d,13067.489676625, 0.5139551545474769, -0.3859770640338253, 0.16320526822644385, 0.37886276841163635, -0.9300735592842102, -0.18943892419338226, 0.4554568827152252, 0.37646448612213135, -0.8067424893379211, 0.045244961977005005, 0.022919028997421265, 0.03628051280975342, -0.2052099549060415, 0.2334900855775224, 0.9500223323327079,0.02878833413448012,0.500701904296875,0.399383544921875,-0.7704620361328125
20220205-1709,2022-02-05 17:09:47Z,u01, 70,40,movements,el-ex, rt, d,13067.514621625001, 0.4879788107206984, -0.3828654270716271, 0.15541862791975336, 0.12276051938533783, -0.9255502223968506, -0.19004273414611816, 0.4348964989185333, 0.3735799491405487, -0.8193308711051941, 0.044534653425216675, 0.004044532775878906, 0.04029339551925659, -0.2024843541837391, 0.22211404265621218, 0.9533489411971419,0.02813087678759657,0.4785003662109375,0.376129150390625,-0.7803802490234375
20220205-1709,2022-02-05 17:09:47Z,u01, 71,40,movements,el-ex, rt, d,13067.539566625, 0.4631205231965257, -0.38350253242321375, 0.15032595763074258, 0.05548840016126633, -0.9146906137466431, -0.17208316922187805, 0.4142906367778778, 0.37417086958885193, -0.8296743035316467, 0.050095319747924805, 0.007268339395523071, 0.04911088943481445, -0.20188555454883625, 0.21072513756624717, 0.9560572808471617,0.02813485662177634,0.464385986328125,0.381439208984375,-0.7805633544921875
20220205-1709,2022-02-05 17:09:47Z,u01, 72,40,movements,el-ex, rt, d,13067.564511625002, 0.4388281707613291, -0.38303552866319035, 0.1453247046576244, 0.14209230244159698, -0.8940985202789307, -0.16244272887706757, 0.39408987760543823, 0.37373775243759155, -0.8396506905555725, 0.06645089387893677, 0.022532999515533447, 0.04697185754776001, -0.2008079835326353, 0.1996266467206143, 0.9586594542686844,0.028240717619360034,0.4578704833984375,0.398345947265625,-0.7991790771484375
20220205-1709,2022-02-05 17:09:47Z,u01, 73,40,movements,el-ex, rt, d,13067.589456625, 0.4143327055454516, -0.38079099105694436, 0.1395413604444158, 0.18844521045684814, -0.9031962752342224, -0.15573036670684814, 0.37374281883239746, 0.3716549277305603, -0.8498169779777527, 0.05966782569885254, 0.022449076175689697, 0.035379111766815186, -0.19883033929841376, 0.18856829927816465, 0.9613092526730683,0.028159481414225973,0.43341064453125,0.39410400390625,-0.8144378662109375
20220205-1709,2022-02-05 17:09:47Z,u01, 74,40,movements,el-ex, rt, d,13067.614401, 0.38993626240654405, -0.37836636748996055, 0.1338334607261303, 0.15702691674232483, -0.8694040775299072, -0.16621217131614685, 0.3532426655292511, 0.3694028854370117, -0.8595121502876282, 0.049757182598114014, 0.010586738586425781, 0.045547306537628174, -0.19680416041939114, 0.17751629938913285, 0.9638297900827091,0.028077835339155366,0.3970794677734375,0.3749847412109375,-0.8173828125
20220205-1709,2022-02-05 17:09:47Z,u01, 75,40,movements,el-ex, rt, d,13067.639346, 0.3665273717594834, -0.37621432871242944, 0.1281487849692228, 0.1775171458721161, -0.8528152704238892, -0.1670372039079666, 0.33331161737442017, 0.36740219593048096, -0.8682851195335388, 0.055070340633392334, 0.008787959814071655, 0.020598292350769043, -0.19495406124142164, 0.16688429095469234, 0.9661095232354011,0.027838897793285966,0.3883819580078125,0.376190185546875,-0.847686767578125
20220205-1709,2022-02-05 17:09:47Z,u01, 76,40,movements,el-ex, rt, d,13067.664291000001, 0.3431533893529003, -0.3727997751831789, 0.12217364660575512, 0.23781350255012512, -0.8502063751220703, -0.16606035828590393, 0.31334739923477173, 0.36422431468963623, -0.8770142793655396, 0.06558933854103088, 0.014437764883041382, 0.02194225788116455, -0.19250332749187274, 0.1563180429709628, 0.9683745584276625,0.027528272272453802,0.3754119873046875,0.37603759765625,-0.8566131591796875
20220205-1709,2022-02-05 17:09:47Z,u01, 77,40,movements,el-ex, rt, d,13067.689236, 0.31972953198847415, -0.36930634403586055, 0.11611899669026077, 0.14672793447971344, -0.8550384640693665, -0.16402465105056763, 0.293118417263031, 0.36096861958503723, -0.8853153586387634, 0.059893667697906494, -0.00884157419204712, 0.03955113887786865, -0.19003895598161574, 0.14569668100447528, 0.9705263532052435,0.027135138498676936,0.3530120849609375,0.3521270751953125,-0.84576416015625
20220205-1709,2022-02-05 17:09:47Z,u01, 78,40,movements,el-ex, rt, d,13067.714181000001, 0.2967401457857046, -0.36873934036268524, 0.11135136726870119, 0.033710137009620667, -0.8446249961853027, -0.1617080271244049, 0.2727496922016144, 0.36043980717658997, -0.8920150399208069, 0.04951590299606323, -0.019421160221099854, 0.03584432601928711, -0.18911848280023283, 0.13500627250656644, 0.972253164370612,0.027044259053394193,0.31561279296875,0.3496246337890625,-0.860260009765625
20220205-1709,2022-02-05 17:09:47Z,u01, 79,40,movements,el-ex, rt, d,13067.739126, 0.27457015102335913, -0.36851065635654756, 0.1066842105247365, 0.08835244178771973, -0.7997670769691467, -0.1673515886068344, 0.2529306709766388, 0.36022648215293884, -0.8979215025901794, 0.04368489980697632, 0.01178276538848877, 0.03334325551986694, -0.18840565325624306, 0.124669832982555, 0.9737752101506294,0.026883141699279023,0.2966156005859375,0.37200927734375,-0.8645782470703125
20220205-1709,2022-02-05 17:09:47Z,u01, 80,40,movements,el-ex, rt, d,13067.764072, 0.25257418611832666, -0.3678194393439422, 0.1014582929734473, 0.056133121252059937, -0.8233075141906738, -0.18960045278072357, 0.23318257927894592, 0.3595815896987915, -0.9035081267356873, 0.06126624345779419, 0.006614089012145996, 0.040623605251312256, -0.1874639965024117, 0.11446910796178511, 0.9752201690926441,0.026451517392669988,0.295867919921875,0.3694000244140625,-0.8640899658203125
20220205-1709,2022-02-05 17:09:47Z,u01, 81,40,movements,el-ex, rt, d,13067.789017000001, 0.23005646973619728, -0.3674084637818534, 0.09619524326994365, 0.09606967866420746, -0.815396249294281, -0.18523593246936798, 0.21281392872333527, 0.35919806361198425, -0.9086732268333435, 0.04272496700286865, 0.01456594467163086, 0.02071845531463623, -0.18668108284652557, 0.10398831234860001, 0.976555098094789,0.026015741335136844,0.2555389404296875,0.3737640380859375,-0.8879547119140625
20220205-1709,2022-02-05 17:09:47Z,u01, 82,40,movements,el-ex, rt, d,13067.813962, 0.20851628084171198, -0.3643701864897747, 0.09040035647429678, 0.24301037192344666, -0.760026216506958, -0.18406659364700317, 0.19341810047626495, 0.35636091232299805, -0.9141095876693726, 0.038072943687438965, 0.03189897537231445, 0.015305876731872559, -0.1846356186580024, 0.09410041860684498, 0.9779630657380582,0.025359777612885215,0.2321929931640625,0.3871307373046875,-0.90582275390625
20220205-1709,2022-02-05 17:09:47Z,u01, 83,40,movements,el-ex, rt, d,13067.838907000001, 0.18744773055193656, -0.3594416287092377, 0.08436553019828452, 0.17958374321460724, -0.7815322875976562, -0.18246783316135406, 0.1744428277015686, 0.3517515957355499, -0.9196959137916565, 0.05698719620704651, 0.0056549906730651855, 0.01704692840576172, -0.18169504665307193, 0.08449240072935346, 0.979409581007032,0.024594747706166764,0.2314300537109375,0.3574066162109375,-0.90264892578125
20220205-1709,2022-02-05 17:09:47Z,u01, 84,40,movements,el-ex, rt, d,13067.863852, 0.16580241795022516, -0.35835033964569357, 0.079536655565936, -0.005365592893213034, -0.8148409724235535, -0.16119450330734253, 0.1545596718788147, 0.3507298529148102, -0.9236340522766113, 0.05718649923801422, -0.012244164943695068, 0.04532289505004883, -0.18070500438058207, 0.07435498282045894, 0.9804231430676416,0.024241105539705488,0.204986572265625,0.3408966064453125,-0.8780975341796875
20220205-1709,2022-02-05 17:09:47Z,u01, 85,40,movements,el-ex, rt, d,13067.888797000001, 0.14473514196770218, -0.3581278469635418, 0.07523371118137012, 0.12440622597932816, -0.7463977932929993, -0.15766508877277374, 0.13507960736751556, 0.3505214750766754, -0.9267622232437134, 0.03589510917663574, 0.024875223636627197, 0.02003920078277588, -0.18019242705202718, 0.06441722854644637, 0.981225388558124,0.02404087930419513,0.1709747314453125,0.375396728515625,-0.9067230224609375
20220205-1709,2022-02-05 17:09:47Z,u01, 86,40,movements,el-ex, rt, d,13067.913742, 0.12517956294258592, -0.3540447067039412, 0.07025388852531611, 0.21516144275665283, -0.6955358982086182, -0.16951902210712433, 0.1171092838048935, 0.3466944694519043, -0.9306386709213257, 0.04246710240840912, 0.0344090461730957, 0.043309569358825684, -0.17780838057814646, 0.05536100735963867, 0.9822256705588013,0.02349516788524908,0.1576385498046875,0.376312255859375,-0.881866455078125
20220205-1709,2022-02-05 17:09:47Z,u01, 87,40,movements,el-ex, rt, d,13067.938687000002, 0.10616354103258864, -0.35070887849318694, 0.06530179255468042, 0.07517288625240326, -0.7135921716690063, -0.1659320592880249, 0.09951412677764893, 0.34356361627578735, -0.9338420629501343, 0.061633914709091187, 0.00020164251327514648, 0.05206716060638428, -0.1758240519079463, 0.04652821165227207, 0.9830559883353193,0.022847986298322742,0.1611480712890625,0.3437652587890625,-0.88177490234375
20220205-1709,2022-02-05 17:09:47Z,u01, 88,40,movements,el-ex, rt, d,13067.963632, 0.08653237144785392, -0.3507872232193849, 0.06096434096057416, 0.0030207009986042976, -0.7184598445892334, -0.15648868680000305, 0.08116138726472855, 0.3436371982097626, -0.9355887174606323, 0.04852302372455597, -0.001443624496459961, 0.07677829265594482, -0.17554945655308934, 0.03725611163536088, 0.983509433637436,0.022437876183061978,0.1194305419921875,0.347198486328125,-0.8595733642578125
20220205-1709,2022-02-05 17:09:47Z,u01, 89,40,movements,el-ex, rt, d,13067.988577, 0.06825382371734515, -0.3486676389140783, 0.05643905525630497, 0.21415911614894867, -0.6267780065536499, -0.1772841364145279, 0.06409711390733719, 0.3416459262371063, -0.9376404881477356, 0.024358056485652924, 0.04722428321838379, 0.053775131702423096, -0.17423021151675538, 0.028698486787582675, 0.9840440047826067,0.021856036785251665,0.0884552001953125,0.3888702392578125,-0.8838653564453125
20220205-1709,2022-02-05 17:09:47Z,u01, 90,40,movements,el-ex, rt, d,13068.013522000001, 0.05148922335032414, -0.34290997380994775, 0.05062782662823347, 0.21387292444705963, -0.58298259973526, -0.2242112159729004, 0.048470109701156616, 0.3362290561199188, -0.9405321478843689, 0.030768748372793198, 0.0365888774394989, 0.0734972357749939, -0.1711469896502311, 0.021039132810095423, 0.9848067126235327,0.020541265489262384,0.08349609375,0.35845947265625,-0.8654937744140625
20220205-1709,2022-02-05 17:09:47Z,u01, 91,40,movements,el-ex, rt, d,13068.038467, 0.034337246873022385, -0.340713940929846, 0.04446285073139949, -4.5862048864364624e-05, -0.6278405785560608, -0.22191497683525085, 0.03235705569386482, 0.33416008949279785, -0.9419607520103455, 0.062110066413879395, -0.008507013320922852, 0.09958404302597046, -0.16984338814739036, 0.013146963109751886, 0.9852003335673538,0.018994769926430788,0.0944671630859375,0.325653076171875,-0.842376708984375
20220205-1709,2022-02-05 17:09:47Z,u01, 92,40,movements,el-ex, rt, d,13068.063412000001, 0.017498881972615392, -0.34131771907498326, 0.038936142302370046, 0.02212398871779442, -0.5694369673728943, -0.20002944767475128, 0.016488607972860336, 0.33472907543182373, -0.9421701431274414, 0.06136170029640198, 0.013293355703353882, 0.1013193130493164, -0.1699608314921685, 0.005314635048299626, 0.985277603532664,0.01769768158582491,0.0751190185546875,0.35443115234375,-0.850830078125
20220205-1709,2022-02-05 17:09:47Z,u01, 93,40,movements,el-ex, rt, d,13068.088357, 0.00261296812264442, -0.33920163180089186, 0.03340993846139889, 0.14575888216495514, -0.4874104857444763, -0.2198992222547531, 0.002464079996570945, 0.3327343165874481, -0.9430173635482788, 0.037834346294403076, 0.016112089157104492, 0.09095132350921631, -0.16878671962464914, -0.0015319209441867765, 0.9855175579682486,0.01624402080607268,0.0402984619140625,0.348846435546875,-0.8520660400390625
20220205-1709,2022-02-05 17:09:47Z,u01, 94,40,movements,el-ex, rt, d,13068.113303, -0.01067712563836597, -0.33525050408507745, 0.027799762290153136, 0.143313467502594, -0.43571287393569946, -0.20488984882831573, -0.010082515887916088, 0.32900574803352356, -0.9442741274833679, 0.03353524208068848, -0.0010791122913360596, 0.10360634326934814, -0.1667496941288508, -0.007582169492676441, 0.9858621212069428,0.014595022422611459,0.0225677490234375,0.3189544677734375,-0.82891845703125
20220205-1709,2022-02-05 17:09:47Z,u01, 95,40,movements,el-ex, rt, d,13068.138248000001, -0.022624908103393328, -0.33360670135657106, 0.023060140116331288, -0.0015895972028374672, -0.40849390625953674, -0.16189618408679962, -0.021375715732574463, 0.32745301723480225, -0.9446256756782532, 0.06318476796150208, -0.047042280435562134, 0.14587384462356567, -0.1658806406984633, -0.013068646793712627, 0.9859702752596042,0.013247111419036284,0.04180908203125,0.2804107666015625,-0.7987518310546875
20220205-1709,2022-02-05 17:09:47Z,u01, 96,40,movements,el-ex, rt, d,13068.163193, -0.033408336689429864, -0.33440528927630503, 0.01901961044960918, -0.022147834300994873, -0.3521144688129425, -0.144611656665802, -0.03155183419585228, 0.32820746302604675, -0.9440785646438599, 0.0485348254442215, -0.03221750259399414, 0.14315998554229736, -0.16623728091164036, -0.01805212457678125, 0.9858456393071617,0.012155463273022082,0.0056304931640625,0.3006439208984375,-0.803314208984375
20220205-1709,2022-02-05 17:09:47Z,u01, 97,40,movements,el-ex, rt, d,13068.188138000001, -0.04178972989827292, -0.3323658482958691, 0.015259540024457863, 0.20145229995250702, -0.23658904433250427, -0.1566935032606125, -0.039491210132837296, 0.3262803256511688, -0.9444477558135986, -0.011686798185110092, -0.006257772445678711, 0.09955340623855591, -0.1652209422016154, -0.021866727347669992, 0.9859529856755866,0.010978999585319171,-0.051177978515625,0.3200225830078125,-0.8448944091796875
20220205-1709,2022-02-05 17:09:47Z,u01, 98,40,movements,el-ex, rt, d,13068.213083, -0.04832927283645368, -0.3267362778498345, 0.011299675991770178, 0.1543533056974411, -0.21952392160892487, -0.1531257927417755, -0.04575458914041519, 0.32095369696617126, -0.9459890127182007, 0.005578167736530304, -0.020019888877868652, 0.11018884181976318, -0.16245764258805792, -0.024758815549848642, 0.9863590663589823,0.009502703374557164,-0.0326690673828125,0.2841644287109375,-0.824310302734375
20220205-1709,2022-02-05 17:09:47Z,u01, 99,40,movements,el-ex, rt, d,13068.238028000002, -0.05564967455183397, -0.3275351822551606, 0.007959921539528566, -0.18834252655506134, -0.28391939401626587, -0.09821487218141556, -0.05266404524445534, 0.3217102289199829, -0.9453724026679993, 0.03729841485619545, -0.0912872850894928, 0.16610610485076904, -0.1628628949271711, -0.028097409168448516, 0.9862122337956503,0.008461022993423106,-0.0153656005859375,0.2304229736328125,-0.779266357421875
20220205-1709,2022-02-05 17:09:47Z,u01, 100,40,movements,el-ex, rt, d,13068.262973, -0.06224746526142364, -0.3330841364198832, 0.00564746848750185, -0.1540636271238327, -0.16412371397018433, -0.06223789602518082, -0.05878826603293419, 0.32695919275283813, -0.9432081580162048, -0.008869245648384094, -0.07206115126609802, 0.12703078985214233, -0.1656056615159109, -0.031155896700715918, 0.9856677804995215,0.007941941787843854,-0.07781982421875,0.267608642578125,-0.82843017578125
20220205-1709,2022-02-05 17:09:47Z,u01, 101,40,movements,el-ex, rt, d,13068.287918, -0.06396753574375871, -0.3324454901089242, 0.004444014026782577, 0.2695915997028351, -0.0018706899136304855, -0.06896510720252991, -0.060423899441957474, 0.32635560631752014, -0.9433138370513916, -0.03694247454404831, -0.0010534822940826416, 0.0729982852935791, -0.1653032387594268, -0.03190493418454929, 0.9856982067359086,0.007481324012577839,-0.0973663330078125,0.3253021240234375,-0.8703155517578125
20220205-1709,2022-02-05 17:09:48Z,u01, 102,40,movements,el-ex, rt, d,13068.312863000001, -0.06362792556233723, -0.32314550129241776, 0.003057909859500583, 0.4481675624847412, -0.01093908492475748, -0.10054760426282883, -0.06029392033815384, 0.31755080819129944, -0.9463223814964294, -0.014413151890039444, 0.003417760133743286, 0.05052471160888672, -0.16074108938168113, -0.03164011003794619, 0.9864670223540273,0.006625342234410747,-0.06219482421875,0.3113250732421875,-0.90087890625
20220205-1709,2022-02-05 17:09:48Z,u01, 103,40,movements,el-ex, rt, d,13068.337808, -0.06539838684396003, -0.31589013819363254, 0.0009852649117122628, 0.07486959546804428, -0.14844506978988647, -0.10298632085323334, -0.06211818754673004, 0.3106626868247986, -0.9484882950782776, 0.039504632353782654, -0.05120226740837097, 0.11842542886734009, -0.1571891758694531, -0.03236385800890569, 0.987022050012408,0.00562855227589687,-0.022613525390625,0.25946044921875,-0.8300628662109375
20220205-1709,2022-02-05 17:09:48Z,u01, 104,40,movements,el-ex, rt, d,13068.362753000001, -0.07034839506289435, -0.3203392562332106, -0.0013846271002832002, -0.3742571175098419, -0.1532721221446991, -0.06298544257879257, -0.06671461462974548, 0.3148885667324066, -0.9467810392379761, 0.027224838733673096, -0.1104360818862915, 0.14004886150360107, -0.15941101460985907, -0.03460646286956102, 0.9865932495224631,0.004925593145425622,-0.0560760498046875,0.2064208984375,-0.7949981689453125
20220205-1709,2022-02-05 17:09:48Z,u01, 105,40,movements,el-ex, rt, d,13068.387698, -0.0720301250081846, -0.3294588535465891, -0.0029789164957090496, -0.23549680411815643, 0.06096512824296951, -0.0017973892390727997, -0.06809724867343903, 0.32353103160858154, -0.9437639713287354, -0.008669763803482056, -0.07311904430389404, 0.16309380531311035, -0.16393179520259743, -0.0352757046197052, 0.9858308589935887,0.0044363189351019905,-0.0767669677734375,0.2504119873046875,-0.780670166015625
20220205-1709,2022-02-05 17:09:48Z,u01, 106,40,movements,el-ex, rt, d,13068.412643000001, -0.06811053218070073, -0.3303539724929368, -0.00272509056900359, 0.12426210939884186, 0.2186497002840042, 0.026407215744256973, -0.06437782943248749, 0.3243778944015503, -0.943734347820282, -0.010588638484477997, -0.04898726940155029, 0.15908163785934448, -0.16437717915043853, -0.03336131566109667, 0.9858240611753768,0.004255294178351465,-0.0704498291015625,0.2747650146484375,-0.78204345703125
20220205-1709,2022-02-05 17:09:48Z,u01, 107,40,movements,el-ex, rt, d,13068.437589000001, -0.06214301681269099, -0.32689160910690035, -0.0012326720246505045, 0.08957896381616592, 0.2039240151643753, 0.06511466205120087, -0.058814361691474915, 0.32110080122947693, -0.945216953754425, 0.04743127152323723, -0.1010843813419342, 0.16109836101531982, -0.16265937030863364, -0.030552222131926397, 0.9861991007276256,0.004447283926893142,-0.011383056640625,0.2200164794921875,-0.78411865234375
20220205-1709,2022-02-05 17:09:48Z,u01, 108,40,movements,el-ex, rt, d,13068.462534, -0.056632044961709115, -0.3281915142260604, 0.0009849452593433887, -0.14449778199195862, 0.21404629945755005, 0.1052427813410759, -0.05358076095581055, 0.32233160734176636, -0.9451092481613159, 0.023475132882595062, -0.09903448820114136, 0.14995849132537842, -0.16328104048107617, -0.028012320440251683, 0.9861685900348764,0.00511075753601159,-0.0432586669921875,0.2299957275390625,-0.7963409423828125
20220205-1709,2022-02-05 17:09:48Z,u01, 109,40,movements,el-ex, rt, d,13068.487479000001, -0.048964553665674995, -0.3316914901755919, 0.003717321566428458, -0.08763635903596878, 0.3225458860397339, 0.1121440976858139, -0.04627713933587074, 0.32564279437065125, -0.9443596601486206, 0.009045660495758057, -0.05931591987609863, 0.1363762617111206, -0.16499189798670116, -0.02445065163492101, 0.9859743066962698,0.005873891297663247,-0.0372314453125,0.266326904296875,-0.8079833984375
20220205-1709,2022-02-05 17:09:48Z,u01, 110,40,movements,el-ex, rt, d,13068.512424, -0.03903062137480581, -0.33313555050375776, 0.006942608327498646, -0.08020997792482376, 0.3715595602989197, 0.12912100553512573, -0.036875419318675995, 0.32700780034065247, -0.9443019032478333, 0.03109230101108551, -0.06562474370002747, 0.13909560441970825, -0.16569924345288503, -0.01981930127835438, 0.9859546549024735,0.006657988165317541,-0.003997802734375,0.2578125,-0.7981109619140625
20220205-1709,2022-02-05 17:09:48Z,u01, 111,40,movements,el-ex, rt, d,13068.537369000001, -0.028297522903883314, -0.3374000624637098, 0.010638404485014316, -0.22366124391555786, 0.40237507224082947, 0.16699601709842682, -0.026698503643274307, 0.3310348689556122, -0.943240761756897, 0.02239549160003662, -0.06458592414855957, 0.15213358402252197, -0.16780761290024018, -0.014840247241005564, 0.9856785828513464,0.007618618956810319,-0.004302978515625,0.266448974609375,-0.791107177734375
20220205-1709,2022-02-05 17:09:48Z,u01, 112,40,movements,el-ex, rt, d,13068.562314, -0.01549204145920807, -0.34213827008119796, 0.01522048701726954, -0.15808673202991486, 0.4942461848258972, 0.1775970607995987, -0.01459353044629097, 0.33550217747688293, -0.9419263601303101, 0.022268667817115784, -0.05055958032608032, 0.13110482692718506, -0.1701678389257154, -0.008928142240235526, 0.985335264698001,0.00881746108790743,0.00994873046875,0.28936767578125,-0.809112548828125
20220205-1709,2022-02-05 17:09:48Z,u01, 113,40,movements,el-ex, rt, d,13068.587259, -0.0008954868547500466, -0.34605588634770984, 0.019868832363895254, -0.14837877452373505, 0.5564132928848267, 0.16953875124454498, -0.0008424003608524799, 0.33919015526771545, -0.9407174587249756, 0.019076615571975708, -0.03377026319503784, 0.12621855735778809, -0.17215296894192583, -0.0021513749640615087, 0.9850185022643381,0.00986299560111581,0.0182342529296875,0.305419921875,-0.8144989013671875
20220205-1709,2022-02-05 17:09:48Z,u01, 114,40,movements,el-ex, rt, d,13068.612205291667, 0.015295372045597659, -0.3484467595024448, 0.024076089747125825, -0.025982286781072617, 0.620125949382782, 0.1491525024175644, 0.014375623315572739, 0.34143832325935364, -0.9397942423820496, 0.026197463274002075, -0.008125364780426025, 0.09605950117111206, -0.17341637671746257, 0.00544468882206707, 0.9847771877453992,0.010529607581932887,0.0435791015625,0.3402252197265625,-0.8456878662109375
20220205-1709,2022-02-05 17:09:48Z,u01, 115,40,movements,el-ex, rt, d,13068.637150291668, 0.0323513222783165, -0.3477655424386593, 0.027665544571789, 0.014346392825245857, 0.6330586075782776, 0.12603074312210083, 0.030409354716539383, 0.34079796075820923, -0.9396446347236633, 0.037064969539642334, -0.01641136407852173, 0.10434800386428833, -0.17318905280200486, 0.013536731849676228, 0.984736038353725,0.01082383684247179,0.067474365234375,0.3243865966796875,-0.835296630859375
20220205-1709,2022-02-05 17:09:48Z,u01, 116,40,movements,el-ex, rt, d,13068.662095291667, 0.049462825696819576, -0.3503751644570239, 0.03138718039408481, -0.24755509197711945, 0.651390790939331, 0.15517005324363708, 0.04643872007727623, 0.34325021505355835, -0.9380952715873718, 0.034493863582611084, -0.05958932638168335, 0.15234392881393433, -0.17460023452544773, 0.02161305839577414, 0.9843391015753375,0.011138483888744166,0.081268310546875,0.27960205078125,-0.78375244140625
20220205-1709,2022-02-05 17:09:48Z,u01, 117,40,movements,el-ex, rt, d,13068.687040291667, 0.06938612227541588, -0.35634383141929404, 0.037212718442102874, -0.16579721868038177, 0.7847267985343933, 0.26144513487815857, 0.06497501581907272, 0.3488501012325287, -0.9349234700202942, 0.049191199243068695, -0.035205721855163574, 0.09547644853591919, -0.17772855212035563, 0.0308356454050243, 0.9835212144661267,0.012153354160209962,0.114166259765625,0.3136444091796875,-0.839447021484375
20220205-1709,2022-02-05 17:09:48Z,u01, 118,40,movements,el-ex, rt, d,13068.711985291668, 0.0926881496759551, -0.35674695193609923, 0.044926431261689805, 0.041748322546482086, 0.8473629355430603, 0.3040342926979065, 0.08672799915075302, 0.3492278456687927, -0.9330156445503235, 0.023303091526031494, -0.0021514594554901123, 0.060792744159698486, -0.17821793026363122, 0.04159991838048259, 0.9830135860442843,0.013863441805776644,0.1100006103515625,0.3463897705078125,-0.8764495849609375
20220205-1709,2022-02-05 17:09:48Z,u01, 119,40,movements,el-ex, rt, d,13068.736930291667, 0.11559025167739143, -0.3570004355941545, 0.053070039610921764, -0.21807676553726196, 0.7427117824554443, 0.3039519488811493, 0.10806119441986084, 0.34946537017822266, -0.9306969046592712, 0.03770597279071808, -0.025231361389160156, 0.07470935583114624, -0.1787031666277415, 0.05212217662970779, 0.9823942422275753,0.015814324343897623,0.1457672119140625,0.3242340087890625,-0.855987548828125
20220205-1709,2022-02-05 17:09:48Z,u01, 120,40,movements,el-ex, rt, d,13068.761875291668, 0.13701710020910643, -0.367451735017707, 0.06299054312329863, -0.6503392457962036, 0.7201470136642456, 0.337951123714447, 0.12747091054916382, 0.3592384457588196, -0.9244992733001709, 0.049195319414138794, -0.04860001802444458, 0.1042478084564209, -0.1842944102626356, 0.0615299353019632, 0.9807708957700751,0.018387345599190474,0.1783447265625,0.3134002685546875,-0.8373565673828125
20220205-1709,2022-02-05 17:09:48Z,u01, 121,40,movements,el-ex, rt, d,13068.786820291667, 0.1612151289772071, -0.38084626143492495, 0.07523228297093125, -0.4039272964000702, 0.8794385194778442, 0.40298593044281006, 0.14901666343212128, 0.3717062175273895, -0.9163124561309814, 0.01950135827064514, 0.042951345443725586, 0.052680253982543945, -0.1914997661478355, 0.07191392228469091, 0.9786166980446225,0.021577936384783558,0.16851806640625,0.4146575927734375,-0.8636322021484375
20220205-1709,2022-02-05 17:09:48Z,u01, 122,40,movements,el-ex, rt, d,13068.811766291667, 0.18932597987963554, -0.38256702440339213, 0.08623507604436036, 0.054571446031332016, 0.9918546080589294, 0.3536495268344879, 0.17459209263324738, 0.3733031451702118, -0.9111324548721313, 0.024474024772644043, 0.08377385139465332, 0.03355371952056885, -0.1930920090825095, 0.08455320564633052, 0.9772317220025607,0.024174858799582255,0.2132415771484375,0.457061767578125,-0.88494873046875
20220205-1709,2022-02-05 17:09:48Z,u01, 123,40,movements,el-ex, rt, d,13068.836711291668, 0.21573184693796207, -0.38025027334112976, 0.09418492378182623, -0.10780651867389679, 0.8696184754371643, 0.2760714292526245, 0.19877228140830994, 0.3711528778076172, -0.9070475101470947, 0.06409084796905518, 0.016817092895507812, 0.08472084999084473, -0.19265175769280835, 0.09675512909963871, 0.9761489176365499,0.025635497344296876,0.2628631591796875,0.387969970703125,-0.82232666015625
20220205-1709,2022-02-05 17:09:48Z,u01, 124,40,movements,el-ex, rt, d,13068.861656291667, 0.23996341424159348, -0.3875199412985367, 0.1037394148193716, -0.5470170378684998, 0.8255064487457275, 0.28861120343208313, 0.2200438678264618, 0.3778934180736542, -0.8993204832077026, 0.06616520881652832, -0.018564224243164062, 0.07171422243118286, -0.19699805380960367, 0.10738500463269654, 0.9741172320336181,0.027494426730084787,0.283721923828125,0.3607940673828125,-0.8470458984375
20220205-1709,2022-02-05 17:09:48Z,u01, 125,40,movements,el-ex, rt, d,13068.886601291668, 0.2669227507115901, -0.39698653105283405, 0.11492312622335407, -0.2665354013442993, 1.0146996974945068, 0.32652249932289124, 0.24325153231620789, 0.3866409957408905, -0.889571487903595, 0.022297129034996033, 0.06685018539428711, 0.04547053575515747, -0.20260815653608782, 0.11901341328139509, 0.9715499083159624,0.029605411546372917,0.2655487060546875,0.4534912109375,-0.8441009521484375
20220205-1709,2022-02-05 17:09:48Z,u01, 126,40,movements,el-ex, rt, d,13068.911546291667, 0.2966501989977079, -0.39481574609243664, 0.12245015037134323, 0.2121584713459015, 1.1048980951309204, 0.24580734968185425, 0.26982957124710083, 0.38463813066482544, -0.8827488422393799, 0.018454700708389282, 0.08978813886642456, -0.008272886276245117, -0.2024779569656185, 0.13277143437729066, 0.9697678497027095,0.030409814286602888,0.296295166015625,0.4760284423828125,-0.8863525390625
20220205-1709,2022-02-05 17:09:48Z,u01, 127,40,movements,el-ex, rt, d,13068.936491291668, 0.3238084211787743, -0.3874678493763657, 0.12577555596800624, 0.149234801530838, 0.9648615121841431, 0.1819983422756195, 0.29459235072135925, 0.3778451979160309, -0.877751886844635, 0.04871511459350586, 0.016533464193344116, -0.0006355643272399902, -0.19957205576962975, 0.1459282464615247, 0.9684949535407832,0.02989095066419034,0.3433074951171875,0.394378662109375,-0.878387451171875
20220205-1709,2022-02-05 17:09:48Z,u01, 128,40,movements,el-ex, rt, d,13068.961436291667, 0.34869065285056594, -0.3895461440127417, 0.13144557499311185, -0.402739942073822, 0.8967487812042236, 0.17381338775157928, 0.3160703480243683, 0.37976861000061035, -0.8694109320640564, 0.046035945415496826, -0.01892876625061035, 0.058085858821868896, -0.20137519087771918, 0.15729769287130907, 0.9663375033324302,0.029956567490663333,0.3693695068359375,0.3570098876953125,-0.806488037109375
20220205-1709,2022-02-05 17:09:48Z,u01, 129,40,movements,el-ex, rt, d,13068.986381291668, 0.37584175656963154, -0.39708968771585396, 0.1397132806604243, -0.2105950117111206, 1.040167212486267, 0.1801341325044632, 0.3384951949119568, 0.386736124753952, -0.8578205704689026, 0.053182631731033325, 0.053830862045288086, -0.004224717617034912, -0.2060814790337117, 0.16917486432153245, 0.9633182619262481,0.030465467311898697,0.3916778564453125,0.4405670166015625,-0.8620452880859375
20220205-1709,2022-02-05 17:09:48Z,u01, 130,40,movements,el-ex, rt, d,13069.011326291668, 0.40363833470921917, -0.3925843983325147, 0.14185860640734943, 0.37312155961990356, 1.0875153541564941, 0.08920848369598389, 0.362886518239975, 0.38257747888565063, -0.8496751189231873, 0.02622780203819275, 0.07813110947608948, -0.04656505584716797, -0.20452833166929085, 0.18256668561224154, 0.9612443064142568,0.029101455080394467,0.388702392578125,0.4497528076171875,-0.872344970703125
20220205-1709,2022-02-05 17:09:48Z,u01, 131,40,movements,el-ex, rt, d,13069.036271291667, 0.42843845053443497, -0.3865227816028116, 0.14105658276029978, -0.08416666835546494, 0.9260615706443787, 0.07669315487146378, 0.3848012089729309, 0.3769700229167938, -0.8425091505050659, 0.030832916498184204, -0.05455181002616882, 0.07598388195037842, -0.201905937672365, 0.19488311788687693, 0.9594444206082372,0.02684952529144985,0.4156341552734375,0.322418212890625,-0.7665252685546875
20220205-1709,2022-02-05 17:09:48Z,u01, 132,40,movements,el-ex, rt, d,13069.061216291668, 0.453851153773916, -0.39608285557507855, 0.14976194141841423, -0.7316156029701233, 0.8834238052368164, 0.1974187046289444, 0.4044865071773529, 0.38580742478370667, -0.8291823267936707, 0.07224377989768982, -0.08626213669776917, 0.04425489902496338, -0.20767028930018297, 0.2056256102750303, 0.9559521486566425,0.027327052166076837,0.4964447021484375,0.2998809814453125,-0.8053131103515625
20220205-1709,2022-02-05 17:09:48Z,u01, 133,40,movements,el-ex, rt, d,13069.086161291667, 0.48277611882617466, -0.40883988663204635, 0.1634175551709222, -0.4899700880050659, 1.0190285444259644, 0.24238544702529907, 0.4259783625602722, 0.39754509925842285, -0.8127117156982422, 0.05899167060852051, 0.02814456820487976, 0.013013839721679688, -0.2155606331400361, 0.21720444000805983, 0.9515781560223253,0.029236243348835067,0.4849700927734375,0.425689697265625,-0.7996978759765625
20220205-1709,2022-02-05 17:09:48Z,u01, 134,40,movements,el-ex, rt, d,13069.111106291668, 0.5123264702979967, -0.4116200981904458, 0.17197088478858744, -0.08696497976779938, 1.062177062034607, 0.18225820362567902, 0.44926127791404724, 0.4000946283340454, -0.7988044619560242, 0.02557694911956787, 0.04688107967376709, -0.00338059663772583, -0.2182615361917274, 0.23012966928573506, 0.947901888463279,0.02973631064411031,0.4720916748046875,0.4364471435546875,-0.7841339111328125
20220205-1709,2022-02-05 17:09:48Z,u01, 135,40,movements,el-ex, rt, d,13069.136051291667, 0.5398471410393701, -0.412295346981441, 0.17788668747986047, -0.18705223500728607, 0.9657156467437744, 0.18707145750522614, 0.47093304991722107, 0.40071338415145874, -0.7859076261520386, 0.03817641735076904, -0.016741245985031128, 0.015262484550476074, -0.21968393018545265, 0.24245647957171657, 0.9445039124300739,0.02943059421015226,0.5091094970703125,0.38397216796875,-0.7706451416015625
20220205-1709,2022-02-05 17:09:48Z,u01, 136,40,movements,el-ex, rt, d,13069.160997291667, 0.5676033580743538, -0.4149092386576147, 0.18660251110288484, -0.3204135000705719, 0.9908322095870972, 0.24886851012706757, 0.4919978976249695, 0.4031068682670593, -0.7716495394706726, 0.05184060335159302, -0.013488978147506714, -0.005480647087097168, -0.2223983052518911, 0.2543899346917398, 0.9407012847900172,0.030099208623011575,0.5556793212890625,0.3943939208984375,-0.7657623291015625
20220205-1709,2022-02-05 17:09:48Z,u01, 137,40,movements,el-ex, rt, d,13069.185942291668, 0.596785514501741, -0.41840460930540896, 0.19719903026392707, -0.297088086605072, 1.0050408840179443, 0.21837285161018372, 0.5135086178779602, 0.40630319714546204, -0.7557953596115112, 0.0837356448173523, 0.023307979106903076, 0.0018738508224487305, -0.22584700246087477, 0.2666372993916771, 0.9364397057653244,0.031280319659944655,0.5972442626953125,0.4296112060546875,-0.7539215087890625
20220205-1709,2022-02-05 17:09:48Z,u01, 138,40,movements,el-ex, rt, d,13069.210887291667, 0.6252566047305984, -0.41837804118236965, 0.2033737437396468, 0.06553824245929718, 1.0845270156860352, 0.15235163271427155, 0.5348222255706787, 0.40627893805503845, -0.7408795952796936, 0.02458024024963379, 0.05046239495277405, -0.022426068782806396, -0.22712039400347492, 0.27924276484412747, 0.9324602749565066,0.03094541303162396,0.5511932373046875,0.4550628662109375,-0.772735595703125
20220205-1709,2022-02-05 17:09:48Z,u01, 139,40,movements,el-ex, rt, d,13069.235832291668, 0.6524901030095309, -0.4130854300643777, 0.20366985887828723, 0.19657287001609802, 1.0637753009796143, 0.13879355788230896, 0.5560959577560425, 0.4014371335506439, -0.7277399301528931, 0.044337332248687744, 0.011648774147033691, -0.03651171922683716, -0.22514167808723876, 0.29230335135585456, 0.9289976306254327,0.02886561618014566,0.600433349609375,0.4130859375,-0.764251708984375
20220205-1709,2022-02-05 17:09:48Z,u01, 140,40,movements,el-ex, rt, d,13069.260777291667, 0.678707633539424, -0.4094193012226335, 0.20591998695682004, -0.12982459366321564, 0.9658203721046448, 0.16967202723026276, 0.5759023427963257, 0.3980766832828522, -0.7140529155731201, 0.08805334568023682, -0.022344261407852173, -0.03246808052062988, -0.22417272234179839, 0.3044998151906672, 0.9253462982971581,0.02758311646220679,0.6701202392578125,0.3687744140625,-0.7369842529296875
20220205-1709,2022-02-05 17:09:48Z,u01, 141,40,movements,el-ex, rt, d,13069.285722291668, 0.7063561708401404, -0.4129936857384664, 0.21561707064834168, -0.44869956374168396, 0.9356088638305664, 0.21084623038768768, 0.5944948196411133, 0.401353120803833, -0.6967722177505493, 0.09585851430892944, -0.022141695022583008, -0.021153807640075684, -0.22768670636991425, 0.31586808856068554, 0.9206436120819379,0.028308517044377646,0.6903533935546875,0.37921142578125,-0.717926025390625
20220205-1709,2022-02-05 17:09:49Z,u01, 142,40,movements,el-ex, rt, d,13069.310667291667, 0.7344419041223668, -0.4161516072890722, 0.22565400223071774, -0.11667544394731522, 1.006166934967041, 0.1842564344406128, 0.6129747033119202, 0.404243528842926, -0.678858757019043, 0.03195321559906006, 0.037406861782073975, -0.07730579376220703, -0.23112860720146586, 0.32733802843590154, 0.9157409494137061,0.02912026912841642,0.6339263916015625,0.4494171142578125,-0.76812744140625
20220205-1709,2022-02-05 17:09:49Z,u01, 143,40,movements,el-ex, rt, d,13069.335612291667, 0.7613346756546497, -0.41164688741190103, 0.22829218617721472, 0.12063611298799515, 1.018834114074707, 0.18861722946166992, 0.6322571635246277, 0.40011918544769287, -0.6634421944618225, 0.022054970264434814, 0.03141459822654724, -0.07651752233505249, -0.2299334617497464, 0.33971974307979286, 0.9115552171575099,0.028074482311280846,0.6543121337890625,0.4315338134765625,-0.739959716796875
20220205-1709,2022-02-05 17:09:49Z,u01, 144,40,movements,el-ex, rt, d,13069.360557291668, 0.7868268042496815, -0.4091916738704226, 0.2327692916788964, -0.26188087463378906, 0.869498610496521, 0.19309799373149872, 0.6496561169624329, 0.3978678584098816, -0.6478025317192078, 0.07303059101104736, -0.019739806652069092, -0.05117213726043701, -0.22996707592943477, 0.3510183647884162, 0.9072686111351617,0.02765660717799001,0.73272705078125,0.3791351318359375,-0.695953369140625
20220205-1709,2022-02-05 17:09:49Z,u01, 145,40,movements,el-ex, rt, d,13069.385502291667, 0.8123746163201464, -0.41255726078394384, 0.24543466035481232, -0.5177718997001648, 0.7882131338119507, 0.2414053976535797, 0.6650164127349854, 0.40095335245132446, -0.6300711035728455, 0.08588379621505737, 0.0003222525119781494, -0.08272796869277954, -0.23407842530416517, 0.3607932192480154, 0.9023029410648571,0.02974829190859707,0.7509002685546875,0.401275634765625,-0.712799072265625
20220205-1709,2022-02-05 17:09:49Z,u01, 146,40,movements,el-ex, rt, d,13069.410447291668, 0.837991886951169, -0.4157959783189383, 0.2582491791413697, -0.28661563992500305, 0.861849844455719, 0.20341596007347107, 0.6799684166908264, 0.40391820669174194, -0.6119584441184998, 0.020928800106048584, 0.04481223225593567, -0.07474815845489502, -0.2382391413817302, 0.3704900705970061, 0.8971994334746523,0.0318197866788445,0.69146728515625,0.4568939208984375,-0.6829071044921875
20220205-1709,2022-02-05 17:09:49Z,u01, 147,40,movements,el-ex, rt, d,13069.435392291667, 0.8625006756010976, -0.41406357121918164, 0.2637071262217505, -0.009408438578248024, 0.9052526354789734, 0.16303862631320953, 0.6952913999557495, 0.4023328125476837, -0.5955653786659241, 0.008031904697418213, 0.04468861222267151, -0.08155864477157593, -0.2388977642739215, 0.38097921910214944, 0.8926238353948285,0.03170627627883721,0.7033233642578125,0.447021484375,-0.6771240234375
20220205-1709,2022-02-05 17:09:49Z,u01, 148,40,movements,el-ex, rt, d,13069.460337291668, 0.8856197000350027, -0.41139026521574246, 0.26807041169589285, -0.14511270821094513, 0.7883529663085938, 0.22260801494121552, 0.7097035050392151, 0.3998839855194092, -0.580011785030365, 0.06057536602020264, 0.00784611701965332, -0.08608019351959229, -0.23894551935563413, 0.3910232141915385, 0.8882654698267778,0.03146887909061624,0.784881591796875,0.4019317626953125,-0.665802001953125
20220205-1709,2022-02-05 17:09:49Z,u01, 149,40,movements,el-ex, rt, d,13069.485282291667, 0.9080312006134661, -0.41214185427427097, 0.27881590894066544, -0.4726094901561737, 0.6854103803634644, 0.224978506565094, 0.7222860455513, 0.4005727469921112, -0.5637768507003784, 0.057254910469055176, 0.008057594299316406, -0.05164057016372681, -0.24175658531809915, 0.3995814363516149, 0.8836147461453434,0.033368187038351815,0.779541015625,0.40863037109375,-0.61541748046875
20220205-1709,2022-02-05 17:09:49Z,u01, 150,40,movements,el-ex, rt, d,13069.510228291667, 0.9315338297680973, -0.41633958739206667, 0.29299389761078354, -0.46886536478996277, 0.776322603225708, 0.12751765549182892, 0.7339796423912048, 0.40441545844078064, -0.5456390976905823, 0.01255655288696289, 0.04568830132484436, -0.040740907192230225, -0.2468192068811051, 0.407750834572878, 0.8783728539922252,0.03578550099579575,0.7423858642578125,0.4602813720703125,-0.579345703125
20220205-1709,2022-02-05 17:09:49Z,u01, 151,40,movements,el-ex, rt, d,13069.535173291668, 0.9549475176227522, -0.41771628640104713, 0.3004284070228559, -0.03286825865507126, 0.8172393441200256, 0.10271929949522018, 0.7460975646972656, 0.40567415952682495, -0.5279838442802429, 0.050853729248046875, 0.07148343324661255, -0.06808555126190186, -0.24935491506600566, 0.4169295028559695, 0.8733322275176704,0.03581565791499436,0.7969512939453125,0.4771575927734375,-0.5960693359375
20220205-1709,2022-02-05 17:09:49Z,u01, 152,40,movements,el-ex, rt, d,13069.560118291667, 0.9745981621909771, -0.41499611261665387, 0.30092203419666064, 0.04884517937898636, 0.7312654852867126, 0.10261610150337219, 0.7572383284568787, 0.4031863808631897, -0.5138392448425293, 0.05196577310562134, 0.0423702597618103, -0.0936589241027832, -0.24865698609617473, 0.4257347641286466, 0.8693375157901048,0.03423178306618457,0.808258056640625,0.433868408203125,-0.598175048828125
20220205-1709,2022-02-05 17:09:49Z,u01, 153,40,movements,el-ex, rt, d,13069.585063291668, 0.9932048932403253, -0.41423066428358934, 0.3045696585765055, -0.26423579454421997, 0.6533466577529907, 0.08374247699975967, 0.7669259309768677, 0.40248578786849976, -0.4998297393321991, 0.02585965394973755, 0.0054884254932403564, -0.0341058075428009, -0.2494356634016459, 0.4334362477060082, 0.8653209509497384,0.03368203697772382,0.79278564453125,0.4079742431640625,-0.533935546875
20220205-1709,2022-02-05 17:09:49Z,u01, 154,40,movements,el-ex, rt, d,13069.610008041667, 1.0138743084641908, -0.41826593466516854, 0.3144398335608784, -0.49483394622802734, 0.6876623630523682, 0.022707685828208923, 0.7757075428962708, 0.40617647767066956, -0.4830097556114197, 0.03760111331939697, 0.015408575534820557, 0.013451069593429565, -0.25362329562786884, 0.44064763845298344, 0.8604214893928224,0.03434647095128329,0.81964111328125,0.4282379150390625,-0.454925537109375
20220205-1709,2022-02-05 17:09:49Z,u01, 155,40,movements,el-ex, rt, d,13069.634953041668, 1.0366288000480652, -0.42455905620216605, 0.32674232430303335, -0.45620208978652954, 0.7057761549949646, 0.026846570894122124, 0.7842808365821838, 0.4119190275669098, -0.4639248549938202, 0.08292192220687866, 0.027885019779205322, -0.0029178261756896973, -0.25934758791115026, 0.4480808001501768, 0.8548267808640102,0.03512257453769435,0.8672027587890625,0.4398040771484375,-0.4668426513671875
20220205-1709,2022-02-05 17:09:49Z,u01, 156,40,movements,el-ex, rt, d,13069.659898041667, 1.056229903097483, -0.42709811364513056, 0.33295985926927585, 0.017001163214445114, 0.68211430311203, 0.020289937034249306, 0.7923101186752319, 0.4142313301563263, -0.44794780015945435, 0.044146180152893066, 0.059126853942871094, -0.09248799085617065, -0.26213160821109327, 0.4553165004297299, 0.8501641804544711,0.034567682149435675,0.8165435791015625,0.476806640625,-0.5467529296875
20220205-1709,2022-02-05 17:09:49Z,u01, 157,40,movements,el-ex, rt, d,13069.684843041667, 1.0719804809563387, -0.4245579867114332, 0.3276395823152857, 0.3211662769317627, 0.7323226928710938, -0.03879115730524063, 0.8001883029937744, 0.411918044090271, -0.4359153211116791, -0.034914255142211914, 0.020485520362854004, -0.08285301923751831, -0.2601351770534899, 0.4630032738215571, 0.8467596979761076,0.03091329940482057,0.7652740478515625,0.432403564453125,-0.518768310546875
20220205-1709,2022-02-05 17:09:49Z,u01, 158,40,movements,el-ex, rt, d,13069.709788041668, 1.08721262059097, -0.4222344318286128, 0.3206720515342788, 0.2037532478570938, 0.7142563462257385, -0.01797695830464363, 0.8075803518295288, 0.4097996652126312, -0.42412054538726807, 0.018042147159576416, -0.006937116384506226, -0.061490416526794434, -0.25778657935714244, 0.4706227893056257, 0.8434171032254265,0.026606819888102096,0.8439178466796875,0.4077301025390625,-0.4767913818359375
20220205-1709,2022-02-05 17:09:49Z,u01, 159,40,movements,el-ex, rt, d,13069.734733041667, 1.103626762622404, -0.42072756110983933, 0.31803268440717286, -0.01253289170563221, 0.6738036274909973, 0.013689292594790459, 0.8149832487106323, 0.4084246754646301, -0.41108590364456177, 0.07385647296905518, 0.009193122386932373, -0.011399507522583008, -0.25675943643400023, 0.47804983334144585, 0.8396292478837097,0.023784959572676123,0.8888397216796875,0.4176177978515625,-0.4224853515625
20220205-1709,2022-02-05 17:09:49Z,u01, 160,40,movements,el-ex, rt, d,13069.759678041668, 1.121252420247829, -0.42245191734249865, 0.3228425737170392, -0.37044331431388855, 0.5702285766601562, 0.02126312255859375, 0.8214664459228516, 0.4099980294704437, -0.39635154604911804, 0.05945390462875366, -0.010782331228256226, 0.0029646754264831543, -0.25881509654095647, 0.4846018693993754, 0.835250825104649,0.023063264469851186,0.87371826171875,0.3982391357421875,-0.387481689453125
20220205-1709,2022-02-05 17:09:49Z,u01, 161,40,movements,el-ex, rt, d,13069.784623041667, 1.1401297260448908, -0.4272812702166819, 0.3364678081144773, -0.6419114470481873, 0.5137730836868286, 0.05426721274852753, 0.8269928693771362, 0.41439804434776306, -0.37994372844696045, -0.0016907453536987305, 0.01327526569366455, 0.019943058490753174, -0.2642832521732627, 0.4900841705703906, 0.8302707274053941,0.024950064646168613,0.8253021240234375,0.42767333984375,-0.3600006103515625
20220205-1709,2022-02-05 17:09:49Z,u01, 162,40,movements,el-ex, rt, d,13069.809568041668, 1.1614516723022976, -0.4335286665719769, 0.3542658808884945, -0.7218831777572632, 0.5949466228485107, 0.02548256888985634, 0.8325140476226807, 0.4200756251811981, -0.3611881136894226, -0.023370981216430664, 0.02633550763130188, 0.016904056072235107, -0.27141046797657525, 0.4957240199032136, 0.8245152100961046,0.02772558868194741,0.814453125,0.4542236328125,-0.339508056640625
20220205-1709,2022-02-05 17:09:49Z,u01, 163,40,movements,el-ex, rt, d,13069.834513041667, 1.184395383552049, -0.43971801540119676, 0.3718090859897614, -0.616003692150116, 0.6416892409324646, 0.017435694113373756, 0.8381567597389221, 0.4256843328475952, -0.34100738167762756, 0.02613157033920288, 0.053868889808654785, 0.0037118196487426758, -0.2785255485707894, 0.5019161598058427, 0.8182919773505288,0.030031033147716935,0.864288330078125,0.47955322265625,-0.3372955322265625
20220205-1709,2022-02-05 17:09:49Z,u01, 164,40,movements,el-ex, rt, d,13069.859458041667, 1.2060802148650338, -0.4442823691682475, 0.38505557895632947, -0.40216168761253357, 0.623957633972168, -0.022421974688768387, 0.8435298204421997, 0.4298100173473358, -0.32205694913864136, 0.03421670198440552, 0.0609736442565918, -0.011805325746536255, -0.28395726498376994, 0.5082713780184732, 0.8124425222756971,0.031073837970823415,0.873748779296875,0.492431640625,-0.334381103515625
20220205-1709,2022-02-05 17:09:49Z,u01, 165,40,movements,el-ex, rt, d,13069.884404041668, 1.2248693229342777, -0.44754454640929436, 0.3923623318469691, -0.19093334674835205, 0.648685872554779, -0.037851862609386444, 0.8481082320213318, 0.43275320529937744, -0.30567485094070435, -0.016061723232269287, 0.05937322974205017, -0.022877395153045654, -0.2873556733322587, 0.5143824387211758, 0.8074114518194366,0.030400827700082345,0.8320465087890625,0.49212646484375,-0.32855224609375
20220205-1709,2022-02-05 17:09:49Z,u01, 166,40,movements,el-ex, rt, d,13069.909349041667, 1.2433527246406393, -0.44992928329247334, 0.39496278132543566, -0.04623056948184967, 0.7351577281951904, -0.07676264643669128, 0.8526334166526794, 0.4349018633365631, -0.28961488604545593, -0.027605950832366943, 0.05254018306732178, -0.022610485553741455, -0.28919888493413887, 0.5211108925746972, 0.8025079540279613,0.02808131144354109,0.8339691162109375,0.4859466552734375,-0.312042236328125
20220205-1709,2022-02-05 17:09:49Z,u01, 167,40,movements,el-ex, rt, d,13069.934294041668, 1.2622146030124706, -0.4511239130806981, 0.39406781950107794, 0.07636681944131851, 0.7970545887947083, -0.04663623124361038, 0.857448399066925, 0.4359772801399231, -0.27332404255867004, 0.013843655586242676, 0.04064622521400452, -0.027701348066329956, -0.2896598483937422, 0.5286162628532475, 0.7975305658032072,0.024637798659727206,0.8712921142578125,0.47662353515625,-0.301025390625
20220205-1709,2022-02-05 17:09:49Z,u01, 168,40,movements,el-ex, rt, d,13069.959239041667, 1.2811516882114726, -0.45164449705014953, 0.3903688336134579, 0.16019394993782043, 0.8139174580574036, -0.04970872402191162, 0.8622526526451111, 0.4364457130432129, -0.2569735646247864, 0.02754831314086914, 0.037232816219329834, -0.046035438776016235, -0.28908084626047986, 0.5366055215580364, 0.7925123586893719,0.020270531960688676,0.897247314453125,0.475616455078125,-0.3024139404296875
20220205-1709,2022-02-05 17:09:49Z,u01, 169,40,movements,el-ex, rt, d,13069.984184041667, 1.298629006958765, -0.45109938988454956, 0.3851287092516891, 0.1765977293252945, 0.7872251868247986, -0.04748678207397461, 0.8668410181999207, 0.4359552264213562, -0.24192914366722107, 0.010981857776641846, 0.0376012921333313, -0.06132405996322632, -0.2876212962308713, 0.5443431056435046, 0.7878537183927344,0.015846441136642575,0.8778228759765625,0.4735565185546875,-0.303253173828125
20220205-1709,2022-02-05 17:09:49Z,u01, 170,40,movements,el-ex, rt, d,13070.009129041668, 1.3156484132268187, -0.4517077284958129, 0.38150847750084876, 0.07229743897914886, 0.6921906471252441, -0.054753679782152176, 0.870576024055481, 0.436502605676651, -0.2270747423171997, 0.002348780632019043, 0.014882922172546387, -0.07147872447967529, -0.2869702702354163, 0.551462324193891, 0.7831975419225933,0.011792466728187678,0.87060546875,0.4529571533203125,-0.299163818359375
20220205-1709,2022-02-05 17:09:49Z,u01, 171,40,movements,el-ex, rt, d,13070.034074041667, 1.3320036051415705, -0.45346661867301613, 0.38073497364480424, -0.04622694104909897, 0.6470361948013306, -0.084292933344841, 0.8734259605407715, 0.4380844235420227, -0.21262462437152863, -0.003751218318939209, 0.024867236614227295, -0.08287709951400757, -0.28747997902128014, 0.5577122447124687, 0.7786131738182402,0.008594913261424197,0.8696746826171875,0.46295166015625,-0.295501708984375
20220205-1709,2022-02-05 17:09:49Z,u01, 172,40,movements,el-ex, rt, d,13070.059019041668, 1.3487510175850543, -0.4564541855551079, 0.3831735660981669, -0.1768874078989029, 0.6046428084373474, -0.11690640449523926, 0.8755834698677063, 0.4407680928707123, -0.19767872989177704, 0.00739675760269165, 0.007885992527008057, -0.08439520001411438, -0.2893054956039252, 0.5634385196126924, 0.773822311942598,0.006188792376960572,0.8846588134765625,0.450836181640625,-0.2762603759765625
20220205-1709,2022-02-05 17:09:49Z,u01, 173,40,movements,el-ex, rt, d,13070.083964041667, 1.3648914791207267, -0.4605364933368453, 0.38658221919212993, -0.08570490777492523, 0.5633339881896973, -0.1534244567155838, 0.8768913149833679, 0.44442877173423767, -0.18315187096595764, 0.016571760177612305, 0.026548951864242554, -0.09068237245082855, -0.29177412587768736, 0.5685876573750368, 0.7691299944963486,0.003865450082152888,0.893463134765625,0.470977783203125,-0.273834228515625
20220205-1709,2022-02-05 17:09:49Z,u01, 174,40,movements,el-ex, rt, d,13070.108909041668, 1.377627943605865, -0.46428793658546536, 0.3848245170259165, 0.1442873477935791, 0.5147950649261475, -0.16101141273975372, 0.8775103688240051, 0.44778624176979065, -0.1716475486755371, 0.011924326419830322, 0.030256330966949463, -0.1079087108373642, -0.29261998889274754, 0.5731926104136004, 0.7653911944780232,0.00013197611956455857,0.8867950439453125,0.478607177734375,-0.2761993408203125
20220205-1709,2022-02-05 17:09:49Z,u01, 175,40,movements,el-ex, rt, d,13070.133854041667, 1.3875367904647513, -0.4677594857159663, 0.3787754379661688, 0.20535466074943542, 0.48588934540748596, -0.19597984850406647, 0.8776344060897827, 0.4508875906467438, -0.1626598984003067, 0.027486443519592285, 0.004495680332183838, -0.10934329032897949, -0.29209761685595, 0.5773638684173366, 0.7624352139785082,-0.004742729084934949,0.905120849609375,0.45538330078125,-0.272003173828125
20220205-1709,2022-02-05 17:09:49Z,u01, 176,40,movements,el-ex, rt, d,13070.158799041668, 1.3959956069546982, -0.4719288681344601, 0.3716849688485234, 0.22445984184741974, 0.4332933723926544, -0.23097898066043854, 0.8771199584007263, 0.4546051621437073, -0.1549021154642105, 0.04589945077896118, -0.003158658742904663, -0.12093101441860199, -0.29148372309193804, 0.5810216706789075, 0.7598358886030574,-0.01002163307724585,0.9256591796875,0.4487762451171875,-0.277496337890625
20220205-1709,2022-02-05 17:09:49Z,u01, 177,40,movements,el-ex, rt, d,13070.183744041668, 1.4015513219951639, -0.47673497046774144, 0.36250502255669825, 0.3606017231941223, 0.34688717126846313, -0.2221529334783554, 0.8758032917976379, 0.4588806629180908, -0.1496569961309433, 0.051869988441467285, -0.02466130256652832, -0.14752322435379028, -0.29046559866333155, 0.5837818439203865, 0.7580083625502584,-0.015870610952464115,0.92767333984375,0.4342193603515625,-0.29718017578125
20220205-1709,2022-02-05 17:09:49Z,u01, 178,40,movements,el-ex, rt, d,13070.208689041667, 1.4034963309431558, -0.48025086132158246, 0.3515090748356553, 0.3192644715309143, 0.21453724801540375, -0.1936473846435547, 0.8744965195655823, 0.4620016813278198, -0.14768369495868683, 0.035934388637542725, -0.059551119804382324, -0.13587045669555664, -0.2884691919395206, 0.5856139324688505, 0.7572195764694465,-0.021458365011654823,0.9009246826171875,0.4001312255859375,-0.281585693359375
20220205-1709,2022-02-05 17:09:49Z,u01, 179,40,movements,el-ex, rt, d,13070.233634041668, 1.4042714409827144, -0.4834090474687426, 0.34426302196721525, 0.15864348411560059, 0.12092466652393341, -0.16268552839756012, 0.8731672763824463, 0.46480029821395874, -0.14676320552825928, 0.00883638858795166, -0.06628653407096863, -0.1338459700345993, -0.2874480170877452, 0.5865083415530981, 0.7567955656353,-0.025337682949160112,0.8820037841796875,0.3985137939453125,-0.280609130859375
20220205-1709,2022-02-05 17:09:49Z,u01, 180,40,movements,el-ex, rt, d,13070.258580041667, 1.404616345363346, -0.48658808767871886, 0.3399313590510342, 0.11301135271787643, 0.06363461911678314, -0.1370205283164978, 0.871756374835968, 0.46761271357536316, -0.14621691405773163, 0.013848483562469482, -0.05216163396835327, -0.12815141677856445, -0.2872915643133482, 0.5868177758493927, 0.7565192383218904,-0.028057706228885426,0.8876800537109375,0.4145050048828125,-0.27349853515625
20220205-1709,2022-02-05 17:09:49Z,u01, 181,40,movements,el-ex, rt, d,13070.283525041668, 1.4043269033732533, -0.48932901311682797, 0.33696205208871643, 0.06188222020864487, 0.002911549061536789, -0.11893000453710556, 0.8704466819763184, 0.47003373503685, -0.14625628292560577, 0.03377389907836914, -0.05438435077667236, -0.10734480619430542, -0.28738931837556586, 0.5867531318442312, 0.7564565249893763,-0.03002855578446001,0.9042205810546875,0.4156494140625,-0.25360107421875
20220205-1709,2022-02-05 17:09:50Z,u01, 182,40,movements,el-ex, rt, d,13070.308470041668, 1.4027282065750066, -0.4913249190731648, 0.33611882490149886, -0.05237910896539688, -0.10969089716672897, -0.07203919440507889, 0.869284987449646, 0.4717944860458374, -0.14749042689800262, 0.05286455154418945, -0.06099742650985718, -0.09135542809963226, -0.2878691296437214, 0.5859915931439265, 0.7568346437757665,-0.030764804851799943,0.920440673828125,0.4049835205078125,-0.2291107177734375
20220205-1709,2022-02-05 17:09:50Z,u01, 183,40,movements,el-ex, rt, d,13070.333415041667, 1.4003727538169857, -0.49324870420538464, 0.3391290787028744, -0.13477671146392822, -0.1749960035085678, -0.047744642943143845, 0.8680391907691956, 0.4734898507595062, -0.14938338100910187, 0.017931878566741943, -0.053186506032943726, -0.07034318149089813, -0.28946316448399856, 0.5843965969488953, 0.7574940392049878,-0.029908280556881828,0.8859710693359375,0.4203033447265625,-0.2197265625
20220205-1709,2022-02-05 17:09:50Z,u01, 184,40,movements,el-ex, rt, d,13070.358360041668, 1.3928606377877415, -0.49085859490579675, 0.33955540416494884, -0.06807268410921097, -0.15435710549354553, -0.028909500688314438, 0.8680039048194885, 0.471383273601532, -0.15609979629516602, 0.0007552504539489746, -0.03470724821090698, -0.05994945764541626, -0.2888525792509303, 0.5818198109490945, 0.7597843111733088,-0.027888329498395203,0.8706512451171875,0.439910888671875,-0.2121734619140625
20220205-1709,2022-02-05 17:09:50Z,u01, 185,40,movements,el-ex, rt, d,13070.383305041667, 1.3828523994865498, -0.48492047074764544, 0.33825138353574347, -0.08428774029016495, -0.21256926655769348, 0.00970447063446045, 0.8691328167915344, 0.46613800525665283, -0.16529911756515503, 0.023506522178649902, -0.027737677097320557, -0.059707000851631165, -0.28650074938943154, 0.5790231126927979, 0.7629042555244858,-0.025035890589902465,0.89263916015625,0.4384002685546875,-0.225006103515625
20220205-1709,2022-02-05 17:09:50Z,u01, 186,40,movements,el-ex, rt, d,13070.408250041668, 1.3760221629811127, -0.48144606174218413, 0.341195317864358, -0.20252929627895355, -0.2890810966491699, 0.04617699235677719, 0.8695670962333679, 0.4630613327026367, -0.17154398560523987, 0.030960917472839355, -0.022952109575271606, -0.04647362232208252, -0.28619343597996116, 0.5764731750560849, 0.7650463001034087,-0.02182138230696945,0.9002532958984375,0.44110107421875,-0.2169952392578125
20220205-1709,2022-02-05 17:09:50Z,u01, 187,40,movements,el-ex, rt, d,13070.433195041667, 1.3685745708291608, -0.4788978276334872, 0.3464419102991233, -0.22383569180965424, -0.32487350702285767, 0.037929385900497437, 0.8694186210632324, 0.46080127358436584, -0.17825178802013397, 0.01850569248199463, -0.0021983087062835693, -0.03535600006580353, -0.286864884963277, 0.5732212842417543, 0.7673359627400944,-0.017931808510310565,0.8879241943359375,0.4586029052734375,-0.2136077880859375
20220205-1709,2022-02-05 17:09:50Z,u01, 188,40,movements,el-ex, rt, d,13070.458140041668, 1.361586826424924, -0.47775620661759843, 0.3505932628534234, -0.10483250021934509, -0.2995349168777466, 0.04209663346409798, 0.8686657547950745, 0.4597877860069275, -0.184431791305542, 0.011979997158050537, 0.01666790246963501, -0.04705929756164551, -0.28769994085033823, 0.5700989842467197, 0.7694100403279174,-0.014970501371654177,0.883087158203125,0.47137451171875,-0.2367706298828125
20220205-1709,2022-02-05 17:09:50Z,u01, 189,40,movements,el-ex, rt, d,13070.483085041667, 1.3566647663339175, -0.47862257922082235, 0.3534701445691943, -0.02662947028875351, -0.3588593006134033, 0.07274661958217621, 0.8673579096794128, 0.4605569839477539, -0.1886204481124878, 0.033505797386169434, 0.0047750771045684814, -0.06301230192184448, -0.28886420791767786, 0.5676682545235983, 0.7707982765289241,-0.013427653631346903,0.9008636474609375,0.46533203125,-0.2516326904296875
20220205-1709,2022-02-05 17:09:50Z,u01, 190,40,movements,el-ex, rt, d,13070.508030041667, 1.3486955406179941, -0.478074554418669, 0.3553044845932635, -0.06008909270167351, -0.4193137288093567, 0.07559207826852798, 0.8660731911659241, 0.4600704610347748, -0.1955820918083191, 0.018356680870056152, 0.002041935920715332, -0.06538894772529602, -0.2892356338488227, 0.5644038438493489, 0.7730854765614723,-0.011394965352332032,0.8810882568359375,0.46002197265625,-0.25885009765625
20220205-1709,2022-02-05 17:09:50Z,u01, 191,40,movements,el-ex, rt, d,13070.532975041668, 1.3408222002332406, -0.47819992808358336, 0.35979776851064565, -0.1628677099943161, -0.46744218468666077, 0.08163312822580338, 0.8644503951072693, 0.4601817727088928, -0.20238173007965088, 0.024877607822418213, -0.0033336281776428223, -0.057628095149993896, -0.2905839725322369, 0.5606871605465433, 0.7753178380186483,-0.008553699454190267,0.8893280029296875,0.45684814453125,-0.260009765625
20220205-1709,2022-02-05 17:09:50Z,u01, 192,40,movements,el-ex, rt, d,13070.557920041667, 1.3321876086613527, -0.478545335401053, 0.36583276406282805, -0.1893726885318756, -0.5087531208992004, 0.06778521835803986, 0.8625161647796631, 0.4604884088039398, -0.20980067551136017, 0.038988351821899414, 0.012427270412445068, -0.042335569858551025, -0.2924237461325162, 0.5564063366724713, 0.7777369621392933,-0.005060056822849157,0.9056549072265625,0.4727630615234375,-0.251068115234375
20220205-1709,2022-02-05 17:09:50Z,u01, 193,40,movements,el-ex, rt, d,13070.582865041668, 1.3223609031523702, -0.47834388977860287, 0.37023489990103836, -0.09208334237337112, -0.49910038709640503, 0.031031331047415733, 0.8605027198791504, 0.46030959486961365, -0.21828888356685638, 0.023911893367767334, 0.026613563299179077, -0.0334659069776535, -0.29358743628499695, 0.551961933049479, 0.780474823581982,-0.0018428594359539696,0.8844146728515625,0.4869232177734375,-0.2517547607421875
20220205-1709,2022-02-05 17:09:50Z,u01, 194,40,movements,el-ex, rt, d,13070.607809416668, 1.3112649943621277, -0.47794955056381083, 0.3725959533319096, -0.05379927158355713, -0.5074801445007324, 0.024286208674311638, 0.8582031726837158, 0.459959477186203, -0.227869912981987, 0.01701045036315918, 0.013520747423171997, -0.028782963752746582, -0.29409545321855884, 0.5473325402526406, 0.7835396118056153,0.0008325895067081146,0.8741455078125,0.4757537841796875,-0.26519775390625
20220205-1709,2022-02-05 17:09:50Z,u01, 195,40,movements,el-ex, rt, d,13070.632754416667, 1.2994269202701603, -0.4783279388097734, 0.3752814438259, -0.09715662896633148, -0.5614467859268188, 0.04707347974181175, 0.8552778959274292, 0.4602954089641571, -0.23796653747558594, 0.03234124183654785, 0.004151672124862671, -0.03965190052986145, -0.2949525170150446, 0.542235876878166, 0.7867471556936585,0.003513864433466629,0.8876190185546875,0.464447021484375,-0.277618408203125
20220205-1709,2022-02-05 17:09:50Z,u01, 196,40,movements,el-ex, rt, d,13070.657700416667, 1.2863602122258622, -0.47804311958475837, 0.37782165484593, -0.056536268442869186, -0.584273636341095, 0.0396256186068058, 0.8522211909294128, 0.4600425362586975, -0.24915829300880432, 0.03178143501281738, 0.016458868980407715, -0.0333733856678009, -0.2955002657143024, 0.5367498889830179, 0.7902761972606984,0.006531070809499384,0.8830413818359375,0.479827880859375,-0.279937744140625
20220205-1709,2022-02-05 17:09:50Z,u01, 197,40,movements,el-ex, rt, d,13070.682645416668, 1.2726822580149766, -0.4773458235272036, 0.37890023577574433, 0.002615101635456085, -0.5628867149353027, 0.05114518851041794, 0.8490399122238159, 0.459423303604126, -0.2608853876590729, 0.021290719509124756, 0.01903119683265686, -0.031839191913604736, -0.29547686500437276, 0.5312727380800001, 0.7939509409693888,0.009190156576668773,0.870330810546875,0.47845458984375,-0.292724609375
20220205-1709,2022-02-05 17:09:50Z,u01, 198,40,movements,el-ex, rt, d,13070.707590416667, 1.2587430698860624, -0.4766145959803344, 0.379196208284641, -0.007389495614916086, -0.5942181348800659, 0.02890107035636902, 0.8456405997276306, 0.4587737023830414, -0.27279767394065857, 0.02549886703491211, 0.01209723949432373, -0.020872920751571655, -0.2952109571751302, 0.5257866962088088, 0.7976619123151543,0.011585852661129825,0.87451171875,0.4678497314453125,-0.2949371337890625
20220205-1709,2022-02-05 17:09:50Z,u01, 199,40,movements,el-ex, rt, d,13070.732535416668, 1.24406937848141, -0.47622961534920744, 0.3804067885605256, -0.05614301934838295, -0.6300737857818604, 0.04099694639444351, 0.8417141437530518, 0.458431601524353, -0.2852332592010498, 0.02556508779525757, 0.006900519132614136, -0.020415574312210083, -0.29528834862609377, 0.5197962698936942, 0.8015053502743041,0.014350616109113867,0.867279052734375,0.46533203125,-0.3056488037109375
20220205-1709,2022-02-05 17:09:50Z,u01, 200,40,movements,el-ex, rt, d,13070.757480416667, 1.229655734031471, -0.4762928267490789, 0.3828899143659637, -0.11247417330741882, -0.6178846955299377, 0.017638958990573883, 0.8374881148338318, 0.45848777890205383, -0.29732564091682434, 0.017446517944335938, 0.01041477918624878, -0.00817057490348816, -0.29583904374410847, 0.5136306481504265, 0.8052067729873661,0.017459469620108137,0.8545074462890625,0.4672088623046875,-0.30615234375
20220205-1709,2022-02-05 17:09:50Z,u01, 201,40,movements,el-ex, rt, d,13070.782425416668, 1.2155436589213948, -0.47690157141692535, 0.38538324217919023, -0.026212051510810852, -0.6231541633605957, 0.010125516913831234, 0.8329471349716187, 0.4590286612510681, -0.3090171813964844, 0.03230243921279907, 0.0315413773059845, -0.025714844465255737, -0.29657194148826593, 0.5074805316016119, 0.8087603310330977,0.02037769819684243,0.8652496337890625,0.490570068359375,-0.3347320556640625
20220205-1709,2022-02-05 17:09:50Z,u01, 202,40,movements,el-ex, rt, d,13070.807370416667, 1.1996825332006706, -0.47588505528165065, 0.3839948452917977, 0.127417653799057, -0.6127080321311951, 0.02148003689944744, 0.8283756971359253, 0.45812535285949707, -0.32235831022262573, 0.03228104114532471, 0.02721095085144043, -0.024916470050811768, -0.295665824482724, 0.5014006016055882, 0.8128190587428612,0.022457385442154754,0.8567962646484375,0.482696533203125,-0.3470306396484375
20220205-1709,2022-02-05 17:09:50Z,u01, 203,40,movements,el-ex, rt, d,13070.832315416668, 1.1831259417341555, -0.47450930104431743, 0.3808439562960263, 0.11342497169971466, -0.6180607676506042, 0.007591318339109421, 0.823508083820343, 0.45690202713012695, -0.33626657724380493, 0.023934662342071533, 0.010139048099517822, -0.015494316816329956, -0.29416226414327407, 0.49531330780604355, 0.8170416483823761,0.02400866771975735,0.847442626953125,0.467041015625,-0.3517608642578125
20220205-1709,2022-02-05 17:09:50Z,u01, 204,40,movements,el-ex, rt, d,13070.857260416667, 1.1664933760132232, -0.4737822899126767, 0.3786569065502153, 0.06199680268764496, -0.6358597278594971, -0.0025667762383818626, 0.8181065917015076, 0.4562551975250244, -0.3500470519065857, 0.023064732551574707, 0.012952595949172974, -0.007680028676986694, -0.2931372703073659, 0.4889243456551724, 0.8211942784357799,0.025760724450648864,0.83941650390625,0.469635009765625,-0.3610992431640625
20220205-1709,2022-02-05 17:09:50Z,u01, 205,40,movements,el-ex, rt, d,13070.882205416667, 1.1498620568779292, -0.47322105976176276, 0.377379913162198, 0.04403388127684593, -0.6504227519035339, 0.010495162568986416, 0.812405526638031, 0.45575574040412903, -0.3637087345123291, 0.020419180393218994, 0.011697232723236084, -0.014739781618118286, -0.2923869167252166, 0.4823437744868056, 0.8252757655718618,0.027826571786260357,0.83282470703125,0.4674530029296875,-0.378448486328125
20220205-1709,2022-02-05 17:09:50Z,u01, 206,40,movements,el-ex, rt, d,13070.907150416668, 1.1333561039012234, -0.47259190169363197, 0.37629278945200073, 0.0759025365114212, -0.6411628127098083, 0.018427787348628044, 0.8065512776374817, 0.4551956057548523, -0.3771894872188568, 0.023236870765686035, 0.02548670768737793, 0.0009535253047943115, -0.2916427413981296, 0.47576230109519146, 0.8292750019835822,0.02996081333391787,0.8321380615234375,0.483917236328125,-0.373321533203125
20220205-1709,2022-02-05 17:09:50Z,u01, 207,40,movements,el-ex, rt, d,13070.932095416667, 1.1161770554983037, -0.4708983610732113, 0.3733890405310945, 0.1720864176750183, -0.6418265700340271, 0.018981125205755234, 0.8006443381309509, 0.45368704199790955, -0.3913269340991974, 0.03906208276748657, 0.03636416792869568, -0.0025939643383026123, -0.29002711816642135, 0.46927690166871283, 0.8334612769363892,0.031714422376692364,0.8397064208984375,0.49005126953125,-0.3939208984375
20220205-1709,2022-02-05 17:09:50Z,u01, 208,40,movements,el-ex, rt, d,13070.957040416668, 1.0982864565612498, -0.4684758845232925, 0.3688503470301756, 0.1934685856103897, -0.636178731918335, -0.0012843972072005272, 0.7944917678833008, 0.4515269100666046, -0.4060865044593811, 0.02127361297607422, 0.02515760064125061, 0.007710069417953491, -0.28772232882592746, 0.46278785981590637, 0.8378248996592421,0.03305505431929434,0.808380126953125,0.477630615234375,-0.399383544921875
20220205-1709,2022-02-05 17:09:50Z,u01, 209,40,movements,el-ex, rt, d,13070.981985416667, 1.0805712637216656, -0.46659237797320824, 0.3644862803359083, 0.14874814450740814, -0.6364005208015442, -0.014414780773222446, 0.7879225015640259, 0.4498455226421356, -0.4204963445663452, 0.014827072620391846, 0.019987821578979492, 0.0071509480476379395, -0.28567166699748464, 0.4562274920589305, 0.8420655181689894,0.03426249737830156,0.8027496337890625,0.4698333740234375,-0.4133453369140625
20220205-1709,2022-02-05 17:09:50Z,u01, 210,40,movements,el-ex, rt, d,13071.006930416668, 1.0629726648333078, -0.46547891154050514, 0.36120059670457855, 0.1051715686917305, -0.6575866341590881, -0.008802034892141819, 0.780837893486023, 0.4488508105278015, -0.43454012274742126, 0.03208935260772705, 0.021638691425323486, 0.017441153526306152, -0.2841737808654931, 0.44941651021752305, 0.8461662756827382,0.03567484438861507,0.813751220703125,0.4731903076171875,-0.4172821044921875
20220205-1709,2022-02-05 17:09:50Z,u01, 211,40,movements,el-ex, rt, d,13071.031875416667, 1.0453530075870179, -0.4643860770527213, 0.3584922533120404, 0.1269005388021469, -0.663041889667511, -0.0049746073782444, 0.7734845280647278, 0.4478739798069, -0.44847580790519714, 0.03320181369781494, 0.026033461093902588, 0.005711555480957031, -0.28280760665869575, 0.4424725408080752, 0.8502035538184494,0.03730636594003428,0.8066864013671875,0.473907470703125,-0.4427642822265625
20220205-1709,2022-02-05 17:09:50Z,u01, 212,40,movements,el-ex, rt, d,13071.056821416667, 1.0271734729211661, -0.46314058962435106, 0.35508933379377344, 0.12015384435653687, -0.6695559024810791, -0.037032075226306915, 0.7656809091567993, 0.44676005840301514, -0.46275073289871216, 0.027699768543243408, 0.018755078315734863, 0.014416992664337158, -0.2812095542968929, 0.4353686037220051, 0.8543271417022663,0.038737133402454216,0.7906341552734375,0.4661407470703125,-0.4513702392578125
20220205-1709,2022-02-05 17:09:50Z,u01, 213,40,movements,el-ex, rt, d,13071.081766416668, 1.0093191660100749, -0.46298733948848936, 0.35240470745028485, 0.04917101934552193, -0.6750586032867432, -0.051292505115270615, 0.7573550939559937, 0.44662293791770935, -0.47638335824012756, 0.023513376712799072, 0.01346006989479065, 0.022464871406555176, -0.2802153910201419, 0.4281210790052663, 0.8582429728155132,0.04013215777699802,0.7808685302734375,0.4600830078125,-0.45391845703125
20220205-1709,2022-02-05 17:09:50Z,u01, 214,40,movements,el-ex, rt, d,13071.106711416667, 0.991853315459524, -0.4638196210810109, 0.35074199665777606, 0.027182562276721, -0.6629317402839661, -0.059626735746860504, 0.7486082315444946, 0.44736742973327637, -0.489334374666214, 0.01846635341644287, 0.022450655698776245, 0.0296633243560791, -0.2798472681994774, 0.42073545117580025, 0.8619350240682313,0.04165667813245677,0.76470947265625,0.4718017578125,-0.46038818359375
20220205-1709,2022-02-05 17:09:50Z,u01, 215,40,movements,el-ex, rt, d,13071.131656416668, 0.9747570831575266, -0.4643552215424904, 0.34864056879923017, 0.08908651024103165, -0.6420323252677917, -0.054552145302295685, 0.739935040473938, 0.447846382856369, -0.5019260048866272, 0.021112263202667236, 0.029356926679611206, 0.022128641605377197, -0.2792682970093016, 0.41357734126755014, 0.8655132907211307,0.04300822427366924,0.76104736328125,0.477203369140625,-0.47979736328125
20220205-1709,2022-02-05 17:09:50Z,u01, 216,40,movements,el-ex, rt, d,13071.156601416667, 0.9571280588347536, -0.46380723190937, 0.3451495397669829, 0.14136053621768951, -0.6398144364356995, -0.06220494210720062, 0.7311726212501526, 0.44735637307167053, -0.515032947063446, 0.024366259574890137, 0.029023021459579468, 0.022952258586883545, -0.27794115501516986, 0.40648768440666067, 0.8692372354156932,0.04408158339148466,0.7503509521484375,0.4799346923828125,-0.4937744140625
20220205-1709,2022-02-05 17:09:50Z,u01, 217,40,movements,el-ex, rt, d,13071.181546416667, 0.9395470126060776, -0.4626569667348819, 0.3403629786350552, 0.20195384323596954, -0.608164370059967, -0.06661833077669144, 0.7224202156066895, 0.4463273286819458, -0.5281108021736145, 0.021552562713623047, 0.0384443998336792, 0.020084679126739502, -0.27610580989674754, 0.399637558000365, 0.8729587925861138,0.044703843929862375,0.7439727783203125,0.484771728515625,-0.508026123046875
20220205-1709,2022-02-05 17:09:50Z,u01, 218,40,movements,el-ex, rt, d,13071.206491416668, 0.9218383128517277, -0.46099347097814014, 0.33393578952107583, 0.24831123650074005, -0.5944304466247559, -0.0958302766084671, 0.7135457992553711, 0.4448380768299103, -0.5412684082984924, 0.03415006399154663, 0.037202298641204834, 0.02457529306411743, -0.27373736247275465, 0.39298049010898295, 0.8767182332016323,0.044713394908887316,0.7437591552734375,0.4818115234375,-0.51800537109375
20220205-1709,2022-02-05 17:09:50Z,u01, 219,40,movements,el-ex, rt, d,13071.231436416667, 0.9036171551238753, -0.4591420617744464, 0.3265200222945543, 0.26713302731513977, -0.6001465320587158, -0.1029304638504982, 0.7042111158370972, 0.443179190158844, -0.5546880960464478, 0.022687017917633057, 0.03143015503883362, 0.004532516002655029, -0.2711041838188855, 0.38621038231191335, 0.880554520402194,0.04436033404111095,0.726898193359375,0.474609375,-0.5501556396484375
20220205-1709,2022-02-05 17:09:50Z,u01, 220,40,movements,el-ex, rt, d,13071.256381416668, 0.8852118440400178, -0.4569469029375958, 0.3188122361592365, 0.2718033194541931, -0.5983775854110718, -0.09327210485935211, 0.6946346163749695, 0.4412102997303009, -0.5681692361831665, 0.027045071125030518, 0.027341336011886597, 0.010964035987854004, -0.2682886211258664, 0.3793897743863812, 0.8843949774976405,0.043933592149234535,0.720550537109375,0.464874267578125,-0.5568695068359375
20220205-1709,2022-02-05 17:09:50Z,u01, 221,40,movements,el-ex, rt, d,13071.281326416667, 0.8670354903755606, -0.45502149379718937, 0.3118941075996312, 0.2160140872001648, -0.6185967922210693, -0.10475192964076996, 0.6848395466804504, 0.43948161602020264, -0.5812491774559021, 0.025548577308654785, 0.024461835622787476, 0.0176658034324646, -0.26576570014965795, 0.3724835509779006, 0.8880952433132471,0.04371855810443798,0.71038818359375,0.4639434814453125,-0.5635833740234375
20220205-1709,2022-02-05 17:09:50Z,u01, 222,40,movements,el-ex, rt, d,13071.306271416668, 0.8488904280923704, -0.45412944395756283, 0.30579107913653614, 0.14468997716903687, -0.6282486319541931, -0.1292029470205307, 0.6744745969772339, 0.43868017196655273, -0.5938381552696228, 0.024469494819641113, 0.027277469635009766, 0.011623740196228027, -0.2638597985542961, 0.3653203109895857, 0.8916379727942103,0.043598275266569175,0.6960601806640625,0.4694671630859375,-0.582305908203125
20220205-1709,2022-02-05 17:09:51Z,u01, 223,40,movements,el-ex, rt, d,13071.331216416667, 0.8311541785590844, -0.45507108645102345, 0.3012873706523278, 0.061413735151290894, -0.6277998685836792, -0.14082764089107513, 0.6635311841964722, 0.43952617049217224, -0.6054280996322632, 0.029584050178527832, 0.01925984025001526, 0.015279173851013184, -0.26306578738679554, 0.3578859276703307, 0.8948756307671057,0.043723649825671784,0.693115234375,0.4587860107421875,-0.59014892578125
20220205-1709,2022-02-05 17:09:51Z,u01, 224,40,movements,el-ex, rt, d,13071.356161416668, 0.8136368543116925, -0.4563906362132127, 0.2971198805178258, 0.12076417356729507, -0.62872713804245, -0.14425399899482727, 0.6524023413658142, 0.44071105122566223, -0.6165590286254883, 0.04487854242324829, 0.032296180725097656, 0.020153939723968506, -0.26251782291673936, 0.350435278310331, 0.8979720961171829,0.0438830199786181,0.69354248046875,0.4743194580078125,-0.598419189453125
20220205-1709,2022-02-05 17:09:51Z,u01, 225,40,movements,el-ex, rt, d,13071.381106416668, 0.7955116613743475, -0.45676804577715246, 0.2914643779512419, 0.14082667231559753, -0.625280499458313, -0.1579429805278778, 0.6410017013549805, 0.4410497844219208, -0.6281655430793762, 0.02803516387939453, 0.025121450424194336, 0.025840044021606445, -0.26130569396929215, 0.34298188617953257, 0.9012095561824909,0.043635809158472316,0.669036865234375,0.4661712646484375,-0.602325439453125
20220205-1709,2022-02-05 17:09:51Z,u01, 226,40,movements,el-ex, rt, d,13071.406051416667, 0.7772440258085895, -0.45752527304666557, 0.2857531765474648, 0.09863118082284927, -0.6400724649429321, -0.16716144979000092, 0.6291858553886414, 0.44172927737236023, -0.6395313739776611, 0.03830981254577637, 0.016797363758087158, 0.016438722610473633, -0.26027246163327317, 0.33539908871437457, 0.9043737094717792,0.04328854735412174,0.6674041748046875,0.45684814453125,-0.6247406005859375
20220205-1709,2022-02-05 17:09:51Z,u01, 227,40,movements,el-ex, rt, d,13071.430996416668, 0.7593056450115403, -0.4600788447949294, 0.2817505149238709, -0.03086090087890625, -0.6446483135223389, -0.18184292316436768, 0.6168345808982849, 0.44401875138282776, -0.6498941779136658, 0.021135389804840088, 0.009533464908599854, 0.021247386932373047, -0.26034649058176335, 0.32752496976459117, 0.9072327300300433,0.04331114077791087,0.637969970703125,0.45355224609375,-0.6286468505859375
20220205-1709,2022-02-05 17:09:51Z,u01, 228,40,movements,el-ex, rt, d,13071.455941416667, 0.7420690251773092, -0.46357332781908567, 0.27830506952164386, 0.04087337478995323, -0.6194100379943848, -0.18232674896717072, 0.6044892072677612, 0.4471471607685089, -0.6592816114425659, 0.02008354663848877, 0.01816961169242859, 0.020335078239440918, -0.26096211407449216, 0.3197780042839127, 0.9098153376965612,0.04332304341869381,0.625579833984375,0.47021484375,-0.6483154296875
20220205-1709,2022-02-05 17:09:51Z,u01, 229,40,movements,el-ex, rt, d,13071.480887416668, 0.724009531101293, -0.4638972968773793, 0.27191008559603935, 0.2540324032306671, -0.6131216883659363, -0.17425784468650818, 0.5923889875411987, 0.4474368989467621, -0.6699817180633545, 0.02667534351348877, 0.033245474100112915, -0.019425630569458008, -0.25970705589195475, 0.31234817566718825, 0.9127802099801445,0.042699165411536344,0.6190643310546875,0.480682373046875,-0.6894073486328125
20220205-1709,2022-02-05 17:09:51Z,u01, 230,40,movements,el-ex, rt, d,13071.505832416668, 0.7045820074397751, -0.461160571093118, 0.26273707653444667, 0.2852095067501068, -0.6224414110183716, -0.16924230754375458, 0.58005291223526, 0.4449877440929413, -0.6822935938835144, 0.03638690710067749, 0.016483813524246216, -0.016085922718048096, -0.2566602812267107, 0.3049240881185082, 0.916200581542548,0.04151337734188387,0.6172943115234375,0.4571533203125,-0.69586181640625
20220205-1709,2022-02-05 17:09:51Z,u01, 231,40,movements,el-ex, rt, d,13071.530777416667, 0.685639384560374, -0.46030366980443144, 0.25562457783136566, 0.12246240675449371, -0.6426710486412048, -0.18201376497745514, 0.5672664046287537, 0.4442201852798462, -0.6934530735015869, 0.04140663146972656, -0.006659179925918579, -0.0042397379875183105, -0.2548150573694711, 0.29722506352250505, 0.9192713342294503,0.04082456013863539,0.608673095703125,0.43756103515625,-0.69769287109375
20220205-1709,2022-02-05 17:09:51Z,u01, 232,40,movements,el-ex, rt, d,13071.555722416668, 0.6670772440176964, -0.4613444023971948, 0.24963543381805609, 0.11374042183160782, -0.6330165863037109, -0.19860365986824036, 0.5540111064910889, 0.4451523721218109, -0.7034991383552551, 0.03508496284484863, 0.018897920846939087, -0.008582770824432373, -0.2540296777134412, 0.2893429457223251, 0.9220248056829625,0.040248031408221585,0.5866546630859375,0.464385986328125,-0.717010498046875
20220205-1709,2022-02-05 17:09:51Z,u01, 233,40,movements,el-ex, rt, d,13071.580667416667, 0.648183464244442, -0.4617787316872966, 0.24276242232448889, 0.16041651368141174, -0.6510819792747498, -0.21138963103294373, 0.540504515171051, 0.44554123282432556, -0.7136861681938171, 0.039222657680511475, 0.01544201374053955, -0.020765185356140137, -0.2528692986346714, 0.2814499039178093, 0.9248194956425341,0.03939541877527647,0.5797271728515625,0.4609832763671875,-0.7344512939453125
20220205-1709,2022-02-05 17:09:51Z,u01, 234,40,movements,el-ex, rt, d,13071.605612416668, 0.62835364830409, -0.46093705664210016, 0.23517883915315807, 0.2164381742477417, -0.6634029746055603, -0.18556110560894012, 0.5264671444892883, 0.44478756189346313, -0.7245663404464722, 0.04425734281539917, 0.015386998653411865, -0.03321564197540283, -0.2510486234588734, 0.27329730008746783, 0.9277927867692815,0.03851966350020852,0.566864013671875,0.462066650390625,-0.7558441162109375
20220205-1709,2022-02-05 17:09:51Z,u01, 235,40,movements,el-ex, rt, d,13071.630558, 0.6080749259953959, -0.45905712069691607, 0.22748613655048733, 0.21067246794700623, -0.6817387342453003, -0.17866477370262146, 0.5121434330940247, 0.44310304522514343, -0.7357776761054993, 0.034395813941955566, 0.01060175895690918, -0.021470248699188232, -0.248768044463883, 0.2650011587195046, 0.9308391640478788,0.03777914934651394,0.546539306640625,0.453704833984375,-0.7572479248046875
20220205-1709,2022-02-05 17:09:51Z,u01, 236,40,movements,el-ex, rt, d,13071.655503, 0.5880865854369103, -0.45783024427123103, 0.22014337974813403, 0.19323505461215973, -0.6699299812316895, -0.19852203130722046, 0.4976363480091095, 0.4420028626918793, -0.7463186979293823, 0.035246312618255615, 0.015364080667495728, -0.019764065742492676, -0.24687378907828886, 0.2566982238016463, 0.9336963010897803,0.03702292653605843,0.5327911376953125,0.46185302734375,-0.765411376953125
20220205-1709,2022-02-05 17:09:51Z,u01, 237,40,movements,el-ex, rt, d,13071.680448000001, 0.5679645798565027, -0.4566125512867136, 0.21260664551541741, 0.1734393686056137, -0.6815317869186401, -0.20364195108413696, 0.48280832171440125, 0.4409102201461792, -0.7566335201263428, 0.05263778567314148, 0.015373289585113525, -0.008213281631469727, -0.24499326989477072, 0.24831743069287218, 0.9364878226649402,0.03615572605838524,0.5354461669921875,0.4562835693359375,-0.7648468017578125
20220205-1709,2022-02-05 17:09:51Z,u01, 238,40,movements,el-ex, rt, d,13071.705393, 0.5477003503737992, -0.45585246411120167, 0.20527265881591103, 0.1773444414138794, -0.6700073480606079, -0.20809195935726166, 0.4675520360469818, 0.4402278959751129, -0.7665471434593201, 0.0509263277053833, 0.011951059103012085, 0.002997279167175293, -0.24338483680613168, 0.23977127027948222, 0.9391631178263228,0.03530079935906366,0.516204833984375,0.45745849609375,-0.7701416015625
20220205-1709,2022-02-05 17:09:51Z,u01, 239,40,movements,el-ex, rt, d,13071.730338000001, 0.52727790391896, -0.4541964489848624, 0.19733954530554204, 0.2232176810503006, -0.6944465637207031, -0.21710564196109772, 0.4521670639514923, 0.4387403726577759, -0.7765641212463379, 0.058834463357925415, 0.027522414922714233, -0.02024984359741211, -0.24132659342023574, 0.23125619405003736, 0.94186363139885,0.03427607611889233,0.5110015869140625,0.4662628173828125,-0.79681396484375
20220205-1709,2022-02-05 17:09:51Z,u01, 240,40,movements,el-ex, rt, d,13071.755283, 0.5057844516369838, -0.452294587792726, 0.1890302795913306, 0.18452493846416473, -0.7351392507553101, -0.23152199387550354, 0.43577635288238525, 0.437030553817749, -0.7868312001228333, 0.06043943762779236, 0.013683557510375977, -0.010852575302124023, -0.239135436843384, 0.22225808080664927, 0.9446236308775732,0.033194354597738784,0.4932403564453125,0.44842529296875,-0.79681396484375
20220205-1709,2022-02-05 17:09:51Z,u01, 241,40,movements,el-ex, rt, d,13071.780228000001, 0.4840776341566714, -0.45261268581627245, 0.18167509839673, 0.06794939935207367, -0.742656409740448, -0.24510957300662994, 0.41853073239326477, 0.4373166263103485, -0.7959812879562378, 0.04498547315597534, -0.0024869441986083984, 0.019354701042175293, -0.2381289277124613, 0.21284726632420736, 0.9470743193427044,0.03226480718359703,0.4635162353515625,0.4348297119140625,-0.7766265869140625
20220205-1709,2022-02-05 17:09:51Z,u01, 242,40,movements,el-ex, rt, d,13071.805173, 0.46271278890926726, -0.45322883764216415, 0.17411912916071873, 0.16802141070365906, -0.7017742991447449, -0.25361916422843933, 0.40131011605262756, 0.43787065148353577, -0.8044995069503784, 0.04282742738723755, 0.017649948596954346, 0.016611933708190918, -0.23729285769305294, 0.20357391111323042, 0.9493575462383514,0.031145619181581652,0.4400482177734375,0.458892822265625,-0.7914276123046875
20220205-1709,2022-02-05 17:09:51Z,u01, 243,40,movements,el-ex, rt, d,13071.830118000002, 0.4416248638281717, -0.4515314083350517, 0.165320749617457, 0.20825105905532837, -0.6968262195587158, -0.2596236765384674, 0.3845740556716919, 0.4363439679145813, -0.8134536147117615, 0.045540690422058105, 0.0064813196659088135, 0.0166395902633667, -0.23529668517289676, 0.19470148145203386, 0.951760176345494,0.029655792380564816,0.43011474609375,0.4428253173828125,-0.79681396484375
20220205-1709,2022-02-05 17:09:51Z,u01, 244,40,movements,el-ex, rt, d,13071.855064000001, 0.4203456703165675, -0.4507029304942846, 0.15682445269356224, 0.10805287957191467, -0.6972689628601074, -0.2732458710670471, 0.3673260509967804, 0.43559837341308594, -0.8217819929122925, 0.05091732740402222, -0.008153915405273438, 0.01874244213104248, -0.23378955377882482, 0.18561102596157206, 0.9539894838680489,0.028196528484834726,0.4114837646484375,0.4241790771484375,-0.80291748046875
20220205-1709,2022-02-05 17:09:51Z,u01, 245,40,movements,el-ex, rt, d,13071.880009, 0.3997634656136761, -0.4515328855046838, 0.1490579997415565, 0.09362060576677322, -0.6842137575149536, -0.2540970742702484, 0.35019451379776, 0.43634530901908875, -0.8288344740867615, 0.026453375816345215, 0.0002086162567138672, 0.031379640102386475, -0.23319657282314235, 0.17664122545393318, 0.9558759956794645,0.026802088793801915,0.37664794921875,0.436553955078125,-0.797454833984375
20220205-1709,2022-02-05 17:09:51Z,u01, 246,40,movements,el-ex, rt, d,13071.904954000001, 0.37967079385510827, -0.4506596953082219, 0.14121660052524215, 0.18573474884033203, -0.6537851095199585, -0.2452472597360611, 0.3336125314235687, 0.4355594515800476, -0.8360565900802612, 0.017690539360046387, 0.012804806232452393, 0.03768622875213623, -0.23184332559926452, 0.16798918371990895, 0.9577992494597856,0.025475647193795747,0.3490142822265625,0.448394775390625,-0.801116943359375
20220205-1709,2022-02-05 17:09:51Z,u01, 247,40,movements,el-ex, rt, d,13071.929899, 0.3600006959605556, -0.44871221502670255, 0.13282815653542623, 0.15983787178993225, -0.6455749273300171, -0.2589905560016632, 0.3174019753932953, 0.43380558490753174, -0.8432489037513733, 0.04551306366920471, -0.0014020204544067383, 0.05255371332168579, -0.22998522710513405, 0.1596318739649466, 0.9597149105434808,0.023914120697087593,0.3629150390625,0.432403564453125,-0.7906951904296875
20220205-1709,2022-02-05 17:09:51Z,u01, 248,40,movements,el-ex, rt, d,13071.954844000002, 0.33993068389040004, -0.4481885444887124, 0.12503815553860073, 0.10855717957019806, -0.6817807555198669, -0.24066975712776184, 0.3004908561706543, 0.43333369493484497, -0.8496629595756531, 0.07492110133171082, -0.005584061145782471, 0.06385058164596558, -0.22889723419029925, 0.15091248567988244, 0.9614177845112946,0.022523126650977665,0.3666839599609375,0.4281158447265625,-0.7847137451171875
20220205-1709,2022-02-05 17:09:51Z,u01, 249,40,movements,el-ex, rt, d,13071.979789, 0.32039375456517366, -0.4462943274486835, 0.11764091875760387, 0.24956068396568298, -0.6159070730209351, -0.21905699372291565, 0.2840927839279175, 0.4316257834434509, -0.8561486601829529, 0.01955711841583252, 0.0027766525745391846, 0.039040446281433105, -0.22723316670790625, 0.1424456744780548, 0.963129425515884,0.021355879974660263,0.30364990234375,0.4344024658203125,-0.817108154296875
20220205-1709,2022-02-05 17:09:51Z,u01, 250,40,movements,el-ex, rt, d,13072.004734, 0.30262465250196846, -0.4397471013732704, 0.10928722185196806, 0.42351093888282776, -0.5478078722953796, -0.2021232396364212, 0.269672155380249, 0.42571064829826355, -0.8637403249740601, 0.02468511462211609, 0.017923355102539062, 0.02049386501312256, -0.22332678269060818, 0.1351109980427717, 0.9651297840777167,0.019865215258031033,0.30047607421875,0.4405364990234375,-0.8486328125
