SessionID,LoggingTime,UID,RecNo,Hertz,Activity,MoveType,Wrist,Side,TimeStamp,DMRoll,DMPitch,DMYaw,DMRotX,DMRotY,DMRotZ,DMGrvX,DMGrvY,DMGrvZ,DMUAccelX,DMUAccelY,DMUAccelZ,DMQuatX,DMQuatY,DMQuatW,DMQuatZ,AccelroX,AceelroY,AceelroZ
20220205-1717,2022-02-05 17:17:09Z,u01, 1,40,movements,el-ex, rt, d,13509.572071125001, 1.4697009909236485, -0.37881511937397283, 0.3430798137732447, 0.01586322858929634, -0.04938194900751114, 0.026727929711341858, 0.9243597984313965, 0.36981984972953796, -0.09376812726259232, 0.004259645938873291, 0.012443393468856812, -0.09258723258972168, -0.25004175204788137, 0.6249760455355031, 0.7395161998574256,0.0,0.928619384765625,0.38226318359375,-0.1863555908203125
20220205-1717,2022-02-05 17:17:09Z,u01, 2,40,movements,el-ex, rt, d,13509.597016125, 1.466644723020477, -0.37775452708752943, 0.341969459408631, 0.0032607177272439003, -0.09053078293800354, 0.007442315109074116, 0.9244585633277893, 0.3688342571258545, -0.09663350880146027, 0.016444265842437744, -0.015272766351699829, -0.08847063779830933, -0.2493251090014826, 0.6241155635924801, 0.7404841950481051,0.0003271513711258778,0.9447784423828125,0.350006103515625,-0.1849822998046875
20220205-1717,2022-02-05 17:17:09Z,u01, 3,40,movements,el-ex, rt, d,13509.621962125, 1.4610672636746425, -0.375942483414327, 0.3437268147738708, -0.17557016015052795, -0.3729718029499054, 0.07198642194271088, 0.9245678186416626, 0.36714935302734375, -0.10186111181974411, -0.1433941125869751, 0.00731658935546875, -0.059637658298015594, -0.24923598987446902, 0.6220537494550673, 0.7422434563915418,0.0022813228633805083,0.7811737060546875,0.3744659423828125,-0.1614990234375
20220205-1717,2022-02-05 17:17:09Z,u01, 4,40,movements,el-ex, rt, d,13509.646907125001, 1.4560692283841885, -0.37644700945696524, 0.3506444217963815, -0.2896982431411743, -0.2939639389514923, -0.01799420267343521, 0.9238631129264832, 0.367618590593338, -0.10645962506532669, -0.0994458794593811, 0.004878968000411987, -0.050827741622924805, -0.25154982675607485, 0.619268012760073, 0.7437752899109589,0.005308276886647478,0.98138427734375,0.3580322265625,-0.2047576904296875
20220205-1717,2022-02-05 17:17:09Z,u01, 5,40,movements,el-ex, rt, d,13509.671852125, 1.4503585128552532, -0.3776293522220542, 0.3568233429068893, -0.17555147409439087, -0.30447524785995483, -0.03295697271823883, 0.9228081107139587, 0.36871787905693054, -0.1116815060377121, 0.01794224977493286, 0.010859847068786621, -0.08807112276554108, -0.2538536944125245, 0.6162122609655125, 0.7455052029771145,0.007936070197641476,0.9407501220703125,0.37957763671875,-0.1997528076171875
20220205-1717,2022-02-05 17:17:09Z,u01, 6,40,movements,el-ex, rt, d,13509.696797125001, 1.4431539666179314, -0.3787147163307677, 0.360414827770036, -0.11675183475017548, -0.3636499345302582, -0.009753449819982052, 0.9215819239616394, 0.3697265684604645, -0.11827593296766281, 0.03575456142425537, 0.013971000909805298, -0.06424951553344727, -0.2553064061561342, 0.6129279519689499, 0.7476906881889327,0.009833031041877771,0.9580535888671875,0.373138427734375,-0.179779052734375
20220205-1717,2022-02-05 17:17:09Z,u01, 7,40,movements,el-ex, rt, d,13509.721742125, 1.4344074112310374, -0.37964253579132556, 0.36256084729277027, -0.05996112525463104, -0.3769393563270569, 0.006156540475785732, 0.920171856880188, 0.370588481426239, -0.12628526985645294, 0.014871478080749512, -0.010542094707489014, -0.06365595757961273, -0.25624236204846684, 0.6092595674548553, 0.7503409737163322,0.011448162889893088,0.9350433349609375,0.36004638671875,-0.18994140625
20220205-1717,2022-02-05 17:17:09Z,u01, 8,40,movements,el-ex, rt, d,13509.746687125002, 1.425108378098659, -0.3793788813288975, 0.3626308078172385, 0.056222669780254364, -0.3935145139694214, 0.014679322019219398, 0.919054388999939, 0.3703435957431793, -0.13485057651996613, 0.014035820960998535, 0.0004297196865081787, -0.07579682767391205, -0.256114123810543, 0.605788964440718, 0.7531684421760743,0.012752431332504033,0.9396209716796875,0.3693389892578125,-0.217193603515625
20220205-1717,2022-02-05 17:17:09Z,u01, 9,40,movements,el-ex, rt, d,13509.771632125, 1.414902317591107, -0.37938979806333845, 0.3620231458286015, -0.04170515760779381, -0.46924665570259094, -0.0009130872786045074, 0.9176263809204102, 0.37035372853279114, -0.144222691655159, 0.0654212236404419, -0.00246429443359375, -0.07208573818206787, -0.25586668917922173, 0.6020140274806447, 0.7562541388349522,0.01382588874188534,0.9830474853515625,0.367889404296875,-0.21630859375
20220205-1717,2022-02-05 17:17:09Z,u01, 10,40,movements,el-ex, rt, d,13509.796577125, 1.4035672933882093, -0.379777212237655, 0.3657987954569842, -0.2229870706796646, -0.5433813333511353, 6.216298788785934e-05, 0.9157910943031311, 0.37071356177330017, -0.15459062159061432, 0.05239439010620117, -0.030762940645217896, -0.04752713441848755, -0.2570507192921525, 0.5971847406536165, 0.7596185762368893,0.016584011928793663,0.9541778564453125,0.3455657958984375,-0.1964569091796875
20220205-1717,2022-02-05 17:17:09Z,u01, 11,40,movements,el-ex, rt, d,13509.821523125001, 1.3929320561775702, -0.38049895318191285, 0.37158751889687974, -0.15028223395347595, -0.5418955683708191, 0.011436257511377335, 0.9138316512107849, 0.37138378620147705, -0.1642739623785019, 0.012590527534484863, 0.006103456020355225, -0.05226331949234009, -0.25893366244445787, 0.5922975384771666, 0.7627188412289903,0.019925274898851375,0.926422119140625,0.3774871826171875,-0.2165374755859375
20220205-1717,2022-02-05 17:17:09Z,u01, 12,40,movements,el-ex, rt, d,13509.846468125, 1.380669552134597, -0.38080402244438694, 0.37377698240356466, -0.02978501468896866, -0.5428208112716675, 0.006454482674598694, 0.9116373658180237, 0.3716670274734497, -0.1754457950592041, 0.015563130378723145, 0.011267602443695068, -0.05621291697025299, -0.25955979331660506, 0.5872868235650377, 0.7663079400495999,0.022253559395329525,0.9310760498046875,0.381317138671875,-0.2297821044921875
20220205-1717,2022-02-05 17:17:09Z,u01, 13,40,movements,el-ex, rt, d,13509.871413125002, 1.3674020130591151, -0.38088898538203436, 0.37508028178972674, -0.04883857071399689, -0.6062612533569336, -0.002223361749202013, 0.9091984629631042, 0.37174588441848755, -0.18751879036426544, 0.03947103023529053, 0.0019266307353973389, -0.06254208087921143, -0.25981662837089886, 0.5820102450577198, 0.7701698935316856,0.024449739708394036,0.94866943359375,0.3736724853515625,-0.25006103515625
20220205-1717,2022-02-05 17:17:09Z,u01, 14,40,movements,el-ex, rt, d,13509.896358125001, 1.3531209841102896, -0.3812628873156818, 0.37622024913827434, 0.0032104505226016045, -0.6203662753105164, -0.001466092187911272, 0.9062920212745667, 0.37209296226501465, -0.2004534751176834, 0.02890390157699585, 0.02242302894592285, -0.04393111169338226, -0.26010044402358595, 0.5762994208752144, 0.7742852939699153,0.02662758655558628,0.9348602294921875,0.390777587890625,-0.247833251953125
20220205-1717,2022-02-05 17:17:09Z,u01, 15,40,movements,el-ex, rt, d,13509.921303125, 1.3374956104236781, -0.3815294667557764, 0.37516385752389636, 0.08402516692876816, -0.6484399437904358, -0.0331062451004982, 0.9029529690742493, 0.3723404109477997, -0.2145666778087616, 0.01588571071624756, 0.017109721899032593, -0.06440964341163635, -0.25968117843022187, 0.5703352946205251, 0.7787748802177904,0.028164100005079684,0.9188385009765625,0.3894500732421875,-0.2789764404296875
20220205-1717,2022-02-05 17:17:09Z,u01, 16,40,movements,el-ex, rt, d,13509.946248125001, 1.320821432374623, -0.38185449339230537, 0.3729425562258706, 0.06789866834878922, -0.6443660855293274, -0.027036897838115692, 0.899132490158081, 0.37264204025268555, -0.2295621782541275, 0.01099330186843872, 0.01822713017463684, -0.050970420241355896, -0.2589313173007117, 0.5640686878041575, 0.7835300490232358,0.029357153801516767,0.914031982421875,0.390594482421875,-0.281158447265625
20220205-1717,2022-02-05 17:17:09Z,u01, 17,40,movements,el-ex, rt, d,13509.971193125, 1.3042151889059417, -0.38195447148089207, 0.3722326024858509, 0.018477588891983032, -0.700955331325531, 0.015528669580817223, 0.8951604962348938, 0.37273481488227844, -0.24445120990276337, 0.0715906023979187, 0.027243852615356445, -0.0391484797000885, -0.25851799870654596, 0.5576224907161572, 0.7881956512780046,0.03119558208436457,0.9667510986328125,0.3999786376953125,-0.283599853515625
20220205-1717,2022-02-05 17:17:09Z,u01, 18,40,movements,el-ex, rt, d,13509.996139125002, 1.2858693587023633, -0.38122224071978117, 0.37135933762163964, 0.08009561151266098, -0.7523643374443054, 0.016234010457992554, 0.8907873034477234, 0.3720552325248718, -0.260908305644989, 0.07193559408187866, 0.033874332904815674, -0.03822481632232666, -0.2577055331407001, 0.5505757919710863, 0.7933070181688211,0.03344132892400209,0.9548492431640625,0.3994293212890625,-0.31158447265625
20220205-1717,2022-02-05 17:17:09Z,u01, 19,40,movements,el-ex, rt, d,13510.021084125001, 1.2654358337344058, -0.3794194698302081, 0.36609411199696335, 0.21204708516597748, -0.751558780670166, -0.014306657016277313, 0.8859087228775024, 0.37038129568099976, -0.2792556881904602, 0.02145528793334961, 0.01410973072052002, -0.03991222381591797, -0.25523796749987704, 0.5433467896633397, 0.7990226337951959,0.034508841944241087,0.9073638916015625,0.384490966796875,-0.3191680908203125
20220205-1717,2022-02-05 17:17:09Z,u01, 20,40,movements,el-ex, rt, d,13510.046029125, 1.2456203729272306, -0.3787349568803618, 0.36170908578472555, 0.07560781389474869, -0.7299284338951111, -0.03633352741599083, 0.8804416060447693, 0.3697453737258911, -0.296835333108902, 0.039465129375457764, -0.0036869943141937256, -0.025231778621673584, -0.2534472537626078, 0.5360474077088184, 0.804462176743645,0.03547455526867149,0.9243621826171875,0.3901824951171875,-0.3207855224609375
20220205-1717,2022-02-05 17:17:09Z,u01, 21,40,movements,el-ex, rt, d,13510.070973041667, 1.2264847387929771, -0.37946192660981554, 0.361956235095551, -0.09091498702764511, -0.8165267109870911, -0.006279489025473595, 0.8743472695350647, 0.3704207241535187, -0.3135369122028351, 0.08248567581176758, 0.004243612289428711, -0.0324559211730957, -0.25344161378978547, 0.5282034518178443, 0.8095311973231532,0.03778568653314279,0.9568328857421875,0.374664306640625,-0.3459930419921875
20220205-1717,2022-02-05 17:17:09Z,u01, 22,40,movements,el-ex, rt, d,13510.095918041667, 1.2057672066464327, -0.3792508611058256, 0.3615600305530111, 0.04233841225504875, -0.8135243058204651, 0.018910817801952362, 0.8677374720573425, 0.37022465467453003, -0.3316105902194977, 0.0664210319519043, 0.01704341173171997, -0.04779905080795288, -0.2528516744436759, 0.5198660794685194, 0.8149727964161644,0.0403082711653871,0.924591064453125,0.3834228515625,-0.36419677734375
20220205-1717,2022-02-05 17:17:09Z,u01, 23,40,movements,el-ex, rt, d,13510.120863041668, 1.1857051926207278, -0.38052125946299314, 0.3642024189420432, -0.13029594719409943, -0.8823925852775574, -0.06083780527114868, 0.8604738712310791, 0.3714044988155365, -0.348774254322052, 0.044555485248565674, -0.011220753192901611, -0.026561230421066284, -0.2536070729771618, 0.5111715241533683, 0.8200543868310106,0.043565309411274955,0.905029296875,0.3601837158203125,-0.375335693359375
20220205-1717,2022-02-05 17:17:09Z,u01, 24,40,movements,el-ex, rt, d,13510.145808041667, 1.164577485047227, -0.3821331679331284, 0.36605634884853266, -0.083331398665905, -0.8867636919021606, -0.04314223304390907, 0.8523626327514648, 0.3729006350040436, -0.3666379153728485, 0.05300247669219971, 0.017190366983413696, -0.02812206745147705, -0.2542329697341898, 0.5020424678538548, 0.8253191541359586,0.04655587968078112,0.90289306640625,0.39068603515625,-0.399871826171875
20220205-1717,2022-02-05 17:17:09Z,u01, 25,40,movements,el-ex, rt, d,13510.170754041668, 1.1431992189654177, -0.3844540475124128, 0.36794107997272296, -0.0781889334321022, -0.9084576964378357, -0.03247460722923279, 0.8435404300689697, 0.3750531077384949, -0.38441479206085205, 0.08073025941848755, -0.008399665355682373, -0.06022617220878601, -0.25510556364465947, 0.4926598785569596, 0.830521325973272,0.04941353171763968,0.9242706298828125,0.3666534423828125,-0.44464111328125
20220205-1717,2022-02-05 17:17:09Z,u01, 26,40,movements,el-ex, rt, d,13510.195699041667, 1.1197584893896657, -0.38488181061008214, 0.36748695238085943, 0.08616209030151367, -0.9651731252670288, -0.01666628196835518, 0.8341541290283203, 0.37544959783554077, -0.4040106534957886, 0.07093632221221924, -0.0003122091293334961, -0.07946395874023438, -0.25457015749101364, 0.4828961706082251, 0.8362365927066502,0.052094185964875084,0.8978729248046875,0.374908447265625,-0.4899749755859375
20220205-1717,2022-02-05 17:17:09Z,u01, 27,40,movements,el-ex, rt, d,13510.220644041667, 1.094151280360911, -0.3844842125871412, 0.36486539507058996, 0.057641997933387756, -1.0169003009796143, -0.03785659000277519, 0.8236687183380127, 0.37508106231689453, -0.425304651260376, 0.04866105318069458, -0.00026413798332214355, -0.051990121603012085, -0.25310292833577624, 0.47253209992893264, 0.842435955214454,0.05435076110316722,0.8723297119140625,0.37481689453125,-0.477294921875
20220205-1717,2022-02-05 17:17:09Z,u01, 28,40,movements,el-ex, rt, d,13510.245589041668, 1.068262379665226, -0.38593698627366696, 0.36488603857543916, -0.12663070857524872, -1.0432924032211304, -0.06602870672941208, 0.8119049668312073, 0.37642738223075867, -0.446220725774765, 0.06283581256866455, -0.03145664930343628, -0.03214216232299805, -0.2529735664364703, 0.46140438452621046, 0.8484295381758029,0.05725251524051356,0.874725341796875,0.3486785888671875,-0.482086181640625
20220205-1717,2022-02-05 17:17:10Z,u01, 29,40,movements,el-ex, rt, d,13510.270534041667, 1.0436173005839287, -0.38996201756749316, 0.3689045578695678, -0.24116307497024536, -1.064516305923462, -0.07428890466690063, 0.7993464469909668, 0.3801532983779907, -0.46532660722732544, 0.09317076206207275, -0.0035510659217834473, -0.048070430755615234, -0.2548018510257225, 0.4499030013093377, 0.853777521177441,0.061051938759541624,0.89251708984375,0.3766021728515625,-0.513397216796875
20220205-1717,2022-02-05 17:17:10Z,u01, 30,40,movements,el-ex, rt, d,13510.295479041668, 1.0177104792645093, -0.39381827618626863, 0.3723878991471605, -0.15377682447433472, -1.112686038017273, -0.06968842446804047, 0.7857711315155029, 0.3837171792984009, -0.48510295152664185, 0.09710246324539185, 0.01917591691017151, -0.035023242235183716, -0.2563427666870458, 0.43787774049745726, 0.8592684722398255,0.06487806571533095,0.875579833984375,0.403839111328125,-0.521453857421875
20220205-1717,2022-02-05 17:17:10Z,u01, 31,40,movements,el-ex, rt, d,13510.320424041667, 0.9900479074507025, -0.39694089734889165, 0.37393285256729675, -0.08806850016117096, -1.1366182565689087, -0.08816536515951157, 0.7710475325584412, 0.3865989148616791, -0.5059912204742432, 0.06467646360397339, -0.012651681900024414, -0.018025994300842285, -0.25704643887673734, 0.42536046489149726, 0.865059537427524,0.06832092701963044,0.835723876953125,0.3739471435546875,-0.524017333984375
20220205-1717,2022-02-05 17:17:10Z,u01, 32,40,movements,el-ex, rt, d,13510.345370041667, 0.9622649728319826, -0.4001649783908935, 0.3748704030536512, -0.11781927198171616, -1.1216188669204712, -0.08261121064424515, 0.7556672096252441, 0.38957029581069946, -0.52649986743927, 0.07451778650283813, -0.021528244018554688, 0.01450657844543457, -0.25761501466735715, 0.41277667365053633, 0.8707092488181598,0.07152204013771202,0.83062744140625,0.3677978515625,-0.5146026611328125
20220205-1717,2022-02-05 17:17:10Z,u01, 33,40,movements,el-ex, rt, d,13510.370315041668, 0.935514941757688, -0.40417404189866285, 0.37662618940551423, -0.1603490561246872, -1.0898247957229614, -0.09960278123617172, 0.7400515675544739, 0.3932594954967499, -0.5455920100212097, 0.07337933778762817, 0.0022330880165100098, 0.010954737663269043, -0.25867579825398257, 0.4003633823894918, 0.8759006253862389,0.07479342963808217,0.8134307861328125,0.3954925537109375,-0.534637451171875
20220205-1717,2022-02-05 17:17:10Z,u01, 34,40,movements,el-ex, rt, d,13510.395260041667, 0.9085462043020786, -0.4076883780428722, 0.3770250526869887, -0.037219032645225525, -1.0852298736572266, -0.12452496588230133, 0.7239759564399719, 0.396488219499588, -0.5644961595535278, 0.06926757097244263, 0.009334564208984375, -0.003283262252807617, -0.2592112591848028, 0.38802248852599736, 0.8810327718407449,0.07764885011526546,0.785736083984375,0.4108734130859375,-0.5716552734375
20220205-1717,2022-02-05 17:17:10Z,u01, 35,40,movements,el-ex, rt, d,13510.420205041668, 0.8801939949560774, -0.4101775199913793, 0.3748810959908155, 0.04107830673456192, -1.1121435165405273, -0.11685400456190109, 0.7069194316864014, 0.39877212047576904, -0.5841623544692993, 0.06442767381668091, -0.0028980672359466553, 0.008433163166046143, -0.2587449839037888, 0.375459535178483, 0.8864034452350968,0.07981254401672727,0.7713470458984375,0.3958740234375,-0.5757293701171875
20220205-1717,2022-02-05 17:17:10Z,u01, 36,40,movements,el-ex, rt, d,13510.445150041667, 0.8518889066479026, -0.4130376784843317, 0.3727658815358392, -0.08979865163564682, -1.0882457494735718, -0.14336584508419037, 0.6892426013946533, 0.40139341354370117, -0.6031815409660339, 0.06838685274124146, -0.010356396436691284, 0.04515254497528076, -0.2584359858649829, 0.3627948206480595, 0.8915616849403208,0.08190558384682439,0.7584228515625,0.392669677734375,-0.5605621337890625
20220205-1717,2022-02-05 17:17:10Z,u01, 37,40,movements,el-ex, rt, d,13510.470095041668, 0.8248635781967909, -0.41667839448960503, 0.37233104395715183, -0.02950148843228817, -1.074558973312378, -0.08133229613304138, 0.6716140508651733, 0.4047252833843231, -0.6205902099609375, 0.07609724998474121, -0.014252811670303345, 0.01980602741241455, -0.2588053246940849, 0.35032087046331617, 0.8961957862012173,0.08443001816685053,0.747711181640625,0.390472412109375,-0.6007843017578125
20220205-1717,2022-02-05 17:17:10Z,u01, 38,40,movements,el-ex, rt, d,13510.495040041667, 0.7978154984907864, -0.4169545614577119, 0.3700185929280081, 0.13430838286876678, -1.0386024713516235, -0.061863720417022705, 0.6545045971870422, 0.40497779846191406, -0.6384487152099609, 0.060674965381622314, -0.008249253034591675, 0.028692424297332764, -0.2573690397968207, 0.3384328886582435, 0.9009361514230456,0.08682420681981029,0.7098846435546875,0.39678955078125,-0.609588623046875
20220205-1717,2022-02-05 17:17:10Z,u01, 39,40,movements,el-ex, rt, d,13510.519985041667, 0.7701279028773866, -0.4148941790815563, 0.36577102873093037, 0.18446476757526398, -1.0371500253677368, -0.042369116097688675, 0.6371584534645081, 0.4030930995941162, -0.6569209098815918, 0.059161245822906494, -0.02173018455505371, 0.022018134593963623, -0.2545455903895961, 0.32672019561670235, 0.9058497362725252,0.08886353361027943,0.696319580078125,0.3813629150390625,-0.6349029541015625
20220205-1717,2022-02-05 17:17:10Z,u01, 40,40,movements,el-ex, rt, d,13510.544931041668, 0.743204790337239, -0.4130896497981229, 0.36232820936003207, 0.10077768564224243, -1.0138514041900635, -0.03617760166525841, 0.619734525680542, 0.4014410078525543, -0.6743695735931396, 0.06451547145843506, 0.013109803199768066, 0.031028568744659424, -0.2519874270004503, 0.3151468924997402, 0.9104353870943998,0.09106156456061787,0.685455322265625,0.414337158203125,-0.6488189697265625
20220205-1717,2022-02-05 17:17:10Z,u01, 41,40,movements,el-ex, rt, d,13510.569876041667, 0.7167644296646296, -0.41195217471549717, 0.3595229148234618, 0.13783401250839233, -1.0295902490615845, -0.060422420501708984, 0.6019890308380127, 0.40039893984794617, -0.6908617615699768, 0.06993192434310913, 0.007163375616073608, -0.015055477619171143, -0.24983059256132106, 0.30356840992774653, 0.9147259963431696,0.09331360932330385,0.6719207763671875,0.407562255859375,-0.7059173583984375
20220205-1717,2022-02-05 17:17:10Z,u01, 42,40,movements,el-ex, rt, d,13510.594821041668, 0.6888185355301164, -0.4084967498634967, 0.35432535284599326, 0.30778002738952637, -1.0410397052764893, -0.04498860239982605, 0.5833256244659424, 0.39723020792007446, -0.7084768414497375, 0.06221282482147217, 0.012559860944747925, -0.037113308906555176, -0.24619963599422634, 0.2918001547978281, 0.919352102091429,0.09502751924264535,0.6441192626953125,0.4096832275390625,-0.743865966796875
20220205-1717,2022-02-05 17:17:10Z,u01, 43,40,movements,el-ex, rt, d,13510.619766041667, 0.6601207666652413, -0.4040036842425852, 0.34856243611215565, 0.19252096116542816, -1.072107195854187, -0.06034199148416519, 0.5638453364372253, 0.39310285449028015, -0.7263254523277283, 0.06568664312362671, 0.008691638708114624, 0.005927622318267822, -0.24198248696548003, 0.2797887447672092, 0.9240230734414937,0.09666570743186609,0.6295318603515625,0.40179443359375,-0.72039794921875
20220205-1717,2022-02-05 17:17:10Z,u01, 44,40,movements,el-ex, rt, d,13510.644711041667, 0.6323640373693473, -0.4030452505171551, 0.3455565187519199, 0.004697193391621113, -1.0549887418746948, -0.09192641824483871, 0.5436927080154419, 0.3922213912010193, -0.7419977188110352, 0.07190799713134766, 0.01627171039581299, 0.007165074348449707, -0.2397817753283411, 0.26740576358555507, 0.9280309627430448,0.09877952723645878,0.60791015625,0.4144287109375,-0.734527587890625
20220205-1717,2022-02-05 17:17:10Z,u01, 45,40,movements,el-ex, rt, d,13510.669656041668, 0.6056918917039421, -0.4050979375651275, 0.34314280700929695, 0.0006222249940037727, -1.014884352684021, -0.15218029916286469, 0.5232515335083008, 0.39410877227783203, -0.7555700540542603, 0.06924736499786377, 0.039927542209625244, 0.0032050609588623047, -0.23907035551912525, 0.2550692669917448, 0.9314943999086375,0.10051509178931012,0.592498779296875,0.4340362548828125,-0.7523651123046875
20220205-1717,2022-02-05 17:17:10Z,u01, 46,40,movements,el-ex, rt, d,13510.694601041667, 0.5779996421145122, -0.4055235573410412, 0.33839967817764743, 0.16646115481853485, -1.0710558891296387, -0.1507282853126526, 0.5020384788513184, 0.39449989795684814, -0.7696279883384705, 0.10039389133453369, 0.04208463430404663, -0.016565799713134766, -0.23727569371351453, 0.24266489262460383, 0.9351498679594523,0.10153252414489311,0.5994720458984375,0.430389404296875,-0.7912139892578125
20220205-1717,2022-02-05 17:17:10Z,u01, 47,40,movements,el-ex, rt, d,13510.719547041668, 0.5486497460592242, -0.4034949361697283, 0.3320685401655056, 0.1866787225008011, -1.0721321105957031, -0.15264862775802612, 0.47965341806411743, 0.3926350176334381, -0.7847104072570801, 0.0796729028224945, 0.004841238260269165, 0.006130814552307129, -0.2341001720039042, 0.2298736628640428, 0.9390868146211124,0.10232960623424492,0.559326171875,0.3974761962890625,-0.7785797119140625
20220205-1717,2022-02-05 17:17:10Z,u01, 48,40,movements,el-ex, rt, d,13510.744492041667, 0.5199670497740566, -0.4026568603059832, 0.3267937462668989, 0.08103194087743759, -1.0664688348770142, -0.14344359934329987, 0.45711490511894226, 0.3918640911579132, -0.7984287738800049, 0.08177986741065979, 0.00422358512878418, 0.005200743675231934, -0.23164916958585366, 0.2170812731972128, 0.9426249660230905,0.10330804948937877,0.534820556640625,0.3890533447265625,-0.8029632568359375
20220205-1717,2022-02-05 17:17:10Z,u01, 49,40,movements,el-ex, rt, d,13510.769437041667, 0.49158420763645544, -0.40298813564885355, 0.32259073631771407, 0.06958894431591034, -1.0932272672653198, -0.13691791892051697, 0.434210866689682, 0.3921688497066498, -0.8109651803970337, 0.08095648884773254, 0.0010959506034851074, -0.03705716133117676, -0.22988531213641925, 0.20413266167294045, 0.9458072257733958,0.10455339050113788,0.515167236328125,0.3932647705078125,-0.8480224609375
20220205-1717,2022-02-05 17:17:10Z,u01, 50,40,movements,el-ex, rt, d,13510.794382041668, 0.4618121993843973, -0.4017637518208585, 0.3181105965871012, 0.13583603501319885, -1.1453399658203125, -0.12359699606895447, 0.4100915789604187, 0.3910422623157501, -0.8239604830741882, 0.09117501974105835, -0.009953975677490234, -0.05024600028991699, -0.22730514515449718, 0.19066234500942236, 0.9490763440542378,0.10599264770225508,0.49127197265625,0.382537841796875,-0.86688232421875
20220205-1717,2022-02-05 17:17:10Z,u01, 51,40,movements,el-ex, rt, d,13510.819327041667, 0.431421196833982, -0.4008959382055339, 0.3137226466324461, 0.05512814596295357, -1.1493816375732422, -0.13611279428005219, 0.385006844997406, 0.39024341106414795, -0.8363491296768188, 0.07287901639938354, -0.003280460834503174, -0.014343559741973877, -0.22487383457890373, 0.1767970539350281, 0.9521709091744689,0.10744875708368118,0.4578857421875,0.386962890625,-0.8506927490234375
20220205-1717,2022-02-05 17:17:10Z,u01, 52,40,movements,el-ex, rt, d,13510.844272041668, 0.40117465913883404, -0.4017144578993128, 0.31015860621967833, 0.013094939291477203, -1.1560070514678955, -0.12866206467151642, 0.3594130873680115, 0.39099690318107605, -0.8473155498504639, 0.06929799914360046, -0.0004939138889312744, 0.008295893669128418, -0.22331927894386638, 0.1626982222749779, 0.9548650079154603,0.10904434020870896,0.420440673828125,0.39483642578125,-0.83709716796875
20220205-1717,2022-02-05 17:17:10Z,u01, 53,40,movements,el-ex, rt, d,13510.869217041667, 0.37171053400767556, -0.40168706480782534, 0.3066220090264632, 0.10602673888206482, -1.0980193614959717, -0.11858945339918137, 0.3342991769313812, 0.39097169041633606, -0.8575460314750671, 0.05634123086929321, 0.031162768602371216, 0.002504587173461914, -0.22141256587437005, 0.14900824074134122, 0.9573575464720379,0.11063248751016913,0.3906402587890625,0.4221343994140625,-0.85504150390625
20220205-1717,2022-02-05 17:17:10Z,u01, 54,40,movements,el-ex, rt, d,13510.894163041667, 0.3424397492989186, -0.40010175313019447, 0.3024996864938878, 0.10741464793682098, -1.1385859251022339, -0.11940252035856247, 0.30926623940467834, 0.3895120620727539, -0.8675452470779419, 0.0880269706249237, 0.03866484761238098, 0.02625197172164917, -0.21873842706825233, 0.1355760835810288, 0.959802234061931,0.11203746271619464,0.397552490234375,0.4206695556640625,-0.8380126953125
20220205-1717,2022-02-05 17:17:10Z,u01, 55,40,movements,el-ex, rt, d,13510.919108041668, 0.3120699629230916, -0.39971507233005427, 0.298328901923366, 0.041714999824762344, -1.1563111543655396, -0.159737691283226, 0.2828267514705658, 0.38915589451789856, -0.8766793608665466, 0.07337456941604614, 0.04716920852661133, 0.047623634338378906, -0.21657500086201345, 0.1214725316435204, 0.9620217981097612,0.11337481978456537,0.356201171875,0.4363250732421875,-0.8290557861328125
20220205-1717,2022-02-05 17:17:10Z,u01, 56,40,movements,el-ex, rt, d,13510.944053041667, 0.28194972332930807, -0.39847958499682, 0.29321620091904577, 0.21532613039016724, -1.0836280584335327, -0.17986758053302765, 0.2564302384853363, 0.3880175054073334, -0.8852604031562805, 0.046594202518463135, 0.0684492290019989, 0.024466395378112793, -0.21397838975871666, 0.10762460355280361, 0.964144456453581,0.11426132115317078,0.291534423828125,0.4588623046875,-0.86419677734375
20220205-1717,2022-02-05 17:17:10Z,u01, 57,40,movements,el-ex, rt, d,13510.968998041668, 0.2525369474922679, -0.39089400561659976, 0.28527948978847667, 0.5194544196128845, -1.0535153150558472, -0.22159652411937714, 0.23101390898227692, 0.3810151517391205, -0.8952429890632629, 0.048740848898887634, 0.09397575259208679, 0.010416388511657715, -0.20826369960939167, 0.094893229764247, 0.9667448502576232,0.11413133088859256,0.279754638671875,0.4749908447265625,-0.88482666015625
20220205-1717,2022-02-05 17:17:10Z,u01, 58,40,movements,el-ex, rt, d,13510.993943041667, 0.22193036207309103, -0.3783146717509518, 0.2759724991126569, 0.533678412437439, -1.1232507228851318, -0.21404527127742767, 0.20454852283000946, 0.36935484409332275, -0.906497061252594, 0.08420893549919128, 0.06462043523788452, 0.0030089616775512695, -0.2000587463484555, 0.08202417319820193, 0.9697084898672854,0.11364022485352454,0.2821044921875,0.4202423095703125,-0.899169921875
20220205-1717,2022-02-05 17:17:10Z,u01, 59,40,movements,el-ex, rt, d,13511.018888041668, 0.19096496869360585, -0.37052201971657917, 0.2685917413704528, 0.19117985665798187, -1.1306225061416626, -0.194143608212471, 0.17692585289478302, 0.36210206151008606, -0.9151936173439026, 0.04685966670513153, 0.019047260284423828, 0.03294575214385986, -0.19425952588151751, 0.0683112465671312, 0.9719528620749458,0.11359863260462078,0.223785400390625,0.3811492919921875,-0.8822479248046875
20220205-1717,2022-02-05 17:17:10Z,u01, 60,40,movements,el-ex, rt, d,13511.043833041667, 0.16160470521225523, -0.3667208335885697, 0.2627246529829736, 0.27378976345062256, -1.0515851974487305, -0.1911046802997589, 0.15020352602005005, 0.35855624079704285, -0.9213448762893677, 0.0430033802986145, 0.03171783685684204, 0.01938265562057495, -0.19056910349279993, 0.054872493959682266, 0.9735126655458771,0.11377863667569488,0.1891937255859375,0.3943023681640625,-0.907928466796875
20220205-1717,2022-02-05 17:17:10Z,u01, 61,40,movements,el-ex, rt, d,13511.06877825, 0.13346862084083122, -0.3579127640524311, 0.25579728899940873, 0.4788990318775177, -1.0402027368545532, -0.22479911148548126, 0.12463989853858948, 0.350320041179657, -0.9282999634742737, 0.05565807223320007, 0.05100142955780029, -0.013182580471038818, -0.18452565184220496, 0.04243010573160967, 0.9753341330726519,0.11346075296116376,0.1802978515625,0.4013214111328125,-0.9414825439453125
20220205-1717,2022-02-05 17:17:10Z,u01, 62,40,movements,el-ex, rt, d,13511.09372425, 0.10416804810910167, -0.3470405881014447, 0.2486415021894475, 0.41018152236938477, -1.112300157546997, -0.19990308582782745, 0.09778083860874176, 0.34011632204055786, -0.9352859258651733, 0.07818364351987839, 0.026537179946899414, 0.032621800899505615, -0.17744460667819864, 0.029503126769048316, 0.9771703529251855,0.11305409687615559,0.16754150390625,0.35321044921875,-0.887298583984375
20220205-1717,2022-02-05 17:17:10Z,u01, 63,40,movements,el-ex, rt, d,13511.118669250001, 0.07448873673739984, -0.3400132978950236, 0.2428928496688601, 0.18314656615257263, -1.103000521659851, -0.18462546169757843, 0.07015935331583023, 0.33349964022636414, -0.9401359558105469, 0.04754707217216492, 0.00953325629234314, 0.07413870096206665, -0.1722722754002439, 0.015945945486559088, 0.9784090173302658,0.11306531225568045,0.117706298828125,0.3430328369140625,-0.865997314453125
20220205-1717,2022-02-05 17:17:10Z,u01, 64,40,movements,el-ex, rt, d,13511.14361425, 0.045926769292785836, -0.3376766011474921, 0.2372189964161312, 0.06766606867313385, -1.0346243381500244, -0.22804929316043854, 0.04331791400909424, 0.33129578828811646, -0.9425320625305176, 0.05877876281738281, 0.027697771787643433, 0.10023164749145508, -0.1694910852833289, 0.0025969688250714884, 0.979053284177585,0.11278696792552334,0.100830078125,0.357635498046875,-0.83502197265625
20220205-1717,2022-02-05 17:17:10Z,u01, 65,40,movements,el-ex, rt, d,13511.168559250002, 0.01835776089277323, -0.33714529389707343, 0.23065935937408913, -0.023971136659383774, -1.0019723176956177, -0.27605482935905457, 0.017323298379778862, 0.33079445362091064, -0.9435438513755798, 0.05294354259967804, 0.03295987844467163, 0.14581435918807983, -0.16769508602099814, -0.010317267095085084, 0.9794123287127469,0.11190851223265241,0.0702667236328125,0.3637542724609375,-0.7977294921875
20220205-1717,2022-02-05 17:17:10Z,u01, 66,40,movements,el-ex, rt, d,13511.19350425, -0.00862185070562325, -0.33886988201740986, 0.22317750254230753, -0.08426211029291153, -0.9852949380874634, -0.2774107754230499, -0.00813143327832222, 0.3324214518070221, -0.943095862865448, 0.06712202727794647, 0.018301844596862793, 0.16958212852478027, -0.16710189482762813, -0.02300024924950861, 0.9794596668627906,0.11048408372644569,0.062957763671875,0.3472900390625,-0.7751617431640625
20220205-1717,2022-02-05 17:17:10Z,u01, 67,40,movements,el-ex, rt, d,13511.21844925, -0.03459454069115493, -0.3402128011902047, 0.21623035263572055, -0.01911965385079384, -0.8831108808517456, -0.23823049664497375, -0.03260520473122597, 0.3336876928806305, -0.9421196579933167, 0.04304233193397522, 0.009299397468566895, 0.15714651346206665, -0.16643418797721377, -0.035211382782980846, 0.9793497409899677,0.10924231769054232,0.01043701171875,0.342987060546875,-0.78497314453125
20220205-1717,2022-02-05 17:17:10Z,u01, 68,40,movements,el-ex, rt, d,13511.243394250001, -0.05691819065968874, -0.3389876112997713, 0.20944921981251213, 0.11312197148799896, -0.7392451167106628, -0.2857320308685303, -0.05365009978413582, 0.33253249526023865, -0.9415645599365234, 0.026794731616973877, 0.028566807508468628, 0.16562461853027344, -0.1647594432345636, -0.04551972698045263, 0.9793715250640165,0.1077672638319691,-0.0303192138671875,0.3565521240234375,-0.774871826171875
20220205-1717,2022-02-05 17:17:11Z,u01, 69,40,movements,el-ex, rt, d,13511.26834025, -0.07597086567538278, -0.3345710195598674, 0.20288552304420795, 0.18478743731975555, -0.6241511702537537, -0.24170799553394318, -0.07168936729431152, 0.3283640146255493, -0.9418268203735352, 0.028964877128601074, -0.005228579044342041, 0.19397830963134766, -0.16173875352369094, -0.054103405738650245, 0.979623236032843,0.10607394942145093,-0.042724609375,0.3231353759765625,-0.7478485107421875
20220205-1717,2022-02-05 17:17:11Z,u01, 70,40,movements,el-ex, rt, d,13511.293285250002, -0.09201243420731992, -0.32900182771986114, 0.19723281338566928, 0.2283126413822174, -0.5310993194580078, -0.20621609687805176, -0.08695455640554428, 0.3230985403060913, -0.9423620700836182, 0.044565752148628235, -0.012338012456893921, 0.19405579566955566, -0.15832502288957923, -0.06125490024450569, 0.9799268959532159,0.10451945365859422,-0.040802001953125,0.304718017578125,-0.7438507080078125
20220205-1717,2022-02-05 17:17:11Z,u01, 71,40,movements,el-ex, rt, d,13511.31823025, -0.10585700094765552, -0.32319295924790076, 0.19282839616393485, 0.17486630380153656, -0.4504204988479614, -0.19688259065151215, -0.10018902271986008, 0.31759580969810486, -0.9429183602333069, 0.024810723960399628, -0.03469786047935486, 0.23144686222076416, -0.15489615679465527, -0.06743880440899755, 0.9801928646879856,0.10335004289886862,-0.07537841796875,0.28289794921875,-0.7114715576171875
20220205-1717,2022-02-05 17:17:11Z,u01, 72,40,movements,el-ex, rt, d,13511.34317525, -0.11757982455429553, -0.3199881449953778, 0.18732497205782575, 0.05463762581348419, -0.3734615743160248, -0.22488358616828918, -0.11135438084602356, 0.3145553171634674, -0.942685067653656, 0.04218640923500061, -0.02807152271270752, 0.21848773956298828, -0.1529150227646267, -0.0726254244090519, 0.9803276005790886,0.10149112934629906,-0.0589141845703125,0.2828521728515625,-0.7269439697265625
20220205-1717,2022-02-05 17:17:11Z,u01, 73,40,movements,el-ex, rt, d,13511.368120250001, -0.1281158210150422, -0.3190851986064059, 0.18203418192357898, -0.032462723553180695, -0.31836995482444763, -0.1909574568271637, -0.12131638079881668, 0.31369805335998535, -0.941740870475769, 0.04807429760694504, -0.061531245708465576, 0.25385940074920654, -0.1521401157679089, -0.077349536887788, 0.9802725305903,0.09968071738909634,-0.0732421875,0.252166748046875,-0.6878814697265625
20220205-1717,2022-02-05 17:17:11Z,u01, 74,40,movements,el-ex, rt, d,13511.39306525, -0.1354187039326275, -0.3189729777176163, 0.17777691559895822, 0.023950718343257904, -0.15354883670806885, -0.1498175412416458, -0.12819525599479675, 0.31359151005744934, -0.9408646821975708, 0.01859147846698761, -0.08066603541374207, 0.2536851167678833, -0.15189194224157893, -0.08060085970396277, 0.9802038801845894,0.09814638896936517,-0.111083984375,0.230621337890625,-0.6800537109375
20220205-1717,2022-02-05 17:17:11Z,u01, 75,40,movements,el-ex, rt, d,13511.418010250001, -0.13816960394592362, -0.3180014091673465, 0.17400733176070482, 0.04432113468647003, -0.039453886449337006, -0.15396109223365784, -0.13082489371299744, 0.3126688003540039, -0.9408097863197327, 0.03181071579456329, -0.06597989797592163, 0.25349289178848267, -0.1514338413089991, -0.08162654578443829, 0.9803551856964721,0.09648146348725084,-0.0990142822265625,0.2466888427734375,-0.68731689453125
20220205-1717,2022-02-05 17:17:11Z,u01, 76,40,movements,el-ex, rt, d,13511.44295625, -0.1396330683405253, -0.3175196572689288, 0.1711341123293172, -0.08086700737476349, -0.007285029627382755, -0.06296433508396149, -0.13222254812717438, 0.31221115589141846, -0.9407663941383362, 0.039449214935302734, -0.11702066659927368, 0.2528086304664612, -0.15124472645607306, -0.0821087232316633, 0.9804721967290686,0.09517056921401029,-0.10382080078125,0.1942291259765625,-0.6793212890625
20220205-1717,2022-02-05 17:17:11Z,u01, 77,40,movements,el-ex, rt, d,13511.46790125, -0.13797888488881743, -0.3213086905594471, 0.1696319099686754, -0.1801327019929886, 0.18442215025424957, -0.014789020642638206, -0.13050252199172974, 0.3158085346221924, -0.9398053288459778, -0.0249691903591156, -0.0978061854839325, 0.2594922184944153, -0.15324540710595488, -0.08132144278739105, 0.98030056112474,0.094411932692955,-0.1554718017578125,0.2180023193359375,-0.6803131103515625
20220205-1717,2022-02-05 17:17:11Z,u01, 78,40,movements,el-ex, rt, d,13511.492846250001, -0.1315002057878964, -0.32386805991318734, 0.16962566328916423, -0.008426730521023273, 0.3265460133552551, 0.0020453520119190216, -0.12430473417043686, 0.3182359039783478, -0.9398267269134521, 0.021613188087940216, -0.043180912733078, 0.19954657554626465, -0.15480765214512288, -0.07823833793733237, 0.9803476746158366,0.09397729091978246,-0.0970306396484375,0.27703857421875,-0.755706787109375
20220205-1717,2022-02-05 17:17:11Z,u01, 79,40,movements,el-ex, rt, d,13511.51779125, -0.12316015304858512, -0.32372952708720093, 0.16935970397206082, -0.04606608301401138, 0.3327120840549469, 0.004397522658109665, -0.11646771430969238, 0.3181045651435852, -0.940874457359314, 0.03988396376371384, -0.08975675702095032, 0.18710559606552124, -0.1551399931548298, -0.07412385865560701, 0.9806893682347382,0.09319725392417227,-0.0765838623046875,0.2283477783203125,-0.7537689208984375
20220205-1717,2022-02-05 17:17:11Z,u01, 80,40,movements,el-ex, rt, d,13511.542736250001, -0.1144665288952644, -0.3273530854168271, 0.17013090090443073, -0.18224655091762543, 0.3882075846195221, 0.087781623005867, -0.10815144330263138, 0.3215377926826477, -0.940700113773346, 0.006650082767009735, -0.11374354362487793, 0.21039921045303345, -0.15729655383504643, -0.0700551819783011, 0.9806658736150815,0.09297726279179652,-0.109649658203125,0.2072296142578125,-0.7454071044921875
20220205-1717,2022-02-05 17:17:11Z,u01, 81,40,movements,el-ex, rt, d,13511.56768125, -0.10221123178446276, -0.33070012133153204, 0.1725437612310727, -0.029969939962029457, 0.5209262371063232, 0.11191492527723312, -0.09650470316410065, 0.3247053027153015, -0.9408790469169617, 0.010338425636291504, -0.03547489643096924, 0.12149733304977417, -0.15942979938760796, -0.06436325772974935, 0.9806849808995812,0.09325564178103185,-0.0861663818359375,0.2892303466796875,-0.8193817138671875
20220205-1717,2022-02-05 17:17:11Z,u01, 82,40,movements,el-ex, rt, d,13511.592626250002, -0.08764767649853067, -0.33052005339451723, 0.17546912845232185, 0.013459925539791584, 0.5527346730232239, 0.09006762504577637, -0.08279752731323242, 0.32453498244285583, -0.9422428607940674, 0.03017006814479828, -0.03165772557258606, 0.11637616157531738, -0.15993234345968102, -0.05744748709114089, 0.9810068965845771,0.09352465867112464,-0.051727294921875,0.2874298095703125,-0.8242340087890625
20220205-1717,2022-02-05 17:17:11Z,u01, 83,40,movements,el-ex, rt, d,13511.64251725, -0.0575323632517572, -0.33584048693611523, 0.18082233835524886, -0.14273400604724884, 0.630404531955719, 0.14055702090263367, -0.05428827926516533, 0.32956281304359436, -0.9425715804100037, -0.004122257232666016, -0.044513314962387085, 0.12705034017562866, -0.16382036909964848, -0.04332563598044897, 0.9810673733252873,0.09376873045649614,-0.0468597412109375,0.26068115234375,-0.798248291015625
20220205-1717,2022-02-05 17:17:11Z,u01, 84,40,movements,el-ex, rt, d,13511.617572250001, -0.07310872084009631, -0.3318918537233451, 0.17782356998115287, -0.1148373931646347, 0.5514429211616516, 0.10544111579656601, -0.06905744969844818, 0.32583221793174744, -0.942902147769928, 0.022197812795639038, -0.06515103578567505, 0.14465385675430298, -0.161222395490852, -0.05055956986811319, 0.9811745008991588,0.09352941817161414,-0.0564727783203125,0.294677734375,-0.8291778564453125
20220205-1717,2022-02-05 17:17:11Z,u01, 85,40,movements,el-ex, rt, d,13511.667462250001, -0.039117053521011705, -0.3381396974291526, 0.1848572770123723, -0.05118504539132118, 0.7357799410820007, 0.15890860557556152, -0.03689257800579071, 0.33173272013664246, -0.9426517486572266, 0.025967389345169067, -0.020514369010925293, 0.10079389810562134, -0.16573588941538525, -0.034723578763144164, 0.9810427209290007,0.09424044969925549,-0.01092529296875,0.31121826171875,-0.84185791015625
20220205-1717,2022-02-05 17:17:11Z,u01, 86,40,movements,el-ex, rt, d,13511.69240725, -0.019456860848288824, -0.33969888579996044, 0.18897229233198845, -0.06652392446994781, 0.6995793581008911, 0.16274940967559814, -0.018343841657042503, 0.33320319652557373, -0.9426766037940979, 0.058001548051834106, -0.023388683795928955, 0.0629921555519104, -0.16736740787573548, -0.025492379439112686, 0.9810123481719324,0.09462068077708052,0.0411529541015625,0.3105316162109375,-0.884735107421875
20220205-1717,2022-02-05 17:17:11Z,u01, 87,40,movements,el-ex, rt, d,13511.717352250002, -0.0007766545735879995, -0.3414126551795109, 0.1931822856138676, -0.020519312471151352, 0.7241435050964355, 0.15858817100524902, -0.0007318280404433608, 0.3348185420036316, -0.9422823190689087, -0.021057605743408203, -0.011698395013809204, 0.06909817457199097, -0.16904968697566702, -0.016764150778860953, 0.9808649934928806,0.09510490623701395,-0.02178955078125,0.3231201171875,-0.8731842041015625
20220205-1717,2022-02-05 17:17:11Z,u01, 88,40,movements,el-ex, rt, d,13511.74229725, 0.020046699236549205, -0.3392855805468416, 0.19744876961338859, 0.16371221840381622, 0.8332844376564026, 0.16831275820732117, 0.018902624025940895, 0.33281347155570984, -0.9428032040596008, -0.02955314703285694, 0.006633549928665161, 0.031288981437683105, -0.16897350080072682, -0.006808572855145231, 0.9809632444219458,0.09546036404615849,0.0090789794921875,0.3459930419921875,-0.91302490234375
20220205-1717,2022-02-05 17:17:11Z,u01, 89,40,movements,el-ex, rt, d,13511.76724225, 0.04223573462281093, -0.33513726262558463, 0.20168310300899772, 0.10353165864944458, 0.8044431209564209, 0.16055090725421906, 0.03987409919500351, 0.3288987874984741, -0.9435229897499084, 0.07461270689964294, -0.006129592657089233, 0.019893288612365723, -0.16799723547264922, 0.0039280779675205935, 0.9811200266682969,0.09573451512668585,0.1144866943359375,0.3227691650390625,-0.9236297607421875
20220205-1717,2022-02-05 17:17:11Z,u01, 90,40,movements,el-ex, rt, d,13511.792188250001, 0.06229763454559456, -0.3356099055966457, 0.20603145527734748, -0.1527431756258011, 0.7050919532775879, 0.15299652516841888, 0.058783985674381256, 0.32934510707855225, -0.9423779845237732, 0.0560537688434124, -0.01806578040122986, 0.03060436248779297, -0.1692101532215594, 0.013376750738874774, 0.9807859654234353,0.09616599729394565,0.104034423828125,0.3105316162109375,-0.9061737060546875
20220205-1717,2022-02-05 17:17:11Z,u01, 91,40,movements,el-ex, rt, d,13511.81713325, 0.08226643150573595, -0.33990466936739544, 0.21044879799619814, -0.14628872275352478, 0.7973944544792175, 0.1455513834953308, 0.07747222483158112, 0.3333972096443176, -0.9395979642868042, -0.007495298981666565, -0.0007250308990478516, 0.016838014125823975, -0.17231439915677252, 0.02255568821593959, 0.9800430195010421,0.09651292475758588,0.069976806640625,0.332672119140625,-0.922760009765625
20220205-1717,2022-02-05 17:17:11Z,u01, 92,40,movements,el-ex, rt, d,13511.842078250002, 0.1037036719715206, -0.3399572692467612, 0.21376801241433696, 0.12244070321321487, 0.7968232035636902, 0.10477592051029205, 0.09759344905614853, 0.33344680070877075, -0.9377039670944214, 0.02020452171564102, 0.016132116317749023, -0.03785139322280884, -0.17341930977909314, 0.03276818862831432, 0.979582218108968,0.09628449599162253,0.130218505859375,0.3424224853515625,-0.98388671875
20220205-1717,2022-02-05 17:17:11Z,u01, 93,40,movements,el-ex, rt, d,13511.86702325, 0.12321331252632445, -0.3364456290870299, 0.21643696255524236, 0.03827056661248207, 0.7204796671867371, 0.11607544124126434, 0.11601117998361588, 0.3301340937614441, -0.9367779493331909, 0.05635222792625427, -0.011194825172424316, 0.006159663200378418, -0.17269117072695683, 0.042294090675362474, 0.9793706408953218,0.09603270929644542,0.17236328125,0.318939208984375,-0.9306182861328125
20220205-1717,2022-02-05 17:17:11Z,u01, 94,40,movements,el-ex, rt, d,13511.89196825, 0.14215162047483462, -0.34005798937050025, 0.2204880581411006, -0.3029039800167084, 0.7003670930862427, 0.14468513429164886, 0.13356047868728638, 0.33354175090789795, -0.9332264065742493, 0.053954899311065674, -0.03526291251182556, 0.05735665559768677, -0.175459620337714, 0.0509972935991465, 0.9784455134406601,0.09621682442953994,0.180816650390625,0.298858642578125,-0.886993408203125
20220205-1717,2022-02-05 17:17:11Z,u01, 95,40,movements,el-ex, rt, d,13511.916913250001, 0.16263140049814304, -0.3450981447152554, 0.22521284126238103, -0.07985740154981613, 0.8026139140129089, 0.1334134340286255, 0.15236927568912506, 0.3382890224456787, -0.9286248683929443, 0.002599090337753296, 0.022413522005081177, 0.01672917604446411, -0.17903470237521185, 0.060283857538079764, 0.9772434537568893,0.0964764454105923,0.15496826171875,0.3607025146484375,-0.911895751953125
20220205-1717,2022-02-05 17:17:11Z,u01, 96,40,movements,el-ex, rt, d,13511.94185825, 0.18443839902363063, -0.343927238456438, 0.22793325908561096, 0.0408475399017334, 0.8240312933921814, 0.08734120428562164, 0.17265447974205017, 0.33718693256378174, -0.9254703521728516, 0.02213934063911438, 0.01962462067604065, 0.027719557285308838, -0.1796027317346605, 0.07076492457532568, 0.9764918261114941,0.09591097403724469,0.21002197265625,0.3494415283203125,-0.90057373046875
20220205-1717,2022-02-05 17:17:11Z,u01, 97,40,movements,el-ex, rt, d,13511.966804250002, 0.20454289429149058, -0.3442418140454977, 0.23085309783173463, -0.132102832198143, 0.7133326530456543, 0.12662889063358307, 0.19120290875434875, 0.33748307824134827, -0.9217085242271423, 0.0795491635799408, -0.04083690047264099, 0.006928920745849609, -0.18082800674596508, 0.08029294849979066, 0.9755680166614777,0.09550633126699859,0.270751953125,0.2966461181640625,-0.9147796630859375
20220205-1717,2022-02-05 17:17:11Z,u01, 98,40,movements,el-ex, rt, d,13511.99174925, 0.22378043528806474, -0.3491473094817461, 0.23579778735956888, -0.23559240996837616, 0.7517907619476318, 0.16628269851207733, 0.20852793753147125, 0.3420966863632202, -0.9162346720695496, 0.019850492477416992, -0.01903754472732544, 0.020223379135131836, -0.1843380873129853, 0.08889394608542571, 0.9741300143736382,0.09585488859571245,0.22503662109375,0.325531005859375,-0.896148681640625
20220205-1717,2022-02-05 17:17:11Z,u01, 99,40,movements,el-ex, rt, d,13512.01669425, 0.2465234529312848, -0.35053484693698994, 0.24064706981107975, 0.07727918773889542, 0.906111478805542, 0.1346634477376938, 0.22919408977031708, 0.34340018033981323, -0.9107943773269653, 0.002144545316696167, 0.030089259147644043, 0.009381473064422607, -0.18632931358321428, 0.09941930706870708, 0.9727171274796601,0.0960137970478831,0.2313385009765625,0.3734893798828125,-0.9014129638671875
20220205-1717,2022-02-05 17:17:11Z,u01, 100,40,movements,el-ex, rt, d,13512.041639250001, 0.26992670579218786, -0.3450548918075457, 0.24192424629594753, 0.25563564896583557, 0.89862060546875, 0.07990892231464386, 0.25094297528266907, 0.3382483422756195, -0.9069816470146179, 0.023562759160995483, 0.04445737600326538, 0.010649919509887695, -0.1848638882829512, 0.11106089348869316, 0.9718495944041659,0.09486442510381782,0.281707763671875,0.3712310791015625,-0.896392822265625
20220205-1717,2022-02-05 17:17:11Z,u01, 101,40,movements,el-ex, rt, d,13512.066583375, 0.2917258570156451, -0.34091518576193547, 0.24297149514062277, -0.0277017243206501, 0.8203832507133484, 0.09714796394109726, 0.27105361223220825, 0.33434975147247314, -0.9026296138763428, 0.0578191876411438, -0.02685457468032837, 0.04301053285598755, -0.18395379448014362, 0.12184497709313338, 0.9708436389194987,0.09368869767251603,0.3288726806640625,0.3074951171875,-0.859619140625
20220205-1717,2022-02-05 17:17:11Z,u01, 102,40,movements,el-ex, rt, d,13512.091528375, 0.3130904866867525, -0.3441748302695442, 0.24754131753941616, -0.25438255071640015, 0.7634472250938416, 0.14223076403141022, 0.28993743658065796, 0.3374200165271759, -0.8955914378166199, 0.06450909376144409, -0.023210972547531128, -0.02243828773498535, -0.1868145587558065, 0.13154694419501192, 0.9690331672736364,0.09365094742515162,0.3537445068359375,0.3245849609375,-0.9239349365234375
20220205-1717,2022-02-05 17:17:11Z,u01, 103,40,movements,el-ex, rt, d,13512.116473375001, 0.3347104421731803, -0.348863904210961, 0.2531100136837591, -0.20958612859249115, 0.8337230682373047, 0.11938036233186722, 0.30870765447616577, 0.34183037281036377, -0.8876100182533264, 0.014443069696426392, 0.026928812265396118, 0.03842800855636597, -0.19046115225233737, 0.1411365850732856, 0.9669488176248812,0.0938877858060973,0.323150634765625,0.3687591552734375,-0.84918212890625
20220205-1717,2022-02-05 17:17:11Z,u01, 104,40,movements,el-ex, rt, d,13512.141418375, 0.35734243715429126, -0.35093021544951586, 0.2560422922196828, -0.0510878749191761, 0.8773213624954224, 0.04599690064787865, 0.3284675180912018, 0.34377148747444153, -0.8797330856323242, 0.02294251322746277, 0.03159478306770325, 0.033709585666656494, -0.19272301841735773, 0.15162883288927048, 0.9650019585096887,0.09293978567046024,0.36175537109375,0.3684844970703125,-0.84332275390625
20220205-1717,2022-02-05 17:17:11Z,u01, 105,40,movements,el-ex, rt, d,13512.166364375002, 0.37941137750583076, -0.3536973980432436, 0.2589136376015765, -0.26025140285491943, 0.8095245957374573, 0.0906287431716919, 0.34744706749916077, 0.3463687002658844, -0.871383547782898, 0.042857617139816284, -0.017190784215927124, 0.044662415981292725, -0.19529019995039737, 0.16177131780986698, 0.9629358374731237,0.09190496295096595,0.3903045654296875,0.3291778564453125,-0.82672119140625
20220205-1717,2022-02-05 17:17:11Z,u01, 106,40,movements,el-ex, rt, d,13512.191309375, 0.4016645187951379, -0.361512494952397, 0.2660851293370852, -0.4810585081577301, 0.7861670255661011, 0.15288692712783813, 0.3656810224056244, 0.35368937253952026, -0.8609188199043274, 0.04340723156929016, -0.033025890588760376, 0.06917089223861694, -0.2006341508987527, 0.1711330365643997, 0.9601751295936367,0.09232137550950625,0.4078826904296875,0.3332061767578125,-0.7880401611328125
20220205-1717,2022-02-05 17:17:11Z,u01, 107,40,movements,el-ex, rt, d,13512.216254375, 0.42647215223483737, -0.36831008499795764, 0.2741016578986414, -0.17479947209358215, 0.9844055771827698, 0.15375658869743347, 0.3859201967716217, 0.3600393533706665, -0.8493746519088745, 0.013936489820480347, 0.05036109685897827, 0.04281038045883179, -0.20571405151291394, 0.1816436291117445, 0.9571104217141457,0.09288176789694036,0.3998565673828125,0.410400390625,-0.8065643310546875
20220205-1717,2022-02-05 17:17:11Z,u01, 108,40,movements,el-ex, rt, d,13512.241199375001, 0.4524541034747345, -0.36580854058046874, 0.27561521143203105, 0.25781112909317017, 1.0252243280410767, 0.030258480459451675, 0.40824833512306213, 0.3577044606208801, -0.8398695588111877, 0.012039870023727417, 0.07645392417907715, 0.0010024309158325195, -0.20587004729897956, 0.19412045914039835, 0.9547839230797499,0.09122780844233103,0.419158935546875,0.4281158447265625,-0.83514404296875
20220205-1717,2022-02-05 17:17:12Z,u01, 109,40,movements,el-ex, rt, d,13512.266144375, 0.4766800802048973, -0.35897498166900965, 0.27250193488090824, 0.24766305088996887, 1.0006706714630127, 0.02536012977361679, 0.4295847713947296, 0.3513147234916687, -0.831886351108551, 0.028560519218444824, 0.010303348302841187, 0.0445939302444458, -0.2034237223489102, 0.20658074569500284, 0.952984553287244,0.08811226147118334,0.4581451416015625,0.3616180419921875,-0.78729248046875
20220205-1717,2022-02-05 17:17:12Z,u01, 110,40,movements,el-ex, rt, d,13512.291089375001, 0.5016793137818686, -0.35761961427681854, 0.2737209378384681, -0.17247429490089417, 0.9739428162574768, 0.12906421720981598, 0.45047345757484436, 0.35004544258117676, -0.821304976940155, 0.0691341757774353, -0.01079675555229187, 0.07362443208694458, -0.20400645523957828, 0.21846937354997115, 0.9503689746096545,0.0863218693751564,0.5288848876953125,0.3372955322265625,-0.7500152587890625
20220205-1717,2022-02-05 17:17:12Z,u01, 111,40,movements,el-ex, rt, d,13512.316034375, 0.5288121752761462, -0.3584222136284463, 0.2789101098249871, 0.051701921969652176, 1.0896531343460083, 0.1579250991344452, 0.47244736552238464, 0.3507971465587616, -0.8085387349128723, 0.05991664528846741, 0.06721740961074829, -0.00847780704498291, -0.20613315504579188, 0.23073744135727023, 0.9470437758554915,0.08589219976002366,0.5323638916015625,0.4180145263671875,-0.8170166015625
20220205-1717,2022-02-05 17:17:12Z,u01, 112,40,movements,el-ex, rt, d,13512.340980375, 0.5559381771429419, -0.3536694778260366, 0.27834289983190985, 0.332452654838562, 1.0749194622039795, 0.0050144437700510025, 0.49507761001586914, 0.3463425040245056, -0.796834409236908, 0.021524101495742798, 0.06788790225982666, -0.05468219518661499, -0.20499874225936926, 0.2440456927028559, 0.944162611851473,0.0835126342383643,0.5176239013671875,0.4115753173828125,-0.860595703125
20220205-1717,2022-02-05 17:17:12Z,u01, 113,40,movements,el-ex, rt, d,13512.365925375001, 0.5799913870294967, -0.3445101748346471, 0.2717947788788533, 0.4848555326461792, 0.9860852360725403, 0.02070046216249466, 0.5158158540725708, 0.33773568272590637, -0.7873173952102661, 0.07776641845703125, 0.0460686981678009, -0.026113271713256836, -0.20089993751252314, 0.2568667140183033, 0.9419999879881462,0.07934037570323066,0.5935821533203125,0.3838043212890625,-0.8134307861328125
20220205-1717,2022-02-05 17:17:12Z,u01, 114,40,movements,el-ex, rt, d,13512.390870375, 0.6019862627883155, -0.3382006497499681, 0.26874235934752994, -0.03205379843711853, 0.8884170055389404, 0.02943882718682289, 0.5342027544975281, 0.3317902088165283, -0.7775235176086426, 0.10660552978515625, -0.025973498821258545, -0.043918073177337646, -0.19843114971374304, 0.26807336867651543, 0.9396184888341201,0.07667480531950249,0.6361236572265625,0.30474853515625,-0.8016815185546875
20220205-1717,2022-02-05 17:17:12Z,u01, 115,40,movements,el-ex, rt, d,13512.415815375001, 0.626553578332561, -0.34389885041708745, 0.2739035318065405, -0.47626182436943054, 0.9853140711784363, 0.032560981810092926, 0.552023708820343, 0.3371601998806, -0.7626223564147949, 0.04268771409988403, 0.017560899257659912, 0.04028666019439697, -0.20270462229625053, 0.2785671362157382, 0.935722562060123,0.07572747099294258,0.5947113037109375,0.3547210693359375,-0.7223358154296875
20220205-1717,2022-02-05 17:17:12Z,u01, 116,40,movements,el-ex, rt, d,13512.440760375, 0.6542997092571979, -0.35224510033197187, 0.2789165468237087, -0.1415484994649887, 1.0924097299575806, -0.10376829653978348, 0.5712357759475708, 0.34500592947006226, -0.7447554469108582, 0.01459503173828125, 0.05643758177757263, 0.01717066764831543, -0.20828773737843762, 0.29023868911391504, 0.931088355911225,0.07384033904234999,0.596435546875,0.4049072265625,-0.74395751953125
20220205-1717,2022-02-05 17:17:12Z,u01, 117,40,movements,el-ex, rt, d,13512.465705375002, 0.6799483927489363, -0.3504155882407678, 0.274046408086329, 0.3782356381416321, 1.0572359561920166, -0.04579088091850281, 0.5905436873435974, 0.3432881832122803, -0.7303501963615417, 0.04915064573287964, 0.051822930574417114, -0.023250699043273926, -0.20764728967622187, 0.3028324663969303, 0.9275684694601203,0.06922307201411593,0.6396942138671875,0.395111083984375,-0.75360107421875
20220205-1717,2022-02-05 17:17:12Z,u01, 118,40,movements,el-ex, rt, d,13512.490650375, 0.7035949914477656, -0.3442268583296998, 0.26855536798549773, 0.12480336427688599, 1.0004099607467651, 0.017522845417261124, 0.6090101003646851, 0.3374689817428589, -0.7177892923355103, 0.026655912399291992, -0.01750737428665161, 0.009888410568237305, -0.20477817635747786, 0.314914689229025, 0.9244599686974804,0.06533429976970956,0.6308441162109375,0.3094024658203125,-0.69915771484375
20220205-1717,2022-02-05 17:17:12Z,u01, 119,40,movements,el-ex, rt, d,13512.515596375, 0.7299588684141995, -0.34688198083594823, 0.2722382146391126, -0.4025607407093048, 1.0338349342346191, 0.0401545912027359, 0.6271202564239502, 0.33996716141700745, -0.7008156180381775, 0.038025736808776855, -0.004121154546737671, 0.06136566400527954, -0.20742283806221812, 0.32644748471142426, 0.9199637360852613,0.06383234181585479,0.6651458740234375,0.335845947265625,-0.6394500732421875
20220205-1717,2022-02-05 17:17:12Z,u01, 120,40,movements,el-ex, rt, d,13512.540541375001, 0.7578666262863861, -0.3554245408341879, 0.28141853160494856, -0.5126504302024841, 0.8890609741210938, 0.010355479083955288, 0.6444119215011597, 0.34798839688301086, -0.6809092164039612, 0.09863018989562988, 0.014407873153686523, 0.013444185256958008, -0.2136782867885303, 0.33747143201871177, 0.9145616592821262,0.06349505446579762,0.75482177734375,0.35528564453125,-0.6900634765625
20220205-1717,2022-02-05 17:17:12Z,u01, 121,40,movements,el-ex, rt, d,13512.565486375, 0.7809346850553118, -0.3628577509142544, 0.289569594495729, -0.2732216417789459, 0.7493326663970947, 0.002920200116932392, 0.6581072211265564, 0.35494735836982727, -0.6640084981918335, 0.007740676403045654, 0.025484859943389893, -0.028069019317626953, -0.2191226597997999, 0.3463827519175615, 0.9099456309989016,0.06327113930995337,0.6658477783203125,0.38043212890625,-0.69207763671875
20220205-1717,2022-02-05 17:17:12Z,u01, 122,40,movements,el-ex, rt, d,13512.590431375002, 0.8006219058504241, -0.36390856201120386, 0.29098683255723706, 0.10829588770866394, 0.8403502106666565, -0.007933512330055237, 0.670783281326294, 0.35592955350875854, -0.6506643295288086, -0.033774495124816895, 0.02741706371307373, 0.008360981941223145, -0.22045208553061998, 0.3550615691451722, 0.9063911377548814,0.06154156508642833,0.6482086181640625,0.3949127197265625,-0.633514404296875
20220205-1717,2022-02-05 17:17:12Z,u01, 123,40,movements,el-ex, rt, d,13512.615376375, 0.8211016801372325, -0.36040751670475735, 0.28661673859439013, 0.2894233167171478, 0.9132214188575745, -0.00949845276772976, 0.684874951839447, 0.3526555895805359, -0.6376365423202515, 0.09463560581207275, 0.031148761510849, -0.04969543218612671, -0.21872944999574018, 0.36515633419671767, 0.9030231847248064,0.05802984569157321,0.779510498046875,0.3838043212890625,-0.6873321533203125
20220205-1717,2022-02-05 17:17:12Z,u01, 124,40,movements,el-ex, rt, d,13512.640321375, 0.8416310403828892, -0.357434537654274, 0.28076509617566486, 0.17484569549560547, 0.8858759999275208, -0.08168776333332062, 0.6985988020896912, 0.34987208247184753, -0.6241389513015747, 0.08123230934143066, 0.02460920810699463, -0.05623507499694824, -0.21691046222530436, 0.3753403566815914, 0.8995431061346673,0.053775929742943096,0.7684783935546875,0.363677978515625,-0.67724609375
20220205-1717,2022-02-05 17:17:12Z,u01, 125,40,movements,el-ex, rt, d,13512.665266375001, 0.8625268246600682, -0.3571697337710425, 0.2756785963925889, 0.15045149624347687, 0.9260447025299072, -0.14830414950847626, 0.7115574479103088, 0.34962397813796997, -0.6094661951065063, -0.03168678283691406, -0.009215593338012695, -0.0506441593170166, -0.21636545837716006, 0.3852958661277782, 0.8957142232699207,0.04928582372111018,0.67987060546875,0.3404083251953125,-0.6601104736328125
20220205-1717,2022-02-05 17:17:12Z,u01, 126,40,movements,el-ex, rt, d,13512.690212375, 0.8853425918379442, -0.35844124398187854, 0.27314305113851, -0.14841106534004211, 0.9561360478401184, -0.03879915177822113, 0.7249317765235901, 0.35081496834754944, -0.5927923321723938, 0.003934919834136963, -0.03456130623817444, 0.000888824462890625, -0.21696550105983986, 0.39563848682229474, 0.8912544377800073,0.045405036959753564,0.7522735595703125,0.3123626708984375,-0.5882415771484375
20220205-1717,2022-02-05 17:17:12Z,u01, 127,40,movements,el-ex, rt, d,13512.715157375002, 0.9107377661251248, -0.36229851768473154, 0.27964024657000797, -0.36594587564468384, 0.891733705997467, 0.08792371302843094, 0.7386760711669922, 0.35442447662353516, -0.5733594298362732, 0.09543049335479736, -0.04740232229232788, -0.07577979564666748, -0.22051153825347897, 0.4058262477023673, 0.8858248673475356,0.04465548030994326,0.8341064453125,0.3070220947265625,-0.649139404296875
20220205-1717,2022-02-05 17:17:12Z,u01, 128,40,movements,el-ex, rt, d,13512.740102375, 0.9363225906889251, -0.3649963140331215, 0.2882307618474344, -0.20104192197322845, 0.9418013095855713, 0.11267852783203125, 0.7523292303085327, 0.35694584250450134, -0.553706169128418, 0.028096914291381836, 0.020587146282196045, -0.11087501049041748, -0.22401017257449485, 0.4158922384394676, 0.8802438185748208,0.044989163813596855,0.760833740234375,0.3806304931640625,-0.665313720703125
20220205-1717,2022-02-05 17:17:12Z,u01, 129,40,movements,el-ex, rt, d,13512.765047375, 0.9614410212281613, -0.3647379532018981, 0.2898022110901446, 0.07499522715806961, 1.0062495470046997, 0.002123716287314892, 0.7660742998123169, 0.3567045032978058, -0.5346889495849609, -0.026404380798339844, 0.012939751148223877, -0.10010701417922974, -0.22478297911217437, 0.4267647243711, 0.8749300006554166,0.04292089288118894,0.7396697998046875,0.3696441650390625,-0.634796142578125
20220205-1717,2022-02-05 17:17:12Z,u01, 130,40,movements,el-ex, rt, d,13512.789992375001, 0.985835592309303, -0.36428750363450213, 0.29003775350021765, -0.1658039689064026, 0.920718789100647, 0.05132821574807167, 0.7790223956108093, 0.35628363490104675, -0.5159323215484619, 0.058196961879730225, 0.014459192752838135, -0.045438408851623535, -0.22515101089952236, 0.4374252761531974, 0.8696752688729958,0.04038734117885884,0.8549041748046875,0.36785888671875,-0.5467987060546875
20220205-1717,2022-02-05 17:17:12Z,u01, 131,40,movements,el-ex, rt, d,13512.814937375, 1.0108524317055374, -0.3679517710988319, 0.3003450619831588, -0.6264336109161377, 0.8039957284927368, 0.06963884085416794, 0.7905728220939636, 0.3597050607204437, -0.49558746814727783, 0.10733073949813843, -0.02501872181892395, -0.07718154788017273, -0.22948016172953334, 0.44670473786986564, 0.8637727287176997,0.04111480458970157,0.8979034423828125,0.334686279296875,-0.5727691650390625
20220205-1717,2022-02-05 17:17:12Z,u01, 132,40,movements,el-ex, rt, d,13512.839882375001, 1.0367131882850582, -0.3758568902035683, 0.31694568470953877, -0.6551223397254944, 0.8033385276794434, 0.034042034298181534, 0.8006508350372314, 0.3670697510242462, -0.47351697087287903, 0.057473063468933105, 0.030849039554595947, -0.08857089281082153, -0.23705950178431548, 0.4550212207456913, 0.8572555068129992,0.04326324522307007,0.842254638671875,0.40728759765625,-0.5584564208984375
20220205-1717,2022-02-05 17:17:12Z,u01, 133,40,movements,el-ex, rt, d,13512.864828375, 1.0618685658943952, -0.38297133152678686, 0.327860108884875, -0.3000430762767792, 0.8918063044548035, -0.11785774677991867, 0.8100065588951111, 0.37367820739746094, -0.45194464921951294, -0.0028165578842163086, 0.06200602650642395, -0.07600924372673035, -0.24303982369497037, 0.46363705470639893, 0.850950080059951,0.04308468875216137,0.80718994140625,0.4356842041015625,-0.5279541015625
20220205-1717,2022-02-05 17:17:12Z,u01, 134,40,movements,el-ex, rt, d,13512.889773375, 1.0853044016743842, -0.3865632048666125, 0.3290702674625386, 0.0517544187605381, 0.9494504928588867, -0.08905027061700821, 0.8191825151443481, 0.37700745463371277, -0.4322099983692169, 0.060105323791503906, 0.06009584665298462, -0.06254082918167114, -0.2452746097763164, 0.47300672221398876, 0.8452935280090575,0.03979925186216732,0.89813232421875,0.433013916015625,-0.4842529296875
20220205-1717,2022-02-05 17:17:12Z,u01, 135,40,movements,el-ex, rt, d,13512.914718375001, 1.10737926569066, -0.38821806531446124, 0.32677281392123864, -0.023021351546049118, 0.865568220615387, -0.11425349116325378, 0.8279638886451721, 0.37853968143463135, -0.41374334692955017, 0.10849863290786743, 0.012787222862243652, -0.029112309217453003, -0.24581257521011973, 0.48239454618570565, 0.8399991391821999,0.03568139251281127,0.93646240234375,0.391326904296875,-0.4428558349609375
20220205-1717,2022-02-05 17:17:12Z,u01, 136,40,movements,el-ex, rt, d,13512.939663375, 1.128837250526055, -0.39279190215100135, 0.3292839411088691, -0.3106188476085663, 0.7909663319587708, -0.12890580296516418, 0.8350769877433777, 0.3827691972255707, -0.39513838291168213, 0.042272984981536865, -0.0021539628505706787, -0.030673235654830933, -0.24862896769091672, 0.49052466028616803, 0.8345600715635265,0.032844865013007374,0.858367919921875,0.3820648193359375,-0.4194488525390625
20220205-1717,2022-02-05 17:17:12Z,u01, 137,40,movements,el-ex, rt, d,13512.964608375001, 1.1521279071057873, -0.3999408007291865, 0.3374063695866978, -0.4392082095146179, 0.8460288643836975, -0.15077881515026093, 0.8415310978889465, 0.3893638253211975, -0.37446144223213196, -0.012063205242156982, -0.007802486419677734, -0.035313189029693604, -0.25385680441343794, 0.4983231907908511, 0.8284015471464188,0.03133199914178575,0.8294677734375,0.381561279296875,-0.4097747802734375
20220205-1717,2022-02-05 17:17:12Z,u01, 138,40,movements,el-ex, rt, d,13512.989553375, 1.1770169361724288, -0.40810826684386436, 0.34832734148068634, -0.5954329967498779, 0.768677294254303, -0.12139835953712463, 0.8476243019104004, 0.39687368273735046, -0.35217076539993286, 0.03198385238647461, 0.00023633241653442383, -0.0393238365650177, -0.26019892727373983, 0.5061730289698388, 0.8216836069155096,0.030353966419326084,0.8857879638671875,0.3942108154296875,-0.3915252685546875
20220205-1717,2022-02-05 17:17:12Z,u01, 139,40,movements,el-ex, rt, d,13513.014498375001, 1.20231433668501, -0.41783526200541793, 0.36428641439704174, -0.7952773571014404, 0.7327123284339905, -0.17066897451877594, 0.8526195287704468, 0.40578290820121765, -0.32921159267425537, 0.0053060054779052734, -0.015096843242645264, -0.0411190390586853, -0.2684338562996824, 0.513164178560371, 0.8146527970928881,0.030767816788734692,0.8579254150390625,0.39068603515625,-0.370330810546875
20220205-1717,2022-02-05 17:17:12Z,u01, 140,40,movements,el-ex, rt, d,13513.039443375, 1.2284104603557966, -0.4288545762243394, 0.3848389344064021, -0.8380872011184692, 0.689324140548706, -0.13301533460617065, 0.8566553592681885, 0.4158293902873993, -0.30533215403556824, 0.0036047697067260742, -0.026211410760879517, -0.06953030824661255, -0.27837368884713354, 0.5194631975656542, 0.807230231345546,0.032335241885246224,0.8619384765625,0.391387939453125,-0.375579833984375
20220205-1717,2022-02-05 17:17:12Z,u01, 141,40,movements,el-ex, rt, d,13513.064391041667, 1.253177625386481, -0.437509887779356, 0.4015936181413746, -0.5447268486022949, 0.7191437482833862, -0.13217836618423462, 0.8605026602745056, 0.423685222864151, -0.28288909792900085, 0.002153158187866211, 0.01877400279045105, -0.055169254541397095, -0.28642412958425456, 0.5258485197912766, 0.8002217173687974,0.03301369383740549,0.8626556396484375,0.4424591064453125,-0.3380584716796875
20220205-1717,2022-02-05 17:17:12Z,u01, 142,40,movements,el-ex, rt, d,13513.089336041667, 1.2733675092299954, -0.4412311525389393, 0.40981601472654866, -0.041749097406864166, 0.6375835537910461, 0.013404865749180317, 0.8645250201225281, 0.4270530343055725, -0.2649953067302704, 0.015815794467926025, 0.04796841740608215, -0.09923186898231506, -0.29031586147784605, 0.5321832886757767, 0.7946425631679311,0.03226487192566485,0.8780364990234375,0.4666748046875,-0.37298583984375
20220205-1717,2022-02-05 17:17:12Z,u01, 143,40,movements,el-ex, rt, d,13513.114281041668, 1.2875765675173219, -0.4405307612750637, 0.4059644622814531, 0.2583496868610382, 0.6446283459663391, -0.019233837723731995, 0.8684897422790527, 0.42641961574554443, -0.252768337726593, -0.010121762752532959, 0.047289490699768066, -0.10210511088371277, -0.2892431001427834, 0.5384740049810077, 0.7909168256505128,0.02889169832712818,0.858367919921875,0.4737091064453125,-0.3548736572265625
20220205-1717,2022-02-05 17:17:12Z,u01, 144,40,movements,el-ex, rt, d,13513.139226041667, 1.2997597804919263, -0.43921457061897634, 0.3983425790997441, 0.26825761795043945, 0.5679014325141907, -0.025800324976444244, 0.8720448613166809, 0.42522871494293213, -0.24231892824172974, 0.05385851860046387, 0.01739823818206787, -0.09491539001464844, -0.28685717175791814, 0.5445672554240993, 0.7877549010450646,0.024531011017435767,0.938323974609375,0.4366607666015625,-0.333221435546875
20220205-1717,2022-02-05 17:17:12Z,u01, 145,40,movements,el-ex, rt, d,13513.164171041668, 1.309844852473568, -0.43790392281502605, 0.39148634979454044, 0.2909388542175293, 0.4907405972480774, -0.006367240566760302, 0.8749818801879883, 0.42404210567474365, -0.23365570604801178, 0.03947734832763672, 0.027694344520568848, -0.0940571129322052, -0.2846144049131679, 0.5496969989045232, 0.7851084921606197,0.020797158414524952,0.914459228515625,0.4517364501953125,-0.3277130126953125
20220205-1717,2022-02-05 17:17:12Z,u01, 146,40,movements,el-ex, rt, d,13513.189116041667, 1.3185908998437665, -0.43612921847757086, 0.3818277420049731, 0.39408019185066223, 0.5221207737922668, -0.033834684640169144, 0.8777194023132324, 0.4224341809749603, -0.22618168592453003, 0.015362322330474854, 0.02423638105392456, -0.08315956592559814, -0.2813781886657751, 0.554739103597997, 0.7828311085490944,0.016322097822163206,0.895355224609375,0.4415435791015625,-0.2998504638671875
20220205-1717,2022-02-05 17:17:12Z,u01, 147,40,movements,el-ex, rt, d,13513.214061041668, 1.327378983315334, -0.43486789695515843, 0.3718140270371253, 0.31913939118385315, 0.4976617693901062, -0.04708683863282204, 0.8801895976066589, 0.4212906062602997, -0.21858781576156616, 0.05766141414642334, 0.003178417682647705, -0.05335414409637451, -0.27818779911602187, 0.5597478337944576, 0.7804871069266033,0.011570731363804654,0.9378509521484375,0.424468994140625,-0.271942138671875
20220205-1717,2022-02-05 17:17:12Z,u01, 148,40,movements,el-ex, rt, d,13513.239007041668, 1.3353354889945963, -0.43481794126241874, 0.36337561505488897, 0.3083209693431854, 0.44117823243141174, -0.08236413449048996, 0.8819214701652527, 0.421245276927948, -0.21158267557621002, 0.04932260513305664, -0.007197976112365723, -0.06057289242744446, -0.2758361390386223, 0.5640240144443954, 0.7782928360589629,0.007195873671478004,0.925567626953125,0.4172821044921875,-0.2756195068359375
20220205-1717,2022-02-05 17:17:13Z,u01, 149,40,movements,el-ex, rt, d,13513.263952041667, 1.3410395826373755, -0.43451123059552654, 0.35316157668390186, 0.3958221971988678, 0.35439547896385193, -0.06623516976833344, 0.8832396864891052, 0.42096710205078125, -0.2065780907869339, 0.004882931709289551, -0.034309327602386475, -0.0883283019065857, -0.27284826575293764, 0.5676836936684199, 0.776712767227759,0.0025387045351215054,0.88812255859375,0.38665771484375,-0.2949066162109375
20220205-1717,2022-02-05 17:17:13Z,u01, 150,40,movements,el-ex, rt, d,13513.288897041668, 1.345021680191487, -0.4347260553963775, 0.34489931826150844, 0.13774219155311584, 0.2622136175632477, -0.06277598440647125, 0.8839669823646545, 0.421161949634552, -0.2030390352010727, -0.032282471656799316, -0.054401695728302, -0.06913182139396667, -0.2705772797158339, 0.5703230815385207, 0.7755758088444721,-0.0012760909640518459,0.8529510498046875,0.3609161376953125,-0.2647857666015625
20220205-1717,2022-02-05 17:17:13Z,u01, 151,40,movements,el-ex, rt, d,13513.313842041667, 1.3503540248263122, -0.43561177142745466, 0.3445567719221681, -0.10119195282459259, 0.17977599799633026, -0.048409830778837204, 0.8846729397773743, 0.4219651222229004, -0.1982409507036209, 0.022629976272583008, -0.0613541305065155, -0.06201279163360596, -0.270797145618639, 0.5723184665999864, 0.774025104122642,-0.0024090975101033196,0.9073028564453125,0.3606109619140625,-0.26025390625
20220205-1717,2022-02-05 17:17:13Z,u01, 152,40,movements,el-ex, rt, d,13513.338787041668, 1.355916487769844, -0.4367424630374103, 0.34701204540776326, -0.02184629812836647, 0.1802864670753479, 0.014539772644639015, 0.8852951526641846, 0.42298993468284607, -0.19321507215499878, 0.027622997760772705, -0.026017308235168457, -0.0557776540517807, -0.2719046471018414, 0.5739863487701955, 0.7723994806864138,-0.0025714304253127707,0.9073333740234375,0.398529052734375,-0.2506256103515625
20220205-1717,2022-02-05 17:17:13Z,u01, 153,40,movements,el-ex, rt, d,13513.363732041667, 1.360536584265892, -0.43581695627497574, 0.34452520194693226, 0.20115485787391663, 0.2663998603820801, 0.025364521890878677, 0.8865609169006348, 0.4221511483192444, -0.18920451402664185, -0.00538104772567749, -0.02276751399040222, -0.06158876419067383, -0.27084660697112894, 0.5762289959139191, 0.7710949815466637,-0.003864969526320927,0.8811798095703125,0.399383544921875,-0.25079345703125
20220205-1717,2022-02-05 17:17:13Z,u01, 154,40,movements,el-ex, rt, d,13513.388677041667, 1.3639361923535664, -0.4339797877350218, 0.3394402913359062, 0.13770771026611328, 0.15407916903495789, 0.045283105224370956, 0.887956440448761, 0.4204849898815155, -0.18634842336177826, 0.036298930644989014, -0.034529149532318115, -0.0388101190328598, -0.26870519160740747, 0.5784663400587011, 0.7701569640841286,-0.005700100954576959,0.93157958984375,0.3818206787109375,-0.220611572265625
20220205-1717,2022-02-05 17:17:13Z,u01, 155,40,movements,el-ex, rt, d,13513.413623041668, 1.366948802832276, -0.4321815444657416, 0.33829546707011154, 0.00027901027351617813, 0.10815401375293732, 0.08336417376995087, 0.8892528414726257, 0.4188527464866638, -0.18382528424263, 0.06434518098831177, -0.02517598867416382, -0.04906938970088959, -0.2677138447034789, 0.5800143557591837, 0.7693354099960419,-0.005973366920222323,0.9535980224609375,0.3936767578125,-0.2328948974609375
20220205-1717,2022-02-05 17:17:13Z,u01, 156,40,movements,el-ex, rt, d,13513.438568041667, 1.3664413271158866, -0.4282184093810409, 0.3375496201384997, 0.022429918870329857, 0.03460536152124405, 0.114865243434906, 0.8907780051231384, 0.4152507483959198, -0.184611976146698, 0.06974762678146362, -0.009687364101409912, -0.07097256183624268, -0.26606389700509503, 0.5804343316713825, 0.7695984538493299,-0.004932521228514897,0.950927734375,0.4074859619140625,-0.254241943359375
20220205-1717,2022-02-05 17:17:13Z,u01, 157,40,movements,el-ex, rt, d,13513.463513041668, 1.3646413376386464, -0.42424707918116683, 0.3367711050304643, 6.842054426670074e-05, -0.02092500776052475, 0.06653499603271484, 0.8920512199401855, 0.4116347134113312, -0.18655112385749817, 0.008751273155212402, -0.0025618672370910645, -0.07101704180240631, -0.2644020262312888, 0.5803585149912962, 0.7702347228694395,-0.0037317296090116914,0.9008026123046875,0.4090728759765625,-0.257568359375
20220205-1717,2022-02-05 17:17:13Z,u01, 158,40,movements,el-ex, rt, d,13513.488458041667, 1.3626387145169758, -0.42211363936218366, 0.33753305537091555, -0.06016173213720322, -0.14222420752048492, 0.04220682010054588, 0.8925331830978394, 0.4096894860267639, -0.18851827085018158, 0.00793379545211792, -0.012335360050201416, -0.0927772969007492, -0.2638515197935095, 0.5797613619709473, 0.7708780361390142,-0.0024965433087791866,0.897674560546875,0.3869171142578125,-0.2840728759765625
20220205-1717,2022-02-05 17:17:13Z,u01, 159,40,movements,el-ex, rt, d,13513.513403041667, 1.3581546890797933, -0.42001165371302673, 0.3400334607916477, -0.12945371866226196, -0.18685771524906158, 0.054842185229063034, 0.8925186395645142, 0.4077710807323456, -0.19269981980323792, -0.01869356632232666, -0.03478524088859558, -0.11145338416099548, -0.26381400579518516, 0.5779725428968662, 0.7722369068732347,-0.00027446827884464176,0.8738250732421875,0.37298583984375,-0.3041534423828125
20220205-1717,2022-02-05 17:17:13Z,u01, 160,40,movements,el-ex, rt, d,13513.538348041668, 1.3539141917063426, -0.4185393762418731, 0.3429935273002099, -0.08207149058580399, -0.2024938017129898, 0.0678286999464035, 0.892278790473938, 0.406426340341568, -0.19661177694797516, 0.009118974208831787, -0.016472727060317993, -0.11631523072719574, -0.2641300659329886, 0.5761331638338606, 0.7735000279693998,0.0018944297417955447,0.9141387939453125,0.3892364501953125,-0.3130950927734375
20220205-1717,2022-02-05 17:17:13Z,u01, 161,40,movements,el-ex, rt, d,13513.563293041667, 1.3470550757225572, -0.41717007350395363, 0.34491056378251006, -0.106355220079422, -0.2918417155742645, 0.014450490474700928, 0.8914510607719421, 0.4051748514175415, -0.20285062491893768, 0.04531657695770264, -0.018227219581604004, -0.09728953242301941, -0.2641710432113209, 0.5734006834248206, 0.775505975092135,0.00397418061444732,0.936767578125,0.3869476318359375,-0.300140380859375
20220205-1717,2022-02-05 17:17:13Z,u01, 162,40,movements,el-ex, rt, d,13513.588239041668, 1.338628776600764, -0.4162029934322595, 0.34710986655998294, -0.08171975612640381, -0.3588979244232178, 0.04725803807377815, 0.890091061592102, 0.4042905271053314, -0.21044503152370453, 0.035980165004730225, -0.024865448474884033, -0.10863129794597626, -0.2644240094015807, 0.5699626516719121, 0.7779354303455115,0.0062452283299162525,0.922821044921875,0.3728179931640625,-0.3271636962890625
20220205-1717,2022-02-05 17:17:13Z,u01, 163,40,movements,el-ex, rt, d,13513.613184041667, 1.3270976202676354, -0.41349370533774044, 0.3484581561035779, -0.06211745738983154, -0.43878963589668274, 0.1166631430387497, 0.888664960861206, 0.40181103348731995, -0.22095808386802673, 0.030982255935668945, -0.021531492471694946, -0.12651488184928894, -0.2637660223198125, 0.5656398516479396, 0.7812781528949515,0.009138520495270974,0.919647216796875,0.380279541015625,-0.34747314453125
20220205-1717,2022-02-05 17:17:13Z,u01, 164,40,movements,el-ex, rt, d,13513.638129041667, 1.3179178382864283, -0.4117977010432313, 0.3516931863600131, -0.10444976389408112, -0.48066604137420654, 0.1047065481543541, 0.8872578144073486, 0.4002573788166046, -0.2292765974998474, 0.03580749034881592, -0.013798028230667114, -0.11369502544403076, -0.2640025574570123, 0.5618401470381058, 0.7838947474274631,0.012141393072405582,0.9258270263671875,0.393341064453125,-0.3414306640625
20220205-1717,2022-02-05 17:17:13Z,u01, 165,40,movements,el-ex, rt, d,13513.663074041668, 1.3088276609442764, -0.4113490402059744, 0.35626812492834725, -0.14014068245887756, -0.4747980833053589, 0.06326024234294891, 0.8853104114532471, 0.3998461961746216, -0.23737885057926178, 0.07947242259979248, 0.005717188119888306, -0.09402662515640259, -0.26505444460982247, 0.5577245903726681, 0.7864198430534579,0.01527810679236602,0.96478271484375,0.4055633544921875,-0.3314056396484375
20220205-1717,2022-02-05 17:17:13Z,u01, 166,40,movements,el-ex, rt, d,13513.688019041667, 1.2970653831422503, -0.4106303733637336, 0.3592304094088688, -0.008708393201231956, -0.5801969766616821, 0.06761205196380615, 0.8827335834503174, 0.3991873860359192, -0.24785307049751282, 0.10739409923553467, 0.007825583219528198, -0.09064775705337524, -0.26551098717242416, 0.5527905377742206, 0.7896800348659457,0.01822577681050741,0.9826812744140625,0.40545654296875,-0.34527587890625
20220205-1717,2022-02-05 17:17:13Z,u01, 167,40,movements,el-ex, rt, d,13513.712964041668, 1.2817890607462048, -0.40914746889257747, 0.35758069750600585, 0.1542825698852539, -0.6202729940414429, 0.037400681525468826, 0.8794108629226685, 0.39782729744911194, -0.26147696375846863, 0.03758150339126587, -0.009841948747634888, -0.10894528031349182, -0.26435639715268744, 0.5471537345538308, 0.7939375284242329,0.020047034845719625,0.9169921875,0.3879852294921875,-0.37042236328125
20220205-1717,2022-02-05 17:17:13Z,u01, 168,40,movements,el-ex, rt, d,13513.737909041667, 1.2644517499731385, -0.4074200984779853, 0.35415389084394616, 0.10478654503822327, -0.6474661827087402, 0.026971008628606796, 0.8753994107246399, 0.3962419331073761, -0.2768903076648712, 0.018582582473754883, -0.02134871482849121, -0.09611058235168457, -0.2625932703908388, 0.5409247765547464, 0.7987387171693103,0.0214862603943336,0.8925323486328125,0.371673583984375,-0.3687286376953125
20220205-1717,2022-02-05 17:17:13Z,u01, 169,40,movements,el-ex, rt, d,13513.762855041667, 1.2476036371622223, -0.40607228394384876, 0.35298834273477664, 0.007534760050475597, -0.6837676167488098, 0.046131253242492676, 0.8711159825325012, 0.3950040638446808, -0.29176852107048035, 0.07019883394241333, -0.019317448139190674, -0.07012400031089783, -0.26157816693606506, 0.5345022033697724, 0.8033218767439888,0.02362839235481412,0.941314697265625,0.3756866455078125,-0.3618927001953125
20220205-1717,2022-02-05 17:17:13Z,u01, 170,40,movements,el-ex, rt, d,13513.787800041668, 1.229751905235977, -0.4052179429635352, 0.3541852853682259, -0.055656928569078445, -0.7771719694137573, 0.04034833237528801, 0.8660866022109985, 0.3942190706729889, -0.3073848783969879, 0.07394647598266602, -0.024239152669906616, -0.04948747158050537, -0.2613446878864114, 0.5272632251428886, 0.8080716999399732,0.02669580217929024,0.92486572265625,0.3721923828125,-0.3614959716796875
20220205-1717,2022-02-05 17:17:13Z,u01, 171,40,movements,el-ex, rt, d,13513.812745041667, 1.2107525928519693, -0.4047225063733638, 0.3552816186032788, 0.03726585581898689, -0.7786878347396851, 0.046930667012929916, 0.8602732419967651, 0.3937636911869049, -0.3238522708415985, -0.0046212077140808105, -0.004466146230697632, -0.06207290291786194, -0.2611726696607688, 0.5194831123138066, 0.8130438407535643,0.029766088639150645,0.85565185546875,0.3892974853515625,-0.38592529296875
20220205-1717,2022-02-05 17:17:13Z,u01, 172,40,movements,el-ex, rt, d,13513.837690041668, 1.1901254621786137, -0.4015771638599506, 0.3524406592703093, 0.24461837112903595, -0.8115506768226624, 0.10396572202444077, 0.854556143283844, 0.39087051153182983, -0.3419855237007141, 0.02421283721923828, -0.011949002742767334, -0.08208653330802917, -0.2589003001340938, 0.5118377379093872, 0.818508728656108,0.03219163720414314,0.889068603515625,0.3741607666015625,-0.4346466064453125
20220205-1717,2022-02-05 17:17:13Z,u01, 173,40,movements,el-ex, rt, d,13513.862635041667, 1.167268780373132, -0.396247183182672, 0.346936769739037, 0.2751927077770233, -0.8566256761550903, 0.1362968385219574, 0.8484208583831787, 0.38595902919769287, -0.36223968863487244, 0.06728959083557129, 0.007687211036682129, -0.07901379466056824, -0.25503501451348803, 0.5038226800596557, 0.8245836819908252,0.0343735891162566,0.91571044921875,0.393646240234375,-0.441253662109375
20220205-1717,2022-02-05 17:17:13Z,u01, 174,40,movements,el-ex, rt, d,13513.887580041668, 1.1444322736690857, -0.3911290831727571, 0.3429155804532399, 0.15821275115013123, -0.8485311269760132, 0.11906976997852325, 0.8417156338691711, 0.38123247027397156, -0.3823305070400238, 0.06598401069641113, 0.02524644136428833, -0.05381131172180176, -0.2515987181997106, 0.4955126987587692, 0.8305386574560274,0.03702473371001008,0.9058990478515625,0.40386962890625,-0.4384002685546875
20220205-1717,2022-02-05 17:17:13Z,u01, 175,40,movements,el-ex, rt, d,13513.912525041667, 1.1220477749466387, -0.38665977361152065, 0.34033112710021707, 0.23505446314811707, -0.8863396644592285, 0.12493205815553665, 0.8344740867614746, 0.37709689140319824, -0.4018097221851349, 0.07731497287750244, 0.028664857149124146, -0.07180768251419067, -0.24874936906655462, 0.48705121776191185, 0.8362460064660955,0.039969552735965586,0.9117889404296875,0.40576171875,-0.4736175537109375
20220205-1717,2022-02-05 17:17:13Z,u01, 176,40,movements,el-ex, rt, d,13513.937471041667, 1.0969870848978585, -0.3798070321688956, 0.3337451502277767, 0.42877355217933655, -0.9142541885375977, 0.1571895331144333, 0.8264236450195312, 0.37074124813079834, -0.4237630367279053, 0.0634385347366333, 0.038911521434783936, -0.0781746506690979, -0.24388457933721158, 0.47816188414133975, 0.8426782607822184,0.042131344554661776,0.88604736328125,0.406951904296875,-0.5050048828125
20220205-1717,2022-02-05 17:17:13Z,u01, 177,40,movements,el-ex, rt, d,13513.962416041668, 1.0702167137738456, -0.37109439127325156, 0.32643748309537485, 0.34123173356056213, -1.0247769355773926, 0.20052263140678406, 0.8175874352455139, 0.3626355528831482, -0.44726553559303284, 0.09160763025283813, 0.02811160683631897, -0.047515809535980225, -0.23802620791315415, 0.4687331322529489, 0.8494984799300083,0.044556544670244225,0.9091949462890625,0.3907470703125,-0.494781494140625
20220205-1717,2022-02-05 17:17:13Z,u01, 178,40,movements,el-ex, rt, d,13513.987361041667, 1.0432766053571885, -0.36447134251053126, 0.323977736664302, 0.049873560667037964, -1.0524084568023682, 0.1670728474855423, 0.807300329208374, 0.35645541548728943, -0.47032517194747925, 0.07458144426345825, 0.02089443802833557, -0.018718868494033813, -0.23410486388574464, 0.45829284751941646, 0.8560495377563827,0.048391883240476496,0.8753662109375,0.3801116943359375,-0.4888153076171875
20220205-1717,2022-02-05 17:17:13Z,u01, 179,40,movements,el-ex, rt, d,13514.012306041668, 1.0178326543199336, -0.3624511811016832, 0.3280266025287822, -0.1471002846956253, -1.1123383045196533, 0.1337890625, 0.7956844568252563, 0.3545672297477722, -0.49108877778053284, 0.07290685176849365, 0.03213629126548767, -0.01609790325164795, -0.2335341054189919, 0.4471212646639664, 0.8617829323124513,0.05361429975698073,0.86859130859375,0.3867034912109375,-0.5071868896484375
20220205-1717,2022-02-05 17:17:13Z,u01, 180,40,movements,el-ex, rt, d,13514.037251041667, 0.9909865028093099, -0.36201373795322683, 0.33315241032075577, -0.15003672242164612, -1.1662650108337402, 0.11040538549423218, 0.7823452353477478, 0.3541581630706787, -0.5123553276062012, 0.04814493656158447, 0.05993488430976868, -0.011021018028259277, -0.23372526554167283, 0.4349653376091648, 0.8675759062171053,0.059074419244319554,0.8231048583984375,0.41534423828125,-0.5283050537109375
20220205-1717,2022-02-05 17:17:13Z,u01, 181,40,movements,el-ex, rt, d,13514.062195166667, 0.9638541960704813, -0.3618729789263719, 0.3374828992233861, -0.11282071471214294, -1.1343470811843872, 0.06780212372541428, 0.7681986093521118, 0.35402652621269226, -0.5334194302558899, 0.059438228607177734, 0.05222350358963013, -0.013516485691070557, -0.23375855500143555, 0.4226668042708541, 0.8732656388880309,0.06416413334227072,0.82763671875,0.40625,-0.54693603515625
20220205-1717,2022-02-05 17:17:13Z,u01, 182,40,movements,el-ex, rt, d,13514.087140166668, 0.9364715111823646, -0.36271744754754365, 0.3412788488181231, -0.1419595181941986, -1.1713228225708008, 0.025925587862730026, 0.7530648708343506, 0.35481616854667664, -0.554074764251709, 0.10220563411712646, 0.06267958879470825, -0.0018638372421264648, -0.23399662631456147, 0.41013192637164586, 0.8788059395960728,0.06883037686808896,0.847381591796875,0.420501708984375,-0.5607452392578125
20220205-1717,2022-02-05 17:17:13Z,u01, 183,40,movements,el-ex, rt, d,13514.112086166668, 0.9083882029704589, -0.3654157352870141, 0.3446199897943737, -0.1856631636619568, -1.1694029569625854, -0.06792733818292618, 0.7364521026611328, 0.35733762383461, -0.574411153793335, 0.04435545206069946, 0.06018868088722229, -0.026250898838043213, -0.23482755297381186, 0.39705220348805226, 0.8842399046866634,0.0729755102487542,0.7808074951171875,0.4175262451171875,-0.6006622314453125
20220205-1717,2022-02-05 17:17:13Z,u01, 184,40,movements,el-ex, rt, d,13514.137031166667, 0.8807351924106325, -0.37052914781837903, 0.34941592159398815, -0.37144774198532104, -1.2140001058578491, -0.03139689192175865, 0.7188698053359985, 0.3621087074279785, -0.5933830738067627, 0.058947086334228516, 0.039838314056396484, -0.023773789405822754, -0.23692267226023928, 0.38363538364625216, 0.8892292347446153,0.07721969260881023,0.784332275390625,0.396514892578125,-0.63006591796875
20220205-1717,2022-02-05 17:17:13Z,u01, 185,40,movements,el-ex, rt, d,13514.161976166668, 0.8535048745461103, -0.3801372511490868, 0.35770228246519997, -0.5642619132995605, -1.2289677858352661, -0.14350526034832, 0.6997931003570557, 0.3710479140281677, -0.6104205250740051, 0.08121293783187866, 0.06959542632102966, -0.03734546899795532, -0.24154836028061122, 0.3693834332767197, 0.8935737965029632,0.08207547902851453,0.781005859375,0.440643310546875,-0.64776611328125
20220205-1717,2022-02-05 17:17:13Z,u01, 186,40,movements,el-ex, rt, d,13514.186921166667, 0.8255349694771352, -0.3928772719797915, 0.36532293805572197, -0.4798216223716736, -1.2490582466125488, -0.24979500472545624, 0.6789187788963318, 0.3828480541706085, -0.6264954805374146, 0.09798252582550049, 0.09064745903015137, -0.0212857723236084, -0.24727694760029967, 0.3544098814653701, 0.897673326958403,0.08619932882511877,0.774322509765625,0.476165771484375,-0.653839111328125
20220205-1717,2022-02-05 17:17:13Z,u01, 187,40,movements,el-ex, rt, d,13514.211866166668, 0.7945944892996124, -0.40302069792445394, 0.3650867277242121, -0.020667050033807755, -1.2091741561889648, -0.3264537751674652, 0.65640789270401, 0.3921988010406494, -0.6444445252418518, 0.08246850967407227, 0.11059358716011047, -0.027949154376983643, -0.25031149284513315, 0.3392961864181289, 0.9024992651370412,0.0878481259400225,0.7388763427734375,0.5027923583984375,-0.672393798828125
20220205-1717,2022-02-05 17:17:13Z,u01, 188,40,movements,el-ex, rt, d,13514.236811166667, 0.761028567382181, -0.4054393746706449, 0.3553069505976007, 0.32012659311294556, -1.1845663785934448, -0.3237219750881195, 0.6337547898292542, 0.3944225609302521, -0.6654214262962341, 0.08044815063476562, 0.09880256652832031, -0.020979762077331543, -0.2482809032039774, 0.32503210598081345, 0.9083613829520546,0.08712218810023131,0.7066802978515625,0.48211669921875,-0.6888427734375
20220205-1717,2022-02-05 17:17:14Z,u01, 189,40,movements,el-ex, rt, d,13514.261756166667, 0.7264391642898865, -0.40423811877237803, 0.3416921728748184, 0.418558806180954, -1.1708766222000122, -0.35700127482414246, 0.6106780171394348, 0.39331838488578796, -0.6872939467430115, 0.07799702882766724, 0.07590463757514954, -0.023109376430511475, -0.24409135794935977, 0.3110826750935052, 0.9145233465475928,0.08540509662778129,0.6886749267578125,0.4692230224609375,-0.7104034423828125
20220205-1717,2022-02-05 17:17:14Z,u01, 190,40,movements,el-ex, rt, d,13514.286702166668, 0.690924360367834, -0.4009922087569878, 0.32561640059092456, 0.5771949887275696, -1.1697678565979004, -0.37376150488853455, 0.5866994857788086, 0.39033204317092896, -0.7095242738723755, 0.08972281217575073, 0.08562013506889343, -0.01676344871520996, -0.23870039948496072, 0.2970858149340337, 0.9208084411528711,0.08290979873916049,0.67388916015625,0.4743499755859375,-0.7293701171875
20220205-1717,2022-02-05 17:17:14Z,u01, 191,40,movements,el-ex, rt, d,13514.311647166667, 0.6545501725464816, -0.3933694263485399, 0.30666457514477286, 0.754737377166748, -1.1685328483581543, -0.33992844820022583, 0.5623038411140442, 0.3833026587963104, -0.7327302098274231, 0.11170750856399536, 0.06510743498802185, -0.001171708106994629, -0.2310267722078315, 0.2833046747900024, 0.9273642880255324,0.07975387670797285,0.67401123046875,0.4484100341796875,-0.7339019775390625
20220205-1717,2022-02-05 17:17:14Z,u01, 192,40,movements,el-ex, rt, d,13514.336592166668, 0.6178448851345234, -0.3832442936343354, 0.28814495976896504, 0.6680641770362854, -1.2043970823287964, -0.2949628233909607, 0.5372567772865295, 0.3739313781261444, -0.7559964060783386, 0.11462932825088501, 0.021774858236312866, 0.041854679584503174, -0.22240849222538706, 0.2693255559311156, 0.9338489667103782,0.07697098835828498,0.640106201171875,0.384033203125,-0.707611083984375
20220205-1717,2022-02-05 17:17:14Z,u01, 193,40,movements,el-ex, rt, d,13514.361537166667, 0.582433279050107, -0.37552160559037623, 0.2729134707098852, 0.5228675007820129, -1.161360740661621, -0.2926940619945526, 0.5117276906967163, 0.3667578399181366, -0.7769320607185364, 0.06474941968917847, 0.011889040470123291, 0.06745952367782593, -0.21550942909705925, 0.2551267329694133, 0.9396025012691442,0.07492072585500464,0.57647705078125,0.3786468505859375,-0.70947265625
20220205-1717,2022-02-05 17:17:14Z,u01, 194,40,movements,el-ex, rt, d,13514.386482166667, 0.5495648485823591, -0.3673925544595343, 0.2583718096747912, 0.6394188404083252, -1.06547212600708, -0.2771856188774109, 0.48746052384376526, 0.3591832220554352, -0.7958452701568604, 0.07574152946472168, 0.03279989957809448, 0.0614246129989624, -0.2087145092581832, 0.2419000265679014, 0.9447905092606332,0.07275683846217834,0.564239501953125,0.391021728515625,-0.7396697998046875
20220205-1717,2022-02-05 17:17:14Z,u01, 195,40,movements,el-ex, rt, d,13514.411427166668, 0.5174791319999981, -0.35549650607173466, 0.24292185257521134, 0.7591227293014526, -1.0745314359664917, -0.24291080236434937, 0.46375975012779236, 0.3480558693408966, -0.8147293925285339, 0.08668592572212219, 0.01905536651611328, 0.06965810060501099, -0.2001813955489759, 0.22926559357091508, 0.9499535162344128,0.07037726665064065,0.550445556640625,0.3671112060546875,-0.7450714111328125
20220205-1717,2022-02-05 17:17:14Z,u01, 196,40,movements,el-ex, rt, d,13514.436373166667, 0.4857075331397048, -0.3415358296487804, 0.22796202856125378, 0.7399991154670715, -1.0528721809387207, -0.20167694985866547, 0.4398704767227173, 0.33493462204933167, -0.8332663178443909, 0.08782431483268738, 0.01095166802406311, 0.09744185209274292, -0.19083434178169317, 0.2166773797060012, 0.9549781603448879,0.06819043248150497,0.52490234375,0.3399505615234375,-0.741302490234375
20220205-1717,2022-02-05 17:17:14Z,u01, 197,40,movements,el-ex, rt, d,13514.461318166668, 0.4560514711210822, -0.3293413829557154, 0.2157766650423378, 0.5311105251312256, -1.0026291608810425, -0.1759483516216278, 0.4167371690273285, 0.32341986894607544, -0.8495467901229858, 0.07302433252334595, -0.013101816177368164, 0.09615939855575562, -0.18276780264881518, 0.20450559232601173, 0.9593402361582338,0.06663176066178861,0.4897613525390625,0.3103179931640625,-0.753387451171875
20220205-1717,2022-02-05 17:17:14Z,u01, 198,40,movements,el-ex, rt, d,13514.486263166667, 0.42882284360182965, -0.31990186882200167, 0.20604201454182805, 0.5619416832923889, -0.9350892901420593, -0.16981962323188782, 0.3947054147720337, 0.314473420381546, -0.863315761089325, 0.05127859115600586, 0.010843992233276367, 0.0776103138923645, -0.17639963166834488, 0.192938566706884, 0.962999746692518,0.06549284610638595,0.4387359619140625,0.3294219970703125,-0.8055419921875
20220205-1717,2022-02-05 17:17:14Z,u01, 199,40,movements,el-ex, rt, d,13514.511208166667, 0.40271711702225965, -0.30303591306173566, 0.19339046822118705, 1.0918407440185547, -0.8617069721221924, -0.15942643582820892, 0.3740616738796234, 0.29841914772987366, -0.8780796527862549, 0.06029513478279114, 0.06788337230682373, -0.006701171398162842, -0.1662861825649634, 0.18250775128628463, 0.9669603369892638,0.06346340698923691,0.434356689453125,0.366302490234375,-0.8847808837890625
20220205-1717,2022-02-05 17:17:14Z,u01, 200,40,movements,el-ex, rt, d,13514.536153166668, 0.3766878055876105, -0.2755577971242805, 0.17785637469799076, 1.2425378561019897, -0.8867785930633545, -0.11931556463241577, 0.353965163230896, 0.27208372950553894, -0.8948068022727966, 0.09935835003852844, 0.050502389669418335, 0.018021583557128906, -0.15085215563159304, 0.17274327760847205, 0.9714458055764197,0.06080020971045369,0.44940185546875,0.3038177490234375,-0.8679351806640625
20220205-1717,2022-02-05 17:17:14Z,u01, 201,40,movements,el-ex, rt, d,13514.561098166667, 0.35097401300083, -0.25431744099292564, 0.16564645690074756, 0.6006907820701599, -0.9035164713859558, -0.16057159006595612, 0.3327539563179016, 0.25158485770225525, -0.9088343381881714, 0.09253913164138794, -0.028882771730422974, 0.04024308919906616, -0.13876735622861666, 0.16225425468184818, 0.9751756011674693,0.05873564756197486,0.42529296875,0.2227020263671875,-0.86859130859375
20220205-1717,2022-02-05 17:17:14Z,u01, 202,40,movements,el-ex, rt, d,13514.586043166668, 0.3263743253983472, -0.2479391227532129, 0.15874756348965205, 0.21789079904556274, -0.9260388612747192, -0.17618437111377716, 0.31080666184425354, 0.2454066276550293, -0.9182454943656921, 0.09640476107597351, -0.011443570256233215, 0.028307199478149414, -0.1344083153252571, 0.151035260467941, 0.9776521845167856,0.05761085332243332,0.410797119140625,0.2347412109375,-0.90069580078125
20220205-1717,2022-02-05 17:17:14Z,u01, 203,40,movements,el-ex, rt, d,13514.610989166667, 0.3008119802972304, -0.24282353828426972, 0.15199039194389544, 0.36771315336227417, -0.990312933921814, -0.17754079401493073, 0.28760337829589844, 0.24044428765773773, -0.927076518535614, 0.10451710224151611, 0.014545410871505737, -0.009172201156616211, -0.13069313434545815, 0.13921584412172328, 0.9799772464001388,0.05641710798633259,0.392120361328125,0.2549896240234375,-0.936248779296875
20220205-1717,2022-02-05 17:17:14Z,u01, 204,40,movements,el-ex, rt, d,13514.635934166667, 0.2738071099367408, -0.2355361012069385, 0.14548260033996474, 0.3178962469100952, -1.0385609865188599, -0.13816635310649872, 0.26293280720710754, 0.2333643138408661, -0.9361663460731506, 0.0855628252029419, -0.0072595179080963135, 0.03516542911529541, -0.1259388270428652, 0.12671318075422444, 0.9823454152362354,0.05550543545790876,0.3379669189453125,0.206756591796875,-0.8845062255859375
20220205-1717,2022-02-05 17:17:14Z,u01, 205,40,movements,el-ex, rt, d,13514.660879166668, 0.2464226946559962, -0.23065005893599524, 0.14025663669700592, 0.14522534608840942, -1.0415349006652832, -0.15349429845809937, 0.23747636377811432, 0.22861041128635406, -0.9441092610359192, 0.07456599175930023, -0.014590606093406677, 0.06631696224212646, -0.12247102556121515, 0.11378148894397866, 0.9843946993159085,0.05497045704977305,0.312042236328125,0.214019775390625,-0.8777923583984375
20220205-1717,2022-02-05 17:17:14Z,u01, 206,40,movements,el-ex, rt, d,13514.685824166667, 0.22072595467661502, -0.2302670694412331, 0.1361234128569168, -0.06451786309480667, -0.946618378162384, -0.16507260501384735, 0.21315926313400269, 0.2282375544309616, -0.949984610080719, 0.06082768738269806, -0.016582831740379333, 0.07524406909942627, -0.12135694016634772, 0.10139125659406267, 0.9859105038992853,0.05452448510742486,0.2642822265625,0.20709228515625,-0.8696441650390625
20220205-1717,2022-02-05 17:17:14Z,u01, 207,40,movements,el-ex, rt, d,13514.710769166668, 0.19652348264520494, -0.23507893965705953, 0.13265787625461012, -0.1947150081396103, -0.9364387392997742, -0.1646219789981842, 0.18989045917987823, 0.23291975259780884, -0.9537767171859741, 0.055470988154411316, -0.01886942982673645, 0.0868639349937439, -0.12290417614983101, 0.08947742104771418, 0.9868989847663951,0.05402624753249685,0.245361328125,0.21405029296875,-0.866912841796875
20220205-1717,2022-02-05 17:17:14Z,u01, 208,40,movements,el-ex, rt, d,13514.735714166667, 0.17239977478558277, -0.23858713150554525, 0.12937220597386656, 0.03596503287553787, -0.9327448010444641, -0.12841399013996124, 0.16668760776519775, 0.23633001744747162, -0.9572687149047852, 0.0681300163269043, 0.008390501141548157, 0.08257389068603516, -0.12384655333396069, 0.07763810999635279, 0.9878000110266492,0.05371870005107032,0.2332611083984375,0.2493896484375,-0.8877716064453125
20220205-1717,2022-02-05 17:17:14Z,u01, 209,40,movements,el-ex, rt, d,13514.760659166668, 0.1487214752237702, -0.2335545247140559, 0.12587795476437008, 0.334160715341568, -0.8962244391441345, -0.0858437567949295, 0.14415091276168823, 0.23143699765205383, -0.9621109366416931, 0.05714315176010132, 0.0040824562311172485, 0.07816934585571289, -0.12060095640159596, 0.06633208952568087, 0.9890279850921739,0.05365762307191457,0.2012939453125,0.2355194091796875,-0.883941650390625
20220205-1717,2022-02-05 17:17:14Z,u01, 210,40,movements,el-ex, rt, d,13514.785605166668, 0.12627647070798229, -0.2254810488715385, 0.12243955890868256, 0.35840362310409546, -0.8255289793014526, -0.09239353984594345, 0.12275315076112747, 0.22357526421546936, -0.9669259190559387, 0.052906155586242676, 0.008404165506362915, 0.0977853536605835, -0.11590315778700985, 0.05570895266501885, 0.9902482322831079,0.053586847706386054,0.1757049560546875,0.231536865234375,-0.86578369140625
20220205-1717,2022-02-05 17:17:14Z,u01, 211,40,movements,el-ex, rt, d,13514.810550166667, 0.10562075730288119, -0.21499882191763992, 0.11868184045928072, 0.5405187606811523, -0.7584994435310364, -0.09550157934427261, 0.10299726575613022, 0.21334627270698547, -0.9715322852134705, 0.05065885931253433, 0.0312826931476593, 0.09358733892440796, -0.11006676007821316, 0.04603452400998315, 0.9914297830139167,0.053227994490989416,0.153656005859375,0.24462890625,-0.8779449462890625
20220205-1717,2022-02-05 17:17:14Z,u01, 212,40,movements,el-ex, rt, d,13514.835495166668, 0.08643756971211385, -0.19943622254357019, 0.11537077203463873, 0.7095993757247925, -0.7428750991821289, -0.054780181497335434, 0.08461877703666687, 0.19811676442623138, -0.9765190482139587, 0.05017748475074768, 0.027194559574127197, 0.07249683141708374, -0.10177309056561014, 0.0371849844495309, 0.9926976116863349,0.05301935883920755,0.130279541015625,0.215118408203125,-0.909271240234375
20220205-1717,2022-02-05 17:17:14Z,u01, 213,40,movements,el-ex, rt, d,13514.860440166667, 0.06738350628418108, -0.1826316358127156, 0.11278975296809396, 0.5888983607292175, -0.7373132705688477, -0.03714512661099434, 0.0662127286195755, 0.18161806464195251, -0.9811374545097351, 0.04789261519908905, 0.006461814045906067, 0.09660077095031738, -0.09288307984612004, 0.02835475404981601, 0.9938594622677118,0.05303143831762347,0.114105224609375,0.188079833984375,-0.8845367431640625
20220205-1717,2022-02-05 17:17:14Z,u01, 214,40,movements,el-ex, rt, d,13514.885385166668, 0.04898266057716483, -0.1731028487250532, 0.11092643704814811, 0.1637595146894455, -0.7207597494125366, -0.06742113828659058, 0.048231326043605804, 0.17223964631557465, -0.9838736057281494, 0.05557432770729065, -0.021208107471466064, 0.10682892799377441, -0.08763704338670525, 0.019569163599921818, 0.9945439387205623,0.05309706831884253,0.0923004150390625,0.15093994140625,-0.870849609375
20220205-1717,2022-02-05 17:17:14Z,u01, 215,40,movements,el-ex, rt, d,13514.910330166667, 0.03188429776309669, -0.17062609345058802, 0.10885904506013212, 0.16439999639987946, -0.602237343788147, -0.09286897629499435, 0.031415972858667374, 0.16979938745498657, -0.9849777817726135, 0.02098282426595688, 0.017929553985595703, 0.11038976907730103, -0.08593670036052461, 0.011224934246054856, 0.9948349724486494,0.05284154944170666,0.052398681640625,0.1877288818359375,-0.8745880126953125
20220205-1717,2022-02-05 17:17:14Z,u01, 216,40,movements,el-ex, rt, d,13514.935275166668, 0.017785548231429325, -0.16270630446728887, 0.10589897250275257, 0.43604597449302673, -0.5179516077041626, -0.12496126443147659, 0.017549719661474228, 0.16198936104774475, -0.9866364598274231, 0.03727521747350693, 0.042920976877212524, 0.0896943211555481, -0.08161542745875938, 0.00455014693304865, 0.9952947275850537,0.05202598454879853,0.0551910400390625,0.2027587890625,-0.89031982421875
20220205-1717,2022-02-05 17:17:14Z,u01, 217,40,movements,el-ex, rt, d,13514.960221166668, 0.0037954731331550106, -0.15168213138857872, 0.10334947667360418, 0.416160523891449, -0.5572748184204102, -0.060661640018224716, 0.003751885611563921, 0.15110115706920624, -0.9885112047195435, 0.04878423362970352, -0.011208534240722656, 0.12608444690704346, -0.07576484552195847, -0.002023807494009433, 0.9958000857466074,0.05135957816744047,0.0525360107421875,0.139892578125,-0.8624267578125
20220205-1717,2022-02-05 17:17:14Z,u01, 218,40,movements,el-ex, rt, d,13514.985166166667, -0.00907885692669684, -0.14327451815564748, 0.10170547108685316, 0.28517523407936096, -0.45135366916656494, -0.08121644705533981, -0.008985709398984909, 0.14278483390808105, -0.9897129535675049, 0.022596657276153564, -0.01104043424129486, 0.13772326707839966, -0.07125258892527232, -0.008160146545732765, 0.996118945673176,0.05102441889138609,0.0099945068359375,0.137237548828125,-0.8480072021484375
20220205-1717,2022-02-05 17:17:14Z,u01, 219,40,movements,el-ex, rt, d,13515.010111166668, -0.019050063804731093, -0.1364466690356449, 0.09970380517226816, 0.2657943665981293, -0.3670099973678589, -0.09897753596305847, -0.018871862441301346, 0.13602367043495178, -0.9905258417129517, 0.0318419449031353, 0.0174492746591568, 0.15713655948638916, -0.06760910873656742, -0.012887787572434122, 0.9963567011782788,0.05036158587335071,0.012969970703125,0.153472900390625,-0.8333892822265625
20220205-1717,2022-02-05 17:17:14Z,u01, 220,40,movements,el-ex, rt, d,13515.035056166667, -0.02853721966716604, -0.1316728362465193, 0.09732747580701358, 0.06513989716768265, -0.3875609338283539, -0.07511920481920242, -0.02828635275363922, 0.1312926858663559, -0.9909400343894958, 0.022930629551410675, -0.00916127860546112, 0.16926950216293335, -0.06501173144831224, -0.017420302727489238, 0.9965051809274916,0.049471778650009346,0.002777099609375,0.1187896728515625,-0.8223876953125
20220205-1717,2022-02-05 17:17:14Z,u01, 221,40,movements,el-ex, rt, d,13515.060000916668, -0.038787411754952796, -0.1339902475897554, 0.09632541560298534, -0.2689095139503479, -0.4201435148715973, -0.005617760121822357, -0.0384301133453846, 0.13358968496322632, -0.9902913570404053, 0.055565837770700455, -0.06846511363983154, 0.21169638633728027, -0.06592327686631697, -0.022548950793324158, 0.9963497329216904,0.04932377958473988,0.0171356201171875,0.06512451171875,-0.778594970703125
20220205-1717,2022-02-05 17:17:14Z,u01, 222,40,movements,el-ex, rt, d,13515.084945916667, -0.04796158174439023, -0.1426000325667003, 0.09591825945809622, -0.29603075981140137, -0.2889588475227356, -0.014508457854390144, -0.047456566244363785, 0.1421172320842743, -0.9887115955352783, -0.015409540385007858, -0.03645007312297821, 0.18718266487121582, -0.06999062172979577, -0.027304366262580017, 0.9959439791727414,0.04951144567325655,-0.0745391845703125,0.126251220703125,-0.808868408203125
20220205-1717,2022-02-05 17:17:14Z,u01, 223,40,movements,el-ex, rt, d,13515.109890916667, -0.0524020925640278, -0.14529640591613066, 0.09496217243766213, 0.12446700036525726, -0.10130812972784042, -0.07245205342769623, -0.05182620882987976, 0.14478571712970734, -0.9881048202514648, -0.00801866129040718, 0.016087740659713745, 0.16377925872802734, -0.07123745824561992, -0.029543399929107546, 0.9958061219540373,0.049221225444488204,-0.059844970703125,0.1608734130859375,-0.8243255615234375
20220205-1717,2022-02-05 17:17:14Z,u01, 224,40,movements,el-ex, rt, d,13515.134836916668, -0.05415647947003986, -0.14262939677349426, 0.09338897713832649, 0.04613078758120537, -0.09801620244979858, -0.03995402902364731, -0.053580354899168015, 0.1421463042497635, -0.9883944392204285, 0.02669447660446167, -0.025508075952529907, 0.15441006422042847, -0.0698899215447096, -0.030301424811917242, 0.9959157428041259,0.048468904797435264,-0.0237884521484375,0.1002197265625,-0.8312530517578125
20220205-1717,2022-02-05 17:17:14Z,u01, 225,40,movements,el-ex, rt, d,13515.159781916667, -0.05619067104779009, -0.14534047565356975, 0.09347002370004687, -0.19157268106937408, -0.08581779152154922, 0.04425439238548279, -0.05556898191571236, 0.14482931792736053, -0.9878950119018555, 0.013760004192590714, -0.08225297927856445, 0.16746044158935547, -0.07118946500982436, -0.03137758339554905, 0.9957833138021277,0.04861370631955164,-0.04180908203125,0.0625762939453125,-0.8204345703125
20220205-1717,2022-02-05 17:17:14Z,u01, 226,40,movements,el-ex, rt, d,13515.184726916668, -0.057092423744002495, -0.15012090696670657, 0.09419826983444934, -0.14135095477104187, 0.02153070643544197, 0.034855231642723083, -0.05641964450478554, 0.1495576798915863, -0.987142026424408, 0.007133860141038895, -0.03830578923225403, 0.13451141119003296, -0.07353627330615346, -0.03195962448761745, 0.9955718563446925,0.04906804280331217,-0.051025390625,0.12738037109375,-0.8469390869140625
20220205-1717,2022-02-05 17:17:14Z,u01, 227,40,movements,el-ex, rt, d,13515.209671916668, -0.05507262629587777, -0.15258960230375768, 0.09479770463930627, -0.07500146329402924, 0.08864030241966248, 0.01737270876765251, -0.05440521240234375, 0.1519981473684311, -0.9868822693824768, 0.04767619073390961, -0.03490215539932251, 0.1324205994606018, -0.07480559783445183, -0.031031964432011196, 0.9954940912332988,0.0493215816271218,-0.0067291259765625,0.117095947265625,-0.854461669921875
20220205-1717,2022-02-05 17:17:14Z,u01, 228,40,movements,el-ex, rt, d,13515.234616916667, -0.052943216472756335, -0.15492262957235486, 0.09539532575396774, -0.10387711971998215, 0.08748329430818558, 0.04704685136675835, -0.05228470638394356, 0.1543036550283432, -0.9866390824317932, 0.0007101073861122131, -0.07584291696548462, 0.12094694375991821, -0.07601056129549197, -0.030047473573942926, 0.9954208708769356,0.04956585960471649,-0.063751220703125,0.078765869140625,-0.8628692626953125
20220205-1717,2022-02-05 17:17:15Z,u01, 229,40,movements,el-ex, rt, d,13515.259561916668, -0.049726981848759955, -0.15802892345377775, 0.09741427582511554, -0.13137535750865936, 0.15471819043159485, 0.10976183414459229, -0.04908711835741997, 0.15737199783325195, -0.9863186478614807, 0.0072476305067539215, -0.03786511719226837, 0.12251865863800049, -0.07760763329609581, -0.02859582371718382, 0.9952945444811239,0.05048096904787153,-0.041839599609375,0.1195068359375,-0.863800048828125
20220205-1717,2022-02-05 17:17:15Z,u01, 230,40,movements,el-ex, rt, d,13515.284506916667, -0.044921179746136755, -0.1632425260340673, 0.09998420495067058, -0.27304863929748535, 0.18007859587669373, 0.11973290145397186, -0.044309068471193314, 0.1625184714794159, -0.9857101440429688, 0.03048471361398697, -0.03556530177593231, 0.14974212646484375, -0.08028970878826346, -0.026429129547670096, 0.995083134165619,0.051621138527890964,-0.0112457275390625,0.1326446533203125,-0.8346099853515625
20220205-1717,2022-02-05 17:17:15Z,u01, 231,40,movements,el-ex, rt, d,13515.309452916668, -0.03923637032616254, -0.17084895878798276, 0.10274604732588156, -0.3076174259185791, 0.25500425696372986, 0.11666600406169891, -0.038655199110507965, 0.1700190156698227, -0.9846823215484619, 0.0059709809720516205, -0.01854497194290161, 0.1717398762702942, -0.08418799324747323, -0.023900014191977605, 0.9947616805605057,0.05282485475006182,-0.032684326171875,0.1514739990234375,-0.8129425048828125
20220205-1717,2022-02-05 17:17:15Z,u01, 232,40,movements,el-ex, rt, d,13515.334397916668, -0.031517840436514274, -0.17836379263429827, 0.10510287877251014, -0.28904515504837036, 0.3370027542114258, 0.09199348092079163, -0.031012684106826782, 0.17741955816745758, -0.9836465120315552, 0.011893527582287788, -0.016179904341697693, 0.17265719175338745, -0.0881052826434905, -0.02035166837363147, 0.9944536559757147,0.05371356513087733,-0.0214080810546875,0.167327880859375,-0.809906005859375
20220205-1717,2022-02-05 17:17:15Z,u01, 233,40,movements,el-ex, rt, d,13515.359342916667, -0.021775620832852942, -0.18536507222034798, 0.10719347841695484, -0.2880367636680603, 0.4039556384086609, 0.09912803024053574, -0.02140089124441147, 0.1843053698539734, -0.982636034488678, 0.019035890698432922, -0.014490246772766113, 0.19070488214492798, -0.09183076216826878, -0.015783001792380263, 0.9941654122405539,0.05434419096456089,-0.0023651123046875,0.1698150634765625,-0.79193115234375
20220205-1717,2022-02-05 17:17:15Z,u01, 234,40,movements,el-ex, rt, d,13515.384287916668, -0.010518907338832944, -0.19349369529473542, 0.10964145748642048, -0.3365291953086853, 0.47896596789360046, 0.09778846055269241, -0.010322418063879013, 0.1922885626554489, -0.9812841415405273, 0.02004237473011017, -0.03240691125392914, 0.17734432220458984, -0.09616271536617418, -0.010519708724385915, 0.9937868001425372,0.05504356697037427,0.0004119873046875,0.1673736572265625,-0.808135986328125
20220205-1717,2022-02-05 17:17:15Z,u01, 235,40,movements,el-ex, rt, d,13515.409232916667, 0.004168494086988208, -0.19974191980957431, 0.11223373135509719, -0.14265799522399902, 0.6479054093360901, 0.09434579312801361, 0.0040856036357581615, 0.19841638207435608, -0.9801093339920044, 0.0048103854060173035, 0.019860655069351196, 0.1521064043045044, -0.09966416530182531, -0.0035215886550633638, 0.9934603116464562,0.055600328359287354,0.0088958740234375,0.2182769775390625,-0.8280029296875
20220205-1717,2022-02-05 17:17:15Z,u01, 236,40,movements,el-ex, rt, d,13515.434177916668, 0.021160711209795402, -0.2026656023017806, 0.11400805563302377, -0.1497042179107666, 0.6580948829650879, 0.04319838061928749, 0.020726079121232033, 0.2012810856103897, -0.9793142080307007, 0.02303624153137207, 0.001660853624343872, 0.12318938970565796, -0.10158918916249954, 0.004745735684484123, 0.9932597366338869,0.05560917932073156,0.0447845458984375,0.19744873046875,-0.855010986328125
20220205-1717,2022-02-05 17:17:15Z,u01, 237,40,movements,el-ex, rt, d,13515.459123916668, 0.0371155108233001, -0.20962432147440296, 0.11568937112779468, -0.4009881019592285, 0.60891193151474, 0.06575009226799011, 0.036294687539339066, 0.20809246599674225, -0.9774355292320251, 0.03653562441468239, -0.04111549258232117, 0.15282011032104492, -0.10549430939998466, 0.012376672791194199, 0.9927902171873815,0.055547107587007816,0.0728302001953125,0.1669769287109375,-0.824615478515625
20220205-1717,2022-02-05 17:17:15Z,u01, 238,40,movements,el-ex, rt, d,13515.484068916667, 0.05445735480580307, -0.2188480455065262, 0.11820990499863239, -0.26605674624443054, 0.7483439445495605, 0.0942409336566925, 0.05313217639923096, 0.21710528433322906, -0.9747011065483093, 0.020445816218852997, -0.019198745489120483, 0.1154024600982666, -0.11057327053790321, 0.02056677182004442, 0.9920912993235158,0.05572751558983979,0.07879638671875,0.2151336669921875,-0.8690185546875
20220205-1717,2022-02-05 17:17:15Z,u01, 239,40,movements,el-ex, rt, d,13515.509013916668, 0.07510117273956846, -0.22198037151856925, 0.12047949877020149, -0.050630442798137665, 0.8484367728233337, 0.06587159633636475, 0.07318959385156631, 0.22016184031963348, -0.9727137684822083, 0.016150720417499542, 0.016120553016662598, 0.06220662593841553, -0.11272982676141884, 0.03057952024625818, 0.9915952622360007,0.055640030223141734,0.0893402099609375,0.2362823486328125,-0.9105072021484375
20220205-1717,2022-02-05 17:17:15Z,u01, 240,40,movements,el-ex, rt, d,13515.533958916667, 0.09580040435718788, -0.2241124990011084, 0.12233074796868004, -0.18709847331047058, 0.7618634104728699, 0.0838153138756752, 0.09326179325580597, 0.22224114835262299, -0.9705210328102112, 0.036987341940402985, -0.029858291149139404, 0.06832993030548096, -0.11439327857682051, 0.040665079539621854, 0.9910597061528643,0.055329960245145526,0.133758544921875,0.1880950927734375,-0.8942108154296875
20220205-1717,2022-02-05 17:17:15Z,u01, 241,40,movements,el-ex, rt, d,13515.558903916668, 0.1155683815417762, -0.2311479506133138, 0.1258162658231038, -0.34012371301651, 0.7950716614723206, 0.12807652354240417, 0.11224448680877686, 0.22909510135650635, -0.9669108390808105, 0.022765398025512695, -0.04548603296279907, 0.06513172388076782, -0.11850310588407091, 0.05001579868877621, 0.9901280352038937,0.05569640916931967,0.135009765625,0.1836090087890625,-0.9017791748046875
20220205-1717,2022-02-05 17:17:15Z,u01, 242,40,movements,el-ex, rt, d,13515.583848916667, 0.1377296811504425, -0.23759580888786058, 0.1304637101321803, -0.24286594986915588, 0.8753434419631958, 0.16059565544128418, 0.13343758881092072, 0.23536665737628937, -0.9627029299736023, 0.03076237440109253, 0.004471048712730408, 0.03994297981262207, -0.12244010167621358, 0.06047271458823045, 0.9890231364545097,0.056434767706279254,0.1701812744140625,0.24945068359375,-0.918548583984375
20220205-1717,2022-02-05 17:17:15Z,u01, 243,40,movements,el-ex, rt, d,13515.608793916668, 0.16040746673893103, -0.24598229791224893, 0.13563743485568588, -0.5351811647415161, 0.8231745362281799, 0.13111692667007446, 0.15491265058517456, 0.2435091733932495, -0.9574472904205322, 0.04111713171005249, -0.01700766384601593, 0.0948527455329895, -0.12739411798063702, 0.07104279826079676, 0.9876478536191551,0.05723228174994954,0.1960296630859375,0.22650146484375,-0.8625946044921875
20220205-1717,2022-02-05 17:17:15Z,u01, 244,40,movements,el-ex, rt, d,13515.633739916668, 0.18252766446642857, -0.2624437035912774, 0.1421477869776916, -0.7202544808387756, 0.8550283312797546, 0.15076838433742523, 0.17530052363872528, 0.2594413459300995, -0.9497157335281372, 0.038414210081100464, -0.0092276930809021, 0.12453567981719971, -0.13638845826067525, 0.08087234010127217, 0.9856312065242203,0.05821575541883178,0.2240142822265625,0.26007080078125,-0.8562774658203125
20220205-1717,2022-02-05 17:17:15Z,u01, 245,40,movements,el-ex, rt, d,13515.658684916667, 0.20682049643289666, -0.27369627156880294, 0.14839451382527508, -0.24604953825473785, 0.9428518414497375, 0.14546377956867218, 0.19770577549934387, 0.2702919542789459, -0.9422603845596313, 0.06752261519432068, 0.08288800716400146, -0.00047332048416137695, -0.1428998087474908, 0.09192082698703408, 0.9836916200129906,0.05900035739964543,0.265228271484375,0.353179931640625,-0.9427337646484375
20220205-1717,2022-02-05 17:17:15Z,u01, 246,40,movements,el-ex, rt, d,13515.683629916668, 0.23113763656742886, -0.27659852612661445, 0.15235496566345474, -0.13842883706092834, 0.8866816759109497, 0.09285295009613037, 0.22037750482559204, 0.2730850577354431, -0.9364071488380432, 0.04327923059463501, 0.03704985976219177, -0.012918353080749512, -0.14523393994269448, 0.10345789871723583, 0.9822015194076144,0.05902372815256979,0.264892578125,0.290557861328125,-0.9505615234375
20220205-1717,2022-02-05 17:17:15Z,u01, 247,40,movements,el-ex, rt, d,13515.708574916667, 0.2532901431575627, -0.28269089523760016, 0.15643386039974747, -0.4256918728351593, 0.8253893256187439, 0.10648973286151886, 0.24064411222934723, 0.27894073724746704, -0.9296679496765137, 0.0025963634252548218, -0.013254672288894653, 0.06103092432022095, -0.14909060318819162, 0.11374542374385568, 0.9804861720047839,0.05899931949074022,0.2432403564453125,0.26568603515625,-0.8686370849609375
20220205-1717,2022-02-05 17:17:15Z,u01, 248,40,movements,el-ex, rt, d,13515.733519916668, 0.27770270645516676, -0.2932890026614514, 0.16293808958535544, -0.4578787386417389, 0.9852117300033569, 0.16228342056274414, 0.2624405324459076, 0.28910234570503235, -0.9206219911575317, 0.030925065279006958, -0.01777052879333496, 0.049894511699676514, -0.15537560239085602, 0.12468936084303513, 0.9781420847548057,0.05957401559165687,0.3125457763671875,0.2817840576171875,-0.8742218017578125
20220205-1717,2022-02-05 17:17:15Z,u01, 249,40,movements,el-ex, rt, d,13515.758464916667, 0.30551977056197915, -0.299563425103603, 0.16936180159668943, -0.14265388250350952, 1.0661609172821045, 0.14661377668380737, 0.2873934209346771, 0.2951031029224396, -0.911218523979187, 0.09190970659255981, 0.0494556725025177, 0.0010775923728942871, -0.1596821968107077, 0.137449389934637, 0.9757075763191569,0.06003357267623627,0.379302978515625,0.3445587158203125,-0.9101409912109375
20220205-1717,2022-02-05 17:17:15Z,u01, 250,40,movements,el-ex, rt, d,13515.783409916667, 0.33226212550327416, -0.2994736988412042, 0.17260769257992928, 0.010454947128891945, 1.0038145780563354, 0.08146827667951584, 0.31166449189186096, 0.2950173616409302, -0.9032330513000488, 0.0263025164604187, 0.024852633476257324, -0.013224959373474121, -0.16067114807681973, 0.1502273185458468, 0.9736932097752086,0.059481327685863616,0.318695068359375,0.301544189453125,-0.910491943359375
