SessionID,LoggingTime,UID,RecNo,Hertz,Activity,MoveType,Wrist,Side,TimeStamp,DMRoll,DMPitch,DMYaw,DMRotX,DMRotY,DMRotZ,DMGrvX,DMGrvY,DMGrvZ,DMUAccelX,DMUAccelY,DMUAccelZ,DMQuatX,DMQuatY,DMQuatW,DMQuatZ,AccelroX,AceelroY,AceelroZ
20220205-1726,2022-02-05 17:27:01Z,u01, 1,40,movements,el-ex, rt, d,13718.806135625, 1.5152511684985184, -0.3583886431237886, 0.3393950102879671, -8.943863213062286e-05, 0.29052966833114624, -0.06564900279045105, 0.9350189566612244, 0.3507657051086426, -0.05198925361037254, 0.02529287338256836, -0.027584582567214966, -0.061993956565856934, -0.241822386522162, 0.6446140755864023, 0.7252548406606677,0.0,0.965423583984375,0.33154296875,-0.125213623046875
20220205-1726,2022-02-05 17:27:01Z,u01, 2,40,movements,el-ex, rt, d,13718.831080625001, 1.5215859663116391, -0.35934968757891533, 0.33856240690182715, 0.0549137257039547, 0.2318742871284485, -0.018438950181007385, 0.9349924325942993, 0.35166552662849426, -0.046048492193222046, 0.04388934373855591, -0.012859374284744263, -0.09099078178405762, -0.24187943021042851, 0.6468926453777439, 0.723202803138857,-0.0013988175723759488,0.9788818359375,0.33880615234375,-0.1370391845703125
20220205-1726,2022-02-05 17:27:01Z,u01, 3,40,movements,el-ex, rt, d,13718.856024625002, 1.5247429891612958, -0.36039232585942926, 0.33637993643294717, 0.0626448541879654, -0.38616129755973816, 0.2926725149154663, 0.9347662329673767, 0.35264137387275696, -0.04307956621050835, 0.30174481868743896, -0.03667768836021423, -0.13915622234344482, -0.24152454733535855, 0.6481713584522656, 0.72217108080029,-0.0029292376567831013,0.6787872314453125,0.3691558837890625,-0.0986480712890625
20220205-1726,2022-02-05 17:27:01Z,u01, 4,40,movements,el-ex, rt, d,13718.880969625001, 1.5267586625480596, -0.3609241910851782, 0.33380370707931345, 0.05842556804418564, 0.10449595749378204, -0.04683263972401619, 0.934663712978363, 0.3531390428543091, -0.04118703678250313, 0.019910752773284912, -0.01346316933631897, -0.09962117671966553, -0.24086632765879454, 0.6491455108781147, 0.7215088771673814,-0.004286129136617439,0.9545745849609375,0.3396759033203125,-0.14080810546875
20220205-1726,2022-02-05 17:27:01Z,u01, 5,40,movements,el-ex, rt, d,13718.905914625, 1.5280170793559509, -0.36187645322508993, 0.33265643455693117, 0.0386994332075119, 0.04906819015741348, -0.03234364837408066, 0.9343785643577576, 0.3540297746658325, -0.03999641537666321, 0.020302891731262207, -0.02520287036895752, -0.11536860466003418, -0.24081462434532364, 0.649623051939231, 0.7210904460521163,-0.005181103776518425,0.959075927734375,0.3285675048828125,-0.15924072265625
20220205-1726,2022-02-05 17:27:01Z,u01, 6,40,movements,el-ex, rt, d,13718.930859625001, 1.526760574916501, -0.3617058293015398, 0.3319105785207853, -0.027699362486600876, -0.07102879136800766, -0.038015782833099365, 0.9343879222869873, 0.3538702130317688, -0.041173093020915985, 0.055114030838012695, -0.0197332501411438, -0.13122081756591797, -0.2405176735951971, 0.6492801418191937, 0.7214978662390427,-0.005239821127359101,0.989501953125,0.334136962890625,-0.172393798828125
20220205-1726,2022-02-05 17:27:01Z,u01, 7,40,movements,el-ex, rt, d,13718.955803625, 1.5232087016697575, -0.3614981592861621, 0.33342661416652636, -0.111351378262043, -0.16131234169006348, -0.027884051203727722, 0.9343090653419495, 0.3536759614944458, -0.04449514299631119, 0.04167354106903076, -0.02002730965614319, -0.12910419702529907, -0.24094697738456314, 0.6478402448511852, 0.7226547984265371,-0.004193148872746799,0.9716339111328125,0.3361053466796875,-0.1713104248046875
20220205-1726,2022-02-05 17:27:01Z,u01, 8,40,movements,el-ex, rt, d,13718.980748625001, 1.517612554788478, -0.3613463365069485, 0.3359806751701779, -0.12108666449785233, -0.2634839117527008, -0.015629447996616364, 0.9340991377830505, 0.35353395342826843, -0.04972580820322037, 0.03608524799346924, -0.017901629209518433, -0.1427791714668274, -0.24173043096805502, 0.6455257509269824, 0.7244697996787632,-0.0025414570068151288,0.970184326171875,0.33563232421875,-0.1925048828125
20220205-1726,2022-02-05 17:27:01Z,u01, 9,40,movements,el-ex, rt, d,13719.005693625, 1.509689421765158, -0.3612245671628507, 0.33927641156252286, -0.15096835792064667, -0.38513466715812683, 0.00044306088238954544, 0.9337188005447388, 0.35342004895210266, -0.05712779238820076, 0.036862194538116455, -0.011363774538040161, -0.1416027545928955, -0.242755539989068, 0.6422661849951211, 0.7270239672703795,-0.0003439740941248437,0.971649169921875,0.3433837890625,-0.1977081298828125
20220205-1726,2022-02-05 17:27:01Z,u01, 10,40,movements,el-ex, rt, d,13719.030638625001, 1.497276623040267, -0.35976689258396805, 0.342198848071299, -0.16059786081314087, -0.45619291067123413, -0.008816283196210861, 0.9334505200386047, 0.3520560562610626, -0.06875091791152954, 0.043264567852020264, 0.00686115026473999, -0.12299114465713501, -0.2431821319042814, 0.6375633229945319, 0.7310048099502002,0.0027280090390944534,0.976715087890625,0.358917236328125,-0.191741943359375
20220205-1726,2022-02-05 17:27:01Z,u01, 11,40,movements,el-ex, rt, d,13719.055582625, 1.4852407096577733, -0.3589832333325003, 0.3463580463834685, -0.20255514979362488, -0.4884858727455139, 0.01585630513727665, 0.9328301548957825, 0.3513224720954895, -0.08000415563583374, 0.05209428071975708, -0.007450371980667114, -0.09875262528657913, -0.24420587296982924, 0.6327411899549036, 0.7348240291695968,0.005985246822830054,0.9860076904296875,0.346435546875,-0.1746673583984375
20220205-1726,2022-02-05 17:27:01Z,u01, 12,40,movements,el-ex, rt, d,13719.080527625001, 1.4745425828544576, -0.3593753457900623, 0.3510390213523553, -0.08500705659389496, -0.5433879494667053, 0.03468039259314537, 0.9317836165428162, 0.35168954730033875, -0.08996567130088806, 0.05657392740249634, 0.015970975160598755, -0.0978853702545166, -0.24577790604689578, 0.6281802174998655, 0.7381760582133815,0.008886923495478621,0.9883575439453125,0.3676605224609375,-0.1878509521484375
20220205-1726,2022-02-05 17:27:01Z,u01, 13,40,movements,el-ex, rt, d,13719.105472625, 1.4606266292749277, -0.359095044361013, 0.35124473728586536, 0.047864168882369995, -0.6151984930038452, 0.021820256486535072, 0.9305394291877747, 0.3514271378517151, -0.10293403267860413, 0.04382586479187012, 0.022184312343597412, -0.09816165268421173, -0.24567597690950654, 0.6230379592513561, 0.7425302067265246,0.010767019576778142,0.9715728759765625,0.36541748046875,-0.201171875
20220205-1726,2022-02-05 17:27:01Z,u01, 14,40,movements,el-ex, rt, d,13719.130416625001, 1.4453915931381347, -0.3589644367861421, 0.3507740466023688, -0.000755328219383955, -0.6590881943702698, 0.027923885732889175, 0.9289088249206543, 0.3513048589229584, -0.11710408329963684, 0.03816264867782593, 0.0014630556106567383, -0.07710981369018555, -0.24539541862910788, 0.6174374840516971, 0.7472587992551575,0.012505644616678635,0.967071533203125,0.3527679443359375,-0.1942138671875
20220205-1726,2022-02-05 17:27:01Z,u01, 15,40,movements,el-ex, rt, d,13719.155361625, 1.4295605055969174, -0.35929608196370855, 0.35380119863539744, -0.20664849877357483, -0.7351652979850769, 0.021110590547323227, 0.926823079586029, 0.3516153395175934, -0.13177800178527832, 0.05877256393432617, -0.001960247755050659, -0.05736999213695526, -0.2463319229818874, 0.6110904862961487, 0.7520966455313642,0.015476819676433246,0.9889678955078125,0.34625244140625,-0.1912384033203125
20220205-1726,2022-02-05 17:27:01Z,u01, 16,40,movements,el-ex, rt, d,13719.180306625001, 1.4130230585295322, -0.35970270631802864, 0.36056006795613976, -0.25565022230148315, -0.7988675236701965, 0.047565165907144547, 0.9243760108947754, 0.35199597477912903, -0.14706411957740784, 0.043031275272369385, 0.006326168775558472, -0.061996594071388245, -0.24838361230232853, 0.603964835998462, 0.7570564906885723,0.019938967315518807,0.9674072265625,0.3583221435546875,-0.2090606689453125
20220205-1726,2022-02-05 17:27:01Z,u01, 17,40,movements,el-ex, rt, d,13719.205251625, 1.3952691632287235, -0.35935370441423775, 0.3667055310823005, -0.15074603259563446, -0.8282948732376099, 0.06095827370882034, 0.9217404723167419, 0.3516692817211151, -0.16347280144691467, 0.026089787483215332, 0.014587432146072388, -0.060800984501838684, -0.24990503077172085, 0.5964990137306811, 0.7623197620981336,0.024598358736003745,0.9478759765625,0.36541748046875,-0.23443603515625
20220205-1726,2022-02-05 17:27:01Z,u01, 18,40,movements,el-ex, rt, d,13719.230195625001, 1.3750623927436123, -0.3588422336306703, 0.3691612242143374, -0.08697296679019928, -0.8605125546455383, 0.014065729454159737, 0.918425440788269, 0.351190447807312, -0.18209849298000336, 0.036164283752441406, 0.0105343759059906, -0.062011703848838806, -0.2501806627486451, 0.588523905534587, 0.768278822576527,0.028228727968471035,0.95458984375,0.361724853515625,-0.244110107421875
20220205-1726,2022-02-05 17:27:01Z,u01, 19,40,movements,el-ex, rt, d,13719.255140625, 1.3546489624694271, -0.3595062295903775, 0.3732451255369298, -0.23121659457683563, -0.9059847593307495, -0.005173811223357916, 0.9142891764640808, 0.35181206464767456, -0.20075741410255432, 0.06297516822814941, 0.008539468050003052, -0.016039490699768066, -0.25130788384067193, 0.5800565814573571, 0.7741737253987713,0.03215190578847599,0.9764862060546875,0.3625335693359375,-0.219329833984375
20220205-1726,2022-02-05 17:27:01Z,u01, 20,40,movements,el-ex, rt, d,13719.280085125001, 1.3342776167047588, -0.36135698949155276, 0.3787146551795274, -0.13048402965068817, -0.8763344883918762, -0.03618372604250908, 0.9093754887580872, 0.3535439074039459, -0.21918681263923645, 0.040987610816955566, 0.027101844549179077, -0.05719572305679321, -0.2532142041126241, 0.5712172591511131, 0.7799218985458906,0.036265268826429164,0.9503631591796875,0.380645751953125,-0.2763824462890625
20220205-1726,2022-02-05 17:27:01Z,u01, 21,40,movements,el-ex, rt, d,13719.305030125, 1.311992585424532, -0.3619537593629199, 0.376984913113229, 0.22264790534973145, -0.8865755200386047, -0.035351552069187164, 0.9040613174438477, 0.35410207509994507, -0.23934213817119598, 0.04344832897186279, 0.039284706115722656, -0.059852227568626404, -0.25253018036599406, 0.562634377258684, 0.7862634031243496,0.03822055921485781,0.9510955810546875,0.3881378173828125,-0.2971343994140625
20220205-1726,2022-02-05 17:27:01Z,u01, 22,40,movements,el-ex, rt, d,13719.329974125001, 1.287178969675966, -0.36112834243434083, 0.3695126594937489, 0.23704777657985687, -0.8998353481292725, -0.04598602280020714, 0.8981250524520874, 0.35333001613616943, -0.26178088784217834, 0.06400257349014282, 0.02186831831932068, -0.019835323095321655, -0.24965827013213585, 0.5538775121550137, 0.7933458116604718,0.038637301633455384,0.962127685546875,0.3751983642578125,-0.2816162109375
20220205-1726,2022-02-05 17:27:01Z,u01, 23,40,movements,el-ex, rt, d,13719.354919125, 1.2633307496730473, -0.36150845965241957, 0.36666089604452434, -0.08672569692134857, -0.9305883049964905, -0.05186694487929344, 0.8914992809295654, 0.353685587644577, -0.2830824851989746, 0.06991124153137207, 0.004956960678100586, -0.011763155460357666, -0.24854801049323577, 0.5446858248047954, 0.7999453913509302,0.04035727982911133,0.956451416015625,0.3600311279296875,-0.2960052490234375
20220205-1726,2022-02-05 17:27:01Z,u01, 24,40,movements,el-ex, rt, d,13719.379864125001, 1.2403569911005972, -0.3632755924487761, 0.3684422506975744, -0.011105004698038101, -0.9519277811050415, -0.05015140771865845, 0.8841684460639954, 0.3553379476070404, -0.30328378081321716, 0.06186115741729736, 0.017541050910949707, -0.0696258544921875, -0.24922322198517716, 0.5350195338828599, 0.8060754685258177,0.04340729021836723,0.9460296630859375,0.3728790283203125,-0.3729095458984375
20220205-1726,2022-02-05 17:27:01Z,u01, 25,40,movements,el-ex, rt, d,13719.404808125, 1.2160852556541224, -0.36403319655984484, 0.36620943295821917, 0.004750124178826809, -0.9665983319282532, -0.08293145149946213, 0.8762949109077454, 0.35604602098464966, -0.3245590627193451, 0.046892404556274414, 0.0005976855754852295, -0.024043351411819458, -0.24838513522137037, 0.5253810894599474, 0.8125437600536873,0.04530194429667342,0.9212799072265625,0.36224365234375,-0.349761962890625
20220205-1726,2022-02-05 17:27:01Z,u01, 26,40,movements,el-ex, rt, d,13719.429753125001, 1.1903348279689367, -0.36531897141506314, 0.3645159320228441, 0.05694514885544777, -1.012565016746521, -0.02590731903910637, 0.8672219514846802, 0.3572472333908081, -0.3468436300754547, 0.07807523012161255, 0.0015631616115570068, -0.04397973418235779, -0.24784824692805338, 0.5149266238773212, 0.8192506506975628,0.04743631207196691,0.9452972412109375,0.3588104248046875,-0.3908233642578125
20220205-1726,2022-02-05 17:27:01Z,u01, 27,40,movements,el-ex, rt, d,13719.454698125, 1.1633753645863476, -0.3656737832797557, 0.36228221750827905, 0.08664952218532562, -1.065087080001831, -0.06078753620386124, 0.8574408292770386, 0.3575786054134369, -0.37004438042640686, 0.06800466775894165, 0.01292005181312561, -0.04928243160247803, -0.24676363085950723, 0.5040689698091791, 0.826164074737797,0.04975101242473429,0.92108154296875,0.3679962158203125,-0.4181365966796875
20220205-1726,2022-02-05 17:27:01Z,u01, 28,40,movements,el-ex, rt, d,13719.479643125002, 1.1347587438599618, -0.3651923280378658, 0.3579259929696161, 0.30472657084465027, -1.1066200733184814, -0.03357509523630142, 0.8466577529907227, 0.35712894797325134, -0.3944992423057556, 0.06383419036865234, 0.017352283000946045, -0.07129067182540894, -0.2447616367677938, 0.4927901337188536, 0.833419386642567,0.051593200465920364,0.910491943359375,0.374481201171875,-0.465789794921875
20220205-1726,2022-02-05 17:27:01Z,u01, 29,40,movements,el-ex, rt, d,13719.504587125, 1.1020532825207998, -0.360836968432658, 0.34673690183351435, 0.5956266522407532, -1.2228065729141235, -0.005553978029638529, 0.8346847891807556, 0.3530574142932892, -0.4226723611354828, 0.08387911319732666, 0.048965901136398315, -0.07659536600112915, -0.23943911139506951, 0.4809706124576253, 0.8418003425251571,0.052043123614541054,0.919097900390625,0.4059295654296875,-0.5074615478515625
20220205-1726,2022-02-05 17:27:01Z,u01, 30,40,movements,el-ex, rt, d,13719.529532125001, 1.064961449818458, -0.3544548664120532, 0.3330902629439149, 0.42294055223464966, -1.3534009456634521, -0.021546993404626846, 0.8203908801078796, 0.34707915782928467, -0.45441704988479614, 0.061567068099975586, 0.05459320545196533, -0.06610608100891113, -0.2326323564726488, 0.46762556511338427, 0.8511585312267987,0.052322693981359136,0.8819580078125,0.40167236328125,-0.5205230712890625
20220205-1726,2022-02-05 17:27:01Z,u01, 31,40,movements,el-ex, rt, d,13719.554477125, 1.0301886915907699, -0.35490195602297414, 0.3300438143670087, -0.36285504698753357, -1.3593522310256958, -0.13412274420261383, 0.8039636611938477, 0.34749844670295715, -0.4825839102268219, 0.05266469717025757, 0.019872158765792847, -0.051534801721572876, -0.23118332510306522, 0.45305884168066207, 0.8592285578538441,0.0549378938254092,0.8590545654296875,0.3598175048828125,-0.537994384765625
20220205-1726,2022-02-05 17:27:01Z,u01, 32,40,movements,el-ex, rt, d,13719.579422125002, 0.9992504858440908, -0.36658514850845075, 0.34013604952051524, -0.5864035487174988, -1.386933445930481, -0.21383288502693176, 0.7851826548576355, 0.35842958092689514, -0.5049915313720703, 0.08517861366271973, 0.08445671200752258, -0.07491880655288696, -0.23740835606654404, 0.43719734611725625, 0.8653870442589586,0.060007981810130506,0.870361328125,0.4428863525390625,-0.5799102783203125
20220205-1726,2022-02-05 17:27:01Z,u01, 33,40,movements,el-ex, rt, d,13719.604366125, 0.9662092028037141, -0.37657254899596737, 0.3453387238756994, -0.13680392503738403, -1.3987557888031006, -0.21803514659404755, 0.7650880813598633, 0.367735356092453, -0.5285933613777161, 0.09596532583236694, 0.070069819688797, -0.06251692771911621, -0.24169163027461185, 0.42105638944635304, 0.8719091532247711,0.06380492768330392,0.857177734375,0.4355316162109375,-0.600494384765625
20220205-1726,2022-02-05 17:27:02Z,u01, 34,40,movements,el-ex, rt, d,13719.629311125002, 0.9296278300785397, -0.37832342825407633, 0.3395717185988337, 0.4087375998497009, -1.3680297136306763, -0.1514190435409546, 0.7447267174720764, 0.3693629801273346, -0.555835485458374, 0.09575784206390381, 0.07909280061721802, -0.07450515031814575, -0.24006047444600637, 0.4055283389479167, 0.8795777622790486,0.06527377845263088,0.840484619140625,0.448455810546875,-0.630340576171875
20220205-1726,2022-02-05 17:27:02Z,u01, 35,40,movements,el-ex, rt, d,13719.654256125, 0.8904437574271351, -0.3713602136613027, 0.32331947969809977, 0.8315133452415466, -1.2643710374832153, -0.17507782578468323, 0.7243625521659851, 0.3628832697868347, -0.5861865282058716, 0.08746600151062012, 0.06787234544754028, -0.06060308218002319, -0.2325711193091299, 0.3909186794921221, 0.8882335438065386,0.06429940570772463,0.808319091796875,0.43310546875,-0.644317626953125
20220205-1726,2022-02-05 17:27:02Z,u01, 36,40,movements,el-ex, rt, d,13719.679201125, 0.8523780637369132, -0.3612017077850818, 0.3033996401879369, 0.8165881037712097, -1.259734869003296, -0.1426168829202652, 0.7042685747146606, 0.3533986508846283, -0.615723192691803, 0.1099097728729248, 0.03347262740135193, -0.03781074285507202, -0.2231318928309089, 0.37729373064781874, 0.8966729835493121,0.06195971891121893,0.814178466796875,0.386871337890625,-0.653533935546875
20220205-1726,2022-02-05 17:27:02Z,u01, 37,40,movements,el-ex, rt, d,13719.704145125, 0.8133774511655907, -0.3484082366486145, 0.28421927028895577, 0.9884275794029236, -1.3253742456436157, -0.06071077287197113, 0.6829550266265869, 0.3414021134376526, -0.6457685828208923, 0.11044090986251831, 0.03234666585922241, -0.04662954807281494, -0.21275994622926986, 0.3631100568081924, 0.9051273265892021,0.06024009418605053,0.7917022705078125,0.37786865234375,-0.696746826171875
20220205-1726,2022-02-05 17:27:02Z,u01, 38,40,movements,el-ex, rt, d,13719.729090125002, 0.7735204203946289, -0.32887809825297204, 0.2632809703287654, 1.187873363494873, -1.314336895942688, 0.04172332212328911, 0.6612138748168945, 0.32298144698143005, -0.6771109104156494, 0.09878051280975342, 0.014024138450622559, -0.02725011110305786, -0.1991380766070609, 0.3489821907110664, 0.9138425250624188,0.05871392364297806,0.7599945068359375,0.337005615234375,-0.7043609619140625
20220205-1726,2022-02-05 17:27:02Z,u01, 39,40,movements,el-ex, rt, d,13719.754035125, 0.7346674143001847, -0.30756410860291833, 0.24376530598327503, 1.0103569030761719, -1.2974990606307983, 0.04317401349544525, 0.6388838887214661, 0.3027379512786865, -0.7072319984436035, 0.07203829288482666, 0.010677546262741089, -0.016110897064208984, -0.18504535344087375, 0.3348764140189099, 0.9221206146230169,0.05752915991995178,0.706024169921875,0.3186798095703125,-0.72900390625
20220205-1726,2022-02-05 17:27:02Z,u01, 40,40,movements,el-ex, rt, d,13719.778979125002, 0.6983456946072168, -0.2909533970794084, 0.22977751261602847, 0.6877562403678894, -1.305381178855896, 0.025400344282388687, 0.6159287691116333, 0.2868656814098358, -0.7337164282798767, 0.08489209413528442, 0.017653942108154297, 0.004392027854919434, -0.17412352519934304, 0.3206599140967872, 0.9292865642955708,0.05731246946831353,0.7008209228515625,0.3045196533203125,-0.7293243408203125
20220205-1726,2022-02-05 17:27:02Z,u01, 41,40,movements,el-ex, rt, d,13719.803924125, 0.6625785427730034, -0.2806178276178706, 0.2221663216513482, 0.3839663565158844, -1.3724710941314697, 0.03344828262925148, 0.5910899043083191, 0.27694937586784363, -0.7575696706771851, 0.10974621772766113, -0.002016514539718628, 0.029328644275665283, -0.16713204807366194, 0.3054210894582152, 0.9356025374357163,0.05858955944747479,0.692901611328125,0.284698486328125,-0.7300262451171875
20220205-1726,2022-02-05 17:27:02Z,u01, 42,40,movements,el-ex, rt, d,13719.828869125, 0.6272263025415441, -0.2724946963884639, 0.21776923625038502, 0.3385319709777832, -1.359264612197876, 0.07415616512298584, 0.5652461051940918, 0.26913490891456604, -0.7797841429710388, 0.08226054906845093, 0.025023996829986572, 0.05705153942108154, -0.1616497750408804, 0.28978834043346163, 0.9413823325568098,0.060757386841206185,0.6475067138671875,0.294158935546875,-0.7227325439453125
20220205-1726,2022-02-05 17:27:02Z,u01, 43,40,movements,el-ex, rt, d,13719.853814125001, 0.5928243966724227, -0.2655317419678839, 0.2138422806294122, 0.30828961730003357, -1.3096238374710083, -0.013008631765842438, 0.5391247868537903, 0.2624224126338959, -0.8002992868423462, 0.07205069065093994, 0.03498661518096924, 0.06485611200332642, -0.1567772292199185, 0.2743560861623531, 0.9466867556261878,0.06272039044284133,0.60650634765625,0.300628662109375,-0.7407379150390625
20220205-1726,2022-02-05 17:27:02Z,u01, 44,40,movements,el-ex, rt, d,13719.878758125002, 0.5589182851473049, -0.2589960076519441, 0.20854940119551998, 0.37440651655197144, -1.3201570510864258, -0.018685493618249893, 0.5125836730003357, 0.25611016154289246, -0.8195520639419556, 0.07632923126220703, 0.053627967834472656, 0.07374823093414307, -0.15192246573452436, 0.2591206683610758, 0.9516868635387563,0.06378313180842687,0.5889129638671875,0.3097381591796875,-0.7458038330078125
20220205-1726,2022-02-05 17:27:02Z,u01, 45,40,movements,el-ex, rt, d,13719.903703125, 0.5256228289106332, -0.25121280094489584, 0.20293542137340753, 0.3486139178276062, -1.236894965171814, -0.04583462327718735, 0.48600271344184875, 0.24857887625694275, -0.8378603458404541, 0.06682318449020386, 0.05192768573760986, 0.09002703428268433, -0.14646100918535201, 0.2441700425207398, 0.9564248460141442,0.0646660439438475,0.552398681640625,0.2999267578125,-0.7498931884765625
20220205-1726,2022-02-05 17:27:02Z,u01, 46,40,movements,el-ex, rt, d,13719.928648125, 0.49401240922476514, -0.24587360905078834, 0.19779760048993267, 0.21290306746959686, -1.2046711444854736, -0.08918535709381104, 0.45990195870399475, 0.24340374767780304, -0.8539583086967468, 0.07313323020935059, 0.05194535851478577, 0.10098284482955933, -0.14228380318943146, 0.22973061788653715, 0.9605886526919548,0.06518212726062722,0.5330352783203125,0.29534912109375,-0.7529754638671875
20220205-1726,2022-02-05 17:27:02Z,u01, 47,40,movements,el-ex, rt, d,13719.953593125001, 0.46293124183372436, -0.243551533340598, 0.1934061143083937, 0.11278251558542252, -1.1915335655212402, -0.14139942824840546, 0.43339332938194275, 0.2411508560180664, -0.8683412075042725, 0.07721146941184998, 0.0493154376745224, 0.09922194480895996, -0.13966852101879967, 0.21522566640311816, 0.9643000291273899,0.06554482786217963,0.5032958984375,0.2923583984375,-0.772064208984375
20220205-1726,2022-02-05 17:27:02Z,u01, 48,40,movements,el-ex, rt, d,13719.978537125, 0.43255691098047455, -0.24284087797151002, 0.18855032415634834, 0.10931088775396347, -1.1573072671890259, -0.17412129044532776, 0.40689393877983093, 0.24046111106872559, -0.8812580704689026, 0.07459709048271179, 0.048464030027389526, 0.10586744546890259, -0.13782758914147414, 0.20093411702253217, 0.9676535556433578,0.06538859008770781,0.4814910888671875,0.2889251708984375,-0.775390625
20220205-1726,2022-02-05 17:27:02Z,u01, 49,40,movements,el-ex, rt, d,13720.003482125001, 0.40263474103231506, -0.2415761107444349, 0.18293645967927516, 0.17294499278068542, -1.1273547410964966, -0.1764446198940277, 0.38046541810035706, 0.23923327028751373, -0.8933160305023193, 0.07827472686767578, 0.03934641182422638, 0.09421318769454956, -0.135698968168114, 0.18688977264831272, 0.9707998499424298,0.06485055002190804,0.452056884765625,0.2701416015625,-0.799713134765625
20220205-1726,2022-02-05 17:27:02Z,u01, 50,40,movements,el-ex, rt, d,13720.028427125, 0.37371241956715445, -0.238174673236912, 0.17643528228203048, 0.2590599060058594, -1.0605295896530151, -0.18406686186790466, 0.35476815700531006, 0.2359292209148407, -0.9046971797943115, 0.07064679265022278, 0.014452219009399414, 0.08659720420837402, -0.13253515198399982, 0.1734527466869003, 0.9737844617492489,0.06397166225296735,0.4254150390625,0.2503814697265625,-0.8180999755859375
20220205-1726,2022-02-05 17:27:02Z,u01, 51,40,movements,el-ex, rt, d,13720.053371125001, 0.3463177802081007, -0.23394657959098253, 0.17004638646354475, 0.19446653127670288, -1.0313061475753784, -0.16278395056724548, 0.33018994331359863, 0.23181839287281036, -0.9150053858757019, 0.0860392153263092, -0.0021278709173202515, 0.0998961329460144, -0.1290775744665834, 0.16073672069316772, 0.9764876722049219,0.06304387170423525,0.410247802734375,0.2173004150390625,-0.81390380859375
20220205-1726,2022-02-05 17:27:02Z,u01, 52,40,movements,el-ex, rt, d,13720.078316125, 0.31952573176146565, -0.23243950946352934, 0.16534101885469538, 0.06537199020385742, -1.0191117525100708, -0.14893297851085663, 0.3056689202785492, 0.23035211861133575, -0.9238530397415161, 0.06962093710899353, -0.017522543668746948, 0.08338367938995361, -0.12713856739273824, 0.14801781196944294, 0.9787792560030649,0.06259068879455704,0.3752899169921875,0.21282958984375,-0.8404693603515625
20220205-1726,2022-02-05 17:27:02Z,u01, 53,40,movements,el-ex, rt, d,13720.103261125001, 0.2932999212734007, -0.23108487185491827, 0.16136790527938447, 0.13480323553085327, -1.0126798152923584, -0.10761623084545135, 0.2814277410507202, 0.2290336936712265, -0.9318487048149109, 0.08340984582901001, 0.0011298507452011108, 0.07709705829620361, -0.1253756679027086, 0.13548650561513792, 0.9808310407192411,0.062408433761324544,0.3589019775390625,0.2285003662109375,-0.8516998291015625
20220205-1726,2022-02-05 17:27:02Z,u01, 54,40,movements,el-ex, rt, d,13720.128206125, 0.2674446637886181, -0.22852911774980766, 0.15761439731211743, 0.13712534308433533, -0.9877539277076721, -0.12800119817256927, 0.25739702582359314, 0.22654512524604797, -0.9393743276596069, 0.0674625039100647, -0.012052372097969055, 0.09753167629241943, -0.12307506885712897, 0.1231477853246625, 0.9827504101087071,0.062360114422526314,0.324859619140625,0.2144927978515625,-0.8418426513671875
20220205-1726,2022-02-05 17:27:02Z,u01, 55,40,movements,el-ex, rt, d,13720.153150125001, 0.24230409788756785, -0.22532654613816686, 0.15285747665588517, 0.2530680298805237, -0.9589423537254333, -0.14410459995269775, 0.23387464880943298, 0.22342465817928314, -0.9462473392486572, 0.07363566756248474, 0.008630990982055664, 0.07614541053771973, -0.12044459974339229, 0.11121789765610715, 0.9845346584969613,0.06176658865073881,0.3035125732421875,0.2342987060546875,-0.8766021728515625
20220205-1726,2022-02-05 17:27:02Z,u01, 56,40,movements,el-ex, rt, d,13720.178095125, 0.21776258478020863, -0.21792559362412345, 0.14741815175531756, 0.4151690602302551, -0.8906368017196655, -0.1388842612504959, 0.21093569695949554, 0.21620474755764008, -0.9532899260520935, 0.04228384792804718, 0.010754436254501343, 0.0761536955833435, -0.11576478928626296, 0.0997675400585596, 0.986369862177552,0.06098702742555212,0.2532196044921875,0.226959228515625,-0.87713623046875
20220205-1726,2022-02-05 17:27:02Z,u01, 57,40,movements,el-ex, rt, d,13720.203040125001, 0.19541831054706077, -0.20803825911141438, 0.14163183046590655, 0.4235325753688812, -0.8128905892372131, -0.14426226913928986, 0.1899900585412979, 0.20654085278511047, -0.9598149061203003, 0.04580394923686981, -0.011899769306182861, 0.08237349987030029, -0.10994268363481455, 0.08947153917088844, 0.988086591389023,0.05993484867592236,0.2332000732421875,0.1994781494140625,-0.8824462890625
20220205-1726,2022-02-05 17:27:02Z,u01, 58,40,movements,el-ex, rt, d,13720.227985125, 0.17461867259092195, -0.19852725471430066, 0.13611184785555852, 0.40691882371902466, -0.7714137434959412, -0.1323430836200714, 0.17032018303871155, 0.19722573459148407, -0.9654496312141418, 0.05148150026798248, 0.0018556565046310425, 0.06449449062347412, -0.10439528687226018, 0.0798548354248026, 0.9895799951790781,0.058789473922712165,0.2218017578125,0.1990814208984375,-0.9009552001953125
20220205-1726,2022-02-05 17:27:02Z,u01, 59,40,movements,el-ex, rt, d,13720.252929125001, 0.15473266120842893, -0.1892953546663315, 0.13155188533658194, 0.35009968280792236, -0.7503544092178345, -0.10447270423173904, 0.15136300027370453, 0.18816688656806946, -0.970403254032135, 0.06627306342124939, -0.011149689555168152, 0.06654888391494751, -0.0990773500309226, 0.07058367634622087, 0.9908800687978816,0.05795008001932417,0.212921142578125,0.1705780029296875,-0.895751953125
20220205-1726,2022-02-05 17:27:02Z,u01, 60,40,movements,el-ex, rt, d,13720.277873875, 0.13542934554820799, -0.18317559145618798, 0.12814541955202916, 0.17393721640110016, -0.7415376305580139, -0.07876188308000565, 0.13275694847106934, 0.18215295672416687, -0.9742668271064758, 0.03508967161178589, -0.036263689398765564, 0.10254746675491333, -0.09537718497544327, 0.06139843863427746, 0.991884163207667,0.05743865539993942,0.1678466796875,0.1458892822265625,-0.8717193603515625
20220205-1726,2022-02-05 17:27:02Z,u01, 61,40,movements,el-ex, rt, d,13720.302818875001, 0.11736333952517806, -0.17972704016310773, 0.12628884226023546, 0.17334263026714325, -0.6819303035736084, -0.059121131896972656, 0.11520800739526749, 0.17876102030277252, -0.9771241545677185, 0.035243600606918335, -0.009480029344558716, 0.089291512966156, -0.09309551451629533, 0.05264171142710258, 0.9926011989588792,0.057486939000405635,0.1449127197265625,0.1751708984375,-0.8930816650390625
20220205-1726,2022-02-05 17:27:02Z,u01, 62,40,movements,el-ex, rt, d,13720.327763875, 0.10046689422800083, -0.17336322059478293, 0.12429382627042189, 0.35438206791877747, -0.646024227142334, -0.04111470282077789, 0.09879451990127563, 0.17249612510204315, -0.9800432324409485, 0.03429257869720459, 0.0026747435331344604, 0.07142812013626099, -0.08940380215534144, 0.04455722499354353, 0.9933379422966037,0.05745704272379226,0.133087158203125,0.1751708984375,-0.9086151123046875
20220205-1726,2022-02-05 17:27:02Z,u01, 63,40,movements,el-ex, rt, d,13720.352707875001, 0.08406910951352715, -0.16383757657627296, 0.12256304358730763, 0.3381827473640442, -0.6385180950164795, -0.02424990013241768, 0.08284564316272736, 0.1631055772304535, -0.9831241965293884, 0.033426277339458466, -0.008823990821838379, 0.11164897680282593, -0.08416639227563584, 0.036795709862074456, 0.9941076055506934,0.05755177609211681,0.10968017578125,0.1519927978515625,-0.8582763671875
20220205-1726,2022-02-05 17:27:02Z,u01, 64,40,movements,el-ex, rt, d,13720.377652875, 0.06870683740320935, -0.1578189176222693, 0.12169607286277216, 0.18689273297786713, -0.5594325065612793, -0.0185589250177145, 0.06779960542917252, 0.15716460347175598, -0.9852423667907715, -0.008900739252567291, -0.018141791224479675, 0.11958074569702148, -0.08071742011503019, 0.029385700148479015, 0.9946209424990075,0.05788304484068407,0.05889892578125,0.1390228271484375,-0.86566162109375
20220205-1726,2022-02-05 17:27:02Z,u01, 65,40,movements,el-ex, rt, d,13720.402597875001, 0.05606069282805582, -0.15215612584167565, 0.12065653699794687, 0.3033899962902069, -0.43757590651512146, -0.03267507627606392, 0.05538398027420044, 0.1515696942806244, -0.9868937134742737, -0.004618044942617416, 0.025020256638526917, 0.13388162851333618, -0.07752151552129453, 0.023314118636085547, 0.9950309560046744,0.057967386794533726,0.049591064453125,0.180328369140625,-0.841583251953125
20220205-1726,2022-02-05 17:27:02Z,u01, 66,40,movements,el-ex, rt, d,13720.427542875, 0.04614070854641754, -0.1435342482308838, 0.11917480117119421, 0.36776018142700195, -0.374866247177124, -0.05314047262072563, 0.045650023967027664, 0.14304190874099731, -0.9886632561683655, 0.02267877385020256, -0.003332465887069702, 0.17952024936676025, -0.07292945688671941, 0.018699008572101296, 0.9954891209390528,0.057731854154800866,0.068328857421875,0.13970947265625,-0.80914306640625
20220205-1726,2022-02-05 17:27:02Z,u01, 67,40,movements,el-ex, rt, d,13720.452486875001, 0.037049957136057944, -0.1368572530402261, 0.11793522263689889, 0.168538436293602, -0.3436654210090637, -0.022418778389692307, 0.03669513016939163, 0.13643042743206024, -0.989969789981842, 0.028871826827526093, -0.01374979317188263, 0.20006805658340454, -0.06933380473116905, 0.014419549350665684, 0.9958294388226823,0.057521054966370444,0.064727783203125,0.11737060546875,-0.7891387939453125
20220205-1726,2022-02-05 17:27:02Z,u01, 68,40,movements,el-ex, rt, d,13720.477431875, 0.029194188272292802, -0.13476480278861377, 0.11705649869960136, 0.016718868166208267, -0.28620707988739014, -0.047408416867256165, 0.028925374150276184, 0.1343572437763214, -0.9905107021331787, 0.011144151911139488, -0.014911472797393799, 0.2245500087738037, -0.0680608608364437, 0.010600393344116733, 0.995973591373084,0.057374754970033914,0.040069580078125,0.11944580078125,-0.765960693359375
20220205-1726,2022-02-05 17:27:02Z,u01, 69,40,movements,el-ex, rt, d,13720.502376875002, 0.02292216368096897, -0.13649700677678261, 0.11580732347065842, -0.08940114825963974, -0.22637909650802612, -0.06267119199037552, 0.02270697057247162, 0.1360735446214676, -0.9904384613037109, 0.017896613106131554, -0.004283398389816284, 0.24240684509277344, -0.06873848231207237, 0.007468681063442034, 0.995979701377458,0.056952527130457564,0.0442047119140625,0.1212005615234375,-0.748779296875
20220205-1726,2022-02-05 17:27:02Z,u01, 70,40,movements,el-ex, rt, d,13720.527320875, 0.017655832512591976, -0.14148584813812146, 0.11482217276430254, -0.34918397665023804, -0.20502400398254395, -0.011607209220528603, 0.017478499561548233, 0.14101427793502808, -0.9898532629013062, 0.01918831467628479, -0.04999561607837677, 0.29171788692474365, -0.07106999184989521, 0.004735558876796608, 0.9958523629767725,0.056610845251304553,0.0366668701171875,0.0910186767578125,-0.6981353759765625
20220205-1726,2022-02-05 17:27:02Z,u01, 71,40,movements,el-ex, rt, d,13720.552265875001, 0.014199623882445235, -0.15413674034241134, 0.11518003039883332, -0.6246368885040283, -0.06967743486166, 0.018425989896059036, 0.01403080765157938, 0.1535271257162094, -0.988044798374176, 0.010947775095701218, -0.0640343427658081, 0.3199997544288635, -0.07726995731100457, 0.0026355288354611775, 0.9953851700545343,0.05684017079132836,0.0247650146484375,0.094757080078125,-0.67071533203125
20220205-1726,2022-02-05 17:27:02Z,u01, 72,40,movements,el-ex, rt, d,13720.577210875, 0.015003599392945304, -0.16945815035808198, 0.116235238295098, -0.5248579382896423, 0.13300657272338867, 0.04255755618214607, 0.014788137748837471, 0.16864828765392303, -0.9855653643608093, -0.010454695671796799, -0.010048449039459229, 0.3010866045951843, -0.08491665563083883, 0.0025467414093151113, 0.994739141343873,0.05724112996291336,0.00433349609375,0.158599853515625,-0.684478759765625
20220205-1726,2022-02-05 17:27:02Z,u01, 73,40,movements,el-ex, rt, d,13720.602155875002, 0.021097835926587698, -0.17764446125639177, 0.11786159592718563, -0.16008445620536804, 0.3213847279548645, 0.061530716717243195, 0.020764272660017014, 0.17671160399913788, -0.9840435981750488, -0.014080975204706192, -0.012160837650299072, 0.28729677200317383, -0.08916540620627184, 0.005264729638557751, 0.9943286311704657,0.057727147325025874,0.0111846923828125,0.1667022705078125,-0.689849853515625
20220205-1726,2022-02-05 17:27:03Z,u01, 74,40,movements,el-ex, rt, d,13720.627099875, 0.03074148889445459, -0.18090087580145547, 0.1194291178010458, -0.1674993336200714, 0.41784903407096863, 0.06406398117542267, 0.030235087499022484, 0.17991581559181213, -0.9832172393798828, 0.02193465456366539, -0.02580207586288452, 0.2975025177001953, -0.09106902945545105, 0.0098900204462451, 0.9941024976719188,0.05804222840860501,0.0521697998046875,0.15411376953125,-0.6857147216796875
20220205-1726,2022-02-05 17:27:03Z,u01, 75,40,movements,el-ex, rt, d,13720.652044875002, 0.04279397255804379, -0.18729513078980514, 0.12185831508815581, -0.3288464844226837, 0.5158569812774658, 0.09552057832479477, 0.04203273728489876, 0.1862020194530487, -0.981611967086792, 0.021443769335746765, -0.0299978107213974, 0.253096342086792, -0.09461294898344011, 0.01556937461647693, 0.9936651201449667,0.058613796718765765,0.0626220703125,0.165496826171875,-0.72894287109375
20220205-1726,2022-02-05 17:27:03Z,u01, 76,40,movements,el-ex, rt, d,13720.676989875, 0.057713068552612226, -0.1951481246022206, 0.12452883301205103, -0.2525627315044403, 0.6358808875083923, 0.07653017342090607, 0.056586191058158875, 0.1939118504524231, -0.9793856143951416, 0.001244567334651947, 0.0059019774198532104, 0.2148592472076416, -0.09897683375282604, 0.02260033177963537, 0.9930762095733346,0.05909708962909904,0.057830810546875,0.1998138427734375,-0.7645263671875
20220205-1726,2022-02-05 17:27:03Z,u01, 77,40,movements,el-ex, rt, d,13720.701934875, 0.07516896660994897, -0.20021170536722172, 0.1264191953054991, -0.19886457920074463, 0.7251543998718262, 0.046047963201999664, 0.07359807193279266, 0.19887681305408478, -0.9772570729255676, -0.002293817698955536, 0.034155383706092834, 0.21979552507400513, -0.10203040066133333, 0.03100442855431608, 0.9925424151860508,0.05905912581175743,0.085540771484375,0.22998046875,-0.75592041015625
20220205-1726,2022-02-05 17:27:03Z,u01, 78,40,movements,el-ex, rt, d,13720.726878875, 0.09382292030311849, -0.20661881545045044, 0.1275995838718887, -0.3313894271850586, 0.7321937084197998, 0.01041626650840044, 0.09169265627861023, 0.20515181124210358, -0.9744255542755127, 0.0812046229839325, 0.00783035159111023, 0.1899101734161377, -0.10577658065102495, 0.039981628182975446, 0.9918609232082762,0.05852065759198283,0.1728973388671875,0.212982177734375,-0.784515380859375
20220205-1726,2022-02-05 17:27:03Z,u01, 79,40,movements,el-ex, rt, d,13720.751823875002, 0.11139309590219638, -0.2152045106909624, 0.12870924191445468, -0.35088253021240234, 0.6787412166595459, 0.01880182884633541, 0.10859864950180054, 0.2135472297668457, -0.9708778858184814, 0.05119132995605469, 0.005004391074180603, 0.16236042976379395, -0.11056553246657592, 0.04833536235060249, 0.9910043979230713,0.057873073034499734,0.1400604248046875,0.218505859375,-0.79302978515625
20220205-1726,2022-02-05 17:27:03Z,u01, 80,40,movements,el-ex, rt, d,13720.776768875001, 0.13085662983370017, -0.22221515300207365, 0.13013595475256998, -0.16900566220283508, 0.9141007661819458, 0.018877796828746796, 0.12727512419223785, 0.22039084136486053, -0.9670723676681519, -0.05783244967460632, -0.005302995443344116, 0.18566977977752686, -0.11463277759299766, 0.05764682665112828, 0.9900801113632878,0.05724875705886373,0.0694427490234375,0.215087890625,-0.781402587890625
20220205-1726,2022-02-05 17:27:03Z,u01, 81,40,movements,el-ex, rt, d,13720.801713875, 0.15666077145373983, -0.22149341433569902, 0.13094344204850214, 0.22712068259716034, 1.112518072128296, 0.051827024668455124, 0.15220923721790314, 0.21968679130077362, -0.9636234045028687, -0.006350517272949219, 0.037866294384002686, 0.15039098262786865, -0.1150336747274163, 0.07039568553593073, 0.9892693413674547,0.05619504080548021,0.1678009033203125,0.2657623291015625,-0.81964111328125
20220205-1726,2022-02-05 17:27:03Z,u01, 82,40,movements,el-ex, rt, d,13720.826657875, 0.18555266105736154, -0.21178222452622733, 0.1301278379908275, 0.4938662052154541, 1.1589566469192505, 0.009311254136264324, 0.1803678423166275, 0.2102026343345642, -0.9608758091926575, 0.07756666839122772, 0.04252864420413971, 0.08294612169265747, -0.11100586480129493, 0.08508704004377632, 0.9886637483164304,0.05460473307915403,0.2579345703125,0.2527313232421875,-0.8779296875
20220205-1726,2022-02-05 17:27:03Z,u01, 83,40,movements,el-ex, rt, d,13720.851602875, 0.21337021155557634, -0.20143668876415632, 0.12832266723653113, 0.27925118803977966, 1.1179888248443604, 0.0011053895577788353, 0.20747323334217072, 0.20007717609405518, -0.9575614929199219, 0.02658127248287201, -0.0037118494510650635, 0.07148361206054688, -0.10656356763493036, 0.09931499616327491, 0.9879264305329893,0.05274507619469759,0.2274322509765625,0.189208984375,-0.8837738037109375
20220205-1726,2022-02-05 17:27:03Z,u01, 84,40,movements,el-ex, rt, d,13720.876547875001, 0.24175835950922114, -0.1993275328809838, 0.12782003927918037, -0.03952199965715408, 1.1948416233062744, 0.009496744722127914, 0.23466987907886505, 0.19801022112369537, -0.9516942501068115, 0.04975387454032898, 0.011935427784919739, 0.05246329307556152, -0.10623429953757561, 0.11343340606176074, 0.9865265199807878,0.051112298735561223,0.284423828125,0.2099456787109375,-0.89923095703125
20220205-1726,2022-02-05 17:27:03Z,u01, 85,40,movements,el-ex, rt, d,13720.901491875002, 0.2718776116557703, -0.19980462513489428, 0.12798269228807305, 0.03413704037666321, 1.1959483623504639, -0.003707475494593382, 0.26319804787635803, 0.1984778493642807, -0.9441044926643372, 0.08480912446975708, 0.043114542961120605, -0.002199828624725342, -0.10723687249118673, 0.12824975119171592, 0.9846809703041037,0.04955319042255352,0.35565185546875,0.2407989501953125,-0.956024169921875
20220205-1726,2022-02-05 17:27:03Z,u01, 86,40,movements,el-ex, rt, d,13720.926436875001, 0.3005996106607814, -0.1975252599042242, 0.12705353349813317, 0.10935056954622269, 1.1220608949661255, -0.01658439077436924, 0.2903355360031128, 0.1962433159351349, -0.9365862607955933, 0.05954846739768982, 0.016876161098480225, -0.02683842182159424, -0.10675331828334803, 0.14251524268847213, 0.9828606810476407,0.047728099508140276,0.349884033203125,0.2131195068359375,-0.9634246826171875
20220205-1726,2022-02-05 17:27:03Z,u01, 87,40,movements,el-ex, rt, d,13720.951381875, 0.3284259044906367, -0.19819607645988946, 0.12699680390269016, -0.16876600682735443, 1.115074872970581, 0.0017831642180681229, 0.3162389397621155, 0.19690103828907013, -0.9280209541320801, 0.048888564109802246, -0.022996649146080017, 0.003506183624267578, -0.10773085642846228, 0.1561524438768175, 0.9807549157381557,0.046153906866520766,0.376617431640625,0.1707000732421875,-0.9295654296875
20220205-1726,2022-02-05 17:27:03Z,u01, 88,40,movements,el-ex, rt, d,13720.976326875001, 0.35695729786140706, -0.20308059658998298, 0.12913841096570103, -0.17534351348876953, 1.1352050304412842, 0.03632802516222, 0.3422442376613617, 0.20168757438659668, -0.9177096486091614, 0.05926021933555603, 0.046527132391929626, -0.04295319318771362, -0.1109439898521376, 0.16981344260975237, 0.9781669144035765,0.04521405116687327,0.4015045166015625,0.2482147216796875,-0.960662841796875
20220205-1726,2022-02-05 17:27:03Z,u01, 89,40,movements,el-ex, rt, d,13721.001270875, 0.38598238837340476, -0.20428651890424263, 0.13074250506810287, -0.008666581474244595, 1.1443878412246704, 0.028398863971233368, 0.36864110827445984, 0.20286856591701508, -0.9071648716926575, 0.042369544506073, 0.04497990012168884, -0.04499882459640503, -0.11232266488997858, 0.18385100813411806, 0.9755117582947168,0.044262999058291286,0.4181976318359375,0.2447052001953125,-0.941436767578125
20220205-1726,2022-02-05 17:27:03Z,u01, 90,40,movements,el-ex, rt, d,13721.026215875001, 0.41402397543980896, -0.20594652101421232, 0.13206505698477292, -0.17226344347000122, 1.0731714963912964, 0.019982077181339264, 0.3937951922416687, 0.20449377596378326, -0.896162748336792, 0.06201532483100891, 0.007664412260055542, -0.029572725296020508, -0.11386788182294019, 0.1973644631025487, 0.9727380627761492,0.043152335814757525,0.455810546875,0.212158203125,-0.9257354736328125
20220205-1726,2022-02-05 17:27:03Z,u01, 91,40,movements,el-ex, rt, d,13721.051160875, 0.44091055491478715, -0.21004705774536717, 0.1338935445070784, -0.11933200806379318, 1.0585227012634277, -0.015438167378306389, 0.4173833429813385, 0.20850592851638794, -0.8844865560531616, 0.04685002565383911, 0.03209462761878967, -0.052143752574920654, -0.116612288272745, 0.2101387787473371, 0.9697811181432612,0.042045707082465356,0.4742279052734375,0.24847412109375,-0.94158935546875
20220205-1726,2022-02-05 17:27:03Z,u01, 92,40,movements,el-ex, rt, d,13721.076105875001, 0.46742275329186295, -0.21052588377127018, 0.1336191666004131, 0.02307833358645439, 1.0543080568313599, -0.03629085049033165, 0.44063854217529297, 0.2089741975069046, -0.8730220198631287, 0.05762186646461487, 0.020075440406799316, -0.026804029941558838, -0.11735951606933534, 0.22297026399650208, 0.9668951667358807,0.04030693557644427,0.498260498046875,0.2290496826171875,-0.8998260498046875
20220205-1726,2022-02-05 17:27:03Z,u01, 93,40,movements,el-ex, rt, d,13721.101049875, 0.49289548368274944, -0.21495014651153616, 0.1346083696050785, -0.39402151107788086, 0.9785593152046204, -0.047960422933101654, 0.4622894525527954, 0.2132987231016159, -0.8606927990913391, 0.04372242093086243, -0.022106140851974487, 0.04273015260696411, -0.12010417973139251, 0.23500762366962935, 0.9637665247571667,0.038735027354648066,0.5120697021484375,0.1820526123046875,-0.8332977294921875
20220205-1726,2022-02-05 17:27:03Z,u01, 94,40,movements,el-ex, rt, d,13721.125994875001, 0.5182007926450911, -0.22519902958683397, 0.13925799083394858, -0.43768924474716187, 0.9928761720657349, -0.010067170485854149, 0.48281100392341614, 0.22330036759376526, -0.84677654504776, 0.0270460844039917, 0.0034146904945373535, 0.017781734466552734, -0.12606043741495915, 0.24641530624036317, 0.9601751167737027,0.03810603354459419,0.509857177734375,0.226715087890625,-0.8289947509765625
20220205-1726,2022-02-05 17:27:03Z,u01, 95,40,movements,el-ex, rt, d,13721.150939875, 0.5452277445012269, -0.23299874172256604, 0.14402628607234588, -0.3214634358882904, 1.0782533884048462, -0.0023501282557845116, 0.5045990943908691, 0.2308962643146515, -0.8319054841995239, 0.028283536434173584, 0.008743003010749817, 0.03777700662612915, -0.1308947806243117, 0.25867705992326784, 0.9563149997701886,0.037608700297994124,0.5437774658203125,0.23876953125,-0.787689208984375
20220205-1726,2022-02-05 17:27:03Z,u01, 96,40,movements,el-ex, rt, d,13721.175884875001, 0.5735563990558604, -0.23908721234558714, 0.1476915286074698, -0.255390465259552, 1.1251578330993652, -0.011597822420299053, 0.5271875858306885, 0.2368158996105194, -0.8160829544067383, 0.07152140140533447, 0.016174808144569397, 0.02512836456298828, -0.13479716771499672, 0.27163989414749967, 0.9522082374809523,0.036618415021871076,0.5987091064453125,0.25299072265625,-0.79095458984375
20220205-1726,2022-02-05 17:27:03Z,u01, 97,40,movements,el-ex, rt, d,13721.200828875, 0.602214746466229, -0.2434078494452255, 0.15098189537673898, -0.18206453323364258, 1.1108049154281616, 0.03362784534692764, 0.5497708320617676, 0.24101141095161438, -0.7997909784317017, 0.07924222946166992, 0.027650073170661926, -0.02014005184173584, -0.13781360291117778, 0.28480153463400293, 0.9479604484626891,0.03559018096259681,0.6278228759765625,0.272735595703125,-0.8118743896484375
20220205-1726,2022-02-05 17:27:03Z,u01, 98,40,movements,el-ex, rt, d,13721.225773875001, 0.6303961950142999, -0.24637582972078156, 0.15448653302796966, -0.1664678305387497, 1.0911407470703125, 0.04488562420010567, 0.571664571762085, 0.24389083683490753, -0.78340083360672, 0.03351414203643799, 0.022283464670181274, -0.038361310958862305, -0.140215426299165, 0.2977234046818943, 0.9436563136708369,0.03483015730749944,0.6051788330078125,0.26617431640625,-0.8217620849609375
20220205-1726,2022-02-05 17:27:03Z,u01, 99,40,movements,el-ex, rt, d,13721.250718875, 0.6589871567658778, -0.24897158499698088, 0.15770576699143019, -0.1538519412279129, 1.117872953414917, 0.034117601811885834, 0.5934364199638367, 0.2464073896408081, -0.7662352919578552, 0.04988926649093628, 0.04009160399436951, -0.027786314487457275, -0.1424104884671602, 0.31080797513607683, 0.9391314458956473,0.03390670936495749,0.66455078125,0.283721923828125,-0.79742431640625
20220205-1726,2022-02-05 17:27:03Z,u01, 100,40,movements,el-ex, rt, d,13721.275663375001, 0.6867501684375811, -0.25243541254431273, 0.16145902881704033, -0.2798803150653839, 0.9983028769493103, 0.023240987211465836, 0.6139332056045532, 0.24976292252540588, -0.7488020658493042, 0.09997975826263428, 0.012032091617584229, -0.053566157817840576, -0.14508171810190953, 0.3233423430145884, 0.9345085224130285,0.033087654314994275,0.7139129638671875,0.2617950439453125,-0.8023681640625
20220205-1726,2022-02-05 17:27:03Z,u01, 101,40,movements,el-ex, rt, d,13721.300608375, 0.7119550095947457, -0.2583024357462639, 0.16817149093425535, -0.4448019862174988, 0.9236242175102234, 0.060098402202129364, 0.6316413879394531, 0.2554396688938141, -0.7319697737693787, 0.0258597731590271, -0.007011353969573975, -0.029123425483703613, -0.14931763888037372, 0.33424446747686515, 0.9299856997082077,0.033339167486692134,0.648162841796875,0.2490997314453125,-0.7463531494140625
20220205-1726,2022-02-05 17:27:03Z,u01, 102,40,movements,el-ex, rt, d,13721.325553375002, 0.7390465341739519, -0.26694958350983977, 0.17869309876547282, -0.5980688333511353, 1.0245813131332397, 0.08135082572698593, 0.6497251987457275, 0.2637903094291687, -0.7129318118095398, 0.04573976993560791, 0.006458073854446411, 0.006709277629852295, -0.1555407939158206, 0.34545787271320255, 0.9248076648864769,0.034592263020947145,0.695465087890625,0.2702484130859375,-0.7062225341796875
20220205-1726,2022-02-05 17:27:03Z,u01, 103,40,movements,el-ex, rt, d,13721.350498375, 0.7673397297548075, -0.2745537015168972, 0.19068355916860794, -0.45094168186187744, 0.9649414420127869, 0.18992237746715546, 0.6682217121124268, 0.2711173892021179, -0.6928023099899292, 0.07430142164230347, -0.008559435606002808, -0.0452195405960083, -0.16162031941122995, 0.35704021087185006, 0.9192780685450583,0.036453385807054595,0.742950439453125,0.2624969482421875,-0.7408905029296875
20220205-1726,2022-02-05 17:27:03Z,u01, 104,40,movements,el-ex, rt, d,13721.375442375002, 0.7938855879527892, -0.2776909819617022, 0.20299302980918796, -0.4546217620372772, 0.9130116701126099, 0.2735275328159332, 0.685765266418457, 0.2741358280181885, -0.6742222309112549, 0.05179876089096069, -0.018902063369750977, -0.006991207599639893, -0.1657762740367167, 0.3679770685882128, 0.9140927284572038,0.03931488708915448,0.7375640869140625,0.2552337646484375,-0.68121337890625
20220205-1726,2022-02-05 17:27:03Z,u01, 105,40,movements,el-ex, rt, d,13721.400387375, 0.8209625488217064, -0.28230534641436833, 0.2176314865484053, -0.5520123243331909, 0.9323462843894958, 0.2384646087884903, 0.7028343677520752, 0.2785704731941223, -0.6545398235321045, 0.05734318494796753, 0.007180839776992798, -0.04689151048660278, -0.1711409791734929, 0.3787358766811252, 0.9085370959956168,0.04278097283055665,0.7640228271484375,0.2948455810546875,-0.7147216796875
20220205-1726,2022-02-05 17:27:03Z,u01, 106,40,movements,el-ex, rt, d,13721.425332375, 0.8477990008844762, -0.28425590973960596, 0.22900230007763722, -0.13140621781349182, 0.9792731404304504, 0.23692704737186432, 0.719735860824585, 0.28044331073760986, -0.6350840926170349, 0.02730381488800049, 0.05679118633270264, -0.11642658710479736, -0.174787025224727, 0.3897530753546668, 0.9030494290494403,0.04520727386038553,0.747039794921875,0.3372344970703125,-0.7515106201171875
20220205-1726,2022-02-05 17:27:03Z,u01, 107,40,movements,el-ex, rt, d,13721.450277375001, 0.8733165557566235, -0.27925275512768344, 0.23113497681526568, 0.1868254840373993, 1.0093342065811157, 0.1702919602394104, 0.7367717623710632, 0.2756374180316925, -0.6174068450927734, 0.024183928966522217, 0.03718298673629761, -0.10770606994628906, -0.17356504333126352, 0.4014620031168509, 0.8981523070560214,0.04500831981147119,0.7702789306640625,0.302734375,-0.7098236083984375
20220205-1726,2022-02-05 17:27:03Z,u01, 108,40,movements,el-ex, rt, d,13721.475221375002, 0.8975214789774753, -0.274336283888311, 0.2310920170477866, 0.07108128070831299, 0.9244823455810547, 0.138885498046875, 0.7525491714477539, 0.27090808749198914, -0.6002320051193237, 0.07289022207260132, 0.008892297744750977, -0.10267937183380127, -0.17192610057134652, 0.41270497765510744, 0.8934106671096606,0.04396981656724608,0.825439453125,0.2798004150390625,-0.702911376953125
20220205-1726,2022-02-05 17:27:03Z,u01, 109,40,movements,el-ex, rt, d,13721.500166375, 0.9196384275836261, -0.2710051403810189, 0.2318229395150329, 0.057122550904750824, 0.8362653851509094, 0.09765543043613434, 0.7663528919219971, 0.2677000164985657, -0.583986222743988, 0.059361159801483154, 0.021377742290496826, -0.12928593158721924, -0.1710990501601608, 0.4227670683498143, 0.8888936369526202,0.04314159007585755,0.81744384765625,0.28955078125,-0.7042388916015625
20220205-1726,2022-02-05 17:27:03Z,u01, 110,40,movements,el-ex, rt, d,13721.525111375, 0.9404366735512519, -0.26953723892121734, 0.2330409108765462, -0.11382316052913666, 0.8103575110435486, 0.04872610419988632, 0.7786487936973572, 0.26628541946411133, -0.5681533217430115, 0.012198925018310547, 0.0003161430358886719, -0.0418168306350708, -0.17116273850181507, 0.43200307767507556, 0.8844731677719808,0.042236141887895706,0.7908477783203125,0.2666015625,-0.6099700927734375
20220205-1726,2022-02-05 17:27:03Z,u01, 111,40,movements,el-ex, rt, d,13721.550056375001, 0.9622155706126617, -0.27335128451849366, 0.24023490779188, -0.5170022249221802, 0.8171654343605042, 0.03251664340496063, 0.7899978756904602, 0.26995980739593506, -0.550477147102356, 0.02093040943145752, -0.007920622825622559, 0.013535559177398682, -0.17484847618434596, 0.4406692897666813, 0.8794433547658616,0.042638389526109266,0.8169708251953125,0.2665863037109375,-0.51287841796875
20220205-1726,2022-02-05 17:27:03Z,u01, 112,40,movements,el-ex, rt, d,13721.575000375, 0.9867432512573628, -0.28115163364086065, 0.253081178902959, -0.5192914605140686, 0.8329645395278931, 0.030265605077147484, 0.8014796376228333, 0.2774622440338135, -0.529759407043457, 0.12361490726470947, 0.03781479597091675, -0.05230236053466797, -0.181596819947337, 0.449603044697098, 0.8734548596033963,0.044229016438926294,0.9250946044921875,0.315277099609375,-0.582061767578125
20220205-1726,2022-02-05 17:27:03Z,u01, 113,40,movements,el-ex, rt, d,13721.599945375001, 1.009047322640645, -0.2843995787423089, 0.2605079770706234, -0.09177032858133316, 0.8115897178649902, 0.033822257071733475, 0.8123281598091125, 0.28058120608329773, -0.5112701654434204, 0.08736050128936768, 0.06660202145576477, -0.06375735998153687, -0.1851642691531279, 0.4583438857550344, 0.8681263402536225,0.04462889167797113,0.8766021728515625,0.3507080078125,-0.5538330078125
20220205-1726,2022-02-05 17:27:04Z,u01, 114,40,movements,el-ex, rt, d,13721.624890375, 1.0302260208138017, -0.28513513205417035, 0.2599892258724207, -0.008543976582586765, 0.9231898784637451, -0.10649324208498001, 0.8227959871292114, 0.28128713369369507, -0.4938463568687439, -0.029949426651000977, 0.04543405771255493, 0.05471360683441162, -0.18581601761981836, 0.4674924851571944, 0.8632134074958573,0.04225803296310998,0.7928466796875,0.32672119140625,-0.4391326904296875
20220205-1726,2022-02-05 17:27:04Z,u01, 115,40,movements,el-ex, rt, d,13721.649835375001, 1.057246166421306, -0.293615215659684, 0.265488008994774, -0.7304964065551758, 1.1138384342193604, -0.23602400720119476, 0.833730161190033, 0.2894146144390106, -0.47024795413017273, -0.00620037317276001, 0.011336088180541992, 0.13060250878334045, -0.19123685865542162, 0.47781219320430945, 0.8564632598313007,0.03993209059153141,0.855682373046875,0.2843170166015625,-0.344879150390625
20220205-1726,2022-02-05 17:27:04Z,u01, 116,40,movements,el-ex, rt, d,13721.674779375, 1.0881384090954695, -0.3074197680482538, 0.2794386288930678, -0.4839593470096588, 0.9844686388969421, -0.22970086336135864, 0.8442375063896179, 0.3026003837585449, -0.4423752427101135, 0.15560978651046753, 0.07899138331413269, 0.022117644548416138, -0.20095861274960025, 0.48829090785264323, 0.848318961072724,0.03927333109199277,0.999847412109375,0.381591796875,-0.420257568359375
20220205-1726,2022-02-05 17:27:04Z,u01, 117,40,movements,el-ex, rt, d,13721.699724375001, 1.1117504163277323, -0.31083813659727555, 0.27640314155645934, 0.5163829326629639, 1.0035781860351562, -0.1134251207113266, 0.8535144329071045, 0.30585670471191406, -0.42185893654823303, 0.06599545478820801, 0.12914085388183594, 0.002974569797515869, -0.20205347641131216, 0.4982418396825202, 0.8424518261138264,0.03470596282393429,0.88165283203125,0.404296875,-0.406890869140625
20220205-1726,2022-02-05 17:27:04Z,u01, 118,40,movements,el-ex, rt, d,13721.724669375, 1.1343461584669245, -0.30829626884288525, 0.26157487304984617, 0.4078823924064636, 1.1400926113128662, -0.22674135863780975, 0.863529622554779, 0.30343568325042725, -0.40279439091682434, -0.0664716362953186, -0.047393232583999634, 0.033623188734054565, -0.19762646061929381, 0.5094571533171324, 0.837062218503593,0.026906691599876298,0.79705810546875,0.25604248046875,-0.369171142578125
20220205-1726,2022-02-05 17:27:04Z,u01, 119,40,movements,el-ex, rt, d,13721.749613375001, 1.160439686636636, -0.3121925280968095, 0.25606309662548143, -0.0911165177822113, 1.0723576545715332, -0.18814902007579803, 0.872654139995575, 0.3071459233760834, -0.37965279817581177, 0.016994357109069824, -0.07209953665733337, -0.020112335681915283, -0.19810142374324316, 0.5205088202104948, 0.8302934317676232,0.02095901301183173,0.919830322265625,0.2432403564453125,-0.4142303466796875
20220205-1726,2022-02-05 17:27:04Z,u01, 120,40,movements,el-ex, rt, d,13721.774558375, 1.1858472606263837, -0.3170038823339947, 0.25892930064991077, -0.1920405626296997, 0.8862168788909912, -0.08978776633739471, 0.8806376457214355, 0.31172114610671997, -0.3568015396595001, 0.10460704565048218, -0.01515132188796997, -0.09896326065063477, -0.20103923048503047, 0.5302663976491793, 0.8234483912863643,0.018264149834731125,0.9852447509765625,0.29656982421875,-0.4557647705078125
20220205-1726,2022-02-05 17:27:04Z,u01, 121,40,movements,el-ex, rt, d,13721.799503375001, 1.2081314861176227, -0.31995979624302573, 0.2611779877605851, -0.04286995530128479, 0.8761784434318542, -0.084714375436306, 0.887503981590271, 0.3145284056663513, -0.3367618918418884, 0.02704674005508423, 0.007554143667221069, -0.07437098026275635, -0.20301006053622858, 0.538893281339861, 0.8173872568777151,0.016095279037064758,0.897247314453125,0.320770263671875,-0.4031982421875
20220205-1726,2022-02-05 17:27:04Z,u01, 122,40,movements,el-ex, rt, d,13721.824448375, 1.2297733596993714, -0.32193707998832316, 0.25809825020001614, 0.2350088655948639, 0.9301595091819763, -0.12340810894966125, 0.8939958214759827, 0.31640470027923584, -0.31726863980293274, -0.019240081310272217, 0.018998682498931885, -0.11629465222358704, -0.20310754174014145, 0.5478257097876271, 0.8114730383353963,0.012073067715557967,0.874755859375,0.3354034423828125,-0.433563232421875
20220205-1726,2022-02-05 17:27:04Z,u01, 123,40,movements,el-ex, rt, d,13721.849392375001, 1.249639030873475, -0.321789245133285, 0.2490350612762298, 0.3164993226528168, 0.8132094740867615, -0.08152377605438232, 0.9001662731170654, 0.31626448035240173, -0.2994621694087982, 0.060115158557891846, -0.0015977025032043457, -0.10599449276924133, -0.20063855914426826, 0.5567881831733207, 0.8060332713511712,0.006446111424087686,0.9823150634765625,0.2931671142578125,-0.400360107421875
20220205-1726,2022-02-05 17:27:04Z,u01, 124,40,movements,el-ex, rt, d,13721.874337375, 1.2659179069480158, -0.32293487408484034, 0.24687379923910438, -0.2882935702800751, 0.5509865283966064, -0.05468697100877762, 0.9045754075050354, 0.3173511028289795, -0.2846604883670807, 0.09145724773406982, -0.06478765606880188, -0.06281274557113647, -0.20052121916839713, 0.5634367750547775, 0.8014469743135875,0.003605693368718632,0.99603271484375,0.2525634765625,-0.34747314453125
20220205-1726,2022-02-05 17:27:04Z,u01, 125,40,movements,el-ex, rt, d,13721.899282375001, 1.283090307809509, -0.3283058404051271, 0.26112903657541103, -0.7368560433387756, 0.5160183310508728, -0.04793405905365944, 0.907682478427887, 0.3224398195743561, -0.2685979902744293, 0.03123641014099121, -0.019262999296188354, -0.030687958002090454, -0.2066756304296161, 0.5683187427698257, 0.796406638378009,0.005943733862653705,0.9238128662109375,0.3174285888671875,-0.28204345703125
20220205-1726,2022-02-05 17:27:04Z,u01, 126,40,movements,el-ex, rt, d,13721.924227375, 1.3032817905230927, -0.33382399665933493, 0.2765400274088878, -0.3998357951641083, 0.6936991810798645, -0.04375149682164192, 0.9111906290054321, 0.3276583254337311, -0.24974289536476135, 0.04249882698059082, 0.03524145483970642, -0.05665367841720581, -0.2132648972824944, 0.5741486169942245, 0.7904448583943354,0.008264384582128553,0.9536895751953125,0.3628997802734375,-0.306396484375
20220205-1726,2022-02-05 17:27:04Z,u01, 127,40,movements,el-ex, rt, d,13721.949171375001, 1.3207349826741654, -0.33439709707409715, 0.2768974558271398, 0.37234944105148315, 0.6620674133300781, 0.004515035077929497, 0.9152284264564514, 0.32819971442222595, -0.23375599086284637, 0.07570785284042358, 0.06298983097076416, -0.11109268665313721, -0.21364971188263185, 0.5809266794004824, 0.7853899947375688,0.006366526127705496,0.9822998046875,0.3856048583984375,-0.3442840576171875
20220205-1726,2022-02-05 17:27:04Z,u01, 128,40,movements,el-ex, rt, d,13721.974116375, 1.331954958452403, -0.33133208784688045, 0.2624342083797063, 0.599949061870575, 0.6347016096115112, -0.04139307141304016, 0.9187664985656738, 0.32530295848846436, -0.2237095683813095, -0.006489396095275879, -0.008713632822036743, -0.08831749856472015, -0.2082860457612386, 0.5871644921752817, 0.7822112695433974,0.0004636115970201027,0.9122772216796875,0.31658935546875,-0.3120269775390625
20220205-1726,2022-02-05 17:27:04Z,u01, 129,40,movements,el-ex, rt, d,13721.999061375001, 1.3439277339742386, -0.3302949442973827, 0.25148129978026185, 0.17378495633602142, 0.5956066250801086, -0.08152104914188385, 0.9217072129249573, 0.32432204484939575, -0.21276937425136566, -0.0041048526763916016, -0.03879961371421814, -0.06545946002006531, -0.20465035043250585, 0.5930712834280936, 0.7786926476297394,-0.0047233762734749385,0.9217987060546875,0.28460693359375,-0.264373779296875
20220205-1726,2022-02-05 17:27:04Z,u01, 130,40,movements,el-ex, rt, d,13722.024006375, 1.3585974316657472, -0.33272176323757596, 0.25145609418749826, -0.13615143299102783, 0.5927762985229492, -0.07415547221899033, 0.9239572286605835, 0.32661673426628113, -0.19905948638916016, 0.047356247901916504, -0.023790806531906128, -0.034934163093566895, -0.2055106229395488, 0.5985278970252763, 0.7742614539102776,-0.006999524043042826,0.9713134765625,0.302825927734375,-0.2339935302734375
20220205-1726,2022-02-05 17:27:04Z,u01, 131,40,movements,el-ex, rt, d,13722.048950375001, 1.3732735954217417, -0.3344856238740785, 0.25344602424179397, -0.01905287615954876, 0.5394798517227173, -0.03232167661190033, 0.9262126088142395, 0.3282833397388458, -0.18536502122879028, 0.08622324466705322, 0.0002231299877166748, -0.04832339286804199, -0.20671026190098557, 0.603811522203978, 0.7698139763882388,-0.008302629685287666,1.0099029541015625,0.337982177734375,-0.2261962890625
20220205-1726,2022-02-05 17:27:04Z,u01, 132,40,movements,el-ex, rt, d,13722.073895375, 1.3855712913372535, -0.3347641888213166, 0.2513111874874273, 0.12065722793340683, 0.5190803408622742, -0.04590299725532532, 0.9283321499824524, 0.3285464644432068, -0.17394417524337769, 0.018078923225402832, 0.005010664463043213, -0.01598203182220459, -0.20610861208616982, 0.6087258461985077, 0.7660693366439563,-0.010480483810190094,0.9464111328125,0.33355712890625,-0.1899261474609375
20220205-1726,2022-02-05 17:27:04Z,u01, 133,40,movements,el-ex, rt, d,13722.098840375002, 1.3983787481735195, -0.3367722269600647, 0.25005582942345617, -0.05383632332086563, 0.5245506763458252, -0.12177039682865143, 0.9298319220542908, 0.3304423689842224, -0.16192713379859924, -0.013923168182373047, -0.019926011562347412, -0.015349507331848145, -0.20639033356644876, 0.6135466244506157, 0.7621000305941802,-0.012926648464852558,0.917327880859375,0.312225341796875,-0.1800079345703125
20220205-1726,2022-02-05 17:27:04Z,u01, 134,40,movements,el-ex, rt, d,13722.123785375, 1.4119925163595637, -0.33967125047260605, 0.2519415711954012, -0.0806894451379776, 0.5109845995903015, -0.08870632201433182, 0.9310003519058228, 0.3331771492958069, -0.14910189807415009, 0.028167128562927246, -0.010118067264556885, -0.04137367010116577, -0.20793963309155172, 0.6182314780810936, 0.7578515550898025,-0.014559591355688462,0.95916748046875,0.32305908203125,-0.1904754638671875
20220205-1726,2022-02-05 17:27:04Z,u01, 135,40,movements,el-ex, rt, d,13722.148729375001, 1.4245032159519853, -0.3423634228067449, 0.25295175222401217, -0.048801615834236145, 0.44983938336372375, -0.10799945890903473, 0.9319020509719849, 0.33571428060531616, -0.13731181621551514, 0.03347569704055786, 0.006570875644683838, -0.03315943479537964, -0.20913633138737367, 0.6225801842485441, 0.7539152832830727,-0.01636105197691562,0.9585418701171875,0.3472900390625,-0.161712646484375
20220205-1726,2022-02-05 17:27:04Z,u01, 136,40,movements,el-ex, rt, d,13722.173674375, 1.4363452108889387, -0.3455400453576542, 0.2538029071916394, -0.05825986713171005, 0.4636339545249939, -0.13441595435142517, 0.932401180267334, 0.3387048542499542, -0.12612327933311462, -0.01135021448135376, 0.008203715085983276, -0.004781946539878845, -0.21044888368723974, 0.62661760852323, 0.7501505091542767,-0.018327107732718756,0.921051025390625,0.3469085693359375,-0.1309051513671875
20220205-1726,2022-02-05 17:27:04Z,u01, 137,40,movements,el-ex, rt, d,13722.198619375002, 1.4483395522080673, -0.34879600066219263, 0.25343657977847617, 0.07719174027442932, 0.5024032592773438, -0.1185234785079956, 0.9327474236488342, 0.3417665660381317, -0.11479562520980835, -0.018639087677001953, 0.010879367589950562, -0.01568235456943512, -0.2113875230850496, 0.6308070246850166, 0.7463008772058718,-0.02080602008619087,0.9189910888671875,0.3511810302734375,-0.132965087890625
20220205-1726,2022-02-05 17:27:04Z,u01, 138,40,movements,el-ex, rt, d,13722.223563375, 1.459410388485413, -0.3508197576971268, 0.24858049914515185, 0.24398787319660187, 0.5098690986633301, -0.09585923701524734, 0.9332715272903442, 0.34366774559020996, -0.1043853834271431, 0.02134859561920166, -0.009210407733917236, -0.03855905681848526, -0.2104493257488982, 0.6352309737658834, 0.742694047469918,-0.024454748268333826,0.954620361328125,0.3344573974609375,-0.1429443359375
20220205-1726,2022-02-05 17:27:04Z,u01, 139,40,movements,el-ex, rt, d,13722.248508375002, 1.4692139476129338, -0.3526203714904408, 0.24217993775278138, 0.17352528870105743, 0.43376100063323975, -0.09898419678211212, 0.9336330890655518, 0.34535813331604004, -0.09516824036836624, 0.030890166759490967, -0.010259866714477539, -0.02143949270248413, -0.20892152816997803, 0.6393494147273782, 0.739441901431461,-0.028456637301206622,0.9600067138671875,0.32977294921875,-0.1127166748046875
20220205-1726,2022-02-05 17:27:04Z,u01, 140,40,movements,el-ex, rt, d,13722.273453000002, 1.4788731970349476, -0.3549134881345531, 0.2401613293372784, -0.058819860219955444, 0.38923388719558716, -0.10649071633815765, 0.9337177276611328, 0.3475092351436615, -0.08607282489538193, 0.0005320906639099121, -0.007970690727233887, -0.022157907485961914, -0.20894427822394301, 0.6428886958434687, 0.7362584879927099,-0.030981451319681136,0.9342498779296875,0.33953857421875,-0.1082305908203125
20220205-1726,2022-02-05 17:27:04Z,u01, 141,40,movements,el-ex, rt, d,13722.298398, 1.4892419029296056, -0.3572535155498681, 0.24181385424718388, -0.004726434592157602, 0.3951239287853241, -0.06376968324184418, 0.9337469339370728, 0.34970247745513916, -0.07632046937942505, 0.014083266258239746, -0.0029923319816589355, -0.0472758412361145, -0.2101387703049549, 0.6462828029435821, 0.7328847250161743,-0.03225174167611866,0.9536590576171875,0.3514862060546875,-0.1255340576171875
20220205-1726,2022-02-05 17:27:04Z,u01, 142,40,movements,el-ex, rt, d,13722.323342000002, 1.4974858393122135, -0.35834817841496336, 0.23889385113836883, 0.1987840086221695, 0.34452003240585327, -0.03276502341032028, 0.9339619278907776, 0.3507278263568878, -0.0685921311378479, 0.01989537477493286, 0.0018417537212371826, -0.05324935168027878, -0.20943968753314812, 0.6494913031789418, 0.7301382022234335,-0.034556263287689404,0.953857421875,0.352569580078125,-0.1218414306640625
20220205-1726,2022-02-05 17:27:04Z,u01, 143,40,movements,el-ex, rt, d,13722.348287, 1.5041357860228408, -0.359185552964712, 0.23254745892748263, 0.2369939386844635, 0.36377087235450745, -0.07088850438594818, 0.9341041445732117, 0.3515118658542633, -0.062360282987356186, -0.006110429763793945, -0.013178765773773193, -0.04898315668106079, -0.2075468139067371, 0.6524907492109276, 0.7278376570435459,-0.03784812632844073,0.9263458251953125,0.340850830078125,-0.1099853515625
20220205-1726,2022-02-05 17:27:04Z,u01, 144,40,movements,el-ex, rt, d,13722.373232000002, 1.5114217072889669, -0.3605338402034294, 0.2273292408408934, 0.14856813848018646, 0.3456913232803345, -0.0720210149884224, 0.9340597987174988, 0.3527738153934479, -0.055524710565805435, 0.014075517654418945, -0.008764445781707764, -0.059099435806274414, -0.20616773531044788, 0.6555398619186312, 0.7253170273058583,-0.04095850437296275,0.9481353759765625,0.3440093994140625,-0.1146240234375
20220205-1726,2022-02-05 17:27:04Z,u01, 145,40,movements,el-ex, rt, d,13722.398177000001, 1.5175482540709726, -0.3617762206375474, 0.22332121997438006, 0.15980269014835358, 0.2429383397102356, -0.03231115639209747, 0.9339439868927002, 0.3539360463619232, -0.04977777227759361, 0.03447026014328003, -0.011269450187683105, -0.07073622941970825, -0.20515487902462523, 0.6580445190531689, 0.7231870805990985,-0.04346614721887773,0.971954345703125,0.343231201171875,-0.1234588623046875
20220205-1726,2022-02-05 17:27:04Z,u01, 146,40,movements,el-ex, rt, d,13722.423121000002, 1.5208541681283836, -0.3621683363451039, 0.21898962016219817, 0.15179386734962463, 0.1647617071866989, -0.029587075114250183, 0.933964729309082, 0.3543027341365814, -0.04668303579092026, 0.022654473781585693, -0.012704282999038696, -0.08718240261077881, -0.20379073080722393, 0.6596421913548289, 0.7219908964247475,-0.04550394031195987,0.9566192626953125,0.3415985107421875,-0.1338653564453125
20220205-1726,2022-02-05 17:27:04Z,u01, 147,40,movements,el-ex, rt, d,13722.448066, 1.5236933586984458, -0.36311419650775134, 0.21588893725428374, 0.07654235512018204, 0.1247473657131195, -0.05562673136591911, 0.9337584972381592, 0.3551870882511139, -0.04401535168290138, 0.01805424690246582, -0.00858372449874878, -0.08043539524078369, -0.20302969938062046, 0.6608867260865466, 0.7209552111785597,-0.04723687503428137,0.9589691162109375,0.3438568115234375,-0.1281585693359375
20220205-1726,2022-02-05 17:27:04Z,u01, 148,40,movements,el-ex, rt, d,13722.473011, 1.5255886361950524, -0.3646743386323951, 0.2150200999524751, -0.02586561068892479, 0.038216277956962585, -0.06736002117395401, 0.9332853555679321, 0.3566450774669647, -0.04222043976187706, 0.02579045295715332, -0.01857137680053711, -0.1008765697479248, -0.20323838496561028, 0.6615012760191924, 0.7202632447465006,-0.04828017165150389,0.959075927734375,0.33807373046875,-0.143096923828125
20220205-1726,2022-02-05 17:27:04Z,u01, 149,40,movements,el-ex, rt, d,13722.497956000001, 1.5255247016140594, -0.365701284159252, 0.2158430294048983, -0.02412053942680359, -0.06873833388090134, -0.02194054052233696, 0.9329163432121277, 0.3576042950153351, -0.042263519018888474, 0.03175950050354004, -0.02975398302078247, -0.1173434853553772, -0.20386805022789178, 0.6612912062816046, 0.7202748246529517,-0.04833138863658182,0.9635009765625,0.3270416259765625,-0.1620941162109375
20220205-1726,2022-02-05 17:27:04Z,u01, 150,40,movements,el-ex, rt, d,13722.5229, 1.5199641520506588, -0.3646906534137924, 0.21587185728386998, -0.06999991089105606, -0.16190803050994873, 0.013296741060912609, 0.933027446269989, 0.35666030645370483, -0.04746870696544647, 0.025071918964385986, -0.02542254328727722, -0.11454916000366211, -0.20365985499832007, 0.6593847972349681, 0.7221405662254003,-0.04740647923347885,0.958099365234375,0.33123779296875,-0.162017822265625
20220205-1726,2022-02-05 17:27:04Z,u01, 151,40,movements,el-ex, rt, d,13722.547845000001, 1.5143798649779192, -0.3637660857205091, 0.21795241872760787, -0.1204800009727478, -0.23456545174121857, -0.0008062934502959251, 0.9330766201019287, 0.3557963967323303, -0.05269680172204971, 0.02819657325744629, -0.022529184818267822, -0.11083173751831055, -0.204152959070352, 0.6572466571535404, 0.7240536956494235,-0.0457674335396244,0.9660491943359375,0.3362274169921875,-0.1646270751953125
20220205-1726,2022-02-05 17:27:04Z,u01, 152,40,movements,el-ex, rt, d,13722.57279, 1.505907375305926, -0.36253876668739826, 0.22104779178769376, -0.21274009346961975, -0.32099634408950806, 0.001319575123488903, 0.9330317974090576, 0.3546491265296936, -0.06062857434153557, 0.03335309028625488, -0.026920855045318604, -0.09736102819442749, -0.20492784908887274, 0.6539803440384798, 0.726934965152155,-0.04335809323925069,0.9663848876953125,0.327728271484375,-0.157989501953125
20220205-1726,2022-02-05 17:27:04Z,u01, 153,40,movements,el-ex, rt, d,13722.597735000001, 1.4975491506886152, -0.3618752219373223, 0.22722338168071973, -0.2657976746559143, -0.3979935944080353, 0.01863844320178032, 0.9327268600463867, 0.3540286123752594, -0.06844205409288406, 0.02990436553955078, -0.0102480947971344, -0.09124130755662918, -0.20688333721394614, 0.650367786136709, 0.7298076831361191,-0.04002237673006362,0.964019775390625,0.3403472900390625,-0.166351318359375
20220205-1726,2022-02-05 17:27:05Z,u01, 154,40,movements,el-ex, rt, d,13722.622679, 1.4862264711803943, -0.36008036207327876, 0.23229636932796902, -0.18384133279323578, -0.47648605704307556, 0.04622739180922508, 0.9325237274169922, 0.3523494303226471, -0.07905194908380508, 0.02076900005340576, -0.00660058856010437, -0.09392177313566208, -0.20811199817413947, 0.6458818945571905, 0.7336226431256251,-0.03638288579486862,0.9532928466796875,0.3457489013671875,-0.1729736328125
20220205-1726,2022-02-05 17:27:05Z,u01, 155,40,movements,el-ex, rt, d,13722.647624000001, 1.4760807669510447, -0.3592834648256999, 0.23761126124892604, -0.2199469357728958, -0.5216752886772156, 0.07001568377017975, 0.931952953338623, 0.35160353779792786, -0.0885353609919548, 0.026298880577087402, -0.023295462131500244, -0.07802968472242355, -0.20971734384330054, 0.6416782347738668, 0.737002038122054,-0.033100172266921524,0.9607086181640625,0.3257904052734375,-0.162200927734375
20220205-1726,2022-02-05 17:27:05Z,u01, 156,40,movements,el-ex, rt, d,13722.672569, 1.466313371207404, -0.3587651374479808, 0.24528371839234664, -0.28690335154533386, -0.5425992012023926, 0.0765339657664299, 0.931225061416626, 0.351118266582489, -0.09765274822711945, 0.037860751152038574, -0.007688671350479126, -0.06085564196109772, -0.212138447153146, 0.6373153876751957, 0.7402579575462085,-0.02906246620036551,0.969085693359375,0.3434295654296875,-0.15850830078125
20220205-1726,2022-02-05 17:27:05Z,u01, 157,40,movements,el-ex, rt, d,13722.697514000001, 1.4557446139043697, -0.3576868511792376, 0.25166741373451973, -0.15384244918823242, -0.5381074547767639, 0.08055520802736282, 0.9305164217948914, 0.35010841488838196, -0.10753239691257477, 0.03808093070983887, 0.007343918085098267, -0.05785775184631348, -0.21392475830674718, 0.6328269910913678, 0.743727585013976,-0.025208261366420043,0.9680328369140625,0.3593902587890625,-0.1693572998046875
20220205-1726,2022-02-05 17:27:05Z,u01, 158,40,movements,el-ex, rt, d,13722.722458, 1.4435172769850133, -0.35602558978955545, 0.254358230479117, 0.0018768394365906715, -0.5987303256988525, 0.0929410308599472, 0.9297077059745789, 0.34855180978775024, -0.11897547543048859, 0.04049181938171387, 0.01138770580291748, -0.08114361763000488, -0.21432365944470147, 0.6281541470561266, 0.7476552895803338,-0.02234434631059745,0.9701995849609375,0.3599395751953125,-0.2001190185546875
20220205-1726,2022-02-05 17:27:05Z,u01, 159,40,movements,el-ex, rt, d,13722.747403000001, 1.4280692163111612, -0.3537721634612956, 0.25315053813029464, 0.12984861433506012, -0.6379105448722839, 0.10450867563486099, 0.9285339713096619, 0.34643882513046265, -0.1334342658519745, 0.04258108139038086, 0.0066495537757873535, -0.08368313312530518, -0.2132990363104765, 0.6227249683240015, 0.7525296018377838,-0.0204031879670116,0.974884033203125,0.342041015625,-0.22137451171875
20220205-1726,2022-02-05 17:27:05Z,u01, 160,40,movements,el-ex, rt, d,13722.772348, 1.411894818210275, -0.3514342963742065, 0.25137453120245107, 0.006021351553499699, -0.6710402369499207, 0.08486519753932953, 0.9270516037940979, 0.3442448079586029, -0.14856238663196564, 0.053264498710632324, -0.006384670734405518, -0.05758392810821533, -0.2120572372522906, 0.6170498629198387, 0.7575853401726204,-0.01858997635591797,0.980316162109375,0.337860107421875,-0.206146240234375
20220205-1726,2022-02-05 17:27:05Z,u01, 161,40,movements,el-ex, rt, d,13722.797292000001, 1.39543261533847, -0.34953593102029545, 0.25230778288835537, -0.004451496992260218, -0.6659370064735413, 0.07334470003843307, 0.9251223802566528, 0.34246182441711426, -0.16391663253307343, 0.04318523406982422, -0.0012600123882293701, -0.06853581964969635, -0.2117908797139319, 0.6108897691663111, 0.7626967689052282,-0.0158763483263889,0.9691009521484375,0.3474273681640625,-0.2352752685546875
20220205-1726,2022-02-05 17:27:05Z,u01, 162,40,movements,el-ex, rt, d,13722.822237, 1.3784369820430464, -0.34761040329035076, 0.25191561973905935, 0.06530650705099106, -0.7191441059112549, 0.06653972715139389, 0.9228485226631165, 0.34065210819244385, -0.17974095046520233, 0.06125187873840332, 0.01380959153175354, -0.060310378670692444, -0.2110870247660541, 0.6046253308185746, 0.7679096364301897,-0.013612221420579912,0.984100341796875,0.354461669921875,-0.24005126953125
20220205-1726,2022-02-05 17:27:05Z,u01, 163,40,movements,el-ex, rt, d,13722.847182000001, 1.3597444202692102, -0.34649874365678934, 0.25092679506785526, 0.03206110745668411, -0.7480438947677612, 0.021819988265633583, 0.9196974039077759, 0.33960673213005066, -0.1970381736755371, 0.057811081409454346, -0.005942791700363159, -0.04012930393218994, -0.21049476825073427, 0.5976394123592885, 0.7735521738600284,-0.011670378767938111,0.9767913818359375,0.3351593017578125,-0.2445068359375
20220205-1726,2022-02-05 17:27:05Z,u01, 164,40,movements,el-ex, rt, d,13722.872127, 1.3404116343544616, -0.3462252365604084, 0.2507323197071644, 0.009568382985889912, -0.7756152153015137, 0.014240233227610588, 0.915806770324707, 0.3393494486808777, -0.21480172872543335, 0.06200689077377319, -0.0006653964519500732, -0.046001553535461426, -0.2104374617126113, 0.5901823523355483, 0.7792997844192703,-0.009625606408802445,0.977813720703125,0.33868408203125,-0.26080322265625
20220205-1726,2022-02-05 17:27:05Z,u01, 165,40,movements,el-ex, rt, d,13722.897071000001, 1.3207186032891647, -0.3457020961354634, 0.2505317814914605, -0.02814660593867302, -0.8040286302566528, 0.01435987651348114, 0.911571204662323, 0.3388573229312897, -0.23283782601356506, 0.06576937437057495, -0.007772177457809448, -0.036800310015678406, -0.21026518351290827, 0.5825544115154099, 0.7850878908422484,-0.007470564312393013,0.9720458984375,0.3278656005859375,-0.2614288330078125
20220205-1726,2022-02-05 17:27:05Z,u01, 166,40,movements,el-ex, rt, d,13722.922016, 1.301133487652273, -0.3453828511487983, 0.2523463607915144, -0.07361611723899841, -0.8248104453086853, 0.04475952684879303, 0.906940758228302, 0.3385569453239441, -0.2506740689277649, 0.06022220849990845, -0.00794479250907898, -0.027005404233932495, -0.2107276734139593, 0.5746797515122236, 0.790769122912962,-0.00459653337319052,0.9671630859375,0.3306121826171875,-0.277679443359375
20220205-1726,2022-02-05 17:27:05Z,u01, 167,40,movements,el-ex, rt, d,13722.946961000001, 1.2804172680538513, -0.3440849020742263, 0.25298040497332913, 0.05097750946879387, -0.8671333193778992, 0.052049729973077774, 0.9019737839698792, 0.33733534812927246, -0.2695329189300537, 0.0585668683052063, -0.008218616247177124, -0.023908942937850952, -0.21044328462723058, 0.5665219943286628, 0.7967203031142691,-0.001770879645099921,0.9605712890625,0.335235595703125,-0.30413818359375
20220205-1726,2022-02-05 17:27:05Z,u01, 168,40,movements,el-ex, rt, d,13722.971906, 1.2576623802611004, -0.3424623738598759, 0.2520041022499628, -0.0475936084985733, -0.937265932559967, 0.0439450666308403, 0.8961272835731506, 0.3358075022697449, -0.2901539206504822, 0.045248448848724365, -0.023322761058807373, -0.0323101282119751, -0.20954659543801282, 0.5576856336268358, 0.8031665300155043,0.0007119877173498712,0.941375732421875,0.3124847412109375,-0.3224639892578125
20220205-1726,2022-02-05 17:27:05Z,u01, 169,40,movements,el-ex, rt, d,13722.996850000001, 1.2358409339742962, -0.3431061719368462, 0.2561017624600624, -0.15820015966892242, -0.9254103302955627, 0.029957346618175507, 0.8893783688545227, 0.33641383051872253, -0.3095669150352478, 0.056468069553375244, 0.01023527979850769, -0.013965219259262085, -0.21090286538367323, 0.5483944998536866, 0.8091744900303578,0.004468134126746293,0.951507568359375,0.3549652099609375,-0.331787109375
20220205-1726,2022-02-05 17:27:05Z,u01, 170,40,movements,el-ex, rt, d,13723.021795, 1.2135235258833539, -0.3432253390193032, 0.25895081072500403, 0.022903893142938614, -0.9594303369522095, 0.03006633371114731, 0.8822113275527954, 0.3365260660648346, -0.32932284474372864, 0.07199710607528687, 0.03189742565155029, -0.04492959380149841, -0.2116549999727917, 0.5390183141386643, 0.8152290328742408,0.007948288545955973,0.9542083740234375,0.3684234619140625,-0.3742523193359375
20220205-1726,2022-02-05 17:27:05Z,u01, 171,40,movements,el-ex, rt, d,13723.046740000002, 1.1883604157526355, -0.3412491406726479, 0.25476874536972804, 0.2603161931037903, -0.9593520164489746, 0.010392230935394764, 0.8742614388465881, 0.3346644639968872, -0.35166290402412415, 0.04337167739868164, 0.02239122986793518, -0.05788305401802063, -0.20964393512579016, 0.5293561802161484, 0.8220354422703645,0.009450182487557746,0.9149322509765625,0.3455047607421875,-0.4123077392578125
20220205-1726,2022-02-05 17:27:05Z,u01, 172,40,movements,el-ex, rt, d,13723.071685, 1.1614033963333896, -0.3380768794861998, 0.2453715594459596, 0.4073813557624817, -0.9318621158599854, -0.06369857490062714, 0.8654346466064453, 0.33167344331741333, -0.3755204379558563, 0.06086534261703491, 0.06427684426307678, -0.03553617000579834, -0.20578105764424667, 0.5195131697345681, 0.8292614372693562,0.009257845682673738,0.926300048828125,0.3959503173828125,-0.4110565185546875
20220205-1726,2022-02-05 17:27:05Z,u01, 173,40,movements,el-ex, rt, d,13723.096629000001, 1.1346134069101537, -0.33583018382341584, 0.23393299038024815, 0.4539887607097626, -0.925214946269989, -0.12920287251472473, 0.8557383418083191, 0.32955309748649597, -0.3988817036151886, 0.11592602729797363, 0.06459665298461914, -0.02682328224182129, -0.20181202924898844, 0.5097362526842876, 0.8362890434394753,0.007840610803599768,0.9745025634765625,0.3904266357421875,-0.4344024658203125
20220205-1726,2022-02-05 17:27:05Z,u01, 174,40,movements,el-ex, rt, d,13723.121574, 1.1069140510062359, -0.333179750935606, 0.22059929898947792, 0.5951505899429321, -0.9361199736595154, -0.09344848245382309, 0.8451408743858337, 0.3270495533943176, -0.4228183627128601, 0.07484191656112671, 0.020148903131484985, -0.04670986533164978, -0.19726672023056113, 0.49967654994000105, 0.8434313345005086,0.005715999689788975,0.91998291015625,0.347198486328125,-0.4695281982421875
20220205-1726,2022-02-05 17:27:05Z,u01, 175,40,movements,el-ex, rt, d,13723.146519000002, 1.0776903596654757, -0.3268845966169645, 0.20337820785229116, 0.7236878871917725, -0.9799776673316956, -0.0767267644405365, 0.8342225551605225, 0.3210941553115845, -0.4482981860637665, 0.054449260234832764, -0.013629615306854248, -0.026219725608825684, -0.19033479316510227, 0.4895136110311377, 0.8509645296595656,0.0029030432610056,0.8871612548828125,0.2952728271484375,-0.4868316650390625
20220205-1726,2022-02-05 17:27:05Z,u01, 176,40,movements,el-ex, rt, d,13723.171464000001, 1.04679559431648, -0.31803675693120737, 0.18513078948650472, 0.6932299733161926, -1.0299384593963623, 0.035848457366228104, 0.8224042654037476, 0.31270238757133484, -0.47525617480278015, 0.06501632928848267, -0.04045504331588745, -0.03704249858856201, -0.1821806936403533, 0.47872968027964397, 0.8588527138154151,0.00024062696281945684,0.887420654296875,0.272247314453125,-0.512298583984375
20220205-1726,2022-02-05 17:27:05Z,u01, 177,40,movements,el-ex, rt, d,13723.196408000002, 1.0174692936537668, -0.311652603868418, 0.17625733048140954, 0.17635178565979004, -1.0789343118667603, 0.03948060795664787, 0.8097971081733704, 0.30663204193115234, -0.500205397605896, 0.06958210468292236, -0.05521300435066223, -0.019051313400268555, -0.17736667213467247, 0.46737390618210195, 0.8660844547347218,0.0006386596938986466,0.880645751953125,0.25830078125,-0.5249786376953125
20220205-1726,2022-02-05 17:27:05Z,u01, 178,40,movements,el-ex, rt, d,13723.221353, 0.9893606564871246, -0.309833169022818, 0.1756318989739668, -0.020869117230176926, -1.1749153137207031, 0.07915991544723511, 0.7958838939666748, 0.30489975214004517, -0.5230726599693298, 0.08186262845993042, -0.000273287296295166, -0.01902639865875244, -0.17641572487403076, 0.45534730115477173, 0.8726542982428815,0.0032943290884509535,0.87774658203125,0.30462646484375,-0.5420989990234375
20220205-1726,2022-02-05 17:27:05Z,u01, 179,40,movements,el-ex, rt, d,13723.246298, 0.9602441978623467, -0.30839553990942364, 0.17727687855308824, -0.0457649789750576, -1.1988261938095093, 0.061853423714637756, 0.7806769609451294, 0.3035302758216858, -0.5462716817855835, 0.06452250480651855, 0.0015996694564819336, 0.011786818504333496, -0.17609011216639045, 0.4425566961251338, 0.879254126210528,0.0069207541425812535,0.8396148681640625,0.3055877685546875,-0.5377197265625
20220205-1726,2022-02-05 17:27:05Z,u01, 180,40,movements,el-ex, rt, d,13723.271243166668, 0.9303527008492884, -0.30754430663728066, 0.1781150744744599, 0.08059632033109665, -1.2159316539764404, 0.050649307668209076, 0.7642087340354919, 0.3027190864086151, -0.5695140361785889, 0.06969928741455078, 0.0467987060546875, -0.004216492176055908, -0.17577513136344125, 0.42935543910903395, 0.8858073850695594,0.010116023235038685,0.8339080810546875,0.349517822265625,-0.57373046875
20220205-1726,2022-02-05 17:27:05Z,u01, 181,40,movements,el-ex, rt, d,13723.296187166667, 0.899227191127084, -0.3040398593199838, 0.17663375615238538, 0.13392677903175354, -1.224409580230713, 0.08252814412117004, 0.7469409108161926, 0.2993772029876709, -0.5936771631240845, 0.0604320764541626, 0.023254603147506714, 0.010699808597564697, -0.17374525490097442, 0.4159014436636521, 0.8925640765205984,0.01296020544365506,0.7994537353515625,0.30560302734375,-0.576141357421875
20220205-1726,2022-02-05 17:27:05Z,u01, 182,40,movements,el-ex, rt, d,13723.321132166668, 0.8691916933986595, -0.3024724489904528, 0.1773655052460412, -0.06663264334201813, -1.2228906154632568, 0.08058037608861923, 0.7291327714920044, 0.2978813350200653, -0.6161428093910217, 0.07698893547058105, 0.007218092679977417, 0.03389793634414673, -0.17298277180134816, 0.4024991353133228, 0.8987812665581187,0.016231125216278786,0.806121826171875,0.3050994873046875,-0.582244873046875
20220205-1726,2022-02-05 17:27:05Z,u01, 183,40,movements,el-ex, rt, d,13723.346077166667, 0.8394799397681368, -0.30266035475227315, 0.1811809073400338, -0.14864352345466614, -1.24360191822052, 0.08807577192783356, 0.7104653120040894, 0.29806068539619446, -0.6374941468238831, 0.0740346908569336, 0.017948776483535767, 0.04226404428482056, -0.17354848081666527, 0.3887593843291562, 0.9046144453341822,0.020485979508886754,0.7727813720703125,0.3165435791015625,-0.60260009765625
20220205-1726,2022-02-05 17:27:05Z,u01, 184,40,movements,el-ex, rt, d,13723.371022166668, 0.8099348333184963, -0.30231114529728037, 0.18445283525702275, 0.025747548788785934, -1.195954442024231, 0.10849523544311523, 0.6913985013961792, 0.2977273464202881, -0.6582753658294678, 0.05876922607421875, 0.042009562253952026, 0.030208349227905273, -0.17368374581953253, 0.3750950321606812, 0.91023734151424,0.024606464561937214,0.7501678466796875,0.3397369384765625,-0.6280670166015625
20220205-1726,2022-02-05 17:27:05Z,u01, 185,40,movements,el-ex, rt, d,13723.395966166667, 0.7804441879100477, -0.2972965160517398, 0.18315840549507587, 0.29442769289016724, -1.1617152690887451, 0.11878901720046997, 0.6727297902107239, 0.29293638467788696, -0.6794283986091614, 0.07325708866119385, 0.04672423005104065, 0.0426485538482666, -0.1707977416738311, 0.3620965729263823, 0.9159452462106038,0.02754288164939117,0.7452239990234375,0.3443603515625,-0.64141845703125
20220205-1726,2022-02-05 17:27:05Z,u01, 186,40,movements,el-ex, rt, d,13723.420911166668, 0.750547612515297, -0.2873698703179506, 0.17823710709129031, 0.5565412044525146, -1.1124895811080933, 0.15358906984329224, 0.6540707349777222, 0.28343093395233154, -0.7013261914253235, 0.05830109119415283, 0.06300461292266846, 0.013536214828491211, -0.16498229811457593, 0.349453512426492, 0.9218363416037668,0.029678372382218265,0.712371826171875,0.346435546875,-0.6877899169921875
20220205-1726,2022-02-05 17:27:05Z,u01, 187,40,movements,el-ex, rt, d,13723.445856166667, 0.7212640757638755, -0.27297667578826873, 0.16962714989330518, 0.6785443425178528, -1.0543495416641235, 0.11555753648281097, 0.6358840465545654, 0.2695990800857544, -0.7231651544570923, 0.053492724895477295, 0.06842884421348572, 0.01855999231338501, -0.15646875117770265, 0.33754253905542975, 0.9277073622959201,0.030685525868730135,0.6851806640625,0.33447265625,-0.70794677734375
20220205-1726,2022-02-05 17:27:05Z,u01, 188,40,movements,el-ex, rt, d,13723.470801166668, 0.6928403865934167, -0.25862827291144136, 0.1600780656145928, 0.729040801525116, -1.0248982906341553, 0.05710434541106224, 0.6174823641777039, 0.255754679441452, -0.7438448071479797, 0.03176379203796387, 0.06367278099060059, -0.013540506362915039, -0.14782531802826152, 0.32592218074334545, 0.9332554044875558,0.030932026109818933,0.6492462158203125,0.319427490234375,-0.75738525390625
20220205-1726,2022-02-05 17:27:05Z,u01, 189,40,movements,el-ex, rt, d,13723.495745166667, 0.6651059850586079, -0.2399989305515146, 0.14751871301846609, 1.1122140884399414, -0.9524341225624084, 0.13106970489025116, 0.5994541645050049, 0.23770159482955933, -0.7642988562583923, 0.04217791557312012, 0.09500102698802948, -0.04937613010406494, -0.13672968458077633, 0.31488977705501764, 0.9387431455369859,0.030179640841249522,0.6452178955078125,0.3300323486328125,-0.8192596435546875
20220205-1726,2022-02-05 17:27:05Z,u01, 190,40,movements,el-ex, rt, d,13723.520690166668, 0.6375876109767912, -0.20905760484846309, 0.12844501010260997, 1.7194061279296875, -0.926698625087738, 0.1619727611541748, 0.5822981595993042, 0.20753811299800873, -0.7860386967658997, 0.07558447122573853, 0.07641266286373138, -0.05328631401062012, -0.11888218196306312, 0.30470916499997414, 0.9445828161593602,0.02797752512096857,0.6578826904296875,0.2839508056640625,-0.839324951171875
20220205-1726,2022-02-05 17:27:05Z,u01, 191,40,movements,el-ex, rt, d,13723.545635166667, 0.6099985826473346, -0.16903377868948696, 0.10435644440872388, 1.8390612602233887, -0.9254847168922424, 0.14728869497776031, 0.5647016763687134, 0.16822998225688934, -0.8079670071601868, 0.06896519660949707, 0.042860060930252075, -0.015931308269500732, -0.09601638807849922, 0.2946139034765813, 0.9504710188193484,0.024254814512937484,0.62646484375,0.194000244140625,-0.8191680908203125
20220205-1726,2022-02-05 17:27:05Z,u01, 192,40,movements,el-ex, rt, d,13723.570580166668, 0.5830389503687704, -0.13723645516944588, 0.08712321458685902, 1.0034042596817017, -1.026018738746643, 0.19033290445804596, 0.5453868508338928, 0.13680608570575714, -0.8269444704055786, 0.07935363054275513, -0.044643014669418335, -0.025548815727233887, -0.07809578664970568, 0.2835997160980628, 0.9555058360628991,0.02192505872391365,0.6247406005859375,0.0921630859375,-0.8524932861328125
20220205-1726,2022-02-05 17:27:05Z,u01, 193,40,movements,el-ex, rt, d,13723.595524166667, 0.5556680369185413, -0.1217255846841875, 0.08294918054731022, 0.3063114285469055, -1.1300091743469238, 0.20306667685508728, 0.5236076712608337, 0.12142520397901535, -0.8432620763778687, 0.09725707769393921, -0.026362977921962738, -0.013930916786193848, -0.06979344387528562, 0.2711048547629752, 0.9597374457795312,0.02313045913540046,0.619598388671875,0.09869384765625,-0.855194091796875
20220205-1726,2022-02-05 17:27:06Z,u01, 194,40,movements,el-ex, rt, d,13723.620469166668, 0.5268688205180306, -0.11482005688466629, 0.08550101457577028, 0.11676637828350067, -1.193972110748291, 0.24448975920677185, 0.49951836466789246, 0.11456793546676636, -0.8586941361427307, 0.10247132182121277, 0.005839139223098755, 0.0070400238037109375, -0.066458818278848, 0.2573638508880967, 0.9636686177428297,0.026267525652653667,0.60198974609375,0.1204071044921875,-0.851654052734375
20220205-1726,2022-02-05 17:27:06Z,u01, 195,40,movements,el-ex, rt, d,13723.645414166667, 0.49708783657730693, -0.10872838598356549, 0.08888177274140555, 0.20145955681800842, -1.2221535444259644, 0.21620537340641022, 0.47405189275741577, 0.10851428657770157, -0.8737845420837402, 0.09491777420043945, 0.04534006118774414, 0.012639522552490234, -0.06352811602065324, 0.24304711221566158, 0.9674779083687616,0.02964407512008771,0.563201904296875,0.16241455078125,-0.8629608154296875
20220205-1726,2022-02-05 17:27:06Z,u01, 196,40,movements,el-ex, rt, d,13723.670358166668, 0.46655663874337766, -0.09994703435478329, 0.08946749873915148, 0.3507533669471741, -1.2260359525680542, 0.14239734411239624, 0.44756880402565, 0.09978071600198746, -0.8886652588844299, 0.0860309898853302, 0.06505995988845825, 0.02033334970474243, -0.0588757399682517, 0.22847539590138594, 0.971243502426119,0.03191731928647629,0.533599853515625,0.1648406982421875,-0.8683319091796875
20220205-1726,2022-02-05 17:27:06Z,u01, 197,40,movements,el-ex, rt, d,13723.695303166667, 0.43559049337254185, -0.09289557157096616, 0.0892094548653485, 0.09410983324050903, -1.2408322095870972, 0.09318764507770538, 0.4201265275478363, 0.09276202321052551, -0.9027119874954224, 0.06757482886314392, 0.020229294896125793, 0.04434400796890259, -0.05491361085608532, 0.21360831340718553, 0.9748004318648591,0.033466867757295515,0.475799560546875,0.104522705078125,-0.8575592041015625
20220205-1726,2022-02-05 17:27:06Z,u01, 198,40,movements,el-ex, rt, d,13723.720248166668, 0.4054286382237647, -0.09357195307189214, 0.0914460337473301, -0.14819061756134033, -1.2038089036941528, 0.04134002700448036, 0.39268726110458374, 0.09343546628952026, -0.9149133563041687, 0.06489324569702148, 0.027688786387443542, 0.0510064959526062, -0.05495546811359357, 0.19880443686085586, 0.9778595475479473,0.03531609733409369,0.45758056640625,0.121124267578125,-0.8639068603515625
20220205-1726,2022-02-05 17:27:06Z,u01, 199,40,movements,el-ex, rt, d,13723.745193166667, 0.37507123588902547, -0.09562349612041034, 0.09351892881465437, -0.07512350380420685, -1.2228630781173706, 0.04039879888296127, 0.3646652102470398, 0.09547783434391022, -0.9262306690216064, 0.08594200015068054, 0.03547307848930359, 0.050467729568481445, -0.055608846944905775, 0.18382686184539937, 0.9806878651140055,0.036969591334788277,0.439849853515625,0.126220703125,-0.8687744140625
20220205-1726,2022-02-05 17:27:06Z,u01, 200,40,movements,el-ex, rt, d,13723.770137166668, 0.34456127680804804, -0.09743811898499823, 0.09433798431845304, -0.06856180727481842, -1.221148133277893, -0.024708695709705353, 0.33618155121803284, 0.09728401154279709, -0.9367591738700867, 0.0563201904296875, 0.01720266044139862, 0.07082289457321167, -0.0559990628572556, 0.16877353324040367, 0.9833265962871885,0.038059066381119555,0.3925018310546875,0.1144866943359375,-0.865936279296875
20220205-1726,2022-02-05 17:27:06Z,u01, 201,40,movements,el-ex, rt, d,13723.795082166667, 0.31472218855520845, -0.09789331358253478, 0.09327293460042294, 0.0532725527882576, -1.1678919792175293, -0.0694749653339386, 0.30807027220726013, 0.09773703664541245, -0.9463298320770264, 0.05919346213340759, 0.03687598556280136, 0.08237719535827637, -0.05556715777350658, 0.15410179767940618, 0.9857463607071021,0.038329248515128866,0.3611602783203125,0.140655517578125,-0.8614654541015625
20220205-1726,2022-02-05 17:27:06Z,u01, 202,40,movements,el-ex, rt, d,13723.820027166668, 0.2859112907753731, -0.09621566863180782, 0.09164416414285682, 0.06665509939193726, -1.1459213495254517, -0.027782849967479706, 0.28072741627693176, 0.09606728702783585, -0.9549676179885864, 0.05838385224342346, -0.010450229048728943, 0.09424984455108643, -0.05406717694386883, 0.1399747265673248, 0.9879300949456852,0.038442286944961324,0.339111328125,0.0856170654296875,-0.8607177734375
20220205-1726,2022-02-05 17:27:06Z,u01, 203,40,movements,el-ex, rt, d,13723.844972166668, 0.25753998435864905, -0.09694969671506319, 0.09167434135844418, -0.1034422516822815, -1.120249629020691, 0.020350724458694458, 0.2535063624382019, 0.0967978909611702, -0.9624783992767334, 0.05862736701965332, -0.015819519758224487, 0.1008756160736084, -0.053881385194931485, 0.1259269272609458, 0.9898003781102351,0.039172473494558824,0.3075103759765625,0.0814208984375,-0.8690338134765625
20220205-1726,2022-02-05 17:27:06Z,u01, 204,40,movements,el-ex, rt, d,13723.869916166668, 0.2304406800597486, -0.10028224192177797, 0.09262870343163213, -0.17946451902389526, -1.0725494623184204, -0.018511321395635605, 0.2272590547800064, 0.10011424124240875, -0.9686746001243591, 0.049153849482536316, 0.008299432694911957, 0.10455411672592163, -0.05505036654900278, 0.11239289331885507, 0.9913238928566716,0.04017710782198736,0.2764129638671875,0.1084136962890625,-0.8641204833984375
20220205-1726,2022-02-05 17:27:06Z,u01, 205,40,movements,el-ex, rt, d,13723.919806166667, 0.1783674922968211, -0.1073214033815307, 0.09302954949466084, -0.04369400814175606, -1.0125008821487427, -0.010581959038972855, 0.17640241980552673, 0.1071154996752739, -0.9784725308418274, 0.05250987410545349, 0.014374949038028717, 0.11072045564651489, -0.05749942286040466, 0.08635716558518075, 0.9937384554378029,0.041474685510972,0.26666259765625,0.130584716796875,-0.863677978515625
20220205-1726,2022-02-05 17:27:06Z,u01, 206,40,movements,el-ex, rt, d,13723.894861166667, 0.2041532612405902, -0.10453839377333264, 0.09299723621138423, -0.16843274235725403, -1.0448662042617798, -0.03404068201780319, 0.20163129270076752, 0.1043480932712555, -0.9738872051239014, 0.06446665525436401, 0.02333742380142212, 0.11355090141296387, -0.05664727850221997, 0.09923447775401616, 0.9926097747275229,0.040858737657985256,0.228912353515625,0.121490478515625,-0.8677520751953125
20220205-1726,2022-02-05 17:27:06Z,u01, 207,40,movements,el-ex, rt, d,13723.944751166668, 0.1545375266655008, -0.10597257304544647, 0.09247374314768607, 0.17543019354343414, -0.8995261788368225, -0.018435154110193253, 0.1530596762895584, 0.10577433556318283, -0.9825398325920105, 0.05349850654602051, 0.02761797606945038, 0.0900837779045105, -0.0563098754629912, 0.07456058671140862, 0.9947418649955754,0.04193398670053572,0.20538330078125,0.136688232421875,-0.899658203125
20220205-1726,2022-02-05 17:27:06Z,u01, 208,40,movements,el-ex, rt, d,13723.969695166668, 0.13262188653835397, -0.09995807579789494, 0.09123430209649962, 0.2932185232639313, -0.8506885170936584, -0.005650583654642105, 0.1315733939409256, 0.09979169815778732, -0.9862707853317261, 0.048571810126304626, 0.0028694123029708862, 0.07498538494110107, -0.05281445753101784, 0.0638376140963231, 0.9956705713324393,0.04213738625585872,0.180145263671875,0.1026611328125,-0.911285400390625
20220205-1726,2022-02-05 17:27:06Z,u01, 209,40,movements,el-ex, rt, d,13723.994640166668, 0.11228405380117329, -0.09254762551779216, 0.09018499420067552, 0.3178738057613373, -0.7455799579620361, -0.006846076343208551, 0.11156875640153885, 0.09241557121276855, -0.989450216293335, 0.033816926181316376, -0.0005424246191978455, 0.08747273683547974, -0.048664164192573134, 0.05391363260163888, 0.9964588709324145,0.04236504400680574,0.135009765625,0.0991668701171875,-0.8957366943359375
20220205-1726,2022-02-05 17:27:06Z,u01, 210,40,movements,el-ex, rt, d,13724.019585166667, 0.09548086764456902, -0.08409614415019673, 0.08911529683024656, 0.4087984561920166, -0.5959775447845459, -0.014792749658226967, 0.09499894082546234, 0.08399705588817596, -0.9919272661209106, 0.022936180233955383, 0.041491203010082245, 0.09994423389434814, -0.04406992870985389, 0.04576254033951818, 0.9970765380431035,0.042448783006590995,0.1179351806640625,0.12548828125,-0.8919830322265625
20220205-1726,2022-02-05 17:27:06Z,u01, 211,40,movements,el-ex, rt, d,13724.044530166668, 0.08047987955338864, -0.07232535573595278, 0.08709398892753498, 0.49758994579315186, -0.6309706568717957, -0.03647727146744728, 0.08018285781145096, 0.07226231694221497, -0.9941573739051819, 0.05313313007354736, 0.02611108124256134, 0.07551723718643188, -0.037841437335141476, 0.038592004726621165, 0.9976539081123375,0.042016456876991126,0.1379852294921875,0.086517333984375,-0.9066314697265625
20220205-1726,2022-02-05 17:27:06Z,u01, 212,40,movements,el-ex, rt, d,13724.069474166667, 0.0636347366552259, -0.06272963927710853, 0.08550359721582766, 0.22763656079769135, -0.6889382600784302, -0.034053727984428406, 0.06346672028303146, 0.06268850713968277, -0.9960131049156189, 0.04340578615665436, -0.025350265204906464, 0.1263384222984314, -0.03267410197024928, 0.030427704222607408, 0.9981321462683872,0.04169943175760049,0.10687255859375,0.0373382568359375,-0.8696746826171875
20220205-1726,2022-02-05 17:27:06Z,u01, 213,40,movements,el-ex, rt, d,13724.094419166668, 0.0468944279071151, -0.06194256370045539, 0.0843817095695166, -0.07993137091398239, -0.6382037401199341, -0.042366255074739456, 0.04678734019398689, 0.061902958899736404, -0.9969849586486816, 0.04223237931728363, 3.244355320930481e-05, 0.15045785903930664, -0.03191866751824336, 0.022107217868548232, 0.9983871259617607,0.04142115962130688,0.0832672119140625,0.069854736328125,-0.8398284912109375
20220205-1726,2022-02-05 17:27:06Z,u01, 214,40,movements,el-ex, rt, d,13724.119364166667, 0.031885899721956316, -0.06322000398944226, 0.08278406913184425, 0.02393040992319584, -0.5753020644187927, -0.07541321963071823, 0.03181681036949158, 0.06317789852619171, -0.9974949955940247, 0.022077180445194244, 0.015557438135147095, 0.18307238817214966, -0.032233019627434675, 0.014613017451332028, 0.9985382911080892,0.04085086793418169,0.05389404296875,0.0787353515625,-0.814422607421875
20220205-1726,2022-02-05 17:27:06Z,u01, 215,40,movements,el-ex, rt, d,13724.144309166668, 0.018457174378452235, -0.062200303162800376, 0.08121189081091201, -0.00981240626424551, -0.49254679679870605, -0.050503142178058624, 0.01842043548822403, 0.06216020509600639, -0.9978961944580078, 0.019589154049754143, -0.009456362575292587, 0.2436542510986328, -0.03144262823730804, 0.007954143187572555, 0.9986616785532118,0.04028670420820252,0.0409393310546875,0.04962158203125,-0.7363433837890625
20220205-1726,2022-02-05 17:27:06Z,u01, 216,40,movements,el-ex, rt, d,13724.169253166667, 0.007149449331834862, -0.06608743004359953, 0.08031145859104323, -0.2436542510986328, -0.40347909927368164, -0.02920304797589779, 0.00713378144428134, 0.06603933125734329, -0.9977915287017822, 0.022605545818805695, -0.03782585263252258, 0.2513620853424072, -0.03315428885693723, 0.0022435974470778903, 0.9986467110393809,0.040004764440634444,0.0297393798828125,0.0282135009765625,-0.746429443359375
20220205-1726,2022-02-05 17:27:06Z,u01, 217,40,movements,el-ex, rt, d,13724.194198166668, -0.0011598920268963788, -0.07194469710761352, 0.07961958222692632, -0.18309104442596436, -0.26049718260765076, -0.02210678905248642, -0.001156891230493784, 0.07188265025615692, -0.9974124431610107, 0.006695777177810669, -0.00021213293075561523, 0.27336764335632324, -0.03591302565781285, -0.0020104763588910234, 0.9985602135401394,0.03979436588656898,0.000274658203125,0.0715789794921875,-0.7167816162109375
20220205-1726,2022-02-05 17:27:06Z,u01, 218,40,movements,el-ex, rt, d,13724.219143166667, -0.004710978967759246, -0.07629829317698868, 0.07862414059630199, -0.17141275107860565, -0.08700888603925705, -0.0541338287293911, -0.004697255790233612, 0.07622428983449936, -0.997079610824585, -0.003115295898169279, -0.011679641902446747, 0.30426961183547974, -0.0380178137746456, -0.00385092298432161, 0.9984940192013785,0.03936301055171482,-0.0078125,0.064544677734375,-0.69281005859375
20220205-1726,2022-02-05 17:27:06Z,u01, 219,40,movements,el-ex, rt, d,13724.244088166668, -0.00572902825324539, -0.08283445711402371, 0.07785023965849368, -0.33387792110443115, -0.006648201495409012, -0.008229656144976616, -0.005709353368729353, 0.08273976296186447, -0.9965548515319824, 0.014116892591118813, -0.024466469883918762, 0.3024325370788574, -0.04126247543828856, -0.004471181546695751, 0.998376919569363,0.03900027355228303,0.0081787109375,0.058441162109375,-0.7012481689453125
20220205-1726,2022-02-05 17:27:06Z,u01, 220,40,movements,el-ex, rt, d,13724.269030291667, -0.004576731340815068, -0.09286386899488483, 0.07791707662525937, -0.4426559805870056, 0.10970257222652435, 0.013452403247356415, -0.00455699535086751, 0.09273045510053635, -0.9956808090209961, -0.005971621721982956, -0.03387732803821564, 0.2856893539428711, -0.04629088309495765, -0.004091971806958129, 0.9981574189990499,0.039012742490584174,-0.010528564453125,0.0588531494140625,-0.709991455078125
20220205-1726,2022-02-05 17:27:06Z,u01, 221,40,movements,el-ex, rt, d,13724.293975291668, 0.00044356118067986796, -0.10356759330260337, 0.07828456642817591, -0.3785114288330078, 0.28728124499320984, 0.0153212770819664, 0.00044118441292084754, 0.10338254272937775, -0.9946415424346924, -0.012037917971611023, 0.005061648786067963, 0.28216296434402466, -0.051729677630722996, -0.0018041995058087346, 0.997894965467099,0.039068362790703914,-0.00604248046875,0.1197662353515625,-0.715179443359375
20220205-1726,2022-02-05 17:27:06Z,u01, 222,40,movements,el-ex, rt, d,13724.318920291667, 0.009527231139367171, -0.10996531443684751, 0.07866316508105378, -0.12797066569328308, 0.4260593354701996, 0.00018573366105556488, 0.009469542652368546, 0.10974382609128952, -0.993914783000946, 0.017889410257339478, 0.015347696840763092, 0.2577850818634033, -0.055098863303557684, 0.0025918366832171236, 0.997715574246913,0.03899999558088718,0.0273590087890625,0.125091552734375,-0.7361297607421875
20220205-1726,2022-02-05 17:27:06Z,u01, 223,40,movements,el-ex, rt, d,13724.343865291668, 0.02101887660500084, -0.11303361705859927, 0.0789385739367036, -0.16434985399246216, 0.49225273728370667, 0.026723600924015045, 0.02088320627808571, 0.11279307305812836, -0.9933990240097046, 0.021169962361454964, 0.01074206829071045, 0.2495025396347046, -0.056853642186537594, 0.008255504901837822, 0.9975940636429352,0.038800693588283086,0.042144775390625,0.1131744384765625,-0.7494964599609375
20220205-1726,2022-02-05 17:27:06Z,u01, 224,40,movements,el-ex, rt, d,13724.368809291667, 0.0347370098125828, -0.11880981882347813, 0.07975782237967564, -0.2767644226551056, 0.5994691848754883, 0.022159742191433907, 0.034485191106796265, 0.11853049695491791, -0.9923514127731323, 0.01901206746697426, 0.0048978254199028015, 0.21885287761688232, -0.06000502229632157, 0.014956586406120865, 0.9973330729677727,0.0387617167287192,0.053497314453125,0.1234283447265625,-0.77349853515625
20220205-1726,2022-02-05 17:27:06Z,u01, 225,40,movements,el-ex, rt, d,13724.393754291668, 0.05109376324612686, -0.12479250659803363, 0.08044503336530505, -0.2058316171169281, 0.7064721584320068, -0.00012845266610383987, 0.050674378871917725, 0.1244688555598259, -0.9909286499023438, 0.0164184607565403, 0.011929444968700409, 0.19431304931640625, -0.06331018269582796, 0.022967162223864346, 0.996985357125167,0.03852879077099003,0.0676116943359375,0.1384124755859375,-0.79815673828125
20220205-1726,2022-02-05 17:27:06Z,u01, 226,40,movements,el-ex, rt, d,13724.418699291668, 0.06945827619049384, -0.12987344268818773, 0.08031687280319795, -0.20890559256076813, 0.7667362689971924, -0.038192279636859894, 0.06881795078516006, 0.12950865924358368, -0.9891873598098755, 0.02041538804769516, 0.007652580738067627, 0.155096173286438, -0.06619075083815572, 0.03201738539982765, 0.9965770596319905,0.037787525213600515,0.0892333984375,0.1371612548828125,-0.8340911865234375
20220205-1726,2022-02-05 17:27:06Z,u01, 227,40,movements,el-ex, rt, d,13724.443644291667, 0.08921668056039157, -0.13453748183128572, 0.08017782792945802, -0.13998033106327057, 0.8242911696434021, -0.0071819014847278595, 0.08829323202371597, 0.13413198292255402, -0.9870222210884094, 0.02265337109565735, 0.0007709413766860962, 0.11542493104934692, -0.068880387621396, 0.041765648361355504, 0.9960650352098277,0.03695267289304649,0.1122589111328125,0.1365966796875,-0.877197265625
20220205-1726,2022-02-05 17:27:06Z,u01, 228,40,movements,el-ex, rt, d,13724.468588291667, 0.11032691729375858, -0.13704169447809647, 0.0804556895084724, -0.06494460254907608, 0.8587542176246643, 0.005731433629989624, 0.10907096415758133, 0.1366131454706192, -0.984601616859436, 0.020079374313354492, -0.0037854015827178955, 0.07453691959381104, -0.07051996560643552, 0.052212242363929504, 0.9954817449463333,0.0362896688797919,0.129150390625,0.1328277587890625,-0.910064697265625
20220205-1726,2022-02-05 17:27:06Z,u01, 229,40,movements,el-ex, rt, d,13724.493533291667, 0.13201257090217022, -0.1392673665649702, 0.08072801597775812, -0.12068186700344086, 0.8651871681213379, -0.0019141687080264091, 0.13035503029823303, 0.13881760835647583, -0.9817011952400208, 0.03227308392524719, -0.0005119740962982178, 0.06464797258377075, -0.07202453783408627, 0.06294338305121468, 0.9947785460543195,0.03558212098008462,0.1733551025390625,0.1384124755859375,-0.9207916259765625
20220205-1726,2022-02-05 17:27:06Z,u01, 230,40,movements,el-ex, rt, d,13724.518478291668, 0.1540133319195482, -0.1436194841763771, 0.08107679972479437, -0.19859424233436584, 0.8852370381355286, -0.007278840523213148, 0.15182578563690186, 0.14312626421451569, -0.977989673614502, 0.05136018991470337, -0.00929144024848938, 0.06740617752075195, -0.07458640021535784, 0.07377013999020093, 0.9938734857695679,0.034787972826853086,0.20318603515625,0.1338348388671875,-0.91058349609375
20220205-1726,2022-02-05 17:27:06Z,u01, 231,40,movements,el-ex, rt, d,13724.543423291667, 0.17721274662711553, -0.14669753424570198, 0.0812361861680418, 0.027919858694076538, 0.9880151152610779, -0.008798706345260143, 0.1743931919336319, 0.1461719423532486, -0.9737662672996521, 0.007720395922660828, 0.037635400891304016, 0.0516318678855896, -0.07651899161502532, 0.08521563318275813, 0.9928426463736585,0.03385937046524612,0.1798248291015625,0.1873779296875,-0.931732177734375
20220205-1726,2022-02-05 17:27:06Z,u01, 232,40,movements,el-ex, rt, d,13724.568367291668, 0.20314547116124204, -0.141609952355457, 0.0797507762753425, 0.3457883894443512, 1.082496166229248, -0.040910504758358, 0.19973160326480865, 0.14113713800907135, -0.9696327447891235, 0.037450969219207764, 0.046622246503829956, 0.01858288049697876, -0.0743573412068583, 0.09825796636114598, 0.991850382852775,0.03239218781262976,0.2371826171875,0.1877593994140625,-0.9510498046875
20220205-1726,2022-02-05 17:27:06Z,u01, 233,40,movements,el-ex, rt, d,13724.593312291667, 0.22911029240887357, -0.1328252548920856, 0.07624960720033834, 0.3238395154476166, 1.0113624334335327, -0.07808224111795425, 0.22511069476604462, 0.13243503868579865, -0.9652907252311707, 0.06007601320743561, 0.019008412957191467, -0.0019791722297668457, -0.0702281322694516, 0.11145698539913332, 0.9908244672330139,0.030202085795972222,0.2889251708984375,0.1413726806640625,-0.9650421142578125
20220205-1726,2022-02-05 17:27:07Z,u01, 234,40,movements,el-ex, rt, d,13724.618257291668, 0.25276215458870943, -0.12972794365919949, 0.07292828323469584, -0.058037061244249344, 0.9289220571517944, -0.11494764685630798, 0.24797791242599487, 0.12936437129974365, -0.9600894451141357, 0.05291008949279785, -0.02970924973487854, 0.03470492362976074, -0.06884424066509517, 0.12335207041557349, 0.9895780764423813,0.02792464429119318,0.3008880615234375,0.0996551513671875,-0.925384521484375
20220205-1726,2022-02-05 17:27:07Z,u01, 235,40,movements,el-ex, rt, d,13724.643202291667, 0.27552821061648186, -0.13574258114414883, 0.07205942338740783, -0.2887672185897827, 0.9169072508811951, -0.07936994731426239, 0.26955264806747437, 0.1353261023759842, -0.9534296989440918, 0.05864858627319336, -0.020152777433395386, 0.029372692108154297, -0.07206850032517359, 0.1345038140463193, 0.9879390905265536,0.026290997427233065,0.3240966796875,0.119293212890625,-0.925537109375
20220205-1726,2022-02-05 17:27:07Z,u01, 236,40,movements,el-ex, rt, d,13724.668146291668, 0.29941291960219135, -0.14227785415089983, 0.07201156399408183, -0.17070189118385315, 0.9902968406677246, -0.05656569451093674, 0.2919788956642151, 0.14179831743240356, -0.9458549618721008, 0.029035449028015137, 0.024110466241836548, 0.047569990158081055, -0.075593801504095, 0.1461441280470539, 0.9860563095919802,0.024910927597881993,0.321014404296875,0.1659088134765625,-0.898284912109375
20220205-1726,2022-02-05 17:27:07Z,u01, 237,40,movements,el-ex, rt, d,13724.693091291667, 0.32406521622374146, -0.14685861684914006, 0.07163614811556754, -0.2610929012298584, 0.9659159183502197, -0.08451077342033386, 0.3149951696395874, 0.1463312953710556, -0.9377447366714478, 0.04668384790420532, 0.014053821563720703, 0.06996214389801025, -0.07811748286327021, 0.15819385700311012, 0.9840344306733289,0.023418400249669236,0.3738555908203125,0.153594970703125,-0.865966796875
20220205-1726,2022-02-05 17:27:07Z,u01, 238,40,movements,el-ex, rt, d,13724.718036291668, 0.3479635940736835, -0.1561303765025741, 0.07281199158920841, -0.43957236409187317, 0.9375335574150085, -0.0657607913017273, 0.3368365466594696, 0.15549682080745697, -0.9286344051361084, 0.06012079119682312, 0.001622915267944336, 0.0537106990814209, -0.08303919543784463, 0.16966817506946638, 0.9817444155634456,0.022248448604371474,0.3969573974609375,0.1571197509765625,-0.8749237060546875
20220205-1726,2022-02-05 17:27:07Z,u01, 239,40,movements,el-ex, rt, d,13724.742981291667, 0.3725899272260871, -0.16428532857629596, 0.07477464696885185, -0.1928471177816391, 1.0282326936721802, -0.038768522441387177, 0.359127402305603, 0.1635473221540451, -0.9188469648361206, 0.0426211953163147, 0.031047984957695007, 0.036217570304870605, -0.08747416808251467, 0.1814518575573942, 0.9792674101765788,0.021421329276913537,0.3991546630859375,0.2071990966796875,-0.8798065185546875
20220205-1726,2022-02-05 17:27:07Z,u01, 240,40,movements,el-ex, rt, d,13724.767925291668, 0.3992452397444017, -0.16672841042292097, 0.07462143618502054, -0.03147262707352638, 1.0872987508773804, -0.0611463338136673, 0.38333261013031006, 0.1659570187330246, -0.9085782170295715, 0.01606610417366028, 0.036618635058403015, 0.011605560779571533, -0.08892860628087576, 0.19442891766885276, 0.976673730472961,0.019933883325253976,0.3993988037109375,0.20257568359375,-0.89697265625
20220205-1726,2022-02-05 17:27:07Z,u01, 241,40,movements,el-ex, rt, d,13724.792870291667, 0.42550898945760174, -0.16895547836591823, 0.07371162811758693, -0.12804463505744934, 1.032299280166626, -0.07080148905515671, 0.40690678358078003, 0.1681527942419052, -0.8978593945503235, 0.051772356033325195, 0.006468728184700012, 0.012391865253448486, -0.09017155015520492, 0.20721822872795623, 0.9739622925826987,0.018083802578536756,0.474334716796875,0.166351318359375,-0.88916015625
20220205-1726,2022-02-05 17:27:07Z,u01, 242,40,movements,el-ex, rt, d,13724.817815291668, 0.4510234085546275, -0.17412908405251595, 0.07396798572844727, -0.22488294541835785, 1.0088317394256592, -0.06657724827528, 0.42929527163505554, 0.1732504516839981, -0.8863914608955383, 0.08669587969779968, 0.0020119845867156982, -0.01885145902633667, -0.09293153732988675, 0.21947207488556641, 0.9710429163174511,0.016472629676900108,0.5159912109375,0.175262451171875,-0.905242919921875
20220205-1726,2022-02-05 17:27:07Z,u01, 243,40,movements,el-ex, rt, d,13724.842760291667, 0.4766559841845133, -0.17858957969560688, 0.07498122048229963, -0.11927817761898041, 1.0401936769485474, -0.03062131442129612, 0.4515132009983063, 0.17764176428318024, -0.8744022250175476, 0.03508949279785156, 0.016633108258247375, -0.004916012287139893, -0.09540802453597172, 0.2317244174891448, 0.9679714655048134,0.015239498805811436,0.47845458984375,0.1925048828125,-0.877960205078125
20220205-1726,2022-02-05 17:27:07Z,u01, 244,40,movements,el-ex, rt, d,13724.867704291668, 0.503048981257392, -0.182551279075498, 0.07617027194244703, -0.23661768436431885, 1.0392862558364868, -0.03625063598155975, 0.4740883409976959, 0.18153904378414154, -0.8615589141845703, 0.0452597439289093, 0.0015358924865722656, 0.0030994415283203125, -0.09765377864437583, 0.24430365463507386, 0.9646666828584024,0.014055552220551715,0.51934814453125,0.183074951171875,-0.85845947265625
20220205-1726,2022-02-05 17:27:07Z,u01, 245,40,movements,el-ex, rt, d,13724.892649291667, 0.5288827480619082, -0.19034131089014844, 0.07927604274998794, -0.4050455391407013, 0.9853551387786865, -0.048741597682237625, 0.49545639753341675, 0.18919405341148376, -0.8477786183357239, 0.08810067176818848, 0.011672630906105042, 0.0027620792388916016, -0.10196234986902918, 0.2563481542600422, 0.9611001304934434,0.013259316883863503,0.597503662109375,0.201629638671875,-0.8465728759765625
20220205-1726,2022-02-05 17:27:07Z,u01, 246,40,movements,el-ex, rt, d,13724.917594291668, 0.5538756742681326, -0.1990593715010492, 0.08347457536992096, -0.3227814733982086, 0.9810172915458679, -0.05205836519598961, 0.5156007409095764, 0.1977473646402359, -0.8336977362632751, 0.05236184597015381, 0.030646175146102905, -0.02663862705230713, -0.10684777616131275, 0.26783333745382154, 0.9574368253089454,0.012792706793071096,0.567962646484375,0.2283935546875,-0.8603363037109375
20220205-1726,2022-02-05 17:27:07Z,u01, 247,40,movements,el-ex, rt, d,13724.942539291667, 0.579221801819137, -0.2034603694815061, 0.08478556139475442, -0.060880716890096664, 1.0426594018936157, -0.06097189709544182, 0.5360823273658752, 0.2020595222711563, -0.8196265697479248, -0.0034285783767700195, 0.0304691344499588, -0.027648210525512695, -0.10927842344206308, 0.27972296815102893, 0.9537728911661576,0.011429287920277864,0.54052734375,0.2320556640625,-0.839385986328125
20220205-1726,2022-02-05 17:27:07Z,u01, 248,40,movements,el-ex, rt, d,13724.967483291668, 0.6056840053997807, -0.20606593129812154, 0.0845566302643078, -0.14281322062015533, 1.0573245286941528, -0.054101407527923584, 0.5572795867919922, 0.2046106606721878, -0.8047198057174683, 0.08567994832992554, 0.003015667200088501, -0.013548016548156738, -0.11062081202569124, 0.29223814331343867, 0.9498789949430538,0.009482190833820625,0.6429595947265625,0.2076263427734375,-0.818267822265625
20220205-1726,2022-02-05 17:27:07Z,u01, 249,40,movements,el-ex, rt, d,13724.992428291667, 0.6314027486283446, -0.21029131931905257, 0.08623644256622176, -0.1765010803937912, 0.9614712595939636, -0.019471656531095505, 0.5772739052772522, 0.2087448090314865, -0.7894178032875061, 0.11202657222747803, 0.012980639934539795, -0.05660581588745117, -0.11298187310523056, 0.30418119841418556, 0.9458550604547762,0.008192719605921994,0.682586669921875,0.2282867431640625,-0.8531951904296875
20220205-1726,2022-02-05 17:27:07Z,u01, 250,40,movements,el-ex, rt, d,13725.017373291668, 0.6555477984588822, -0.2132586663231147, 0.08750192213835307, -0.07725606858730316, 0.9564841389656067, -0.048152435570955276, 0.5957841277122498, 0.21164585649967194, -0.7747563123703003, 0.0037336349487304688, 0.017358019948005676, -0.05967062711715698, -0.11466547688210682, 0.3153944862799022, 0.941981894657288,0.0069432769399107586,0.599517822265625,0.22900390625,-0.8344268798828125
