SessionID,LoggingTime,UID,RecNo,Hertz,Activity,MoveType,Wrist,Side,TimeStamp,DMRoll,DMPitch,DMYaw,DMRotX,DMRotY,DMRotZ,DMGrvX,DMGrvY,DMGrvZ,DMUAccelX,DMUAccelY,DMUAccelZ,DMQuatX,DMQuatY,DMQuatW,DMQuatZ,AccelroX,AceelroY,AceelroZ
20220209-1358,2022-02-09 13:58:59Z,u01, 1,40,movements,el-ex, lt, d,15956.132659791667, 1.381398130771242, -0.44871545098256355, 0.3728393907757617, -0.07541326433420181, -0.13768811523914337, 0.046239838004112244, 0.8848931789398193, 0.43380850553512573, -0.16963034868240356, 0.02195197343826294, -0.019166111946105957, -0.06738436222076416, -0.2836342697958615, 0.5785641078728132, 0.764732180353347,2.7755575615628914e-17,0.9068450927734375,0.414642333984375,-0.2370147705078125
20220209-1358,2022-02-09 13:58:59Z,u01, 2,40,movements,el-ex, lt, d,15956.157605791668, 1.3764160312594362, -0.44592770429481976, 0.3749232463100818, -0.11352036893367767, -0.21101944148540497, 0.06157684698700905, 0.8852201104164124, 0.4312950372695923, -0.17426975071430206, 0.02188432216644287, -0.020604729652404785, -0.07365499436855316, -0.2832392881549616, 0.5767500613384412, 0.7662435099956587,0.002397469975647132,0.90545654296875,0.4098358154296875,-0.2438507080078125
20220209-1358,2022-02-09 13:58:59Z,u01, 3,40,movements,el-ex, lt, d,15956.182551791668, 1.3702991650966223, -0.4431911922491947, 0.37793767732855793, -0.10122288763523102, -0.3581200838088989, 0.15519773960113525, 0.8852909207344055, 0.4288245141506195, -0.1799156218767166, 0.21799588203430176, -0.05083373188972473, -0.1092689037322998, -0.2831168895527515, 0.5743579173307984, 0.7680689119077339,0.00529463821992876,1.1032867431640625,0.37799072265625,-0.2891845703125
20220209-1358,2022-02-09 13:58:59Z,u01, 4,40,movements,el-ex, lt, d,15956.207498791668, 1.3646387701541935, -0.44063285400385255, 0.3815886822009058, -0.09145811200141907, -0.2780483365058899, 0.11419152468442917, 0.8853293061256409, 0.4265119433403015, -0.18514777719974518, 0.0650186538696289, -0.01913273334503174, -0.07721173763275146, -0.28322727293204863, 0.5720213478690825, 0.7697433715399676,0.008314966345167984,0.9194793701171875,0.419586181640625,-0.232635498046875
20220209-1358,2022-02-09 13:58:59Z,u01, 5,40,movements,el-ex, lt, d,15956.232444791667, 1.3578721987691884, -0.43735165535674386, 0.3827694760739114, 0.042461905628442764, -0.28079161047935486, 0.1351674497127533, 0.8854194283485413, 0.4235418736934662, -0.19142885506153107, 0.022081851959228516, 0.004055231809616089, -0.04982781410217285, -0.2823529152391189, 0.5697037855422427, 0.7717503700933487,0.010768801298033093,0.907501220703125,0.4275970458984375,-0.2412567138671875
20220209-1358,2022-02-09 13:58:59Z,u01, 6,40,movements,el-ex, lt, d,15956.257390791669, 1.3493736370591565, -0.43315264337483916, 0.3808731971653691, 0.14919769763946533, -0.3173791170120239, 0.14657703042030334, 0.8854878544807434, 0.4197343587875366, -0.1993354707956314, 0.03164184093475342, 0.0002028346061706543, -0.05627968907356262, -0.28024913826168707, 0.5672677380952571, 0.774280422185179,0.012558859215844292,0.91632080078125,0.41644287109375,-0.256866455078125
20220209-1358,2022-02-09 13:58:59Z,u01, 7,40,movements,el-ex, lt, d,15956.282337791668, 1.3400227831146474, -0.42889531130183234, 0.3782964351831562, 0.08403997123241425, -0.35634201765060425, 0.13370484113693237, 0.8853166699409485, 0.4158664345741272, -0.20801353454589844, 0.02076554298400879, -0.01184418797492981, -0.03661531209945679, -0.2779132920177758, 0.5645860768809, 0.7770489677998037,0.014203369491326556,0.9060821533203125,0.404022216796875,-0.24462890625
20220209-1358,2022-02-09 13:58:59Z,u01, 8,40,movements,el-ex, lt, d,15956.307283791668, 1.3316396472071919, -0.426126990497471, 0.3798388431812394, -0.11552859097719193, -0.38916537165641785, 0.12951155006885529, 0.8846569061279297, 0.4133472442626953, -0.21569974720478058, 0.017488539218902588, -0.017168015241622925, -0.026792868971824646, -0.2772737489458349, 0.5614885512100026, 0.7794655824043648,0.016833323403634887,0.9022674560546875,0.39813232421875,-0.24127197265625
20220209-1358,2022-02-09 13:58:59Z,u01, 9,40,movements,el-ex, lt, d,15956.332229791667, 1.3238255880856036, -0.4238829143605563, 0.3844974349730947, -0.11916957050561905, -0.42055290937423706, 0.14586329460144043, 0.8838416337966919, 0.4113028049468994, -0.2228320688009262, 0.02573484182357788, 0.002134084701538086, -0.031196177005767822, -0.27768442927566883, 0.5580997440285946, 0.7816639829303154,0.020434535052818475,0.909576416015625,0.4134368896484375,-0.2540283203125
20220209-1358,2022-02-09 13:58:59Z,u01, 10,40,movements,el-ex, lt, d,15956.357175791667, 1.3145279946140727, -0.4209491923984784, 0.38770554582126715, -0.03494446724653244, -0.4393625855445862, 0.16596849262714386, 0.8828950524330139, 0.4086269736289978, -0.23134475946426392, 0.02340078353881836, 0.004855722188949585, -0.02526223659515381, -0.2773974692019427, 0.5544170474981894, 0.7842842078635018,0.023889906155288188,0.9052734375,0.4129486083984375,-0.2587127685546875
20220209-1358,2022-02-09 13:58:59Z,u01, 11,40,movements,el-ex, lt, d,15956.382122791667, 1.304411674021984, -0.4177104181809788, 0.3899350498596049, -0.06233870983123779, -0.47102874517440796, 0.15932704508304596, 0.8817816972732544, 0.40566879510879517, -0.24061153829097748, 0.021553874015808105, -0.0003648102283477783, -0.02139703929424286, -0.2766911901146185, 0.5505780739566621, 0.7871263091137616,0.02716511755691095,0.9033355712890625,0.405303955078125,-0.2620086669921875
20220209-1358,2022-02-09 13:58:59Z,u01, 12,40,movements,el-ex, lt, d,15956.407068791668, 1.29378167894817, -0.4148074543921303, 0.3935857354876976, -0.11465604603290558, -0.5092396140098572, 0.16184492409229279, 0.8803032636642456, 0.4030137360095978, -0.2502921223640442, 0.018576741218566895, 0.0012679100036621094, -0.003339409828186035, -0.2764637579011109, 0.5462798958781249, 0.7900553040560159,0.0309636100364461,0.9004058837890625,0.404937744140625,-0.2539825439453125
20220209-1358,2022-02-09 13:58:59Z,u01, 13,40,movements,el-ex, lt, d,15956.432014791668, 1.2831159609953076, -0.41193678423025243, 0.39830246284144954, -0.1229800209403038, -0.5113723278045654, 0.17774640023708344, 0.8786896467208862, 0.4003848433494568, -0.2599940001964569, 0.02975773811340332, 0.009023785591125488, -6.145238876342773e-05, -0.27650392927442474, 0.5418012296198199, 0.7929437244450982,0.035178276200287434,0.908447265625,0.4094085693359375,-0.2600555419921875
20220209-1358,2022-02-09 13:58:59Z,u01, 14,40,movements,el-ex, lt, d,15956.456961791668, 1.2720059632124565, -0.40847608653730044, 0.4018327963299247, -0.023314476013183594, -0.5138627290725708, 0.17535501718521118, 0.8770657777786255, 0.3972112536430359, -0.2701462209224701, 0.03168672323226929, 0.024251818656921387, 0.0017289519309997559, -0.2759587649462056, 0.5373766353887526, 0.7959520166127914,0.03916119090512682,0.908935546875,0.421539306640625,-0.271331787109375
20220209-1358,2022-02-09 13:59:00Z,u01, 15,40,movements,el-ex, lt, d,15956.481907791667, 1.2601139026363952, -0.4048771947329967, 0.403593087870228, -0.023907795548439026, -0.5219986438751221, 0.16443318128585815, 0.8751465678215027, 0.3939058780670166, -0.28099218010902405, 0.023046791553497314, 0.009917974472045898, -0.0036451518535614014, -0.27483756096392503, 0.5328866963184165, 0.7991764202968505,0.042580824214051294,0.898193359375,0.4038238525390625,-0.284637451171875
20220209-1358,2022-02-09 13:59:00Z,u01, 16,40,movements,el-ex, lt, d,15956.506853791667, 1.2482166463191136, -0.4017863582710324, 0.40627026280434464, -0.07081867754459381, -0.5315848588943481, 0.14240971207618713, 0.8728922009468079, 0.39106306433677673, -0.2917684316635132, 0.02292078733444214, 0.008167892694473267, 0.006108790636062622, -0.2741191890151276, 0.5281803183216865, 0.8023398086010444,0.04620619945179805,0.894805908203125,0.402313232421875,-0.2894287109375
20220209-1358,2022-02-09 13:59:00Z,u01, 17,40,movements,el-ex, lt, d,15956.531800791669, 1.2362678964377813, -0.3990184475593098, 0.4087191203242021, 0.017349494621157646, -0.5205748677253723, 0.14674606919288635, 0.8703628778457642, 0.38851407170295715, -0.3025315999984741, 0.032911717891693115, 0.03618380427360535, -0.024128466844558716, -0.2734288925557365, 0.523422246455397, 0.8054820028396461,0.04964444975012927,0.9032745361328125,0.4246978759765625,-0.32666015625
20220209-1358,2022-02-09 13:59:00Z,u01, 18,40,movements,el-ex, lt, d,15956.556746791668, 1.2229371945487462, -0.3948663139025548, 0.40767676057622015, 0.1476605236530304, -0.5240598320960999, 0.15303120017051697, 0.8677617311477661, 0.38468480110168457, -0.3146541118621826, 0.025243639945983887, 0.02904200553894043, -0.02357211709022522, -0.2712374406742714, 0.5187515778496052, 0.8090712965141508,0.052256286373568384,0.8882598876953125,0.40863037109375,-0.3368072509765625
20220209-1358,2022-02-09 13:59:00Z,u01, 19,40,movements,el-ex, lt, d,15956.581692791668, 1.2091633498973096, -0.39063882551762524, 0.4057619341332858, 0.10576597601175308, -0.5481187701225281, 0.14225158095359802, 0.8648589849472046, 0.3807792067527771, -0.32714876532554626, 0.026574790477752686, 0.003955960273742676, -0.023223459720611572, -0.2687562556826032, 0.5139996999947296, 0.8127711142299807,0.054567589981674325,0.8914337158203125,0.384735107421875,-0.350372314453125
20220209-1358,2022-02-09 13:59:00Z,u01, 20,40,movements,el-ex, lt, d,15956.606639791667, 1.1947242331210028, -0.38699939975406006, 0.40590837672072755, -0.00577612966299057, -0.620522141456604, 0.15272286534309387, 0.8613285422325134, 0.377411425113678, -0.3401087522506714, 0.03851282596588135, 0.011001110076904297, -0.021600723266601562, -0.2669864148833355, 0.5085900825559825, 0.8165389347756576,0.05760845740279838,0.89678955078125,0.3889312744140625,-0.3642730712890625
20220209-1358,2022-02-09 13:59:00Z,u01, 21,40,movements,el-ex, lt, d,15956.631585791667, 1.180171865511768, -0.3837918496144946, 0.40905126916727824, -0.08476239442825317, -0.6518357992172241, 0.1675969660282135, 0.857403039932251, 0.37443915009498596, -0.3530657887458801, 0.0213659405708313, 0.012081265449523926, -0.024390816688537598, -0.26610380129972155, 0.5026488600457675, 0.8201952092531339,0.0617478520954898,0.8787689208984375,0.3865203857421875,-0.3774566650390625
20220209-1358,2022-02-09 13:59:00Z,u01, 22,40,movements,el-ex, lt, d,15956.656531791668, 1.165238177661583, -0.38040246777779463, 0.4124254630116688, -0.020315658301115036, -0.6567861437797546, 0.18014010787010193, 0.853196382522583, 0.37129420042037964, -0.36632874608039856, 0.026076138019561768, 0.030057787895202637, -0.017673850059509277, -0.26514892745429053, 0.49651955969703626, 0.8238924274357201,0.06607412407926003,0.8816680908203125,0.405975341796875,-0.3876800537109375
20220209-1358,2022-02-09 13:59:00Z,u01, 23,40,movements,el-ex, lt, d,15956.681478791668, 1.1494485986402623, -0.3765075615585462, 0.4143627751461922, 0.0051960935816168785, -0.6753164529800415, 0.18010228872299194, 0.8486192226409912, 0.36767491698265076, -0.38034266233444214, 0.03373551368713379, 0.030442148447036743, -0.009732931852340698, -0.26356346973550776, 0.4902682595786508, 0.8278070897653623,0.07004788348466257,0.882354736328125,0.3981170654296875,-0.39007568359375
20220209-1358,2022-02-09 13:59:00Z,u01, 24,40,movements,el-ex, lt, d,15956.706424791668, 1.133229821632496, -0.3729833668279074, 0.4168834876927337, -0.06083725392818451, -0.7009067535400391, 0.1662653237581253, 0.8435075879096985, 0.36439529061317444, -0.3946022093296051, 0.03626835346221924, 0.02943405508995056, 0.012049257755279541, -0.2622033676250286, 0.4836820125909014, 0.8317426004958075,0.07419764099685938,0.879241943359375,0.39263916015625,-0.3849639892578125
20220209-1358,2022-02-09 13:59:00Z,u01, 25,40,movements,el-ex, lt, d,15956.731370791667, 1.1171101153066905, -0.3706096488119493, 0.4208219908521121, -0.09344599395990372, -0.7149103283882141, 0.13364091515541077, 0.8378126621246338, 0.36218374967575073, -0.4085254669189453, 0.02974104881286621, 0.03335464000701904, 0.006380140781402588, -0.26159250057348804, 0.4767668487176399, 0.8355150456096598,0.07859730947101376,0.8675537109375,0.395538330078125,-0.4021453857421875
20220209-1358,2022-02-09 13:59:00Z,u01, 26,40,movements,el-ex, lt, d,15956.756316791667, 1.100441693152288, -0.36819512959419176, 0.4233773178564661, 0.028027808293700218, -0.7029938101768494, 0.1351330280303955, 0.8316642642021179, 0.3599321246147156, -0.42282819747924805, 0.028641700744628906, 0.0498121976852417, -0.00014543533325195312, -0.2605637527202762, 0.4697791356803867, 0.8394099847977874,0.08249357163837406,0.856353759765625,0.407867431640625,-0.42864990234375
20220209-1358,2022-02-09 13:59:00Z,u01, 27,40,movements,el-ex, lt, d,15956.781263791667, 1.0828106834455207, -0.3646419308599232, 0.4229103927933007, 0.13262861967086792, -0.7168380618095398, 0.10538624972105026, 0.8252047896385193, 0.3566147983074188, -0.43802157044410706, 0.021825850009918213, 0.03521570563316345, -0.0062837302684783936, -0.25828982180546056, 0.46289910685571334, 0.8436205133139816,0.08552878178912476,0.8470306396484375,0.3918304443359375,-0.444305419921875
20220209-1358,2022-02-09 13:59:00Z,u01, 28,40,movements,el-ex, lt, d,15956.80620925, 1.064097867027457, -0.3603813142117783, 0.4203350194862208, 0.18551333248615265, -0.7255011796951294, 0.11524300277233124, 0.8181853294372559, 0.3526310920715332, -0.45411917567253113, 0.034475862979888916, 0.04925495386123657, -0.016690731048583984, -0.2551667781830599, 0.45588411544011925, 0.8481291512885055,0.08795841410462235,0.855316162109375,0.4022369384765625,-0.4789276123046875
20220209-1358,2022-02-09 13:59:00Z,u01, 29,40,movements,el-ex, lt, d,15956.831155250002, 1.0452541703159846, -0.35622736598907206, 0.4189966725610124, 0.05090911686420441, -0.751658022403717, 0.1258196234703064, 0.8107433915138245, 0.34874093532562256, -0.4701860547065735, 0.03865236043930054, 0.03582635521888733, -0.01316651701927185, -0.2523332179322644, 0.44859215062776764, 0.8525484378732869,0.09085272990409216,0.849395751953125,0.3845672607421875,-0.4833526611328125
20220209-1358,2022-02-09 13:59:00Z,u01, 30,40,movements,el-ex, lt, d,15956.856102250002, 1.0270421818557374, -0.354049705953319, 0.4210968696406141, -0.055349674075841904, -0.7696905732154846, 0.1065489873290062, 0.8026943802833557, 0.34669917821884155, -0.48526424169540405, 0.03571504354476929, 0.033626168966293335, -0.008433789014816284, -0.25106511173737234, 0.4408335137357485, 0.8565533691647946,0.0945959909258769,0.8346099853515625,0.378387451171875,-0.492401123046875
20220209-1358,2022-02-09 13:59:00Z,u01, 31,40,movements,el-ex, lt, d,15956.881048250001, 1.0085476144729444, -0.35237260889456495, 0.423329062194733, 0.0031222235411405563, -0.7784985899925232, 0.10617654025554657, 0.7940737009048462, 0.34512561559677124, -0.500335156917572, 0.03678262233734131, 0.03342971205711365, -0.017929494380950928, -0.2499709513122727, 0.4328359225518929, 0.8605268560038498,0.09829109014616982,0.8308563232421875,0.3785552978515625,-0.5182647705078125
20220209-1358,2022-02-09 13:59:00Z,u01, 32,40,movements,el-ex, lt, d,15956.90599425, 0.989389787373956, -0.3495176411322098, 0.423722811949133, 0.12168322503566742, -0.7846515774726868, 0.12448098510503769, 0.7851635217666626, 0.34244465827941895, -0.5159942507743835, 0.05718272924423218, 0.03424912691116333, -0.024182140827178955, -0.24791702258366574, 0.42490003176092905, 0.8646877446456818,0.10154973283109658,0.84765625,0.3744964599609375,-0.548858642578125
20220209-1358,2022-02-09 13:59:00Z,u01, 33,40,movements,el-ex, lt, d,15956.93094125, 0.9690891043012835, -0.34471105001895846, 0.42160420587059144, 0.21245940029621124, -0.7923516631126404, 0.12250743806362152, 0.7758753895759583, 0.3379247486591339, -0.532751739025116, 0.05369925498962402, 0.031811028718948364, -0.03522610664367676, -0.24442470016712894, 0.41699003482498354, 0.8691941944044015,0.10429544359028253,0.8295745849609375,0.3697357177734375,-0.5679779052734375
20220209-1358,2022-02-09 13:59:00Z,u01, 34,40,movements,el-ex, lt, d,15956.95588725, 0.9487306236999776, -0.3394144474685992, 0.41884670682489666, 0.19309785962104797, -0.7875605821609497, 0.10921434313058853, 0.7663131356239319, 0.33293500542640686, -0.5494711399078369, 0.04392862319946289, 0.015713095664978027, -0.01490563154220581, -0.2405595125516375, 0.40914000665160466, 0.8736844440453042,0.10682309713797938,0.808990478515625,0.3442230224609375,-0.5633087158203125
20220209-1358,2022-02-09 13:59:00Z,u01, 35,40,movements,el-ex, lt, d,15956.980833250002, 0.928331941675068, -0.3352699812399882, 0.41721023422699405, 0.12613758444786072, -0.8174425959587097, 0.09193176031112671, 0.7560442090034485, 0.32902413606643677, -0.5658093690872192, 0.059858500957489014, 0.01896783709526062, -0.008470296859741211, -0.2373751414051479, 0.4009343411808752, 0.8780158358688414,0.1095118656794577,0.8159027099609375,0.347991943359375,-0.57427978515625
20220209-1358,2022-02-09 13:59:00Z,u01, 36,40,movements,el-ex, lt, d,15957.005780250001, 0.9072143589885199, -0.33101642866480957, 0.41612787573073695, 0.1375615894794464, -0.8413844704627991, 0.11694756895303726, 0.745023787021637, 0.3250044584274292, -0.5825046300888062, 0.05563539266586304, 0.012428432703018188, -0.0005335807800292969, -0.23418096718453166, 0.39230976429982417, 0.882380990528026,0.11249939487891403,0.7920379638671875,0.332977294921875,-0.580352783203125
20220209-1358,2022-02-09 13:59:00Z,u01, 37,40,movements,el-ex, lt, d,15957.030726250001, 0.8861559007594615, -0.3268932940215422, 0.4157844151680102, 0.09194367378950119, -0.8402296900749207, 0.12786473333835602, 0.7336247563362122, 0.3211023807525635, -0.5989058017730713, 0.03637957572937012, 0.0009648799896240234, 0.009535074234008789, -0.23114974319194057, 0.38355821587610606, 0.8866010015691371,0.11572271174152193,0.7700042724609375,0.3220672607421875,-0.5893707275390625
20220209-1358,2022-02-09 13:59:00Z,u01, 38,40,movements,el-ex, lt, d,15957.05567225, 0.8653199276496258, -0.32358037179734794, 0.4173712171614434, -0.021674104034900665, -0.8843843340873718, 0.15948310494422913, 0.7217934727668762, 0.3179631531238556, -0.6147468090057373, 0.041268110275268555, -0.004623919725418091, 0.01915055513381958, -0.2288000661818045, 0.37453589445601554, 0.8905507788178446,0.11955196115547126,0.7628936767578125,0.3091888427734375,-0.59649658203125
20220209-1358,2022-02-09 13:59:00Z,u01, 39,40,movements,el-ex, lt, d,15957.08061925, 0.8445082798851508, -0.32189618544029214, 0.42250321829427084, -0.16266211867332458, -0.9066707491874695, 0.19840015470981598, 0.7092435359954834, 0.31636592745780945, -0.6299890279769897, 0.012481927871704102, -0.011098533868789673, 0.07647651433944702, -0.22775046404910243, 0.36487697295414023, 0.8941333279272909,0.12457985437744884,0.7217254638671875,0.305267333984375,-0.5535125732421875
20220209-1358,2022-02-09 13:59:00Z,u01, 40,40,movements,el-ex, lt, d,15957.105565250002, 0.824977784740135, -0.3205595501170901, 0.4289296531149444, -0.08837037533521652, -0.8203120231628418, 0.19729533791542053, 0.6971151232719421, 0.3150976598262787, -0.6440063118934631, -0.022966504096984863, 0.009182155132293701, 0.07338869571685791, -0.22708477504872598, 0.3555690574901524, 0.8972811733467493,0.12996087360533107,0.6706695556640625,0.338287353515625,-0.585968017578125
20220209-1358,2022-02-09 13:59:00Z,u01, 41,40,movements,el-ex, lt, d,15957.130511250001, 0.8068687960599619, -0.3158378125022976, 0.4314085044078038, 0.21702605485916138, -0.7287724614143372, 0.2263462245464325, 0.6864058971405029, 0.3106129467487335, -0.6575459241867065, 0.034983932971954346, 0.05588793754577637, 0.01728719472885132, -0.22426640084142518, 0.34775222497128194, 0.9004396709969396,0.13409515480919967,0.7213897705078125,0.3665008544921875,-0.6402587890625
20220209-1358,2022-02-09 13:59:00Z,u01, 42,40,movements,el-ex, lt, d,15957.15545725, 0.7877241569353293, -0.3075323740837703, 0.43054155634270846, 0.26501068472862244, -0.7973860502243042, 0.20229481160640717, 0.6754975318908691, 0.302707701921463, -0.6723624467849731, 0.07860714197158813, 0.051021575927734375, 0.015196919441223145, -0.21917750705914218, 0.3402646118107935, 0.9040313366775047,0.13750910181616563,0.755767822265625,0.35723876953125,-0.6622467041015625
20220209-1358,2022-02-09 13:59:00Z,u01, 43,40,movements,el-ex, lt, d,15957.18040425, 0.7674711196367708, -0.30078337816410505, 0.43114466856115147, 0.05600108206272125, -0.8452263474464417, 0.20424383878707886, 0.663145899772644, 0.296268492937088, -0.6873590350151062, 0.06129562854766846, 0.04101178050041199, 0.023907005786895752, -0.21489323923165046, 0.3318755315013473, 0.9075842460098097,0.1413164310801448,0.7244415283203125,0.3372802734375,-0.6634521484375
20220209-1358,2022-02-09 13:59:00Z,u01, 44,40,movements,el-ex, lt, d,15957.20535025, 0.7475680117113324, -0.29865948535105413, 0.435518100502551, -0.0989396944642067, -0.8517621755599976, 0.15913216769695282, 0.6497611999511719, 0.2942393124103546, -0.7008805871009827, 0.0497322678565979, 0.029094457626342773, 0.013350129127502441, -0.2132397797973382, 0.3226275072369403, 0.9105873401026353,0.14584557532108464,0.697723388671875,0.3275909423828125,-0.69317626953125
20220209-1358,2022-02-09 13:59:00Z,u01, 45,40,movements,el-ex, lt, d,15957.230296250002, 0.7278024709190061, -0.297311113833457, 0.43937845616393434, -0.0009519467130303383, -0.8440899848937988, 0.13837508857250214, 0.6360452771186829, 0.2929503619670868, -0.7138813138008118, 0.056520700454711914, 0.051287949085235596, 0.002043604850769043, -0.21179261797578208, 0.3133739305283261, 0.9134836833976003,0.1499611838253857,0.69256591796875,0.34423828125,-0.7118377685546875
20220209-1358,2022-02-09 13:59:00Z,u01, 46,40,movements,el-ex, lt, d,15957.255243250002, 0.7072328318601873, -0.29468432978718595, 0.441272407610388, 0.059407662600278854, -0.8489721417427063, 0.11291740089654922, 0.62172532081604, 0.290437787771225, -0.7273950576782227, 0.06572890281677246, 0.050962358713150024, 0.02365976572036743, -0.20935243599831602, 0.30409542771717313, 0.9165926538210175,0.15347815122528322,0.685150146484375,0.3443603515625,-0.6998291015625
20220209-1358,2022-02-09 13:59:00Z,u01, 47,40,movements,el-ex, lt, d,15957.280189250001, 0.6864800634456476, -0.29298501831225815, 0.4430056819645943, -0.03793982416391373, -0.8596032857894897, 0.06548856943845749, 0.6068090200424194, 0.2888113260269165, -0.740520715713501, 0.05246227979660034, 0.02231544256210327, 0.04549813270568848, -0.20724091587990276, 0.29460288078189717, 0.9196155295703327,0.15674084136065955,0.659271240234375,0.311126708984375,-0.6950225830078125
20220209-1358,2022-02-09 13:59:00Z,u01, 48,40,movements,el-ex, lt, d,15957.30513525, 0.665720113808806, -0.29241226674954723, 0.44375441993561854, 0.1302574723958969, -0.8274484276771545, 0.037393346428871155, 0.5914082527160645, 0.2882629334926605, -0.7530874609947205, 0.04802662134170532, 0.053915441036224365, 0.011418819427490234, -0.2054513330520477, 0.2850368491266581, 0.9225824120649883,0.1593278945804431,0.638031005859375,0.34912109375,-0.7545318603515625
20220209-1358,2022-02-09 13:59:00Z,u01, 49,40,movements,el-ex, lt, d,15957.33008225, 0.6436657960901239, -0.28636444968784364, 0.4397353949251197, 0.41330668330192566, -0.8425042629241943, 0.02572644129395485, 0.5756926536560059, 0.2824665904045105, -0.7673268914222717, 0.051062166690826416, 0.058521568775177, 0.020912766456604004, -0.2003889609229381, 0.27600871600130306, 0.9261895104392419,0.16073714863421992,0.6267547607421875,0.3409881591796875,-0.7464141845703125
20220209-1358,2022-02-09 13:59:00Z,u01, 50,40,movements,el-ex, lt, d,15957.355028250002, 0.6216442640703755, -0.2787553262679943, 0.43435806921253717, 0.2859502136707306, -0.814469575881958, -0.0032188580371439457, 0.5598922967910767, 0.27515923976898193, -0.7815421223640442, 0.046446382999420166, 0.03547927737236023, 0.059069156646728516, -0.19442501173619237, 0.2672598727463421, 0.9298570696428938,0.16166981620081014,0.604766845703125,0.3067169189453125,-0.72467041015625
20220209-1358,2022-02-09 13:59:00Z,u01, 51,40,movements,el-ex, lt, d,15957.379974250001, 0.6006112297230045, -0.27598213583588765, 0.4311995686428958, 0.06861671060323715, -0.8263989090919495, -0.062354352325201035, 0.5437605381011963, 0.27249205112457275, -0.7937710881233215, 0.059373557567596436, 0.034148603677749634, 0.02924478054046631, -0.19103796305018647, 0.2581064921532557, 0.9329654021712808,0.16266848082624538,0.6031341552734375,0.306640625,-0.7645263671875
20220209-1358,2022-02-09 13:59:00Z,u01, 52,40,movements,el-ex, lt, d,15957.404921250001, 0.5789366126574379, -0.2765185007679589, 0.4290995273911507, 0.0187889002263546, -0.8564680814743042, -0.09133686125278473, 0.5263494849205017, 0.2730080783367157, -0.8052470684051514, 0.050234436988830566, 0.03936991095542908, 0.023905575275421143, -0.18924986385555742, 0.24811477676874466, 0.9358619042136698,0.16366499862291956,0.5667724609375,0.3112945556640625,-0.780792236328125
20220209-1358,2022-02-09 13:59:00Z,u01, 53,40,movements,el-ex, lt, d,15957.42986725, 0.5574456435527452, -0.27685601013551725, 0.42633679103465005, 0.08608411997556686, -0.8064712882041931, -0.08982405811548233, 0.5088749527931213, 0.27333274483680725, -0.8162937760353088, 0.03708457946777344, 0.03198039531707764, 0.06705677509307861, -0.1873070222625969, 0.23826286419522533, 0.938689714296339,0.16434288143886464,0.54595947265625,0.3053131103515625,-0.749237060546875
20220209-1358,2022-02-09 13:59:00Z,u01, 54,40,movements,el-ex, lt, d,15957.45481325, 0.5368545677898896, -0.2766031098881058, 0.42338468801366663, 0.03869493305683136, -0.7842391729354858, -0.08885087072849274, 0.4919952154159546, 0.2730894684791565, -0.8266576528549194, 0.0551392138004303, 0.008145302534103394, 0.08888000249862671, -0.18515043944381104, 0.22888970507944945, 0.9413467768527517,0.16490929128234078,0.543243408203125,0.27978515625,-0.7381134033203125
20220209-1358,2022-02-09 13:59:01Z,u01, 55,40,movements,el-ex, lt, d,15957.47976025, 0.5170044235760348, -0.2773621624941781, 0.42134156857670046, 0.017779730260372162, -0.7608620524406433, -0.0693816989660263, 0.4753875136375427, 0.27381959557533264, -0.8360798954963684, 0.03218087553977966, 0.01788267493247986, 0.10179650783538818, -0.18363280712627192, 0.2196339029738907, 0.9437125541888292,0.1656702083545577,0.507568359375,0.2917022705078125,-0.734283447265625
20220209-1358,2022-02-09 13:59:01Z,u01, 56,40,movements,el-ex, lt, d,15957.504706250002, 0.4984630551358416, -0.277877274877328, 0.4199726227590586, -0.007935787551105022, -0.7050068378448486, -0.05261610448360443, 0.4597371518611908, 0.2743149697780609, -0.8446260094642639, 0.02376815676689148, 0.009437501430511475, 0.1356722116470337, -0.18218459242582563, 0.21094018011666993, 0.9458019056308382,0.16664937518718617,0.4832611083984375,0.2803192138671875,-0.70770263671875
20220209-1358,2022-02-09 13:59:01Z,u01, 57,40,movements,el-ex, lt, d,15957.529652250001, 0.48125878768982433, -0.27981004902945666, 0.4193653078177537, -0.09020942449569702, -0.671984851360321, -0.05959504842758179, 0.44489240646362305, 0.27617308497428894, -0.8519384860992432, 0.01990562677383423, 0.013347208499908447, 0.16204291582107544, -0.18158516802946784, 0.20262667677899376, 0.9475523134211465,0.16767239884800547,0.4647979736328125,0.289520263671875,-0.6898956298828125
20220209-1358,2022-02-09 13:59:01Z,u01, 58,40,movements,el-ex, lt, d,15957.554599250001, 0.46564788169938165, -0.2833757227382862, 0.41970680434428476, -0.18135686218738556, -0.5899892449378967, -0.05348062887787819, 0.43109428882598877, 0.27959832549095154, -0.857894241809845, 0.010968148708343506, 0.00896066427230835, 0.21017390489578247, -0.18197209371241096, 0.19477946950985553, 0.9489228413585711,0.16879763585634505,0.438323974609375,0.28961181640625,-0.6339874267578125
20220209-1358,2022-02-09 13:59:01Z,u01, 59,40,movements,el-ex, lt, d,15957.57954525, 0.45266151029603835, -0.28889785994575556, 0.4209713642743387, -0.21872691810131073, -0.49980005621910095, -0.053800273686647415, 0.4192356467247009, 0.2848959267139435, -0.8620184659957886, 0.021941781044006348, 0.011292457580566406, 0.23575198650360107, -0.18357738662021472, 0.1878566597310357, 0.9498128265982186,0.1698965061315432,0.4411773681640625,0.2961883544921875,-0.6262664794921875
20220209-1358,2022-02-09 13:59:01Z,u01, 60,40,movements,el-ex, lt, d,15957.60449125, 0.4418563592057853, -0.29393522390900717, 0.42207325007992413, -0.17239314317703247, -0.3935844600200653, -0.05075901001691818, 0.4092782139778137, 0.28972089290618896, -0.8651896715164185, 0.005638808012008667, 0.019986778497695923, 0.25203049182891846, -0.1851181724395386, 0.18203417011668005, 0.9504850579326908,0.17080092219221327,0.404541015625,0.31072998046875,-0.60723876953125
20220209-1358,2022-02-09 13:59:01Z,u01, 61,40,movements,el-ex, lt, d,15957.629438250002, 0.4342322927519465, -0.2982549899792651, 0.4219492196410441, -0.10712109506130219, -0.22943979501724243, -0.0904335230588913, 0.4021398425102234, 0.29385268688201904, -0.8671413660049438, -0.022012859582901, 0.022919774055480957, 0.2810665965080261, -0.18648012531206173, 0.1779170434510831, 0.9509749229177963,0.17093123454180353,0.380126953125,0.3167724609375,-0.5860748291015625
20220209-1358,2022-02-09 13:59:01Z,u01, 62,40,movements,el-ex, lt, d,15957.654384250001, 0.4298836986949805, -0.3016849061186241, 0.42046399355626035, -0.0778440311551094, -0.11011979728937149, -0.11212176829576492, 0.39794281125068665, 0.29712945222854614, -0.8679606318473816, -0.002297639846801758, 0.014455080032348633, 0.2831980586051941, -0.18758619491430759, 0.1755878998525018, 0.9513171154411749,0.17022379394273665,0.40118408203125,0.306640625,-0.5915069580078125
20220209-1358,2022-02-09 13:59:01Z,u01, 63,40,movements,el-ex, lt, d,15957.679330250001, 0.42858828098251833, -0.30462888815846817, 0.4191115065579319, -0.0533725768327713, -0.0013175569474697113, -0.08274457603693008, 0.3964528739452362, 0.29993918538093567, -0.8676760196685791, 0.0037546753883361816, -0.008358955383300781, 0.2505648136138916, -0.18873841642058745, 0.17475641288709878, 0.9513976039782708,0.16935396734524666,0.40020751953125,0.2915802001953125,-0.6171112060546875
20220209-1358,2022-02-09 13:59:01Z,u01, 64,40,movements,el-ex, lt, d,15957.70427725, 0.43036805706303966, -0.3072949317080228, 0.4181505456385456, -0.035536423325538635, 0.11594229191541672, -0.05482392758131027, 0.3976614773273468, 0.30248138308525085, -0.8662391901016235, -0.003832101821899414, -0.011618316173553467, 0.2613045573234558, -0.19005470616833647, 0.17538415537209362, 0.9511870874043934,0.16841250158766502,0.3929595947265625,0.290496826171875,-0.6096649169921875
20220209-1358,2022-02-09 13:59:01Z,u01, 65,40,movements,el-ex, lt, d,15957.72922325, 0.43670336563024575, -0.30968830431529476, 0.41727967923352294, 0.04461217299103737, 0.24869601428508759, -0.08160261064767838, 0.4028339982032776, 0.3047617971897125, -0.8630440831184387, -0.025011062622070312, -0.012235522270202637, 0.21500331163406372, -0.1916306412861596, 0.17820119901529657, 0.9505772141041955,0.16710790731332492,0.3778228759765625,0.2925262451171875,-0.648040771484375
20220209-1358,2022-02-09 13:59:01Z,u01, 66,40,movements,el-ex, lt, d,15957.754169250002, 0.44456028599870234, -0.3098313207993517, 0.4151280233330262, 0.04528512433171272, 0.38522952795028687, -0.05720625817775726, 0.40958359837532043, 0.3048979938030243, -0.8598130941390991, -0.0011973381042480469, -0.013058364391326904, 0.21413743495941162, -0.19215672478045978, 0.18212429661935242, 0.950040948313005,0.16531435384794269,0.42950439453125,0.2895050048828125,-0.6487884521484375
20220209-1358,2022-02-09 13:59:01Z,u01, 67,40,movements,el-ex, lt, d,15957.779116250002, 0.4540095314243191, -0.30992993121562523, 0.4145355128577863, -0.025541212409734726, 0.3596603572368622, -0.0035387035459280014, 0.4176765978336334, 0.3049919009208679, -0.8558774590492249, 0.046404242515563965, -0.03950423002243042, 0.15911543369293213, -0.19292641880157968, 0.18665653481542455, 0.949213587946938,0.16411118320156898,0.464080810546875,0.2654876708984375,-0.6967620849609375
20220209-1358,2022-02-09 13:59:01Z,u01, 68,40,movements,el-ex, lt, d,15957.804061875, 0.46432378005308256, -0.3113096011433662, 0.4149931432915438, -0.0463486909866333, 0.4680199921131134, -0.012250568717718124, 0.42629310488700867, 0.30630555748939514, -0.851146936416626, -0.03217381238937378, -0.013519883155822754, 0.14556527137756348, -0.1944580056130218, 0.19134424926886098, 0.9481315777184699,0.16315619606944806,0.3917388916015625,0.296173095703125,-0.706787109375
20220209-1358,2022-02-09 13:59:01Z,u01, 69,40,movements,el-ex, lt, d,15957.829007875001, 0.47759509344788076, -0.312116265638427, 0.4148464333476935, -0.005134474486112595, 0.556071400642395, -0.018648680299520493, 0.43743735551834106, 0.30707335472106934, -0.8451949954032898, 0.021577566862106323, -0.00047844648361206055, 0.1330215334892273, -0.19589763566648277, 0.1975515835435801, 0.9468128581329662,0.16168804337836581,0.459014892578125,0.3065948486328125,-0.7121734619140625
20220209-1358,2022-02-09 13:59:01Z,u01, 70,40,movements,el-ex, lt, d,15957.853953875001, 0.49121693628593494, -0.3122722251571741, 0.414805992719068, -0.005172790959477425, 0.5238408446311951, -0.007079842500388622, 0.4488869309425354, 0.30722177028656006, -0.8391157984733582, 0.0417289137840271, -0.005204528570175171, 0.08963465690612793, -0.1970627241566756, 0.20398133510177946, 0.9454409507465374,0.1603101949667706,0.4852447509765625,0.3033599853515625,-0.753662109375
20220209-1358,2022-02-09 13:59:01Z,u01, 71,40,movements,el-ex, lt, d,15957.878900875, 0.5050292206973471, -0.31324637233382274, 0.415081067289548, -0.09190411865711212, 0.5732988715171814, -0.00867567490786314, 0.4602888226509094, 0.30814865231513977, -0.8325734734535217, 0.005882441997528076, -0.0064213573932647705, 0.1101309061050415, -0.19864607296085998, 0.2103639754017433, 0.9439406637087717,0.15894251596059827,0.4661712646484375,0.301727294921875,-0.722442626953125
20220209-1358,2022-02-09 13:59:01Z,u01, 72,40,movements,el-ex, lt, d,15957.903846875, 0.5202394915886946, -0.3166477816408904, 0.41683406070002654, -0.17016270756721497, 0.5989429354667664, -0.011057339608669281, 0.4723750352859497, 0.3113827407360077, -0.824562132358551, 0.02207082509994507, -0.015224874019622803, 0.07201391458511353, -0.2016134991849795, 0.2169583959406199, 0.9420125269742586,0.15777709051132358,0.49530029296875,0.3063201904296875,-0.75531005859375
20220209-1358,2022-02-09 13:59:01Z,u01, 73,40,movements,el-ex, lt, d,15957.928792875002, 0.5365291869597721, -0.3189503350716142, 0.417973669244333, -0.015946943312883377, 0.6663464903831482, -0.010494147427380085, 0.48537585139274597, 0.3135700225830078, -0.816139817237854, -0.000939786434173584, 0.027341902256011963, 0.062431931495666504, -0.20408207299076517, 0.2242333734837281, 0.9400157703261006,0.15633427941004951,0.48443603515625,0.340911865234375,-0.7537078857421875
20220209-1358,2022-02-09 13:59:01Z,u01, 74,40,movements,el-ex, lt, d,15957.953739875002, 0.5539033359274597, -0.32004123755982866, 0.41774416264604003, -0.061791129410266876, 0.7040845155715942, -0.03865574300289154, 0.49930140376091003, 0.314605712890625, -0.807292640209198, 0.02135908603668213, 0.011840879917144775, 0.06779074668884277, -0.205907584424488, 0.23228375370653206, 0.9379990003411154,0.1542865376095525,0.5388031005859375,0.325958251953125,-0.7437286376953125
20220209-1358,2022-02-09 13:59:01Z,u01, 75,40,movements,el-ex, lt, d,15957.978685875001, 0.5712355179059809, -0.322534057634028, 0.4180706477574693, -0.091006800532341, 0.6762621998786926, -0.05777590721845627, 0.5127922296524048, 0.31697097420692444, -0.7978556156158447, 0.04538959264755249, 0.02513110637664795, 0.05234169960021973, -0.20841931449449533, 0.24006996051221727, 0.9358106580793581,0.1522703345257159,0.5581817626953125,0.34210205078125,-0.745513916015625
20220209-1358,2022-02-09 13:59:01Z,u01, 76,40,movements,el-ex, lt, d,15958.003631875, 0.5884768161323418, -0.3245183342285081, 0.41713621282574537, 0.020125340670347214, 0.7271115779876709, -0.09442626684904099, 0.5261212587356567, 0.3188523054122925, -0.7883715629577637, 0.003068864345550537, 0.027262866497039795, 0.03564023971557617, -0.210515447798683, 0.24798681208291629, 0.9336858294005986,0.1497222421206654,0.522857666015625,0.3466339111328125,-0.75775146484375
20220209-1358,2022-02-09 13:59:01Z,u01, 77,40,movements,el-ex, lt, d,15958.028578875, 0.6058609813354148, -0.3245266631963144, 0.41373231204275834, 0.09506506472826004, 0.7447357773780823, -0.10612373799085617, 0.5397446751594543, 0.3188602030277252, -0.7791045308113098, -0.017741501331329346, 0.016665369272232056, 0.017919838428497314, -0.2113765359563226, 0.2564521414457416, 0.931744931982387,0.14629988986224385,0.522003173828125,0.3355255126953125,-0.7611846923828125
20220209-1358,2022-02-09 13:59:01Z,u01, 78,40,movements,el-ex, lt, d,15958.053524875, 0.6240580905331691, -0.3252075310966611, 0.4113403525354177, -0.06236959993839264, 0.7473592162132263, -0.08210662007331848, 0.5537050366401672, 0.3195054531097412, -0.76897794008255, 0.01901841163635254, 0.004942208528518677, 0.047115206718444824, -0.21269141537512795, 0.2650912841968929, 0.9295149084742672,0.14314736383612217,0.5914764404296875,0.3231201171875,-0.7252197265625
20220209-1358,2022-02-09 13:59:01Z,u01, 79,40,movements,el-ex, lt, d,15958.078470875002, 0.642438989582781, -0.3293362308834993, 0.41224314779736737, -0.17806515097618103, 0.6953538656234741, -0.05677562579512596, 0.5669500231742859, 0.32341501116752625, -0.7576084136962891, 0.06332957744598389, 0.022181332111358643, 0.0067844390869140625, -0.21599144964427885, 0.2730265382545393, 0.926794818837425,0.1409103122601799,0.630279541015625,0.3455963134765625,-0.750823974609375
20220209-1358,2022-02-09 13:59:01Z,u01, 80,40,movements,el-ex, lt, d,15958.103417875001, 0.660192949809129, -0.3327811187132889, 0.41263828848510553, -0.0582638718187809, 0.7108284831047058, -0.10752315819263458, 0.5796237587928772, 0.32667282223701477, -0.7465394735336304, 0.010967671871185303, 0.03911086916923523, -0.0075345635414123535, -0.21884360093243346, 0.2807806052393319, 0.924157170144391,0.13857605642571202,0.583740234375,0.361846923828125,-0.7516937255859375
20220209-1358,2022-02-09 13:59:01Z,u01, 81,40,movements,el-ex, lt, d,15958.128363875001, 0.6776027163612839, -0.3365244290462736, 0.41141921515708696, -0.1199154183268547, 0.6950387954711914, -0.130149707198143, 0.591761589050293, 0.3302084803581238, -0.7353779077529907, 0.012761175632476807, 0.019431471824645996, 0.005138039588928223, -0.2215482335084106, 0.28849165480751776, 0.9215986800713915,0.13544351115782305,0.604522705078125,0.349639892578125,-0.7302398681640625
20220209-1358,2022-02-09 13:59:01Z,u01, 82,40,movements,el-ex, lt, d,15958.153309875, 0.6947291355755755, -0.34152935734751927, 0.41156009547836253, -0.1778649389743805, 0.6742335557937622, -0.12171986699104309, 0.6032030582427979, 0.3349285125732422, -0.7238571047782898, 0.0265425443649292, 0.019975721836090088, -0.009007275104522705, -0.22496177192765837, 0.2957425486210534, 0.9188681154213958,0.13270307035745843,0.6317138671875,0.3576812744140625,-0.7306060791015625
20220209-1358,2022-02-09 13:59:01Z,u01, 83,40,movements,el-ex, lt, d,15958.178256875, 0.7122311928925952, -0.34640019698501334, 0.4121106012708423, -0.1351533979177475, 0.6950011849403381, -0.10806630551815033, 0.614705502986908, 0.3395140469074249, -0.7119461894035339, 0.037470459938049316, 0.02987077832221985, -0.010679483413696289, -0.22836969762412984, 0.3031075556528547, 0.9159975887759144,0.13008278245300484,0.6521759033203125,0.369384765625,-0.722625732421875
20220209-1358,2022-02-09 13:59:01Z,u01, 84,40,movements,el-ex, lt, d,15958.203202875002, 0.7294435178854357, -0.3502385906244163, 0.41185178227761515, -0.08111771941184998, 0.6797082424163818, -0.11570612341165543, 0.6259949803352356, 0.3431219160556793, -0.7002840042114258, 0.028820693492889404, 0.014772981405258179, -0.03979772329330444, -0.23114476493650815, 0.3105319704818839, 0.9132054174978329,0.12727092124246397,0.64996337890625,0.358612060546875,-0.7387237548828125
20220209-1358,2022-02-09 13:59:01Z,u01, 85,40,movements,el-ex, lt, d,15958.228148875001, 0.7464160173310854, -0.35420250648067875, 0.4112074672387494, -0.12697212398052216, 0.68266361951828, -0.1269829422235489, 0.636861264705658, 0.346842497587204, -0.6885550022125244, 0.009714722633361816, 0.011037170886993408, -0.01516503095626831, -0.23386679762814855, 0.3178502877186218, 0.9104063597777061,0.1242489861912082,0.646575927734375,0.357879638671875,-0.7037200927734375
20220209-1358,2022-02-09 13:59:01Z,u01, 86,40,movements,el-ex, lt, d,15958.253095875001, 0.7636117479572594, -0.3595060469521187, 0.41184992302631773, -0.21026010811328888, 0.6653724908828735, -0.12236875295639038, 0.6473255753517151, 0.3518119156360626, -0.6761642098426819, 0.03152275085449219, 0.0013375282287597656, -0.01151883602142334, -0.2373657342722832, 0.32492366712754933, 0.9073719586763184,0.12148410413863933,0.68634033203125,0.354766845703125,-0.68231201171875
20220209-1358,2022-02-09 13:59:01Z,u01, 87,40,movements,el-ex, lt, d,15958.278041875, 0.7808674658074017, -0.36454438503330394, 0.41336885046438854, -0.0987263098359108, 0.6642743349075317, -0.08220495283603668, 0.6576402187347412, 0.35652366280555725, -0.6636265516281128, 0.03999161720275879, 0.01838478446006775, -0.03107553720474243, -0.24086502884298927, 0.3319198219977126, 0.9042268405621948,0.11910947486157772,0.6976318359375,0.374908447265625,-0.6947021484375
20220209-1358,2022-02-09 13:59:01Z,u01, 88,40,movements,el-ex, lt, d,15958.302987875, 0.7972883802985794, -0.3661266672333969, 0.4116357416516657, 0.08732691407203674, 0.6938112378120422, -0.10485859960317612, 0.6680439710617065, 0.3580015003681183, -0.6523435711860657, 0.007187962532043457, 0.0191347599029541, -0.04866039752960205, -0.242231141903193, 0.3393409668668482, 0.9015044156890053,0.1160239721088488,0.672088623046875,0.3757781982421875,-0.6970367431640625
20220209-1358,2022-02-09 13:59:01Z,u01, 89,40,movements,el-ex, lt, d,15958.327934875, 0.8133797635554617, -0.36743890797493073, 0.40816311905177527, -0.014182664453983307, 0.6733514666557312, -0.13602371513843536, 0.6781122088432312, 0.3592264652252197, -0.6411864757537842, 0.0211217999458313, -0.005054682493209839, -0.0036498308181762695, -0.2431252647115672, 0.34683838093935243, 0.8988858025200331,0.11223847929069158,0.6992340087890625,0.3541717529296875,-0.64483642578125
20220209-1358,2022-02-09 13:59:01Z,u01, 90,40,movements,el-ex, lt, d,15958.352880875002, 0.8296829890759613, -0.371542037706503, 0.4080945727612193, -0.16139234602451324, 0.6315454244613647, -0.1046503409743309, 0.6873819231987, 0.36305269598960876, -0.6290460228919983, 0.055766940116882324, -0.015533745288848877, -0.012112975120544434, -0.24579647793515014, 0.3536397757939964, 0.8958594889867937,0.10935637639165316,0.7498626708984375,0.35296630859375,-0.6490936279296875
20220209-1358,2022-02-09 13:59:01Z,u01, 91,40,movements,el-ex, lt, d,15958.377826875001, 0.8458604547871903, -0.37530034841445054, 0.4085609110204713, -0.02478930354118347, 0.6414275169372559, -0.09324655681848526, 0.696441650390625, 0.3665519952774048, -0.6169350147247314, 0.041275084018707275, 0.01430743932723999, -0.045754194259643555, -0.24837684494547518, 0.3603351871551001, 0.8927870081544333,0.10676621973105696,0.7377166748046875,0.380859375,-0.662689208984375
20220209-1358,2022-02-09 13:59:01Z,u01, 92,40,movements,el-ex, lt, d,15958.402773875001, 0.8610723452591773, -0.3768802687591121, 0.4054711079979598, 0.07591383904218674, 0.6483596563339233, -0.1490134745836258, 0.705305278301239, 0.36802148818969727, -0.6058917045593262, 0.011201739311218262, 0.0022483468055725098, -0.03641176223754883, -0.24929262716467937, 0.3672973483609131, 0.8901152122280649,0.10315461683061983,0.718231201171875,0.3615875244140625,-0.6340789794921875
20220209-1358,2022-02-09 13:59:01Z,u01, 93,40,movements,el-ex, lt, d,15958.427719875, 0.8756625831175755, -0.3797868600903964, 0.40285726879024647, -0.10093836486339569, 0.5880849957466125, -0.13321121037006378, 0.7132455110549927, 0.37072253227233887, -0.5948493480682373, 0.0338858962059021, -0.027735412120819092, -0.00285261869430542, -0.25079321226801427, 0.37373531768585294, 0.8874223232956788,0.09953095303274231,0.74713134765625,0.342987060546875,-0.5977020263671875
20220209-1358,2022-02-09 13:59:01Z,u01, 94,40,movements,el-ex, lt, d,15958.452665875, 0.8903868441183513, -0.3842588068177123, 0.4042505021105918, -0.13918286561965942, 0.563549280166626, -0.08422961831092834, 0.7206307053565979, 0.374872088432312, -0.583234429359436, 0.040004730224609375, -0.023523181676864624, -0.04200965166091919, -0.25368830413078963, 0.3795063113609667, 0.8843929624149985,0.09729509425668295,0.757659912109375,0.360107421875,-0.629486083984375
20220209-1358,2022-02-09 13:59:02Z,u01, 95,40,movements,el-ex, lt, d,15958.477612875002, 0.9053684782338839, -0.3868715645609211, 0.4043426856547735, 0.023430855944752693, 0.6067015528678894, -0.08365431427955627, 0.7285143136978149, 0.37729305028915405, -0.5717664361000061, 0.011292815208435059, -0.000721365213394165, -0.034724533557891846, -0.2555353676671706, 0.3857699353613996, 0.8814130596620564,0.09483810522334932,0.73980712890625,0.3765716552734375,-0.6064910888671875
20220209-1358,2022-02-09 13:59:02Z,u01, 96,40,movements,el-ex, lt, d,15958.502558875001, 0.919497589085278, -0.3882037414364056, 0.4019755129949606, 0.0055818865075707436, 0.5690674781799316, -0.09944459795951843, 0.7361194491386414, 0.3785264194011688, -0.5611112713813782, 0.014460384845733643, -0.018205344676971436, -0.02984631061553955, -0.25629744989043984, 0.3921173047449069, 0.8787205406251303,0.09168333013760771,0.756744384765625,0.3563995361328125,-0.5888671875
20220209-1358,2022-02-09 13:59:02Z,u01, 97,40,movements,el-ex, lt, d,15958.527504875, 0.9332972606329658, -0.3911512172494643, 0.40265284940844975, -0.17608314752578735, 0.4856654703617096, -0.05667136237025261, 0.7428925037384033, 0.3812529444694519, -0.5502335429191589, 0.045422375202178955, -0.04282823204994202, -0.03986954689025879, -0.2582982883350092, 0.39769992636445584, 0.8758440110972607,0.08952111741744453,0.7883148193359375,0.3384246826171875,-0.5901031494140625
20220209-1358,2022-02-09 13:59:02Z,u01, 98,40,movements,el-ex, lt, d,15958.552451875, 0.9464514776721011, -0.3959588648079389, 0.4072518082136052, -0.2942916750907898, 0.4212258458137512, -0.04301887005567551, 0.7485702037811279, 0.3856930434703827, -0.5393363833427429, 0.045771896839141846, -0.026256948709487915, -0.034256696701049805, -0.2618201848827963, 0.40222132728652865, 0.8728128552963401,0.08869122638188778,0.7957000732421875,0.3654327392578125,-0.5702667236328125
20220209-1358,2022-02-09 13:59:02Z,u01, 99,40,movements,el-ex, lt, d,15958.577397875, 0.9592613534609663, -0.40217808674966743, 0.41385725329815903, -0.38486412167549133, 0.38285478949546814, -0.07700126618146896, 0.7534387707710266, 0.3914235532283783, -0.5283159017562866, 0.04317682981491089, -0.014989227056503296, 0.0008043646812438965, -0.26631619899018294, 0.40610065223606234, 0.8696803858566238,0.08839727447230888,0.7966156005859375,0.376434326171875,-0.5275115966796875
20220209-1358,2022-02-09 13:59:02Z,u01, 100,40,movements,el-ex, lt, d,15958.602343875002, 0.9720291801228548, -0.40990316957868894, 0.42236804517633764, -0.45343974232673645, 0.37101006507873535, -0.07438930869102478, 0.7576022744178772, 0.3985205292701721, -0.5169335603713989, 0.03290987014770508, -0.010306388139724731, 0.0356256365776062, -0.27181892612971165, 0.40944802547103587, 0.8663905047666621,0.08851203058768267,0.7834625244140625,0.394622802734375,-0.4756317138671875
20220209-1358,2022-02-09 13:59:02Z,u01, 101,40,movements,el-ex, lt, d,15958.627290875002, 0.9858928662000284, -0.41689916761690327, 0.43025070576294716, -0.27539974451065063, 0.48241350054740906, -0.06464327126741409, 0.7623525261878967, 0.40492716431617737, -0.5048293471336365, 0.0002665519714355469, 0.022318989038467407, 0.04158782958984375, -0.276935128619903, 0.41339117234774453, 0.8629113213632862,0.08831073196555916,0.7626190185546875,0.42724609375,-0.4632415771484375
20220209-1358,2022-02-09 13:59:02Z,u01, 102,40,movements,el-ex, lt, d,15958.652236875001, 0.999808282822018, -0.41887729691367437, 0.4311999499154606, 0.13078993558883667, 0.5790014863014221, -0.04200247302651405, 0.7686280012130737, 0.40673506259918213, -0.4937385022640228, 0.007937610149383545, 0.03696003556251526, 0.002863287925720215, -0.27855032229174265, 0.4189754976584522, 0.8598964825081059,0.08629838327566819,0.77325439453125,0.440826416015625,-0.4911651611328125
20220209-1358,2022-02-09 13:59:02Z,u01, 103,40,movements,el-ex, lt, d,15958.677182875, 1.0126456763624485, -0.41732450684536765, 0.42592960087582254, 0.21815909445285797, 0.5893199443817139, -0.05325932055711746, 0.7754375338554382, 0.405316025018692, -0.4841647744178772, -0.008485019207000732, -0.0030333101749420166, 0.00783124566078186, -0.27734628601314426, 0.4254370103946219, 0.8574690114728889,0.08263932891533776,0.7669525146484375,0.40228271484375,-0.4763336181640625
20220209-1358,2022-02-09 13:59:02Z,u01, 104,40,movements,el-ex, lt, d,15958.702129875, 1.0258349552022104, -0.4163511438905845, 0.4225559933522902, -0.005577624775469303, 0.5627018809318542, 0.0040494417771697044, 0.782092809677124, 0.4044260084629059, -0.4740998446941376, 0.009456992149353027, -0.016654372215270996, 0.02665114402770996, -0.27676235561199314, 0.43168584989682923, 0.8548168077764179,0.07961369464033904,0.799530029296875,0.3862152099609375,-0.449432373046875
20220209-1358,2022-02-09 13:59:02Z,u01, 105,40,movements,el-ex, lt, d,15958.727075875, 1.0415072511040304, -0.4171624350691439, 0.42597394441096886, -0.1504659354686737, 0.5821235775947571, 0.06159775331616402, 0.7891432046890259, 0.4051678776741028, -0.461619108915329, 0.025493144989013672, 0.0007312297821044922, -0.008626222610473633, -0.27845414182643563, 0.43778274974954834, 0.8512448165185823,0.07868905751882177,0.81463623046875,0.4058990478515625,-0.470245361328125
20220209-1358,2022-02-09 13:59:02Z,u01, 106,40,movements,el-ex, lt, d,15958.752021875001, 1.0574510028919872, -0.4163393867597256, 0.42792372533861495, 0.08478578925132751, 0.6158190965652466, 0.04871032014489174, 0.7966926693916321, 0.4044152498245239, -0.4491426348686218, 0.0008842945098876953, 0.032428622245788574, -0.0389707088470459, -0.27917527393675856, 0.44439829756664995, 0.8476815118276549,0.07750724280292925,0.7945709228515625,0.4383544921875,-0.4925994873046875
20220209-1358,2022-02-09 13:59:02Z,u01, 107,40,movements,el-ex, lt, d,15958.776968875001, 1.0716670473998025, -0.4141777410853591, 0.4255569914318422, 0.09270427376031876, 0.5609943866729736, 0.021270640194416046, 0.803762674331665, 0.40243732929229736, -0.4381892681121826, 0.005014240741729736, 0.011289536952972412, -0.017560184001922607, -0.2783210838799328, 0.4510462786332384, 0.8446633697569659,0.07508976435464743,0.80877685546875,0.413726806640625,-0.45574951171875
20220209-1358,2022-02-09 13:59:02Z,u01, 108,40,movements,el-ex, lt, d,15958.801915375001, 1.086017377424242, -0.41448267940443734, 0.42805084302420887, -0.26789355278015137, 0.509473979473114, 0.05406327173113823, 0.8098592162132263, 0.4027164578437805, -0.42655304074287415, 0.01895242929458618, -0.00250890851020813, 0.024331480264663696, -0.279543845072175, 0.45670418708006955, 0.8413036229150109,0.07405891299384587,0.8348846435546875,0.3908843994140625,-0.4051666259765625
20220209-1358,2022-02-09 13:59:02Z,u01, 109,40,movements,el-ex, lt, d,15958.826861375, 1.1027388805706722, -0.4169215595721571, 0.43598414526843376, -0.2496185600757599, 0.5710814595222473, 0.03542087972164154, 0.8159993886947632, 0.4049476385116577, -0.41250771284103394, 0.024027526378631592, 0.04410329461097717, -0.02068924903869629, -0.2829542451115805, 0.4622586349513278, 0.8370908352896704,0.07438387313645817,0.84002685546875,0.4490509033203125,-0.433197021484375
20220209-1358,2022-02-09 13:59:02Z,u01, 110,40,movements,el-ex, lt, d,15958.851808375, 1.11875637976159, -0.4174243805128859, 0.43848382778986356, 0.08287956565618515, 0.5895625948905945, -0.006040410604327917, 0.822318434715271, 0.4054073393344879, -0.3992960453033447, 0.025246262550354004, 0.05163919925689697, -0.04722180962562561, -0.28432427186719605, 0.46852074152406975, 0.8332563612759201,0.0730199080257051,0.847442626953125,0.4485626220703125,-0.4542999267578125
20220209-1358,2022-02-09 13:59:02Z,u01, 111,40,movements,el-ex, lt, d,15958.876754375002, 1.131799720644821, -0.4174305927812199, 0.43556084750540236, 0.07354765385389328, 0.5114820003509521, -0.05311191827058792, 0.827454149723053, 0.4054130017757416, -0.3885354995727539, 0.011809706687927246, 0.018155723810195923, -0.025862574577331543, -0.2841039109569262, 0.47435979383114046, 0.8302859997166504,0.06994900072459526,0.839263916015625,0.4235687255859375,-0.414398193359375
20220209-1358,2022-02-09 13:59:02Z,u01, 112,40,movements,el-ex, lt, d,15958.901700375001, 1.144423607919942, -0.41929774652193924, 0.4366401584436145, -0.2479153573513031, 0.4562663733959198, -0.05711737647652626, 0.8316023945808411, 0.40711912512779236, -0.37774544954299927, 0.013261556625366211, -0.005294144153594971, -0.010071873664855957, -0.2855253029450463, 0.47916862580894876, 0.8271865325036352,0.06808275247317302,0.8471527099609375,0.3931884765625,-0.3853912353515625
20220209-1358,2022-02-09 13:59:02Z,u01, 113,40,movements,el-ex, lt, d,15958.926647375001, 1.1594554385855549, -0.4239511225848776, 0.44483429430261434, -0.3368915021419525, 0.4659409821033478, -0.03355918824672699, 0.8354409337043762, 0.41136497259140015, -0.3644413352012634, 0.020775556564331055, 0.02395305037498474, -0.020263195037841797, -0.28981284888264247, 0.483516134316866, 0.8231624248942911,0.06800301280033968,0.8562164306640625,0.4353179931640625,-0.38470458984375
20220209-1358,2022-02-09 13:59:02Z,u01, 114,40,movements,el-ex, lt, d,15958.951593375, 1.174545868848689, -0.4273492580077117, 0.45026098863611963, -0.1074446365237236, 0.5422745943069458, -0.05098778009414673, 0.8395507335662842, 0.4144599139690399, -0.3512515723705292, -0.009426772594451904, 0.02711421251296997, -0.020925521850585938, -0.2929486009049936, 0.4884212646325082, 0.8192233704424033,0.0670740384704383,0.8287353515625,0.4402618408203125,-0.370574951171875
20220209-1358,2022-02-09 13:59:02Z,u01, 115,40,movements,el-ex, lt, d,15958.976539375, 1.1879992036815372, -0.42829520062174237, 0.4486175742792328, 0.1749463528394699, 0.5487168431282043, -0.06412215530872345, 0.8438360095024109, 0.41532060503959656, -0.33977875113487244, 0.0034998059272766113, 0.014275342226028442, -0.05157855153083801, -0.2933481354052013, 0.4940217515336972, 0.8159490088487481,0.06416078575029022,0.8473358154296875,0.429595947265625,-0.391357421875
20220209-1358,2022-02-09 13:59:02Z,u01, 116,40,movements,el-ex, lt, d,15959.001485375002, 1.1997276947362838, -0.4285166624069975, 0.4436145759392242, 0.12148232758045197, 0.5321535468101501, -0.07167568057775497, 0.8476772308349609, 0.415522038936615, -0.3298253118991852, 0.009073257446289062, 0.009084224700927734, -0.02800843119621277, -0.2925548875095966, 0.49949872333910517, 0.813186041170635,0.06034155598741775,0.8640594482421875,0.4185638427734375,-0.3501739501953125
20220209-1358,2022-02-09 13:59:02Z,u01, 117,40,movements,el-ex, lt, d,15959.026432375002, 1.2125539438638382, -0.4299232956960362, 0.4427844096148287, -0.05553815886378288, 0.49917078018188477, -0.05534018203616142, 0.851289689540863, 0.4168010652065277, -0.3187207579612732, 0.03576481342315674, -0.005164682865142822, -0.02408313751220703, -0.2932584821843882, 0.5046177554038078, 0.8099562087900185,0.05771891358317999,0.887054443359375,0.4116363525390625,-0.342803955078125
20220209-1358,2022-02-09 13:59:02Z,u01, 118,40,movements,el-ex, lt, d,15959.051378375001, 1.2254543360773409, -0.4313998590462743, 0.44223930141400414, 0.0989375039935112, 0.5339890718460083, -0.07734201848506927, 0.8547501564025879, 0.41814282536506653, -0.3075038492679596, 0.013581633567810059, 0.02059313654899597, -0.05165737867355347, -0.29404151046127075, 0.5096936942784868, 0.8066646012121941,0.05517327239230366,0.8608856201171875,0.439178466796875,-0.3590087890625
20220209-1358,2022-02-09 13:59:02Z,u01, 119,40,movements,el-ex, lt, d,15959.076324375, 1.237085983758018, -0.4319489783648803, 0.4363254173395428, 0.2918093204498291, 0.5380173325538635, -0.11236745119094849, 0.8580520153045654, 0.4186415672302246, -0.29746589064598083, 0.0019943714141845703, 0.01713418960571289, -0.06079515814781189, -0.2930410829912002, 0.515164035302285, 0.8038281697286174,0.050923382703071285,0.86004638671875,0.4357757568359375,-0.3582611083984375
20220209-1358,2022-02-09 13:59:02Z,u01, 120,40,movements,el-ex, lt, d,15959.101271375, 1.2468712357171436, -0.4326541317340205, 0.42850757826035984, 0.19304849207401276, 0.47669607400894165, -0.1197415441274643, 0.8606416583061218, 0.41928184032440186, -0.2889614999294281, 0.008514225482940674, -0.005356639623641968, -0.040460437536239624, -0.29151919567166545, 0.5201305634805308, 0.8014682112431667,0.0461469617756724,0.872283935546875,0.4100341796875,-0.323638916015625
20220209-1358,2022-02-09 13:59:02Z,u01, 121,40,movements,el-ex, lt, d,15959.126217375, 1.2572765938160184, -0.4346434951752273, 0.42571983573405153, -0.030496057122945786, 0.43088066577911377, -0.09050855785608292, 0.862806499004364, 0.4210870563983917, -0.27973291277885437, 0.03822493553161621, -0.01688176393508911, -0.021826475858688354, -0.2917656589949792, 0.5244104760951124, 0.7987641234061806,0.04292134949444193,0.901031494140625,0.404205322265625,-0.3015594482421875
20220209-1358,2022-02-09 13:59:02Z,u01, 122,40,movements,el-ex, lt, d,15959.151163375001, 1.2691378521276306, -0.43786784455159267, 0.4276193409159621, -0.1297767013311386, 0.45353829860687256, -0.10772296041250229, 0.8647628426551819, 0.42400941252708435, -0.2690747380256653, 0.02834928035736084, -0.007612347602844238, -0.014982789754867554, -0.29371229899256507, 0.5283897445697672, 0.795524007292227,0.040974435495070294,0.890350341796875,0.4210205078125,-0.2822418212890625
20220209-1358,2022-02-09 13:59:02Z,u01, 123,40,movements,el-ex, lt, d,15959.176110375001, 1.2811160767198688, -0.44106085362916414, 0.42835415342388533, 0.06257173418998718, 0.454609215259552, -0.1297144740819931, 0.8666219115257263, 0.4268990457057953, -0.2583093047142029, 0.011384069919586182, -0.0011788010597229004, -0.06275078654289246, -0.2953247824525469, 0.5325679479532921, 0.792256015386223,0.03853652538235469,0.8780059814453125,0.42572021484375,-0.3210601806640625
20220209-1358,2022-02-09 13:59:02Z,u01, 124,40,movements,el-ex, lt, d,15959.201056375001, 1.2896625482870387, -0.44310817294457006, 0.4225015071475309, 0.24304404854774475, 0.41830262541770935, -0.1263493150472641, 0.8679563999176025, 0.42874953150749207, -0.25065040588378906, 0.005258381366729736, 0.005683451890945435, -0.056447893381118774, -0.29466930818440285, 0.5365116949386125, 0.7900292134195598,0.034337737778373345,0.87451171875,0.42340087890625,-0.297821044921875
20220209-1358,2022-02-09 13:59:02Z,u01, 125,40,movements,el-ex, lt, d,15959.226002375, 1.2976523410872391, -0.4447156174902758, 0.41799197350769113, 0.015877798199653625, 0.3666486144065857, -0.08044533431529999, 0.8692665100097656, 0.4302011728286743, -0.24352143704891205, 0.007946014404296875, -0.033732056617736816, -0.031060367822647095, -0.2941754908867371, 0.5400926397185248, 0.7879127264231933,0.030891043014907388,0.8772125244140625,0.3964691162109375,-0.2745819091796875
20220209-1358,2022-02-09 13:59:02Z,u01, 126,40,movements,el-ex, lt, d,15959.250949375, 1.3077645667284736, -0.4470221892196556, 0.4190869446805229, -0.10780175775289536, 0.3988249897956848, -0.08520780503749847, 0.8707240223884583, 0.4322822391986847, -0.2344602793455124, -2.7060508728027344e-05, -0.013123303651809692, -0.019598469138145447, -0.2954667036367601, 0.5435708649007656, 0.7851000037760615,0.029121843936636915,0.87445068359375,0.423553466796875,-0.249542236328125
20220209-1358,2022-02-09 13:59:02Z,u01, 127,40,movements,el-ex, lt, d,15959.275895375002, 1.3190540028812106, -0.44974913423810936, 0.42182001138551867, -0.12559087574481964, 0.3780864179134369, -0.0870232805609703, 0.8721705675125122, 0.4347396194934845, -0.22432111203670502, 0.03688704967498779, -0.008637934923171997, -0.02548043429851532, -0.297363345643865, 0.547187796802302, 0.7819172735396238,0.027675547638026543,0.9090576171875,0.4261016845703125,-0.2498016357421875
20220209-1358,2022-02-09 13:59:02Z,u01, 128,40,movements,el-ex, lt, d,15959.300841375001, 1.3286415074236806, -0.45280456735805263, 0.4240621025783987, -0.09649694710969925, 0.31723472476005554, -0.1069730818271637, 0.8729875087738037, 0.43748918175697327, -0.2156294733285904, 0.03153824806213379, 0.010615706443786621, -0.03205108642578125, -0.2992117552807154, 0.5501432452656925, 0.7791854478386876,0.026169281001944905,0.897674560546875,0.4488677978515625,-0.2465667724609375
20220209-1358,2022-02-09 13:59:02Z,u01, 129,40,movements,el-ex, lt, d,15959.325788375001, 1.338562092549067, -0.4573367193859758, 0.4282807057570208, -0.32445457577705383, 0.32322531938552856, -0.17597579956054688, 0.873145341873169, 0.4415600895881653, -0.20650002360343933, 0.003380715847015381, 0.004164516925811768, -0.002484351396560669, -0.3021302058758188, 0.5526909866626878, 0.7762926447930136,0.02489891981307174,0.87652587890625,0.4457244873046875,-0.208984375
20220209-1358,2022-02-09 13:59:02Z,u01, 130,40,movements,el-ex, lt, d,15959.350734375, 1.3515554496429576, -0.46460171274950535, 0.4385502715151381, -0.45702308416366577, 0.3490988314151764, -0.22543323040008545, 0.8726003170013428, 0.448066771030426, -0.19443495571613312, 0.013065576553344727, 0.017524689435958862, -0.008369550108909607, -0.3077256284296839, 0.555056266530369, 0.7724067699186933,0.024602865372450156,0.887939453125,0.4696502685546875,-0.20416259765625
20220209-1358,2022-02-09 13:59:02Z,u01, 131,40,movements,el-ex, lt, d,15959.375680375, 1.3643804880039494, -0.47237204422495543, 0.4465766994826505, -0.18356077373027802, 0.3788764476776123, -0.25687316060066223, 0.871587872505188, 0.4549998342990875, -0.18250901997089386, 0.01809096336364746, 0.0226612389087677, -0.03570684790611267, -0.31285655382851085, 0.557553821845417, 0.7685795555405667,0.023235831646848976,0.889678955078125,0.4776611328125,-0.2182159423828125
20220209-1358,2022-02-09 13:59:02Z,u01, 132,40,movements,el-ex, lt, d,15959.400627375, 1.3725006073224926, -0.4786850927668581, 0.4439996958633983, 0.25409358739852905, 0.3679107427597046, -0.2792278528213501, 0.8702077269554138, 0.4606124460697174, -0.17485634982585907, 0.013474583625793457, 0.02467811107635498, -0.04850172996520996, -0.31443692021801334, 0.5600903940458045, 0.7662042114317775,0.018955265607923488,0.88189697265625,0.4884033203125,-0.2264556884765625
20220209-1358,2022-02-09 13:59:02Z,u01, 133,40,movements,el-ex, lt, d,15959.425573375001, 1.3765855560716467, -0.48348420579175744, 0.4329063955853849, 0.3800583779811859, 0.36889198422431946, -0.24933135509490967, 0.8687357902526855, 0.46486684679985046, -0.1708715707063675, -0.0006479620933532715, -0.006096094846725464, -0.04708491265773773, -0.31303476072638714, 0.5626486070678354, 0.7650352206244315,0.01252859696366676,0.8680877685546875,0.458770751953125,-0.21795654296875
20220209-1358,2022-02-09 13:59:02Z,u01, 134,40,movements,el-ex, lt, d,15959.450519375001, 1.381002418485496, -0.4877391363867277, 0.42262869228085737, 0.26872870326042175, 0.36537107825279236, -0.22396841645240784, 0.8675316572189331, 0.4686298668384552, -0.1666581630706787, 0.0014563798904418945, -0.027925431728363037, -0.044004619121551514, -0.3116457692814101, 0.5652856236620725, 0.7637318421096843,0.006543366570053499,0.8701629638671875,0.444549560546875,-0.2120208740234375
20220209-1358,2022-02-09 13:59:03Z,u01, 135,40,movements,el-ex, lt, d,15959.475466375, 1.385730346466496, -0.49130565321309055, 0.41407368432095454, 0.2786470651626587, 0.3248909115791321, -0.16975590586662292, 0.866661548614502, 0.4717774987220764, -0.16224609315395355, 0.018653392791748047, -0.02860119938850403, -0.06359915435314178, -0.31047781271452746, 0.5678736502947054, 0.7623130113159333,0.0013955967871701613,0.88531494140625,0.44317626953125,-0.2258453369140625
20220209-1358,2022-02-09 13:59:03Z,u01, 136,40,movements,el-ex, lt, d,15959.500412375, 1.3894303776503816, -0.4939513075700792, 0.40693465381593136, 0.16648629307746887, 0.23613201081752777, -0.1253785938024521, 0.8660252094268799, 0.47410857677459717, -0.15881261229515076, 0.014391660690307617, -0.04570278525352478, -0.07136611640453339, -0.3093693454431262, 0.569986227148563, 0.7611824713667815,-0.002750529484527392,0.877532958984375,0.427276611328125,-0.2311859130859375
20220209-1358,2022-02-09 13:59:03Z,u01, 137,40,movements,el-ex, lt, d,15959.525358375002, 1.3930284687464007, -0.49581364466790573, 0.40377604179190135, 0.03888348117470741, 0.17705385386943817, -0.06824013590812683, 0.8657205104827881, 0.4757474660873413, -0.1555391550064087, -0.001294851303100586, -0.04392373561859131, -0.07511256635189056, -0.30911028424749, 0.5715603654530581, 0.7600944158219557,-0.005110111105268517,0.8644256591796875,0.43182373046875,-0.23065185546875
20220209-1358,2022-02-09 13:59:03Z,u01, 138,40,movements,el-ex, lt, d,15959.550305375002, 1.3968808457638773, -0.4967173840742743, 0.40296527806093974, 0.030655115842819214, 0.1579294204711914, -0.012442117556929588, 0.8658894300460815, 0.476542204618454, -0.15212847292423248, 0.00047409534454345703, -0.03624984622001648, -0.07005463540554047, -0.3091819495475178, 0.5730115946431638, 0.758962776604535,-0.006306165969129918,0.866302490234375,0.4428558349609375,-0.220794677734375
20220209-1358,2022-02-09 13:59:03Z,u01, 139,40,movements,el-ex, lt, d,15959.575251375001, 1.3996808197228081, -0.4963929364911794, 0.40080190455058967, 0.11892718821763992, 0.14414703845977783, 0.014405743218958378, 0.866464376449585, 0.47625693678855896, -0.14972974359989166, 0.011511087417602539, -0.021728038787841797, -0.07866370677947998, -0.3084388846782131, 0.5744567713118413, 0.7581618861085017,-0.0074537527193925535,0.8779754638671875,0.45452880859375,-0.2283935546875
20220209-1358,2022-02-09 13:59:03Z,u01, 140,40,movements,el-ex, lt, d,15959.600197375, 1.401299560710055, -0.4952819465154054, 0.39768056261481916, 0.09163710474967957, 0.10027145594358444, 0.03465908020734787, 0.8672266006469727, 0.4752797484397888, -0.14841613173484802, 0.016013145446777344, -0.022475123405456543, -0.06355893611907959, -0.307148704294139, 0.5757183425952744, 0.7577172927836334,-0.008524973387388224,0.8818511962890625,0.4534454345703125,-0.2110443115234375
20220209-1358,2022-02-09 13:59:03Z,u01, 141,40,movements,el-ex, lt, d,15959.625144375, 1.3984119170739149, -0.49114449372945107, 0.3937962753833089, 0.0573519766330719, 0.07831501960754395, 0.024526022374629974, 0.8687243461608887, 0.4716354012489319, -0.1512557715177536, 0.0070386528968811035, -0.014878779649734497, -0.05656886100769043, -0.30460195465235185, 0.5758383163410188, 0.7586570773439263,-0.008212849456427113,0.875762939453125,0.456756591796875,-0.20782470703125
20220209-1358,2022-02-09 13:59:03Z,u01, 142,40,movements,el-ex, lt, d,15959.650090375, 1.394885831637281, -0.4879575079493103, 0.3900574791711913, 0.07450605928897858, 0.04731529578566551, 0.03146861493587494, 0.8696609735488892, 0.46882274746894836, -0.1545802652835846, 0.01353299617767334, -0.006664544343948364, -0.05423615872859955, -0.302427018697557, 0.5755412806203336, 0.7597533434632598,-0.008064471651967109,0.88446044921875,0.4611358642578125,-0.206787109375
20220209-1358,2022-02-09 13:59:03Z,u01, 143,40,movements,el-ex, lt, d,15959.675036375002, 1.3895736754505026, -0.48423090310523703, 0.3860207322000974, 0.0559907965362072, 0.012221953831613064, 0.02684982866048813, 0.8705400228500366, 0.46552783250808716, -0.15951161086559296, 0.015568375587463379, -0.0022251904010772705, -0.04481874406337738, -0.2999807423056421, 0.5746788197268119, 0.7613791152430315,-0.00759526560155499,0.8861083984375,0.4633026123046875,-0.2043304443359375
20220209-1358,2022-02-09 13:59:03Z,u01, 144,40,movements,el-ex, lt, d,15959.699983375001, 1.3867152725995686, -0.4818900063962607, 0.38386342557094066, 0.04200134426355362, -0.026170974597334862, 0.04220827668905258, 0.8711494207382202, 0.4634547829627991, -0.16219833493232727, 0.01120525598526001, -0.004867106676101685, -0.04381047189235687, -0.2985485340281242, 0.5742556968985408, 0.7622642678393732,-0.007234596442690339,0.8817596435546875,0.4570159912109375,-0.2066497802734375
20220209-1358,2022-02-09 13:59:03Z,u01, 145,40,movements,el-ex, lt, d,15959.724929375001, 1.383067724015874, -0.480071733441068, 0.3823486445872894, 0.002933305688202381, -0.0640357956290245, 0.04417182505130768, 0.8713786005973816, 0.461842805147171, -0.16553182899951935, 0.014668822288513184, -0.010976046323776245, -0.02877354621887207, -0.29748574158007457, 0.5733553144842793, 0.7633619064480863,-0.0066836703963236155,0.88604736328125,0.45086669921875,-0.194305419921875
20220209-1358,2022-02-09 13:59:03Z,u01, 146,40,movements,el-ex, lt, d,15959.749875375, 1.3802642671329786, -0.4785546530088988, 0.3829751759566265, -0.07614869624376297, -0.1076793521642685, 0.03973639756441116, 0.8715978860855103, 0.4604966640472412, -0.16810651123523712, 0.01733332872390747, -0.008546650409698486, -0.034697964787483215, -0.2971380818923737, 0.5724121833015237, 0.7642136237619048,-0.0055403586385269765,0.8875274658203125,0.4501190185546875,-0.2022247314453125
20220209-1358,2022-02-09 13:59:03Z,u01, 147,40,movements,el-ex, lt, d,15959.774822375, 1.3768141493889865, -0.4774502615145598, 0.38530084529413616, -0.1257927417755127, -0.1605011522769928, 0.0447523295879364, 0.8715113401412964, 0.45951607823371887, -0.17121057212352753, 0.01877802610397339, -0.005429744720458984, -0.041451096534729004, -0.2974203069764775, 0.5709079379269325, 0.7652392019235305,-0.003784073464468435,0.890289306640625,0.4540863037109375,-0.2126617431640625
20220209-1358,2022-02-09 13:59:03Z,u01, 148,40,movements,el-ex, lt, d,15959.799768375002, 1.3733920106690372, -0.4763297335081771, 0.38887274406949274, -0.12756158411502838, -0.19181880354881287, 0.060766518115997314, 0.8714246153831482, 0.4585205614566803, -0.17429286241531372, 0.009892523288726807, -0.004159599542617798, -0.04103909432888031, -0.2980462788632984, 0.5692292897421526, 0.7662532461323779,-0.0015483281592731934,0.879791259765625,0.4521484375,-0.22015380859375
20220209-1358,2022-02-09 13:59:03Z,u01, 149,40,movements,el-ex, lt, d,15959.824714, 1.3689528970721974, -0.47406773685915027, 0.3909158893158327, 0.019697371870279312, -0.17713092267513275, 0.07300586998462677, 0.8716562986373901, 0.45650920271873474, -0.17836695909500122, 0.0007345080375671387, 0.008792370557785034, -0.06485806405544281, -0.29782586984030457, 0.5675528771893963, 0.7675826647499192,0.0006191104844138484,0.8723907470703125,0.465301513671875,-0.24322509765625
20220209-1358,2022-02-09 13:59:03Z,u01, 150,40,movements,el-ex, lt, d,15959.849661, 1.3624738177261018, -0.47062710320821016, 0.38610937450191696, 0.326581746339798, -0.1205708459019661, 0.06185268610715866, 0.8720138669013977, 0.45344531536102295, -0.18433447182178497, -0.011936962604522705, 0.015136867761611938, -0.07402728497982025, -0.295236986925679, 0.5662754525375542, 0.7695236068203873,0.0008285371207981118,0.8603057861328125,0.470123291015625,-0.259429931640625
20220209-1358,2022-02-09 13:59:03Z,u01, 151,40,movements,el-ex, lt, d,15959.874607000002, 1.354077402597135, -0.4668353862117222, 0.3756360923807162, 0.3703742027282715, -0.12138743698596954, 0.04828035086393356, 0.8721082806587219, 0.4500625431537628, -0.19201800227165222, 0.015373468399047852, -0.012181073427200317, -0.06652681529521942, -0.2909179188390594, 0.5651174802549405, 0.7720158175977715,-0.0007751335888933897,0.887481689453125,0.4378814697265625,-0.258544921875
20220209-1358,2022-02-09 13:59:03Z,u01, 152,40,movements,el-ex, lt, d,15959.899553000001, 1.3453620369476145, -0.4635112739330741, 0.36698544872930844, 0.2386336475610733, -0.21425658464431763, 0.08717934787273407, 0.8718551397323608, 0.44709163904190063, -0.19994468986988068, 0.041261374950408936, -0.026849329471588135, -0.07665133476257324, -0.287285874253798, 0.563466489893744, 0.7745767865991728,-0.0018117412120967624,0.9141693115234375,0.4225006103515625,-0.279937744140625
20220209-1358,2022-02-09 13:59:03Z,u01, 153,40,movements,el-ex, lt, d,15959.924500000001, 1.3375806979635074, -0.4602680373197379, 0.36396209614005054, 0.05236859619617462, -0.31576505303382874, 0.1303066462278366, 0.8716791868209839, 0.44418826699256897, -0.20705679059028625, 0.040155649185180664, -0.025654911994934082, -0.05814087390899658, -0.28526680160941426, 0.5613327487939792, 0.7768705536388039,-0.0008528901305193126,0.911834716796875,0.4185333251953125,-0.26519775390625
20220209-1358,2022-02-09 13:59:03Z,u01, 154,40,movements,el-ex, lt, d,15959.949446, 1.3298257340449644, -0.4569369755987914, 0.36540723684792664, -0.05330513417720795, -0.3573128283023834, 0.16809682548046112, 0.871479332447052, 0.441201388835907, -0.21416227519512177, 0.026012301445007324, -0.01430615782737732, -0.03692105412483215, -0.2844585699138815, 0.5585715594640202, 0.7791520672857114,0.0018543439677901064,0.8950042724609375,0.427581787109375,-0.2493438720703125
20220209-1358,2022-02-09 13:59:03Z,u01, 155,40,movements,el-ex, lt, d,15959.974392, 1.3219049234522209, -0.4529531875078783, 0.36735466884260465, 0.035104189068078995, -0.36437931656837463, 0.18482674658298492, 0.8714520931243896, 0.4376228153705597, -0.22148947417736053, 0.02344536781311035, 0.004897326231002808, -0.013083800673484802, -0.2835339935857768, 0.5557551085803182, 0.7814857720396738,0.004977679037807131,0.8948974609375,0.4425201416015625,-0.2345733642578125
20220209-1358,2022-02-09 13:59:03Z,u01, 156,40,movements,el-ex, lt, d,15959.999339000002, 1.3122487812465367, -0.44810159105301817, 0.3657333496466048, 0.18934373557567596, -0.37225475907325745, 0.1806858628988266, 0.871315062046051, 0.4332553446292877, -0.23043398559093475, 0.027854859828948975, 0.00970730185508728, -0.018879279494285583, -0.2812769129180694, 0.552870963682878, 0.7843245542479569,0.007207327485522885,0.899658203125,0.437713623046875,-0.2531585693359375
20220209-1358,2022-02-09 13:59:03Z,u01, 157,40,movements,el-ex, lt, d,15960.024285000001, 1.3021381159543517, -0.4431498055210887, 0.36223535149331265, 0.12790316343307495, -0.35272786021232605, 0.14352871477603912, 0.8709984421730042, 0.42878714203834534, -0.2397981733083725, 0.0218389630317688, 0.012359678745269775, 0.011053711175918579, -0.2784468452025396, 0.5500620613997033, 0.787287812576622,0.00877035231617182,0.8928375244140625,0.4411468505859375,-0.2287445068359375
20220209-1358,2022-02-09 13:59:03Z,u01, 158,40,movements,el-ex, lt, d,15960.049231, 1.2919853773369128, -0.4387510358387062, 0.35932821312114394, 0.22894605994224548, -0.37170761823654175, 0.14483770728111267, 0.8703239560127258, 0.42480912804603577, -0.24914537370204926, 0.02478712797164917, 0.03780683875083923, 0.02026362717151642, -0.2759703192751733, 0.5470536482340129, 0.7902310253801642,0.010375112243199036,0.8924560546875,0.4650726318359375,-0.233123779296875
20220209-1358,2022-02-09 13:59:03Z,u01, 159,40,movements,el-ex, lt, d,15960.074178, 1.280828786446731, -0.43401912388523817, 0.35342728573516474, 0.24981224536895752, -0.34659630060195923, 0.10748934745788574, 0.8694068193435669, 0.4205206632614136, -0.25941136479377747, 0.01676267385482788, 0.0211603045463562, 0.014980912208557129, -0.27253640220592135, 0.5440755676703984, 0.7934636947118867,0.011004730192628986,0.88616943359375,0.441680908203125,-0.2444305419921875
20220209-1358,2022-02-09 13:59:03Z,u01, 160,40,movements,el-ex, lt, d,15960.099124, 1.2699717669615334, -0.43006421718053545, 0.3481511277189333, 0.2248755246400833, -0.36293014883995056, 0.09827414155006409, 0.8681208491325378, 0.4169291853904724, -0.26932576298713684, 0.024121642112731934, 0.019243359565734863, 0.021095871925354004, -0.26955980685422837, 0.5409941127101856, 0.7965733350442114,0.011570491802132071,0.8907928466796875,0.4345550537109375,-0.251007080078125
20220209-1358,2022-02-09 13:59:03Z,u01, 161,40,movements,el-ex, lt, d,15960.124070000002, 1.259154468406601, -0.4270262332800659, 0.3446828318903219, 0.08863156288862228, -0.40512096881866455, 0.09106770157814026, 0.8663583993911743, 0.4141659140586853, -0.279087632894516, 0.015370786190032959, -0.004406362771987915, 0.027821213006973267, -0.26741289301158033, 0.5375374637073449, 0.7996164631803631,0.012547583456086892,0.8817291259765625,0.409759521484375,-0.2512664794921875
20220209-1358,2022-02-09 13:59:03Z,u01, 162,40,movements,el-ex, lt, d,15960.149017000002, 1.248904019378541, -0.4246696441667518, 0.34510811336566266, -0.04348599165678024, -0.4427351653575897, 0.11201159656047821, 0.8643755316734314, 0.4120197892189026, -0.2882613241672516, 0.016117572784423828, -0.008134901523590088, 0.018531829118728638, -0.26656303984220603, 0.5336791925109222, 0.8024412840362021,0.014786583275850473,0.88006591796875,0.3999786376953125,-0.2718658447265625
20220209-1358,2022-02-09 13:59:03Z,u01, 163,40,movements,el-ex, lt, d,15960.173963000001, 1.2392017511922306, -0.4229837741476862, 0.3483984401830898, -0.10594763606786728, -0.4584243893623352, 0.11217404901981354, 0.8621938228607178, 0.41048309206962585, -0.2968598008155823, 0.012836873531341553, 0.0005887746810913086, 0.017440885305404663, -0.2667164628239277, 0.5295587128794007, 0.8050525915274875,0.017900257017558957,0.875030517578125,0.41107177734375,-0.2794189453125
20220209-1358,2022-02-09 13:59:03Z,u01, 164,40,movements,el-ex, lt, d,15960.198909, 1.229553340107175, -0.4213693434472644, 0.3522650546256279, -0.09798378497362137, -0.45223453640937805, 0.11906538158655167, 0.8599128127098083, 0.4090104103088379, -0.3053860068321228, 0.0166742205619812, 0.008973658084869385, 0.021145343780517578, -0.26702508918502577, 0.5253613993085464, 0.8076154984779752,0.021220438269707542,0.8792266845703125,0.4192962646484375,-0.2845916748046875
20220209-1358,2022-02-09 13:59:03Z,u01, 165,40,movements,el-ex, lt, d,15960.223856, 1.2197833438332306, -0.4195196689032792, 0.35568447575607215, -0.08326129615306854, -0.4559810757637024, 0.12174264341592789, 0.8575970530509949, 0.4073218107223511, -0.3140322268009186, 0.027153313159942627, 0.009746700525283813, 0.01682165265083313, -0.2670991661830267, 0.5211927945653738, 0.8101965350038403,0.024447591302135863,0.8847503662109375,0.4170684814453125,-0.297210693359375
20220209-1358,2022-02-09 13:59:03Z,u01, 166,40,movements,el-ex, lt, d,15960.248802, 1.2098612187613995, -0.4176767031590235, 0.3591669301091754, -0.11817770451307297, -0.45429494976997375, 0.10810546576976776, 0.855139970779419, 0.4056379795074463, -0.32279038429260254, 0.02352219820022583, 0.0032670795917510986, 0.01297605037689209, -0.267164625911508, 0.5169408721054777, 0.8127896110675763,0.027720082204535174,0.8774261474609375,0.40899658203125,-0.309478759765625
20220209-1358,2022-02-09 13:59:03Z,u01, 167,40,movements,el-ex, lt, d,15960.273748000001, 1.2005550279458064, -0.41662838153729925, 0.36338633197053577, -0.08598587661981583, -0.4399760663509369, 0.10685977339744568, 0.8524949550628662, 0.4046795666217804, -0.3308880627155304, 0.033537209033966064, 0.019926846027374268, -0.0004870295524597168, -0.2677096648049231, 0.5127255689567018, 0.8151589241410517,0.03098372006326086,0.8860321044921875,0.4246063232421875,-0.3313751220703125
20220209-1358,2022-02-09 13:59:03Z,u01, 168,40,movements,el-ex, lt, d,15960.298695000001, 1.1901640983264317, -0.4140712636691426, 0.3645657182058878, 0.08819443732500076, -0.4373677968978882, 0.12625451385974884, 0.849968671798706, 0.4023398458957672, -0.34011155366897583, 0.041495561599731445, 0.023716062307357788, -0.010245412588119507, -0.2668528100692915, 0.5086588191470549, 0.8178800593301427,0.03358570433618563,0.8857879638671875,0.419525146484375,-0.3518218994140625
20220209-1358,2022-02-09 13:59:03Z,u01, 169,40,movements,el-ex, lt, d,15960.323641, 1.1788106802631972, -0.4106635179048147, 0.3627227811424425, 0.14679953455924988, -0.42623475193977356, 0.0997898206114769, 0.8473146557807922, 0.39921775460243225, -0.35026121139526367, 0.007635235786437988, 0.009763538837432861, -0.02370104193687439, -0.2648646595407363, 0.5046940698723441, 0.8209043071848725,0.035307838472908026,0.854949951171875,0.4089813232421875,-0.37396240234375
20220209-1358,2022-02-09 13:59:03Z,u01, 170,40,movements,el-ex, lt, d,15960.348587, 1.1666469952206102, -0.4064239301051904, 0.3595225066939765, 0.20226657390594482, -0.46300408244132996, 0.12476027756929398, 0.8445402979850769, 0.395327091217041, -0.3612038791179657, 0.016757309436798096, -0.004152745008468628, -0.037584513425827026, -0.26218287538300433, 0.5006577640355213, 0.8241654162901546,0.03678862275245434,0.8639068603515625,0.3840179443359375,-0.4036865234375
20220209-1358,2022-02-09 13:59:03Z,u01, 171,40,movements,el-ex, lt, d,15960.373534, 1.1539180077343636, -0.40222153681776857, 0.35744318294746824, 0.05527400225400925, -0.5086817145347595, 0.14210478961467743, 0.8413858413696289, 0.3914635479450226, -0.37259384989738464, 0.027007102966308594, -0.009322434663772583, -0.03116890788078308, -0.25977142842317197, 0.49620749067589437, 0.8275230078372025,0.03876414374918907,0.8683929443359375,0.38214111328125,-0.4037628173828125
20220209-1358,2022-02-09 13:59:03Z,u01, 172,40,movements,el-ex, lt, d,15960.398480000002, 1.1416646882024755, -0.39885899207725334, 0.359806732305009, -0.06597632169723511, -0.5477203130722046, 0.1717911809682846, 0.8379496335983276, 0.3883671462535858, -0.3834209740161896, 0.03811866044998169, -0.008270621299743652, -0.04634279012680054, -0.25877754175124384, 0.4912470871724198, 0.8306169571158066,0.04226272127548189,0.8753509521484375,0.3836517333984375,-0.4350738525390625
20220209-1358,2022-02-09 13:59:03Z,u01, 173,40,movements,el-ex, lt, d,15960.423426000001, 1.1288649357361156, -0.39569450379163906, 0.3629498487517111, -0.0035536224022507668, -0.5900564193725586, 0.16887754201889038, 0.8340799808502197, 0.3854491114616394, -0.39463838934898376, 0.03538089990615845, 0.016848742961883545, -0.057113468647003174, -0.25800627071116033, 0.48591519264644656, 0.833783325159756,0.0460919237781702,0.8694610595703125,0.4022979736328125,-0.451751708984375
20220209-1358,2022-02-09 13:59:03Z,u01, 174,40,movements,el-ex, lt, d,15960.448373000001, 1.114199354643229, -0.39165570739481353, 0.36401372731035325, 0.05916741490364075, -0.6241015195846558, 0.1615077704191208, 0.8295935392379761, 0.3817192614078522, -0.4075108766555786, 0.0292627215385437, 0.014109045267105103, -0.04868108034133911, -0.25630111510195464, 0.480160703511166, 0.8374386383236885,0.0495184645894155,0.859619140625,0.3946685791015625,-0.457061767578125
20220209-1358,2022-02-09 13:59:04Z,u01, 175,40,movements,el-ex, lt, d,15960.473319, 1.0989504996111308, -0.3880325863637749, 0.36551217887034154, -0.027622073888778687, -0.6611489653587341, 0.152618408203125, 0.8245097398757935, 0.37836799025535583, -0.42073923349380493, 0.04389852285385132, 0.007694661617279053, -0.03963363170623779, -0.254813906645942, 0.4740255935544795, 0.8411619719235536,0.053068373585613254,0.868408203125,0.3860626220703125,-0.4603729248046875
20220209-1358,2022-02-09 13:59:04Z,u01, 176,40,movements,el-ex, lt, d,15960.498265, 1.083406396179538, -0.38565949091907703, 0.36875990530443775, -0.06613321602344513, -0.6873205900192261, 0.14211176335811615, 0.8186613321304321, 0.37617027759552, -0.4339233934879303, 0.03967607021331787, 0.020954996347427368, -0.03267502784729004, -0.25419331964936126, 0.4673586006625479, 0.8448121360218537,0.057044989021938886,0.8560333251953125,0.39678955078125,-0.4708709716796875
20220209-1358,2022-02-09 13:59:04Z,u01, 177,40,movements,el-ex, lt, d,15960.523212000002, 1.0671814601238052, -0.3830825119194664, 0.371291644270634, 0.01826339215040207, -0.7079668045043945, 0.1424669772386551, 0.8123599290847778, 0.37378132343292236, -0.44761478900909424, 0.04341405630111694, 0.029340684413909912, -0.04002559185028076, -0.2532577520298766, 0.4604922547337588, 0.8485898198722559,0.060850728006777044,0.85577392578125,0.4031219482421875,-0.487640380859375
20220209-1358,2022-02-09 13:59:04Z,u01, 178,40,movements,el-ex, lt, d,15960.548158000001, 1.0492708531436237, -0.37938673722475375, 0.37199419111812093, 0.04705838859081268, -0.7481303215026855, 0.14038990437984467, 0.8054051995277405, 0.3703508973121643, -0.46277710795402527, 0.03507941961288452, 0.02129650115966797, -0.018408775329589844, -0.2513508741036582, 0.4532484742280631, 0.8527870317232269,0.0643649684073811,0.8329315185546875,0.388671875,-0.473663330078125
20220209-1358,2022-02-09 13:59:04Z,u01, 179,40,movements,el-ex, lt, d,15960.573104000001, 1.0315531737643195, -0.37746726554803606, 0.3748775538542284, -0.17022229731082916, -0.7629846930503845, 0.10947586596012115, 0.7976884245872498, 0.36856722831726074, -0.4773377776145935, 0.015711843967437744, 0.008858948945999146, 0.02627280354499817, -0.25062405671619903, 0.44555436215330124, 0.8567395069980233,0.0683102281392231,0.8134002685546875,0.3774261474609375,-0.4510650634765625
20220209-1358,2022-02-09 13:59:04Z,u01, 180,40,movements,el-ex, lt, d,15960.598051, 1.015721431392299, -0.3788167731592072, 0.3825385125726006, -0.30719828605651855, -0.7343634963035583, 0.11045584082603455, 0.7896082401275635, 0.3698213994503021, -0.4896436631679535, 0.03334403038024902, 0.01627179980278015, 0.045857131481170654, -0.2523110959577707, 0.43762687557367147, 0.8599164785801496,0.07324909959422896,0.826812744140625,0.388214111328125,-0.444122314453125
20220209-1358,2022-02-09 13:59:04Z,u01, 181,40,movements,el-ex, lt, d,15960.622997, 1.0006884992734681, -0.3798966305197952, 0.3899916148608437, -0.1940717101097107, -0.7019932270050049, 0.11987657845020294, 0.7818219065666199, 0.3708244860172272, -0.5012422204017639, 0.0482410192489624, 0.030222296714782715, 0.03993856906890869, -0.2538053018102834, 0.43007181105543546, 0.8628572807282856,0.07809281093457551,0.8300628662109375,0.4010467529296875,-0.4613037109375
20220209-1358,2022-02-09 13:59:04Z,u01, 182,40,movements,el-ex, lt, d,15960.647943000002, 0.985745561539182, -0.37932392657996283, 0.39523445576317257, -0.1044035404920578, -0.6651977896690369, 0.12948326766490936, 0.7744218707084656, 0.3702925443649292, -0.5129857659339905, 0.0337141752243042, 0.025413691997528076, 0.034348130226135254, -0.254086434132712, 0.4230215150451009, 0.8658544023961965,0.08239672625540242,0.803863525390625,0.3956756591796875,-0.484161376953125
20220209-1358,2022-02-09 13:59:04Z,u01, 183,40,movements,el-ex, lt, d,15960.672890000002, 0.9709750721111972, -0.377233077573813, 0.3986908568075129, -0.008501308970153332, -0.6401780247688293, 0.16218222677707672, 0.767397940158844, 0.36834952235221863, -0.5248038172721863, 0.039868295192718506, 0.02517467737197876, 0.01566392183303833, -0.25331864148999966, 0.4164465691801195, 0.8688833765962614,0.08627661822049448,0.8072662353515625,0.393524169921875,-0.5091400146484375
20220209-1358,2022-02-09 13:59:04Z,u01, 184,40,movements,el-ex, lt, d,15960.697836000001, 0.9558292234257592, -0.3734446148031047, 0.40045736254055536, 0.08589689433574677, -0.6331176161766052, 0.17320331931114197, 0.7604960203170776, 0.3648248016834259, -0.5371673703193665, 0.03613483905792236, 0.03263622522354126, -0.0008269548416137695, -0.25143279873520985, 0.41011933646859977, 0.8720712474395083,0.08986389263384248,0.794036865234375,0.3968963623046875,-0.5442047119140625
20220209-1358,2022-02-09 13:59:04Z,u01, 185,40,movements,el-ex, lt, d,15960.722782, 0.9400313261669658, -0.36795431735454204, 0.4002198487338954, 0.19362561404705048, -0.6446807980537415, 0.16666045784950256, 0.7535215616226196, 0.35970744490623474, -0.5502870678901672, 0.02583634853363037, 0.028811931610107422, -0.01907932758331299, -0.24835525233554123, 0.4039506615263626, 0.8754935397668459,0.09303042964761846,0.77935791015625,0.388519287109375,-0.569366455078125
20220209-1358,2022-02-09 13:59:04Z,u01, 186,40,movements,el-ex, lt, d,15960.747729, 0.9230323041791803, -0.36165608987557357, 0.397851326654153, 0.24434299767017365, -0.6531480550765991, 0.14760741591453552, 0.745850682258606, 0.3538236916065216, -0.5643719434738159, 0.02755635976791382, 0.03725913166999817, -0.007298588752746582, -0.24441791248679112, 0.39758509610345505, 0.8792362340632063,0.095549973864937,0.773834228515625,0.3884735107421875,-0.569854736328125
20220209-1358,2022-02-09 13:59:04Z,u01, 187,40,movements,el-ex, lt, d,15960.772675, 0.9057936354595921, -0.3555275853788363, 0.39538639024168976, 0.20777036249637604, -0.6727813482284546, 0.13646215200424194, 0.737703800201416, 0.3480850160121918, -0.5784720778465271, 0.06321483850479126, 0.015577733516693115, -0.019824981689453125, -0.2404930852296779, 0.39105887895129876, 0.8829726570605427,0.09795536637567395,0.8009185791015625,0.3636627197265625,-0.598297119140625
20220209-1358,2022-02-09 13:59:04Z,u01, 188,40,movements,el-ex, lt, d,15960.797621000002, 0.8877750883644532, -0.34998457212201434, 0.3937009848323937, 0.16923242807388306, -0.7324997782707214, 0.1389538049697876, 0.7286468744277954, 0.34288331866264343, -0.592878520488739, 0.07683414220809937, 0.009869396686553955, -0.034913837909698486, -0.2369022307564796, 0.3839766732330491, 0.886745639543294,0.10060601429925387,0.797332763671875,0.34844970703125,-0.6288299560546875
20220209-1358,2022-02-09 13:59:04Z,u01, 189,40,movements,el-ex, lt, d,15960.822567916668, 0.8687916728624766, -0.3452895383426085, 0.393454338812486, 0.09711816161870956, -0.7785306572914124, 0.15365071594715118, 0.7184826135635376, 0.33846914768218994, -0.6076358556747437, 0.0414966344833374, -0.005690217018127441, -0.020507335662841797, -0.23386680659962528, 0.3761494064498725, 0.8905338145993534,0.10376655784275052,0.759979248046875,0.3327789306640625,-0.628143310546875
20220209-1358,2022-02-09 13:59:04Z,u01, 190,40,movements,el-ex, lt, d,15960.847513916668, 0.8496298775560273, -0.34096587536381245, 0.3941293501891219, 0.1278771311044693, -0.7826095819473267, 0.1454993188381195, 0.7078005075454712, 0.3343975245952606, -0.6222513318061829, 0.02715432643890381, -0.01652643084526062, -0.029695570468902588, -0.23111255142384712, 0.36805070281168345, 0.8942187774823182,0.10723094106314696,0.729888916015625,0.3134918212890625,-0.660491943359375
20220209-1358,2022-02-09 13:59:04Z,u01, 191,40,movements,el-ex, lt, d,15960.872460916667, 0.8301561639774347, -0.3351640760194639, 0.3925184107551479, 0.29703769087791443, -0.7538751363754272, 0.12522414326667786, 0.6969696879386902, 0.32892411947250366, -0.6372143626213074, 0.024465858936309814, -0.025289475917816162, -0.044456660747528076, -0.2272398928169459, 0.36021498866545015, 0.8980610149923157,0.10997107219388791,0.721435546875,0.3036346435546875,-0.681671142578125
20220209-1358,2022-02-09 13:59:04Z,u01, 192,40,movements,el-ex, lt, d,15960.897406916667, 0.8095750153869997, -0.3266637154829181, 0.3876270008993952, 0.43011796474456787, -0.7695994973182678, 0.12966948747634888, 0.6857079863548279, 0.32088497281074524, -0.653328001499176, 0.029395222663879395, -0.011711329221725464, -0.0361555814743042, -0.22150907621626248, 0.3525191017434713, 0.902305710544834,0.1118419456200383,0.711273193359375,0.3068389892578125,-0.688262939453125
20220209-1358,2022-02-09 13:59:04Z,u01, 193,40,movements,el-ex, lt, d,15960.922352916668, 0.7886590937270747, -0.3162315924795986, 0.3817189894097139, 0.45570120215415955, -0.7706424593925476, 0.15892982482910156, 0.6742321252822876, 0.3109872341156006, -0.669849157333374, 0.0399707555770874, -0.027234762907028198, -0.020885586738586426, -0.2147064863441358, 0.3449297515239164, 0.9066574689217977,0.1135640647987351,0.714202880859375,0.28375244140625,-0.69073486328125
20220209-1358,2022-02-09 13:59:04Z,u01, 194,40,movements,el-ex, lt, d,15960.947299916668, 0.7677264215737261, -0.3065258483488279, 0.3778967600838356, 0.2947935163974762, -0.8108399510383606, 0.1936907321214676, 0.6621288657188416, 0.30174824595451355, -0.6859543323516846, 0.03956180810928345, -0.02245137095451355, -0.006443679332733154, -0.20855150029183012, 0.3369408058507618, 0.9107856388018764,0.11595979265043643,0.695281982421875,0.275390625,-0.6928558349609375
20220209-1358,2022-02-09 13:59:04Z,u01, 195,40,movements,el-ex, lt, d,15960.972245916668, 0.7472329956698522, -0.29941573824927853, 0.37784572697830465, 0.13526208698749542, -0.8467470407485962, 0.1951076239347458, 0.6493749618530273, 0.29496198892593384, -0.7009347677230835, 0.032326698303222656, -0.00704386830329895, -0.0013356208801269531, -0.2041670984744109, 0.32840280235905966, 0.9144430060943882,0.11942096763760471,0.68170166015625,0.2879180908203125,-0.7022705078125
20220209-1358,2022-02-09 13:59:04Z,u01, 196,40,movements,el-ex, lt, d,15960.997191916667, 0.72656984725239, -0.2947044803005607, 0.3804752471449146, 0.02249518781900406, -0.8719597458839417, 0.20384864509105682, 0.6356699466705322, 0.2904570698738098, -0.7152331471443176, 0.03512167930603027, 0.015527456998825073, 0.016746819019317627, -0.2012266154830955, 0.319204139762191, 0.9177899992182428,0.1236050181583209,0.6681365966796875,0.3092803955078125,-0.7012786865234375
20220209-1358,2022-02-09 13:59:04Z,u01, 197,40,movements,el-ex, lt, d,15961.022138916667, 0.7059859020822103, -0.291491274986, 0.3846047266960182, -0.018443889915943146, -0.8754943013191223, 0.2000487744808197, 0.6214163303375244, 0.2873809039592743, -0.7288717031478882, 0.03736668825149536, 0.026843369007110596, 0.02493804693222046, -0.19913457552947517, 0.3096926922172028, 0.9208761301662916,0.12815226974030214,0.658782958984375,0.3142242431640625,-0.7039337158203125
20220209-1358,2022-02-09 13:59:04Z,u01, 198,40,movements,el-ex, lt, d,15961.047084916667, 0.6851161071390214, -0.2884424886114083, 0.3885326365095581, 0.024776920676231384, -0.8929721713066101, 0.1895878165960312, 0.6066222786903381, 0.2844594120979309, -0.7423559427261353, 0.04384469985961914, 0.03167220950126648, 0.020996689796447754, -0.19699566519749875, 0.30002458274909966, 0.9239058287380838,0.1325749423156294,0.643402099609375,0.3170318603515625,-0.72314453125
20220209-1358,2022-02-09 13:59:04Z,u01, 199,40,movements,el-ex, lt, d,15961.072030916668, 0.6639097021606609, -0.28487698903940806, 0.39158547747782585, 0.06137101352214813, -0.8746163845062256, 0.18438851833343506, 0.5913655757904053, 0.28103938698768616, -0.7558463215827942, 0.025104761123657227, 0.05106818675994873, 0.037142157554626465, -0.1944015292161969, 0.29031859585382114, 0.9269527176936362,0.13668199786073051,0.6164703369140625,0.3321075439453125,-0.7187042236328125
20220209-1358,2022-02-09 13:59:04Z,u01, 200,40,movements,el-ex, lt, d,15961.096977916668, 0.6433460647374268, -0.28165594513731623, 0.3944141961036144, -0.005834186915308237, -0.8560347557067871, 0.15059366822242737, 0.576238751411438, 0.27794671058654785, -0.7685666084289551, 0.04601466655731201, 0.050452977418899536, 0.06670808792114258, -0.1919136393853085, 0.2808662749315832, 0.9298043670945169,0.1405251592033272,0.621673583984375,0.3246002197265625,-0.697509765625
20220209-1358,2022-02-09 13:59:04Z,u01, 201,40,movements,el-ex, lt, d,15961.121923916668, 0.6232636338706232, -0.2806264011893638, 0.39761900271312967, -0.03742390498518944, -0.8281106948852539, 0.0948425903916359, 0.5608556270599365, 0.27695760130882263, -0.7802150249481201, 0.027858972549438477, 0.040852487087249756, 0.06701922416687012, -0.1904565585100646, 0.27132780955518276, 0.9323846596943994,0.14410602904619216,0.588714599609375,0.31781005859375,-0.71319580078125
20220209-1358,2022-02-09 13:59:04Z,u01, 202,40,movements,el-ex, lt, d,15961.146869916667, 0.6034038513173248, -0.27991423316983016, 0.3993509403516143, 0.01183382235467434, -0.8120797276496887, 0.05616637319326401, 0.5453629493713379, 0.2762732207775116, -0.7913610935211182, 0.024201929569244385, 0.04872375726699829, 0.07453376054763794, -0.18891605919688773, 0.2619735966013092, 0.9349318549889214,0.1469118709932564,0.5646209716796875,0.3186798095703125,-0.7149200439453125
20220209-1358,2022-02-09 13:59:04Z,u01, 203,40,movements,el-ex, lt, d,15961.171816916667, 0.5840055562758025, -0.27960646112378834, 0.4001946317080627, -0.03301830589771271, -0.7668788433074951, 0.01111587230116129, 0.529957115650177, 0.27597740292549133, -0.801861584186554, 0.019603490829467773, 0.050286054611206055, 0.10223090648651123, -0.187447136900929, 0.2528493176831908, 0.9373773992048919,0.14917976751474135,0.549560546875,0.326263427734375,-0.6996307373046875
20220209-1358,2022-02-09 13:59:04Z,u01, 204,40,movements,el-ex, lt, d,15961.196762916668, 0.5655835224788572, -0.279371463720194, 0.40069740371577367, 0.05490143224596977, -0.7236472368240356, 0.02054985612630844, 0.5151308178901672, 0.275751531124115, -0.8115425705909729, 0.02324509620666504, 0.04869610071182251, 0.09740078449249268, -0.18601791777943233, 0.2441844532176532, 0.9396375133624494,0.15117115489469038,0.5285797119140625,0.3201751708984375,-0.720489501953125
20220209-1358,2022-02-09 13:59:04Z,u01, 205,40,movements,el-ex, lt, d,15961.221708916668, 0.5481151521497529, -0.27732510404696703, 0.39904300245043206, 0.18489256501197815, -0.6616750359535217, -0.016648713499307632, 0.5011696219444275, 0.27378395199775696, -0.8208966851234436, 0.005361199378967285, 0.03818202018737793, 0.09335768222808838, -0.1835467246226275, 0.23635196522349664, 0.9419400254311542,0.15230690634123312,0.50653076171875,0.3119659423828125,-0.7275390625
20220209-1358,2022-02-09 13:59:04Z,u01, 206,40,movements,el-ex, lt, d,15961.246655916668, 0.5313935118105781, -0.27359683477262914, 0.3958711391852273, 0.15580591559410095, -0.614362359046936, -0.02830776572227478, 0.48788732290267944, 0.27019622921943665, -0.8300361037254333, 0.014905095100402832, 0.03757357597351074, 0.11856460571289062, -0.18017066933644593, 0.22917343631126358, 0.9442727340190267,0.15286298811306206,0.5021514892578125,0.29833984375,-0.712493896484375
20220209-1358,2022-02-09 13:59:04Z,u01, 207,40,movements,el-ex, lt, d,15961.271601916667, 0.5161097384413301, -0.2724081079182093, 0.39390011235892874, 0.037705499678850174, -0.5721305012702942, -0.06274616718292236, 0.47530290484428406, 0.26905152201652527, -0.8376744389533997, 0.00344163179397583, 0.02880007028579712, 0.13123834133148193, -0.1782241248990747, 0.22225872530054214, 0.9461953761547567,0.15346565206355098,0.4787445068359375,0.2978515625,-0.7064361572265625
20220209-1358,2022-02-09 13:59:04Z,u01, 208,40,movements,el-ex, lt, d,15961.296547916667, 0.5020557267437731, -0.2724206474498959, 0.39177029510321876, 0.046054642647504807, -0.5148376822471619, -0.08306635171175003, 0.4634820520877838, 0.2690635919570923, -0.8442684412002563, 0.0008429288864135742, 0.03673776984214783, 0.15475434064865112, -0.17691751683038853, 0.215791524843581, 0.9478974073281312,0.15370322945842205,0.46173095703125,0.3025054931640625,-0.685577392578125
20220209-1358,2022-02-09 13:59:04Z,u01, 209,40,movements,el-ex, lt, d,15961.321494916667, 0.4897543432720159, -0.2735810022526185, 0.38971800598578415, -0.06704407930374146, -0.44578641653060913, -0.09099005162715912, 0.45291441679000854, 0.27018097043037415, -0.849629819393158, 0.01591193675994873, 0.020849943161010742, 0.20258086919784546, -0.17629661070340918, 0.21001095255643115, 0.9493169997144038,0.1536628291052936,0.4688262939453125,0.2910308837890625,-0.6470489501953125
20220209-1358,2022-02-09 13:59:04Z,u01, 210,40,movements,el-ex, lt, d,15961.346440916668, 0.4792537100823368, -0.2778696031152698, 0.38975027898993375, -0.2256164848804474, -0.3815431296825409, -0.08290136605501175, 0.443429559469223, 0.27430757880210876, -0.8533027172088623, 0.025366246700286865, 0.018340766429901123, 0.23909074068069458, -0.17750139928787687, 0.20455288714482572, 0.950220736690241,0.1540516689859321,0.4624786376953125,0.2944183349609375,-0.6020050048828125
20220209-1358,2022-02-09 13:59:04Z,u01, 211,40,movements,el-ex, lt, d,15961.371386916668, 0.47204731261372074, -0.28519121911722195, 0.39098768896671143, -0.29927799105644226, -0.23410452902317047, -0.11185698956251144, 0.4363439381122589, 0.28134095668792725, -0.8546644449234009, 0.0063593387603759766, 0.01748722791671753, 0.2663160562515259, -0.1805032114726419, 0.2002158357084453, 0.9505305540262744,0.15435013714705506,0.4427032470703125,0.298828125,-0.588348388671875
20220209-1358,2022-02-09 13:59:04Z,u01, 212,40,movements,el-ex, lt, d,15961.396333916668, 0.4681734285078359, -0.29237874815422016, 0.3915312449429504, -0.1780543178319931, -0.1078471913933754, -0.11507055908441544, 0.4321061074733734, 0.288230836391449, -0.8545216917991638, 0.008064210414886475, 0.0229417085647583, 0.2651662826538086, -0.18362776370583078, 0.19753478814154568, 0.9505416043563104,0.15405089914446107,0.4371337890625,0.3080596923828125,-0.594207763671875
20220209-1358,2022-02-09 13:59:04Z,u01, 213,40,movements,el-ex, lt, d,15961.421279916667, 0.46682946091059024, -0.2961492897625235, 0.38986215692695736, -0.03206505626440048, 0.003260350786149502, -0.12497732043266296, 0.43046510219573975, 0.2918393015861511, -0.8541250824928284, -0.02030879259109497, -0.019179970026016235, 0.23672401905059814, -0.18512741114983283, 0.1966349374414839, 0.9506221934753919,0.15290556024170815,0.41015625,0.2726593017578125,-0.617401123046875
20220209-1358,2022-02-09 13:59:04Z,u01, 214,40,movements,el-ex, lt, d,15961.446225916668, 0.4683308812739483, -0.2989822323372525, 0.38775469448012345, -0.060180582106113434, 0.11325076222419739, -0.11120344698429108, 0.4313720762729645, 0.2945477366447449, -0.8527366518974304, -0.02643430233001709, -0.031089484691619873, 0.23403853178024292, -0.18636177473257154, 0.19723328196103568, 0.9504969355624742,0.15140661808867334,0.405303955078125,0.2624359130859375,-0.6219482421875
20220209-1358,2022-02-09 13:59:05Z,u01, 215,40,movements,el-ex, lt, d,15961.471172916668, 0.4742038719989297, -0.30312536363116976, 0.3868462845728921, -0.08261431753635406, 0.2338087409734726, -0.093174509704113, 0.43581172823905945, 0.2985045313835144, -0.8490955233573914, 0.004663735628128052, -0.033901870250701904, 0.21350598335266113, -0.1886543949553383, 0.19965410110743104, 0.949778220953708,0.14989709323469796,0.4404754638671875,0.2646026611328125,-0.635589599609375
20220209-1358,2022-02-09 13:59:05Z,u01, 216,40,movements,el-ex, lt, d,15961.496118916668, 0.4807291684200617, -0.30504680089247915, 0.38488788835887117, 0.034439701586961746, 0.31908655166625977, -0.10600915551185608, 0.44107696413993835, 0.3003378212451935, -0.8457235097885132, -0.010077148675918579, -0.013381004333496094, 0.17348235845565796, -0.18984252154171807, 0.20272653706323693, 0.9491719543415407,0.1481024129317163,0.4226226806640625,0.2922821044921875,-0.6758880615234375
20220209-1358,2022-02-09 13:59:05Z,u01, 217,40,movements,el-ex, lt, d,15961.521064916667, 0.48955896696418216, -0.3055964074223422, 0.38206868321416365, -0.0030260165221989155, 0.4173996150493622, -0.10546979308128357, 0.4484495520591736, 0.30086201429367065, -0.8416501879692078, -0.011361509561538696, -0.019642502069473267, 0.16165757179260254, -0.1904594488809323, 0.2071233786687478, 0.948447087379892,0.14585368471710275,0.4370880126953125,0.281219482421875,-0.67999267578125
20220209-1358,2022-02-09 13:59:05Z,u01, 218,40,movements,el-ex, lt, d,15961.546011916667, 0.49972040773380433, -0.30824284178630623, 0.38092081385067106, -0.10560349375009537, 0.4112134277820587, -0.06458833813667297, 0.4565954804420471, 0.3033847510814667, -0.8363481163978577, 0.03034302592277527, -0.027902573347091675, 0.12753170728683472, -0.1923110606887034, 0.21176021192489952, 0.9473341856381705,0.1439857799046896,0.492279052734375,0.2785491943359375,-0.7172088623046875
20220209-1358,2022-02-09 13:59:05Z,u01, 219,40,movements,el-ex, lt, d,15961.570957916667, 0.510771483869838, -0.311491311311555, 0.3812757652124101, -0.13208293914794922, 0.4710617661476135, -0.040650852024555206, 0.4653257429599762, 0.3064785301685333, -0.8303871750831604, 0.011252045631408691, 0.0064334869384765625, 0.12681972980499268, -0.19465482458432878, 0.21660081782513538, 0.9459629795610485,0.1426448750386544,0.4765777587890625,0.3129119873046875,-0.7035675048828125
20220209-1358,2022-02-09 13:59:05Z,u01, 220,40,movements,el-ex, lt, d,15961.595903916668, 0.5235266798854549, -0.31573881134845877, 0.38256673427308596, -0.20267298817634583, 0.5090420842170715, -0.05136827751994133, 0.47522425651550293, 0.3105188310146332, -0.8232496380805969, 0.027491837739944458, 0.0011571943759918213, 0.1091536283493042, -0.19767720147660048, 0.2220335712656729, 0.9442596428343049,0.14141636601285676,0.509033203125,0.314117431640625,-0.7168121337890625
20220209-1358,2022-02-09 13:59:05Z,u01, 221,40,movements,el-ex, lt, d,15961.620850916668, 0.5368972935140516, -0.3203596810121237, 0.38387784298925376, -0.1512875109910965, 0.5223047137260437, -0.04704217240214348, 0.48544973134994507, 0.314907968044281, -0.8155805468559265, 0.02268323302268982, 0.01527702808380127, 0.09347361326217651, -0.20090849042573267, 0.2276961103391881, 0.942431355294522,0.14004841701582815,0.5081329345703125,0.3301849365234375,-0.72210693359375
20220209-1358,2022-02-09 13:59:05Z,u01, 222,40,movements,el-ex, lt, d,15961.645796916668, 0.550901705684131, -0.3246032275949709, 0.3845431902055603, -0.16665776073932648, 0.5743355751037598, -0.08016829937696457, 0.49611949920654297, 0.31893277168273926, -0.8075563907623291, 0.014424353837966919, -0.00414392352104187, 0.09103423357009888, -0.20392261981697157, 0.23374636586756975, 0.9405547159436701,0.13832943284052188,0.5223236083984375,0.3136749267578125,-0.71929931640625
20220209-1358,2022-02-09 13:59:05Z,u01, 223,40,movements,el-ex, lt, d,15961.670742916667, 0.5655594848398947, -0.3292691456878424, 0.3850895493246259, -0.1455906629562378, 0.576848030090332, -0.0737750455737114, 0.5070998072624207, 0.32335153222084045, -0.7989327907562256, 0.03408372402191162, 0.007214903831481934, 0.05280858278274536, -0.2071459665753908, 0.2400502875669405, 0.9385440635675157,0.1363874884707528,0.5411834716796875,0.33056640625,-0.746124267578125
20220209-1358,2022-02-09 13:59:05Z,u01, 224,40,movements,el-ex, lt, d,15961.695689916667, 0.580621973015483, -0.33310243801105066, 0.38539156191248825, -0.1415921151638031, 0.6139830350875854, -0.08337294310331345, 0.5183919668197632, 0.3269765079021454, -0.7901620864868164, 0.0011850595474243164, -0.008617103099822998, 0.04658609628677368, -0.20996505314020333, 0.24664474442693513, 0.9364956873255538,0.1343759254350914,0.5174560546875,0.318389892578125,-0.743408203125
20220209-1358,2022-02-09 13:59:05Z,u01, 225,40,movements,el-ex, lt, d,15961.720635916668, 0.5967344600319562, -0.33775802565262647, 0.38634680396025795, -0.21552279591560364, 0.6395515203475952, -0.05776239559054375, 0.5301944613456726, 0.33137261867523193, -0.7804396748542786, 0.012774348258972168, -0.004132628440856934, 0.05859220027923584, -0.21329314150610135, 0.25354721662200175, 0.9341799315353403,0.1323929356132683,0.54296875,0.327239990234375,-0.7218475341796875
20220209-1358,2022-02-09 13:59:05Z,u01, 226,40,movements,el-ex, lt, d,15961.745581916668, 0.61386570660125, -0.34299274834184645, 0.38824242990877644, -0.16650639474391937, 0.6788312792778015, -0.06159548461437225, 0.5424792170524597, 0.33630701899528503, -0.7698141932487488, 0.029099762439727783, 0.003872424364089966, 0.037651777267456055, -0.21705412188158735, 0.26073054584963984, 0.9315853244859688,0.13059813716811594,0.572540283203125,0.3395538330078125,-0.7314300537109375
20220209-1358,2022-02-09 13:59:05Z,u01, 227,40,movements,el-ex, lt, d,15961.770528916668, 0.6316330813174309, -0.34668252594410087, 0.38947740864672054, -0.12986323237419128, 0.7128559350967407, -0.043568409979343414, 0.5553339719772339, 0.3397795855998993, -0.7590481042861938, 0.0027562379837036133, 0.010165512561798096, 0.04313623905181885, -0.2200477565395751, 0.268430501368097, 0.9289667950423959,0.1286264718054031,0.5580902099609375,0.349945068359375,-0.715911865234375
20220209-1358,2022-02-09 13:59:05Z,u01, 228,40,movements,el-ex, lt, d,15961.795474916667, 0.6501290222061757, -0.34972033393968793, 0.3903205313730227, -0.10797034204006195, 0.7385591268539429, -0.05105861648917198, 0.5686501264572144, 0.3426350951194763, -0.7478223443031311, 0.01031416654586792, 0.006852269172668457, 0.03448927402496338, -0.2227190068485866, 0.2765593281281086, 0.9262393050786694,0.12645950753563673,0.5854034423828125,0.349517822265625,-0.7089385986328125
20220209-1358,2022-02-09 13:59:05Z,u01, 229,40,movements,el-ex, lt, d,15961.820420791668, 0.6687374446746208, -0.3520978425517269, 0.39098982404697163, -0.07291824370622635, 0.7215052247047424, -0.02238363027572632, 0.5819599628448486, 0.3448677062988281, -0.7364705801010132, 0.03873711824417114, 0.0002556443214416504, 0.007192075252532959, -0.22505274725648697, 0.284808633060457, 0.9234668051434086,0.1242760353020386,0.620697021484375,0.345123291015625,-0.729278564453125
20220209-1358,2022-02-09 13:59:05Z,u01, 230,40,movements,el-ex, lt, d,15961.845367791668, 0.6869447254593603, -0.3546688765089871, 0.39174134572146163, -0.14825034141540527, 0.7141215205192566, -0.05405993387103081, 0.5947076082229614, 0.3472798764705658, -0.7250652313232422, 0.01739877462387085, 0.005594909191131592, 0.003324568271636963, -0.22743892320524559, 0.2928120709780684, 0.920664021782007,0.12210869218881579,0.6118927001953125,0.3515625,-0.7140350341796875
20220209-1358,2022-02-09 13:59:05Z,u01, 231,40,movements,el-ex, lt, d,15961.870313791667, 0.7058965974855818, -0.35955425678229447, 0.3942561869116374, -0.2504403591156006, 0.7249605655670166, -0.039787255227565765, 0.607233464717865, 0.3518570363521576, -0.7123652100563049, 0.025579094886779785, -0.007679760456085205, 0.017602086067199707, -0.231147391748795, 0.30064644908767757, 0.9174599391891102,0.12020749878030756,0.6328125,0.34417724609375,-0.69476318359375
20220209-1358,2022-02-09 13:59:05Z,u01, 232,40,movements,el-ex, lt, d,15961.895259791667, 0.7253300534432728, -0.363965570032101, 0.39782581016845175, -0.1642625480890274, 0.7248371243476868, 0.007291439920663834, 0.6199259161949158, 0.35598281025886536, -0.6992625594139099, 0.03864341974258423, 0.013264626264572144, -0.009340286254882812, -0.23481731626764787, 0.30859286704733174, 0.914071873685674,0.11876002052400808,0.659210205078125,0.36968994140625,-0.7066192626953125
20220209-1358,2022-02-09 13:59:05Z,u01, 233,40,movements,el-ex, lt, d,15961.920206791669, 0.7448258370370132, -0.3665873311235886, 0.40041770801196613, -0.1306225210428238, 0.7635507583618164, -0.013166096992790699, 0.6328051686286926, 0.3584316074848175, -0.6863559484481812, 0.02069830894470215, 0.01966598629951477, 0.004913747310638428, -0.23753453571939137, 0.3168585741136932, 0.9107446759072274,0.11714219794003991,0.65350341796875,0.3780975341796875,-0.6814422607421875
20220209-1358,2022-02-09 13:59:05Z,u01, 234,40,movements,el-ex, lt, d,15961.945152791668, 0.7644927139190854, -0.3689269859129904, 0.401715508383673, -0.049300238490104675, 0.7661116719245911, -0.05015873908996582, 0.6455981135368347, 0.3606148362159729, -0.6731716394424438, 0.03411990404129028, 0.0289267897605896, -0.020660698413848877, -0.23991605944918218, 0.3253528497882184, 0.9074012252635342,0.11492972791090358,0.684478759765625,0.393829345703125,-0.696746826171875
20220209-1358,2022-02-09 13:59:05Z,u01, 235,40,movements,el-ex, lt, d,15961.970098791668, 0.7830250026887261, -0.37045338460924965, 0.4008944674266753, -0.03165576606988907, 0.7294129729270935, -0.08356788754463196, 0.6575729250907898, 0.36203810572624207, -0.6607013940811157, 0.03410804271697998, 0.01970633864402771, -0.0425456166267395, -0.24150255568780069, 0.3336552435293973, 0.9043236931122679,0.11202411756993591,0.691680908203125,0.381744384765625,-0.7032470703125
20220209-1358,2022-02-09 13:59:05Z,u01, 236,40,movements,el-ex, lt, d,15961.995045791668, 0.8008113398446007, -0.3741986536106085, 0.4015784200348017, -0.18435609340667725, 0.6709909439086914, -0.0813302993774414, 0.668241560459137, 0.3655267655849457, -0.6479532122612, 0.03207582235336304, -0.008440583944320679, -0.027370154857635498, -0.24423981752265864, 0.3411309202032509, 0.9011133145288482,0.10941363850918398,0.7053680419921875,0.355560302734375,-0.6792144775390625
20220209-1358,2022-02-09 13:59:05Z,u01, 237,40,movements,el-ex, lt, d,15962.019991791667, 0.8180298632961781, -0.3783886870780249, 0.4032974275323284, -0.12044618278741837, 0.6775202751159668, -0.07036679983139038, 0.6781750917434692, 0.36942362785339355, -0.6352989673614502, 0.025850236415863037, 0.014823228120803833, -0.02426213026046753, -0.24729127904148174, 0.3481343580261349, 0.8978622945029339,0.10720489012841355,0.7040252685546875,0.384246826171875,-0.6595611572265625
20220209-1358,2022-02-09 13:59:05Z,u01, 238,40,movements,el-ex, lt, d,15962.044937791668, 0.8356787299304558, -0.3812024093811764, 0.403069331762437, -0.009119895286858082, 0.7349772453308105, -0.11125610768795013, 0.6885074973106384, 0.3720368444919586, -0.622532069683075, 0.015823006629943848, 0.00998222827911377, -0.014156103134155273, -0.24940261662093388, 0.3557137847513391, 0.8946417605185011,0.10431863920839884,0.7103424072265625,0.383056640625,-0.6318817138671875
20220209-1358,2022-02-09 13:59:05Z,u01, 239,40,movements,el-ex, lt, d,15962.069884791668, 0.8533003594899768, -0.38307916333362063, 0.40089208638339985, 0.00628825556486845, 0.7220591306686401, -0.10595928132534027, 0.6988427639007568, 0.37377822399139404, -0.6098432540893555, 0.03869086503982544, -0.010725796222686768, -0.009205758571624756, -0.25072334613957137, 0.3636154174953601, 0.891500488561785,0.10074071537257315,0.7375335693359375,0.3630523681640625,-0.619049072265625
20220209-1358,2022-02-09 13:59:05Z,u01, 240,40,movements,el-ex, lt, d,15962.094830791668, 0.8704749504420507, -0.3857494096656339, 0.40033718354835107, -0.1216244325041771, 0.6617936491966248, -0.0750676840543747, 0.7084472179412842, 0.37625357508659363, -0.5971061587333679, 0.03541874885559082, -0.018450230360031128, -0.01467961072921753, -0.2526194400100993, 0.37098562165629734, 0.8882556146136831,0.09774999991781852,0.7398529052734375,0.358551025390625,-0.6084442138671875
20220209-1358,2022-02-09 13:59:05Z,u01, 241,40,movements,el-ex, lt, d,15962.119776791667, 0.8879912254330657, -0.39027567359466525, 0.40317163538212375, -0.23785856366157532, 0.6523134112358093, -0.07445528358221054, 0.7174685001373291, 0.38044336438179016, -0.5835253000259399, 0.0239865779876709, -0.009380102157592773, -0.015275299549102783, -0.25592959498770135, 0.3778060144688884, 0.8846411420448548,0.09577444764731072,0.741455078125,0.371063232421875,-0.5988006591796875
20220209-1358,2022-02-09 13:59:05Z,u01, 242,40,movements,el-ex, lt, d,15962.144723791667, 0.9060208752838766, -0.39560890027442297, 0.4070047405370028, -0.21338923275470734, 0.6725714206695557, -0.06857196241617203, 0.7262648344039917, 0.385370135307312, -0.5692357420921326, 0.0166245698928833, 0.002126842737197876, -0.011513710021972656, -0.2597783711703512, 0.3845742158032292, 0.8807916517168592,0.09393649909263466,0.7425384521484375,0.3918304443359375,-0.576171875
20220209-1358,2022-02-09 13:59:05Z,u01, 243,40,movements,el-ex, lt, d,15962.169669791667, 0.9237849133616136, -0.3984825510146964, 0.4080495722028593, 0.036910250782966614, 0.6985450387001038, -0.07169578969478607, 0.7353749871253967, 0.38802021741867065, -0.5555753111839294, 0.030890941619873047, 0.008906662464141846, -0.05175495147705078, -0.26201668434170444, 0.3918668044819364, 0.8771718767721387,0.09141767209262563,0.766265869140625,0.3969268798828125,-0.607330322265625
20220209-1358,2022-02-09 13:59:05Z,u01, 244,40,movements,el-ex, lt, d,15962.194615791668, 0.9395879991415876, -0.398290279069476, 0.4042371010245589, 0.12140442430973053, 0.6608081459999084, -0.08761443197727203, 0.7441228032112122, 0.3878430128097534, -0.5439292788505554, 0.023699522018432617, 0.000767827033996582, -0.04211503267288208, -0.2618896012056125, 0.39931091926335993, 0.8742249291393417,0.08772339557964423,0.7648468017578125,0.381134033203125,-0.58416748046875
20220209-1358,2022-02-09 13:59:05Z,u01, 245,40,movements,el-ex, lt, d,15962.219562791668, 0.9550447371098215, -0.40101201344384485, 0.40390517307219387, -0.2697499394416809, 0.5679477453231812, -0.09221218526363373, 0.7515764832496643, 0.3903502821922302, -0.5317513942718506, 0.013880729675292969, -0.03791797161102295, -0.008073985576629639, -0.26362792817132014, 0.405739591459267, 0.8710150303719408,0.08490360360904378,0.7654571533203125,0.3524322509765625,-0.539825439453125
20220209-1358,2022-02-09 13:59:05Z,u01, 246,40,movements,el-ex, lt, d,15962.244508791668, 0.9721087692020083, -0.40826724366122374, 0.412770497752908, -0.511041522026062, 0.5308083295822144, -0.007022983860224485, 0.7581809163093567, 0.3970195949077606, -0.5172399878501892, 0.038160085678100586, -0.027268588542938232, 0.0016608238220214844, -0.269177108236083, 0.4110032856406367, 0.8668559868149683,0.0847389723514845,0.805755615234375,0.376007080078125,-0.5140228271484375
20220209-1358,2022-02-09 13:59:05Z,u01, 247,40,movements,el-ex, lt, d,15962.269455791667, 0.9908960481859438, -0.41485028143209923, 0.4237490800908474, -0.38704225420951843, 0.609018862247467, 0.021708130836486816, 0.765561044216156, 0.4030529260635376, -0.5014623403549194, 0.03517436981201172, 0.014656424522399902, -0.008196353912353516, -0.27496189318149444, 0.41673106447188746, 0.8622363366912332,0.0853204393831597,0.8007354736328125,0.4177093505859375,-0.5096588134765625
20220209-1358,2022-02-09 13:59:05Z,u01, 248,40,movements,el-ex, lt, d,15962.294401791667, 1.0085993744130153, -0.4173060883925213, 0.4276193019048288, 0.07179299741983414, 0.6793806552886963, -0.04657845199108124, 0.7734784483909607, 0.40529918670654297, -0.4873024523258209, -0.016901910305023193, 0.031147927045822144, -0.0583365261554718, -0.27752887335869136, 0.423469598430395, 0.8582581118915558,0.08393001339721098,0.7487030029296875,0.4377593994140625,-0.54931640625
20220209-1358,2022-02-09 13:59:05Z,u01, 249,40,movements,el-ex, lt, d,15962.319347791668, 1.0235640261517622, -0.41699386456552034, 0.42317623791900777, 0.12166763842105865, 0.6276946067810059, -0.07915603369474411, 0.7807919979095459, 0.4050137400627136, -0.47573935985565186, -0.009765207767486572, -0.005416512489318848, -0.037139058113098145, -0.27706651215892075, 0.43053973779856036, 0.8552572880241098,0.08003043132940821,0.771026611328125,0.39959716796875,-0.51287841796875
20220209-1358,2022-02-09 13:59:05Z,u01, 250,40,movements,el-ex, lt, d,15962.344294791668, 1.0390663865679735, -0.419640643392369, 0.4246925905544877, -0.3370938301086426, 0.5400217175483704, -0.029774703085422516, 0.7871461510658264, 0.40743228793144226, -0.4630333483219147, 0.06635427474975586, -0.04161807894706726, -0.007807016372680664, -0.2790796533629978, 0.4365751573912938, 0.8517372881536838,0.07784775533340313,0.8723297119140625,0.36273193359375,-0.4783782958984375
20220209-1358,2022-02-09 13:59:05Z,u01, 251,40,movements,el-ex, lt, d,15962.369240791668, 1.0557300070386741, -0.4244000059022823, 0.4330896325810351, -0.28038880228996277, 0.5326108932495117, -0.013012565672397614, 0.7930558323860168, 0.4117740988731384, -0.4488927125930786, 0.05814051628112793, 0.023894906044006348, -0.06749516725540161, -0.283488072859273, 0.44180103590992836, 0.8475771161875477,0.07784263870750713,0.8511962890625,0.4356689453125,-0.516387939453125
