SessionID,LoggingTime,UID,RecNo,Hertz,Activity,MoveType,Wrist,Side,TimeStamp,DMRoll,DMPitch,DMYaw,DMRotX,DMRotY,DMRotZ,DMGrvX,DMGrvY,DMGrvZ,DMUAccelX,DMUAccelY,DMUAccelZ,DMQuatX,DMQuatY,DMQuatW,DMQuatZ,AccelroX,AceelroY,AceelroZ
20220209-1413,2022-02-09 14:14:00Z,u01, 1,40,movements,el-ex, lt, d,16843.49386275, 1.352548872815818, -0.4515403211526534, 0.36456218574481974, -0.128501757979393, 0.057411666959524155, -0.05682602897286415, 0.878432035446167, 0.4363519847393036, -0.1948186308145523, 0.001984894275665283, -0.0203973650932312, -0.032994985580444336, -0.28227402933714935, 0.5682535176339257, 0.7729226743049398,0.0,0.8804168701171875,0.41595458984375,-0.227813720703125
20220209-1413,2022-02-09 14:14:00Z,u01, 2,40,movements,el-ex, lt, d,16843.51880975, 1.3554058729863694, -0.4535591421082404, 0.3665127111373119, -0.022703681141138077, 0.1164877787232399, -0.07296770811080933, 0.8781226873397827, 0.43816760182380676, -0.19211947917938232, -0.004877328872680664, -0.0111655592918396, -0.03502276539802551, -0.2835564743629089, 0.5688022368992839, 0.7720490934378099,-0.00028881184262583015,0.875885009765625,0.4272918701171875,-0.2278900146484375
20220209-1413,2022-02-09 14:14:00Z,u01, 3,40,movements,el-ex, lt, d,16843.54375575, 1.3574896964430418, -0.4550357019966367, 0.3640907032549781, 0.16235202550888062, -0.3744910657405853, 0.3022782802581787, 0.8778877258300781, 0.43949437141418457, -0.19015200436115265, -0.2839698791503906, 0.02657008171081543, 0.026974692940711975, -0.2833977805352795, 0.5697452872783317, 0.7714091178772442,-0.0019860800135883053,0.5939178466796875,0.466064453125,-0.163177490234375
20220209-1413,2022-02-09 14:14:00Z,u01, 4,40,movements,el-ex, lt, d,16843.568702750003, 1.3576078281931332, -0.4546530562446517, 0.3574105466483431, 0.2781814932823181, 0.13781869411468506, -0.04020277410745621, 0.8780744671821594, 0.4391506314277649, -0.19008387625217438, 0.016731441020965576, -0.026629269123077393, -0.04175804555416107, -0.28135498711128937, 0.5707866815593615, 0.7713767089489661,-0.004458121978424316,0.8753509521484375,0.417205810546875,-0.23370361328125
20220209-1413,2022-02-09 14:14:00Z,u01, 5,40,movements,el-ex, lt, d,16843.59364975, 1.3577272166323864, -0.45402099476679664, 0.3497717955199196, 0.24920016527175903, 0.12576362490653992, -0.02782626636326313, 0.8783684372901917, 0.4385826885700226, -0.19003772735595703, 0.009922027587890625, -0.023345232009887695, -0.04361999034881592, -0.2789442121865861, 0.5719888654586736, 0.7713409542449664,-0.007220867378711339,0.8882904052734375,0.4152374267578125,-0.2336578369140625
20220209-1413,2022-02-09 14:14:00Z,u01, 6,40,movements,el-ex, lt, d,16843.618596750002, 1.3572158976471946, -0.45331388487556235, 0.3444487266984998, 0.11761794984340668, 0.02228337898850441, 0.01060854084789753, 0.8785738945007324, 0.4379471242427826, -0.1905524879693985, 0.027737140655517578, -0.038807690143585205, -0.06159888207912445, -0.2771675893312298, 0.5726271771335923, 0.7714892115292422,-0.008979235379981812,0.908355712890625,0.391021728515625,-0.253326416015625
20220209-1413,2022-02-09 14:14:00Z,u01, 7,40,movements,el-ex, lt, d,16843.64354275, 1.3561408863941276, -0.45360636073881677, 0.3446121951790173, -0.1309819221496582, -0.08751881867647171, 0.034539639949798584, 0.8782435059547424, 0.43821004033088684, -0.19146959483623505, 0.016562461853027344, -0.045982807874679565, -0.03829711675643921, -0.27732491240355983, 0.572150412787908, 0.7717878445120561,-0.008859595862813513,0.894805908203125,0.3922271728515625,-0.229766845703125
20220209-1413,2022-02-09 14:14:00Z,u01, 8,40,movements,el-ex, lt, d,16843.66848975, 1.3560322052711355, -0.4531626331927719, 0.3505315741126284, -0.2513785660266876, -0.10109814256429672, 0.06601221114397049, 0.8784125447273254, 0.43781113624572754, -0.19160646200180054, 0.006490528583526611, -0.03337690234184265, -0.03628349304199219, -0.27885710910665235, 0.5713453293028411, 0.7718562908760422,-0.00641985654558469,0.8845062255859375,0.410888671875,-0.230865478515625
20220209-1413,2022-02-09 14:14:00Z,u01, 9,40,movements,el-ex, lt, d,16843.69343675, 1.3565124632282037, -0.4524998852799808, 0.357203517071575, -0.19574286043643951, -0.08654477447271347, 0.07827233523130417, 0.8787876963615417, 0.4372151792049408, -0.19124621152877808, 0.004818260669708252, -0.008046478033065796, -0.03934447467327118, -0.28052147076940487, 0.5706878281095666, 0.7717573777285607,-0.003702687807676422,0.88360595703125,0.429168701171875,-0.2305908203125
20220209-1413,2022-02-09 14:14:00Z,u01, 10,40,movements,el-ex, lt, d,16843.71838275, 1.3540957260334068, -0.4468780429263459, 0.36085702925263424, -0.12297645211219788, -0.10015072673559189, 0.0789121687412262, 0.8807095289230347, 0.43215227127075195, -0.1938948780298233, 0.005414187908172607, -0.004265278577804565, -0.02868497371673584, -0.27953544929762186, 0.5700109616039032, 0.7726237382308051,-0.0001761493748867471,0.8866424560546875,0.43206787109375,-0.2223968505859375
20220209-1413,2022-02-09 14:14:00Z,u01, 11,40,movements,el-ex, lt, d,16843.74332975, 1.3490763129373395, -0.43976801741722865, 0.3626285151508576, -0.09619973599910736, -0.13457055389881134, 0.07539379596710205, 0.8827002644538879, 0.42572957277297974, -0.19898371398448944, 0.01456230878829956, 0.006673991680145264, -0.04265430569648743, -0.27746198058031846, 0.568790817490167, 0.774260860004546,0.0034514766285866846,0.8972625732421875,0.432403564453125,-0.24163818359375
20220209-1413,2022-02-09 14:14:00Z,u01, 12,40,movements,el-ex, lt, d,16843.76827675, 1.344393552441647, -0.4377566477444653, 0.36453335360350325, -0.07846211642026901, -0.16356033086776733, 0.06872664391994476, 0.8825915455818176, 0.42390871047973633, -0.20330680906772614, 0.0071942806243896484, 0.007426738739013672, -0.048234209418296814, -0.2772623780942224, 0.5669851550204783, 0.7756439349892098,0.0054719648276662855,0.8876495361328125,0.4319000244140625,-0.2527008056640625
20220209-1413,2022-02-09 14:14:00Z,u01, 13,40,movements,el-ex, lt, d,16843.793223750003, 1.3391876056338718, -0.43661496678533646, 0.3658198635719306, -0.04645678028464317, -0.17676907777786255, 0.06512311100959778, 0.8819915652275085, 0.42287442088127136, -0.20800970494747162, 0.0006530880928039551, 0.004432708024978638, -0.04656784236431122, -0.2771948980535051, 0.5649408246236745, 0.7771454887615143,0.007051280886083679,0.8826446533203125,0.42730712890625,-0.25457763671875
20220209-1413,2022-02-09 14:14:00Z,u01, 14,40,movements,el-ex, lt, d,16843.81817066667, 1.3342841022970493, -0.4352694786558416, 0.36697464350174547, -0.027380425482988358, -0.20105257630348206, 0.07855956256389618, 0.8815132975578308, 0.42165476083755493, -0.21246515214443207, 0.009859323501586914, 0.0011815130710601807, -0.043027907609939575, -0.2770109120248519, 0.5630562809006944, 0.7785618549669313,0.008600819465366803,0.894195556640625,0.4215850830078125,-0.256744384765625
20220209-1413,2022-02-09 14:14:00Z,u01, 15,40,movements,el-ex, lt, d,16843.843117666667, 1.3278763280024297, -0.4334294361496353, 0.367715393818442, -0.03892049938440323, -0.23998786509037018, 0.09658024460077286, 0.8808855414390564, 0.4199855923652649, -0.21829558908939362, 0.02591383457183838, -0.003344327211380005, -0.05894124507904053, -0.27651620441175584, 0.5607058012956377, 0.7804106560108571,0.010350169404242451,0.90679931640625,0.4166412353515625,-0.2772369384765625
20220209-1413,2022-02-09 14:14:00Z,u01, 16,40,movements,el-ex, lt, d,16843.86806466667, 1.321344488135171, -0.43153453955370363, 0.3690044441888667, -0.032717298716306686, -0.26733365654945374, 0.09414298087358475, 0.8802104592323303, 0.418265163898468, -0.2242407351732254, 0.013924121856689453, 0.0010311007499694824, -0.06131218373775482, -0.27614524767536774, 0.5582324168983157, 0.7822838489836369,0.012345018930493293,0.8924407958984375,0.4210205078125,-0.2870025634765625
20220209-1413,2022-02-09 14:14:01Z,u01, 17,40,movements,el-ex, lt, d,16843.893011666667, 1.3140833155316507, -0.42970967959203055, 0.36996824891765606, -0.031558092683553696, -0.28722065687179565, 0.07478832453489304, 0.8792958855628967, 0.4166069030761719, -0.23081956803798676, 0.007682383060455322, -0.0022849738597869873, -0.0550689697265625, -0.27569436172534784, 0.5555023255109804, 0.7843505374196673,0.014289002295018442,0.8869781494140625,0.4143218994140625,-0.285888671875
20220209-1413,2022-02-09 14:14:01Z,u01, 18,40,movements,el-ex, lt, d,16843.91795766667, 1.3063827023321046, -0.42756514509565535, 0.37071286881298704, 0.009247993119060993, -0.320657342672348, 0.08673673123121262, 0.8783525824546814, 0.4146563708782196, -0.2378166764974594, 0.014652788639068604, 0.0016644001007080078, -0.05510619282722473, -0.2750507455295935, 0.5526651340535477, 0.7865383052148813,0.01630239015771051,0.893157958984375,0.4144134521484375,-0.2950897216796875
20220209-1413,2022-02-09 14:14:01Z,u01, 19,40,movements,el-ex, lt, d,16843.942904666666, 1.2974772596194448, -0.425112532453606, 0.37034236836989043, 0.05614865943789482, -0.361234575510025, 0.11018772423267365, 0.8771767020225525, 0.412423312664032, -0.24590308964252472, 0.02310723066329956, 0.004416346549987793, -0.0634077787399292, -0.2739637851349227, 0.5495382618914392, 0.7890646285550733,0.01813064306481467,0.9002838134765625,0.416839599609375,-0.3093109130859375
20220209-1413,2022-02-09 14:14:01Z,u01, 20,40,movements,el-ex, lt, d,16843.967851666668, 1.288765999493104, -0.42289170426455547, 0.3703860634556031, 0.02105315402150154, -0.3821949064731598, 0.1092037558555603, 0.8758788704872131, 0.4103991389274597, -0.2537892460823059, 0.02211618423461914, -0.0022112131118774414, -0.05710846185684204, -0.27306696393347607, 0.5463879634859696, 0.7915138215862655,0.020016385864116734,0.8974456787109375,0.408966064453125,-0.310760498046875
20220209-1413,2022-02-09 14:14:01Z,u01, 21,40,movements,el-ex, lt, d,16843.99279766667, 1.2797608518804617, -0.4208809155357091, 0.37130255967071163, 0.011301225051283836, -0.41600075364112854, 0.1129266619682312, 0.8743467330932617, 0.40856465697288513, -0.2619025409221649, 0.023541569709777832, -0.00034624338150024414, -0.0644676685333252, -0.27247092691369984, 0.5429625463766325, 0.7940137173024407,0.02221760806262517,0.89788818359375,0.4082183837890625,-0.3263702392578125
20220209-1413,2022-02-09 14:14:01Z,u01, 22,40,movements,el-ex, lt, d,16844.017744666668, 1.2694815541102016, -0.4184093694068047, 0.371711804620542, 0.044827960431575775, -0.4412705600261688, 0.11073048412799835, 0.8725699782371521, 0.40630754828453064, -0.2711750566959381, 0.027622342109680176, 0.004001319408416748, -0.06575417518615723, -0.27153511596027946, 0.5391485451780338, 0.7968602347742779,0.02452341021115753,0.90185546875,0.412078857421875,-0.3392333984375
20220209-1413,2022-02-09 14:14:01Z,u01, 23,40,movements,el-ex, lt, d,16844.04269166667, 1.2582829424076072, -0.41563404933194176, 0.37094980723692744, 0.10603968054056168, -0.45172128081321716, 0.10881280153989792, 0.8705482482910156, 0.4037700891494751, -0.28127503395080566, 0.03255850076675415, 0.01430550217628479, -0.0552421510219574, -0.27014214589667573, 0.5351501724766008, 0.7999573907709692,0.02656668689133193,0.903106689453125,0.4180755615234375,-0.336517333984375
20220209-1413,2022-02-09 14:14:01Z,u01, 24,40,movements,el-ex, lt, d,16844.067638666667, 1.245472619321215, -0.4121638102298913, 0.3667529230855758, 0.30138829350471497, -0.4481683671474457, 0.07451395690441132, 0.8681961894035339, 0.4005928635597229, -0.29284974932670593, 0.02810513973236084, 0.03654095530509949, -0.035977065563201904, -0.26753533756744025, 0.531036695278084, 0.8035304805596181,0.027637193710105784,0.8956298828125,0.441375732421875,-0.3339385986328125
20220209-1413,2022-02-09 14:14:01Z,u01, 25,40,movements,el-ex, lt, d,16844.09258466667, 1.2310275281199936, -0.40777516734093594, 0.35705379287074385, 0.4845823049545288, -0.40995845198631287, 0.04209788888692856, 0.8655246496200562, 0.3965679109096527, -0.3059428632259369, 0.024795234203338623, 0.03514903783798218, -0.05163151025772095, -0.2630981224969387, 0.527074898276898, 0.8076173552120175,0.026938597362809465,0.89031982421875,0.4317169189453125,-0.357574462890625
20220209-1413,2022-02-09 14:14:01Z,u01, 26,40,movements,el-ex, lt, d,16844.117531666667, 1.2154025596419191, -0.402441185810725, 0.3428897738277627, 0.6440864205360413, -0.4093962609767914, 0.02021629363298416, 0.8626096844673157, 0.39166566729545593, -0.32016023993492126, 0.036667048931121826, 0.028363019227981567, -0.06333884596824646, -0.25712410036867955, 0.5232657823222059, 0.8120749007546095,0.024788928204028067,0.9013671875,0.420196533203125,-0.39013671875
20220209-1413,2022-02-09 14:14:01Z,u01, 27,40,movements,el-ex, lt, d,16844.14247866667, 1.1978712554390087, -0.39580500270296415, 0.32532784679256815, 0.7412843704223633, -0.46067196130752563, 0.021787293255329132, 0.8592661619186401, 0.3855510652065277, -0.33617252111434937, 0.04004102945327759, 0.0031055212020874023, -0.07978197932243347, -0.24976437208351174, 0.5191642324568561, 0.8170755232718699,0.021767323173450745,0.8993072509765625,0.3886566162109375,-0.41595458984375
20220209-1413,2022-02-09 14:14:01Z,u01, 28,40,movements,el-ex, lt, d,16844.167424666666, 1.1783952689390562, -0.388400286130507, 0.30795433547261053, 0.6431633830070496, -0.5742288827896118, 0.05449410900473595, 0.8551709055900574, 0.3787083327770233, -0.35392484068870544, 0.0528644323348999, -0.009216725826263428, -0.07139855623245239, -0.242168727422208, 0.5141905155518453, 0.822554601736915,0.01914238229245454,0.9086456298828125,0.3640594482421875,-0.427703857421875
20220209-1413,2022-02-09 14:14:01Z,u01, 29,40,movements,el-ex, lt, d,16844.192371666668, 1.1585766664527566, -0.3819449513363738, 0.29643727973731204, 0.3397095501422882, -0.6613496541976929, 0.0977233350276947, 0.8502114415168762, 0.3727259635925293, -0.371774286031723, 0.048882246017456055, -0.03417918086051941, -0.07369071245193481, -0.2364771046500388, 0.5081254164928193, 0.8279750365883478,0.01856658209229839,0.8990936279296875,0.3385467529296875,-0.445465087890625
20220209-1413,2022-02-09 14:14:01Z,u01, 30,40,movements,el-ex, lt, d,16844.217318666666, 1.140086317621366, -0.3779625248528811, 0.2927127831608798, 0.09941163659095764, -0.7045952677726746, 0.08630649745464325, 0.8445342779159546, 0.3690275549888611, -0.38804715871810913, 0.044046103954315186, -0.019280850887298584, -0.053496360778808594, -0.23376399875056822, 0.5013290487120677, 0.8328336510844477,0.020291542540718875,0.886077880859375,0.35943603515625,-0.440338134765625
20220209-1413,2022-02-09 14:14:01Z,u01, 31,40,movements,el-ex, lt, d,16844.242265666668, 1.121391235048492, -0.373502824558129, 0.2906564152801765, 0.2159206122159958, -0.7423217296600342, 0.19784115254878998, 0.8386064767837524, 0.36487898230552673, -0.40447798371315, 0.03819406032562256, 0.014744430780410767, -0.04991334676742554, -0.23125300194255277, 0.4942499995875775, 0.8376862439287508,0.02281834220280078,0.876800537109375,0.3796234130859375,-0.4543914794921875
20220209-1413,2022-02-09 14:14:01Z,u01, 32,40,movements,el-ex, lt, d,16844.26721166667, 1.100316248531699, -0.36574731543157357, 0.2875139125680449, 0.2481335699558258, -0.8680955767631531, 0.2585165500640869, 0.8323940634727478, 0.35764726996421814, -0.4233306348323822, 0.04919791221618652, -0.010036736726760864, -0.03603518009185791, -0.22707434206839813, 0.48659215412457124, 0.843202299567527,0.025988843794803818,0.883056640625,0.330474853515625,-0.470947265625
20220209-1413,2022-02-09 14:14:01Z,u01, 33,40,movements,el-ex, lt, d,16844.292158666667, 1.0774263389677947, -0.358651244129121, 0.2865992352480775, 0.05331019312143326, -0.9243811368942261, 0.2060864269733429, 0.8247013092041016, 0.35101160407066345, -0.4434622824192047, 0.03552830219268799, -0.046766579151153564, -0.07255935668945312, -0.22362571977110232, 0.47776605475405953, 0.8490161247059068,0.030048249325871218,0.8602294921875,0.3042449951171875,-0.516021728515625
20220209-1413,2022-02-09 14:14:01Z,u01, 34,40,movements,el-ex, lt, d,16844.31710566667, 1.0557742736404576, -0.35423983982552526, 0.2897050972561044, -0.06139405071735382, -0.9038442373275757, 0.21798349916934967, 0.8162465691566467, 0.3468775153160095, -0.461971640586853, 0.03708606958389282, -0.008590102195739746, -0.0447269082069397, -0.2221874652036332, 0.4686650298410359, 0.8542636084754487,0.03492454751462858,0.85113525390625,0.352752685546875,-0.49713134765625
20220209-1413,2022-02-09 14:14:01Z,u01, 35,40,movements,el-ex, lt, d,16844.342051666667, 1.0345003719744688, -0.3499337181302544, 0.2936182893409251, 0.0008688559755682945, -0.9043482542037964, 0.24199283123016357, 0.8075111508369446, 0.34283554553985596, -0.47998932003974915, 0.028685927391052246, 0.012450158596038818, -0.020224273204803467, -0.22090676240794802, 0.4595710482112285, 0.8592966411304801,0.040051842583564964,0.8361968994140625,0.35528564453125,-0.500213623046875
20220209-1413,2022-02-09 14:14:01Z,u01, 36,40,movements,el-ex, lt, d,16844.36699866667, 1.0133338958183766, -0.34450475084271925, 0.2957952210631472, 0.0953742265701294, -0.8643083572387695, 0.2188263237476349, 0.7987390160560608, 0.3377305567264557, -0.49795001745224, 0.032559871673583984, 0.005699038505554199, -0.031774044036865234, -0.21868196782530597, 0.45078064761844505, 0.8642798482566734,0.04467169030310738,0.8338470458984375,0.3460845947265625,-0.534637451171875
20220209-1413,2022-02-09 14:14:01Z,u01, 37,40,movements,el-ex, lt, d,16844.391945666666, 0.9915884612742002, -0.3373355102449117, 0.2950269189341296, 0.22420722246170044, -0.8729928135871887, 0.21970637142658234, 0.7897289395332336, 0.33097395300865173, -0.516511857509613, 0.04448437690734863, 0.016071975231170654, -0.04080009460449219, -0.2149827741666243, 0.44218376868180737, 0.8694297978763533,0.048453733093518796,0.8342132568359375,0.3470458984375,-0.55731201171875
20220209-1413,2022-02-09 14:14:01Z,u01, 38,40,movements,el-ex, lt, d,16844.416892666668, 0.9689806824966306, -0.3296982592627732, 0.29324887353903684, 0.2266346514225006, -0.8921781182289124, 0.21024641394615173, 0.7799118757247925, 0.3237575590610504, -0.5356478095054626, 0.053187549114227295, 0.006747841835021973, -0.05979585647583008, -0.2107835123034037, 0.43329713272207854, 0.8747160841485878,0.05192037915668683,0.8312225341796875,0.3235015869140625,-0.597076416015625
20220209-1413,2022-02-09 14:14:01Z,u01, 39,40,movements,el-ex, lt, d,16844.44183866667, 0.9464370033349662, -0.32301773849199317, 0.2916831306572843, 0.18510697782039642, -0.8954097032546997, 0.17256201803684235, 0.7693769931793213, 0.31742966175079346, -0.5543443560600281, 0.05789369344711304, 0.010146081447601318, -0.024955570697784424, -0.20698673005283938, 0.4242455821374429, 0.8798464058024819,0.05516073089798195,0.8272705078125,0.32757568359375,-0.5792999267578125
20220209-1413,2022-02-09 14:14:01Z,u01, 40,40,movements,el-ex, lt, d,16844.466785666667, 0.9233592226325764, -0.3167274271965536, 0.29073479469935976, 0.15935997664928436, -0.9243525862693787, 0.17678134143352509, 0.7579578757286072, 0.31145843863487244, -0.5731436610221863, 0.05678528547286987, 0.014179408550262451, -0.023215532302856445, -0.2034218247815019, 0.4147863694572066, 0.8849535472775303,0.05855941125113707,0.80682373046875,0.3199615478515625,-0.59942626953125
20220209-1413,2022-02-09 14:14:01Z,u01, 41,40,movements,el-ex, lt, d,16844.49173266667, 0.9001627408548881, -0.31135185862682785, 0.2908219228234964, 0.11067821085453033, -0.943327009677887, 0.1884543001651764, 0.7457611560821533, 0.30634579062461853, -0.5916018486022949, 0.04520881175994873, 0.0007221102714538574, -0.013592183589935303, -0.2004079703861197, 0.40501323803316774, 0.8899091897624254,0.06215106904677128,0.7909698486328125,0.30706787109375,-0.605194091796875
20220209-1413,2022-02-09 14:14:01Z,u01, 42,40,movements,el-ex, lt, d,16844.516678666667, 0.8767388735021957, -0.3061157585409079, 0.29261654278699867, 0.042629119008779526, -0.964308500289917, 0.21588246524333954, 0.732923150062561, 0.301357239484787, -0.6099242568016052, 0.04335254430770874, -0.0010794997215270996, -0.006866455078125, -0.19772791989805266, 0.3948943358327221, 0.8947338082715296,0.0664360739448058,0.7712554931640625,0.296722412109375,-0.622772216796875
20220209-1413,2022-02-09 14:14:01Z,u01, 43,40,movements,el-ex, lt, d,16844.54162566667, 0.8539631790700632, -0.3021300070457953, 0.2962303287094029, -0.020204536616802216, -0.9526379108428955, 0.21801412105560303, 0.7197425961494446, 0.2975544035434723, -0.6272416114807129, 0.039290666580200195, 0.027000069618225098, 0.003248751163482666, -0.19589837279018835, 0.38471160662196785, 0.899198442413836,0.0711553982615789,0.759033203125,0.324554443359375,-0.623992919921875
20220209-1413,2022-02-09 14:14:01Z,u01, 44,40,movements,el-ex, lt, d,16844.566572666667, 0.831145897837065, -0.29849206331108585, 0.3005254034385283, -0.027945183217525482, -0.9747640490531921, 0.21004588901996613, 0.7060394883155823, 0.2940792739391327, -0.6442248225212097, 0.03717041015625, 0.028796732425689697, 0.011870145797729492, -0.19426708385048294, 0.37436331708778187, 0.9035065328465448,0.07608100456746186,0.738616943359375,0.3246002197265625,-0.639923095703125
20220209-1413,2022-02-09 14:14:01Z,u01, 45,40,movements,el-ex, lt, d,16844.59151966667, 0.8079011284155804, -0.29532003355785086, 0.3049248480593431, -0.03967617452144623, -1.0011030435562134, 0.21390366554260254, 0.6915460824966431, 0.29104605317115784, -0.6611023545265198, 0.03979247808456421, 0.04628002643585205, 0.007156491279602051, -0.19275800538691756, 0.36372129932068026, 0.9077415511856466,0.08097251620069607,0.7313385009765625,0.3373260498046875,-0.6539459228515625
20220209-1413,2022-02-09 14:14:01Z,u01, 46,40,movements,el-ex, lt, d,16844.616465666666, 0.7837836972701937, -0.2927757696151017, 0.3098957781811977, -0.10313846915960312, -1.0513170957565308, 0.19575722515583038, 0.6759229898452759, 0.2886109948158264, -0.6781089901924133, 0.051143109798431396, 0.03698107600212097, -0.006232321262359619, -0.1915056652355718, 0.3525210216759975, 0.9119475681351337,0.08605907641439359,0.722503662109375,0.3271331787109375,-0.686553955078125
20220209-1413,2022-02-09 14:14:01Z,u01, 47,40,movements,el-ex, lt, d,16844.641412666668, 0.7585714114742662, -0.2919226152125659, 0.3154652731166081, -0.13637861609458923, -1.0957450866699219, 0.15747155249118805, 0.658782422542572, 0.2877940237522125, -0.6951117515563965, 0.04991203546524048, 0.029420971870422363, -0.034365177154541016, -0.19097089843127443, 0.3405499190049409, 0.9161014857513308,0.09118107859095725,0.7086944580078125,0.3172149658203125,-0.7294769287109375
20220209-1413,2022-02-09 14:14:01Z,u01, 48,40,movements,el-ex, lt, d,16844.66635966667, 0.7324124653976121, -0.29186846878663864, 0.3195852956460058, -0.004267149604856968, -1.0968025922775269, 0.10430294275283813, 0.640386164188385, 0.28774216771125793, -0.7121165990829468, 0.055323123931884766, 0.06386613845825195, -0.019954264163970947, -0.190413904684319, 0.3281527571026598, 0.920284481076848,0.09557705654896209,0.69427490234375,0.362335205078125,-0.73565673828125
20220209-1413,2022-02-09 14:14:01Z,u01, 49,40,movements,el-ex, lt, d,16844.691305666667, 0.7039743846361366, -0.285030143370612, 0.3172970861936968, 0.5759944319725037, -1.1278815269470215, 0.1071619763970375, 0.621137797832489, 0.28118637204170227, -0.7315203547477722, 0.06663691997528076, 0.07373306155204773, -0.08247488737106323, -0.18556560036856867, 0.3159196378796951, 0.9252402348217948,0.09844139657281266,0.687774658203125,0.35491943359375,-0.813995361328125
20220209-1413,2022-02-09 14:14:01Z,u01, 50,40,movements,el-ex, lt, d,16844.71625266667, 0.6726868568366742, -0.2673835819963133, 0.3053587979163396, 1.020072340965271, -1.1258573532104492, 0.0771946907043457, 0.6009485721588135, 0.26420891284942627, -0.7543570399284363, 0.0661352276802063, 0.07401743531227112, -0.08147358894348145, -0.17410791135440445, 0.30415115624162864, 0.9313519287430005,0.09880379837082406,0.662872314453125,0.331146240234375,-0.828521728515625
20220209-1413,2022-02-09 14:14:01Z,u01, 51,40,movements,el-ex, lt, d,16844.741199666667, 0.6402526600724153, -0.24681697702909072, 0.29136121794507625, 0.8616416454315186, -1.194931983947754, 0.08053702861070633, 0.579293966293335, 0.2443186342716217, -0.7776419520378113, 0.07327878475189209, 0.031316161155700684, -0.02393275499343872, -0.16093833547396857, 0.29202377459988216, 0.9376221247086008,0.09841672569669047,0.6525726318359375,0.275634765625,-0.80157470703125
20220209-1413,2022-02-09 14:14:01Z,u01, 52,40,movements,el-ex, lt, d,16844.76614666667, 0.6085448981778776, -0.23370832218085139, 0.284210955185859, 0.28602132201194763, -1.2104432582855225, 0.08665557205677032, 0.5561328530311584, 0.23158662021160126, -0.7981753945350647, 0.0828748345375061, 0.0018728971481323242, 0.0009037256240844727, -0.15225384976552944, 0.2788029083621975, 0.9429544862057777,0.09962285771405088,0.6355438232421875,0.2254180908203125,-0.7961883544921875
20220209-1413,2022-02-09 14:14:01Z,u01, 53,40,movements,el-ex, lt, d,16844.791092666666, 0.5784405974590164, -0.2319237299663818, 0.2860607511448162, -0.19063793122768402, -1.2270188331604004, 0.12431986629962921, 0.5320810675621033, 0.229850172996521, -0.8148979544639587, 0.065926194190979, -0.01738676428794861, 0.012987613677978516, -0.15014522065323793, 0.2645891947182897, 0.9470116296337986,0.10304345285948394,0.5980072021484375,0.21246337890625,-0.801910400390625
20220209-1413,2022-02-09 14:14:01Z,u01, 54,40,movements,el-ex, lt, d,16844.816038166668, 0.5494779117485391, -0.23535857363670917, 0.2927661256452351, -0.25741279125213623, -1.20353102684021, 0.16426734626293182, 0.5078442692756653, 0.23319168388843536, -0.8292863368988037, 0.05499148368835449, 0.00183945894241333, 0.012132465839385986, -0.15109375650019774, 0.25005498844044605, 0.950262676976431,0.10790791827232521,0.5561981201171875,0.2367706298828125,-0.818389892578125
20220209-1413,2022-02-09 14:14:01Z,u01, 55,40,movements,el-ex, lt, d,16844.84098516667, 0.5212074984652996, -0.2375226013020438, 0.2990184492488841, -0.13882599771022797, -1.1850298643112183, 0.17160747945308685, 0.4839477837085724, 0.23529550433158875, -0.8428704142570496, 0.05931094288825989, 0.020243465900421143, 0.027425527572631836, -0.15131402936146351, 0.23594245942420206, 0.9532728577803854,0.11272156463215409,0.5432586669921875,0.2555389404296875,-0.8154449462890625
20220209-1413,2022-02-09 14:14:01Z,u01, 56,40,movements,el-ex, lt, d,16844.865932166667, 0.4933415787781076, -0.23775407087268072, 0.30400100916653183, -0.07040958851575851, -1.1285665035247803, 0.16087961196899414, 0.46024978160858154, 0.23552046716213226, -0.8559791445732117, 0.05534476041793823, 0.02860918641090393, 0.053916215896606445, -0.15039267235704368, 0.22224417480919004, 0.9561697554012822,0.11717152322790994,0.512969970703125,0.2663116455078125,-0.800201416015625
20220209-1413,2022-02-09 14:14:02Z,u01, 57,40,movements,el-ex, lt, d,16844.89087816667, 0.46689762881114794, -0.23727912759439873, 0.30836439907233293, -0.07017356157302856, -1.0867581367492676, 0.15682294964790344, 0.4375063478946686, 0.23505885899066925, -0.8679490685462952, 0.058129698038101196, 0.04246801137924194, 0.07186752557754517, -0.1490615616122369, 0.2092991413094519, 0.9587809305673218,0.12129983445820841,0.495635986328125,0.27752685546875,-0.79608154296875
20220209-1413,2022-02-09 14:14:02Z,u01, 58,40,movements,el-ex, lt, d,16844.915825166667, 0.44169509308305727, -0.23718590680655213, 0.3127663672529398, -0.06335623562335968, -1.0239474773406982, 0.15050306916236877, 0.4155045747756958, 0.23496825993061066, -0.8787183165550232, 0.05374905467033386, 0.03082461655139923, 0.07180309295654297, -0.1479104864088179, 0.19688404038809892, 0.9610725356333509,0.1252949682667706,0.46728515625,0.265869140625,-0.814056396484375
20220209-1413,2022-02-09 14:14:02Z,u01, 59,40,movements,el-ex, lt, d,16844.94077216667, 0.4172983969737525, -0.2377662091990878, 0.3169214072848122, -0.12029395252466202, -1.0097609758377075, 0.12817752361297607, 0.3938899040222168, 0.2355322688817978, -0.8884679675102234, 0.04872184991836548, 0.0396600216627121, 0.08254456520080566, -0.14703265133856505, 0.18479018436636277, 0.9631127946717501,0.1290268373524805,0.4426116943359375,0.2751922607421875,-0.8059234619140625
20220209-1413,2022-02-09 14:14:02Z,u01, 60,40,movements,el-ex, lt, d,16844.965718166666, 0.393590644510789, -0.24037357790006136, 0.3213596041957222, -0.2115495651960373, -0.987873375415802, 0.11753551661968231, 0.3724808096885681, 0.23806548118591309, -0.8969854116439819, 0.05078279972076416, 0.0447256863117218, 0.09365600347518921, -0.14712544550084686, 0.1728044818394487, 0.9648328492795359,0.1326280570030195,0.41900634765625,0.283447265625,-0.798370361328125
20220209-1413,2022-02-09 14:14:02Z,u01, 61,40,movements,el-ex, lt, d,16844.990665166668, 0.3708217150606394, -0.2459703155166416, 0.3264940051298537, -0.3598549962043762, -0.9328569173812866, 0.08633552491664886, 0.3514742851257324, 0.2434975504875183, -0.9039772152900696, 0.039303332567214966, 0.04187235236167908, 0.12454307079315186, -0.14870457062379847, 0.1609296267316405, 0.9661438370030216,0.13621624563308365,0.390777587890625,0.285369873046875,-0.7794342041015625
20220209-1413,2022-02-09 14:14:02Z,u01, 62,40,movements,el-ex, lt, d,16845.015612166666, 0.3496078314040539, -0.2566542753871316, 0.33150960016401726, -0.5873920321464539, -0.8711949586868286, -0.020046640187501907, 0.3313097357749939, 0.25384584069252014, -0.9087333083152771, 0.03798353672027588, 0.05958494544029236, 0.1225852370262146, -0.15275713582411854, 0.14932721615147598, 0.9669496695771527,0.13919458477208102,0.3658599853515625,0.3220977783203125,-0.784454345703125
20220209-1413,2022-02-09 14:14:02Z,u01, 63,40,movements,el-ex, lt, d,16845.040559166668, 0.32928567890138966, -0.27353753056217, 0.33562254853595896, -0.7579495310783386, -0.8400580286979675, -0.12474475800991058, 0.31134480237960815, 0.2701391279697418, -0.9110923409461975, 0.04146897792816162, 0.06924688816070557, 0.13077318668365479, -0.15972937821042107, 0.13762394966368344, 0.9672694552975357,0.1411947839841782,0.352813720703125,0.339385986328125,-0.7803192138671875
20220209-1413,2022-02-09 14:14:02Z,u01, 64,40,movements,el-ex, lt, d,16845.06550516667, 0.3090547186412433, -0.2919476150781697, 0.3375068670053448, -0.6413320899009705, -0.833960235118866, -0.19576087594032288, 0.2912878692150116, 0.28781798481941223, -0.9123114943504333, 0.04941043257713318, 0.061059027910232544, 0.12620919942855835, -0.1672564774906543, 0.12597433862037966, 0.9674494445618612,0.14211783558276364,0.33428955078125,0.3480682373046875,-0.78338623046875
20220209-1413,2022-02-09 14:14:02Z,u01, 65,40,movements,el-ex, lt, d,16845.090452166667, 0.2881735680639138, -0.30581446084388497, 0.33591083982757564, -0.3717290759086609, -0.7853865027427673, -0.24026063084602356, 0.2710152268409729, 0.3010699450969696, -0.9142798781394958, 0.028957366943359375, 0.05793887376785278, 0.15198129415512085, -0.17233592473079734, 0.11471879763452929, 0.9679837260607684,0.14194184067264534,0.2999725341796875,0.3590087890625,-0.762298583984375
20220209-1413,2022-02-09 14:14:02Z,u01, 66,40,movements,el-ex, lt, d,16845.11539916667, 0.2680533601536197, -0.31451331767356494, 0.33197924910474297, -0.26151135563850403, -0.7381976246833801, -0.2366669625043869, 0.25186291337013245, 0.30935370922088623, -0.9169871211051941, 0.04693472385406494, 0.031237751245498657, 0.17176318168640137, -0.17487790722135868, 0.10451869510614693, 0.9688076105258965,0.14108670256138028,0.2935028076171875,0.3327484130859375,-0.7356414794921875
20220209-1413,2022-02-09 14:14:02Z,u01, 67,40,movements,el-ex, lt, d,16845.140345166667, 0.2497910646926877, -0.32340525429777606, 0.3280891019804787, -0.35096457600593567, -0.6372228264808655, -0.23856046795845032, 0.23438628017902374, 0.31779712438583374, -0.9187317490577698, 0.02348729968070984, -0.007265448570251465, 0.21304333209991455, -0.17767847557403948, 0.095207544834687, 0.9693953571932296,0.14013731840465798,0.25787353515625,0.3105316162109375,-0.7056884765625
20220209-1413,2022-02-09 14:14:02Z,u01, 68,40,movements,el-ex, lt, d,16845.16529216667, 0.2337892980365033, -0.3346023322174915, 0.3246399798850892, -0.43366289138793945, -0.5443035364151001, -0.22588808834552765, 0.21881745755672455, 0.3283935785293579, -0.9188452363014221, 0.021096527576446533, -0.03182375431060791, 0.2284919023513794, -0.18179637534313892, 0.0867609187345815, 0.9695742802335737,0.13909832654125415,0.2352447509765625,0.296417236328125,-0.6849517822265625
20220209-1413,2022-02-09 14:14:02Z,u01, 69,40,movements,el-ex, lt, d,16845.190239166666, 0.22172431553675753, -0.3466902906309955, 0.32188209521030536, -0.4146062731742859, -0.356825590133667, -0.18562674522399902, 0.20682783424854279, 0.3397868871688843, -0.9174786806106567, 0.02621971070766449, -0.03320726752281189, 0.23365604877471924, -0.1866674960542732, 0.08009934366261241, 0.9693730321129527,0.13804101194706717,0.2330474853515625,0.30657958984375,-0.6838226318359375
20220209-1413,2022-02-09 14:14:02Z,u01, 70,40,movements,el-ex, lt, d,16845.215186166668, 0.21390321423863495, -0.3555628218265235, 0.3195442752875491, -0.19965332746505737, -0.21221907436847687, -0.15247352421283722, 0.19899806380271912, 0.34811803698539734, -0.9160860180854797, 0.009437039494514465, -0.03021639585494995, 0.22084981203079224, -0.19031156622703432, 0.07575285189490058, 0.9691539651865851,0.13705345393356358,0.2004547119140625,0.32440185546875,-0.698272705078125
20220209-1413,2022-02-09 14:14:02Z,u01, 71,40,movements,el-ex, lt, d,16845.24013216667, 0.20917175623990447, -0.3580847726105401, 0.31627908336266314, 0.05765810236334801, -0.09306072443723679, -0.138799786567688, 0.19447851181030273, 0.3504811227321625, -0.9161556363105774, -0.007863476872444153, -0.021043837070465088, 0.2163265347480774, -0.19108171366168167, 0.07355252963283068, 0.9693543045672119,0.1357576032456726,0.186614990234375,0.329437255859375,-0.6998291015625
20220209-1413,2022-02-09 14:14:02Z,u01, 72,40,movements,el-ex, lt, d,16845.265079166667, 0.20787883372353783, -0.3578266098402807, 0.312818419255385, 0.03950846195220947, 0.06164643168449402, -0.09680452942848206, 0.19331249594688416, 0.3502393364906311, -0.9164947867393494, 0.011613085865974426, -0.033787280321121216, 0.25920718908309937, -0.19074302135654697, 0.07327827240239454, 0.9696558336038008,0.13422009134662305,0.20648193359375,0.31817626953125,-0.650543212890625
20220209-1413,2022-02-09 14:14:02Z,u01, 73,40,movements,el-ex, lt, d,16845.29002616667, 0.21210176578300557, -0.3584828098180196, 0.31035968743199094, 0.0499931275844574, 0.30896979570388794, -0.10548284649848938, 0.1971326321363449, 0.35085389018058777, -0.9154453873634338, -0.03265810012817383, -0.02047055959701538, 0.2668706178665161, -0.19124946880865937, 0.07550455510092552, 0.9696106252905721,0.13258232662723685,0.1644744873046875,0.33038330078125,-0.6485748291015625
20220209-1413,2022-02-09 14:14:02Z,u01, 74,40,movements,el-ex, lt, d,16845.314972166667, 0.22134910215205617, -0.3532291860643735, 0.3058519434517037, 0.4916377067565918, 0.5191037654876709, -0.13090018928050995, 0.20599135756492615, 0.34592941403388977, -0.9153689742088318, -0.030942484736442566, 0.030718564987182617, 0.22971534729003906, -0.18914796509822351, 0.08086128275123752, 0.969958673355313,0.12986434436655517,0.1943206787109375,0.3764495849609375,-0.6982879638671875
20220209-1413,2022-02-09 14:14:02Z,u01, 75,40,movements,el-ex, lt, d,16845.33991916667, 0.23191139868364652, -0.3381911432195768, 0.2987664650386559, 0.7285785675048828, 0.4691336452960968, -0.10312514752149582, 0.21681930124759674, 0.3317812383174896, -0.9181016087532043, 0.09024862945079803, -0.013803303241729736, 0.17701280117034912, -0.18227234607561862, 0.08789752499405411, 0.9711112502530732,0.12646665788601502,0.30706787109375,0.3179779052734375,-0.7410888671875
20220209-1413,2022-02-09 14:14:02Z,u01, 76,40,movements,el-ex, lt, d,16845.364866166667, 0.2403977233384919, -0.3227077634387616, 0.29262804247401714, 0.5663135051727295, 0.3938722610473633, -0.07594911754131317, 0.2257988303899765, 0.3171357214450836, -0.9211079478263855, 0.06181412935256958, -0.03617557883262634, 0.147044837474823, -0.17504614676224475, 0.0938342647663519, 0.9722279365314954,0.12380231757172205,0.262847900390625,0.2763671875,-0.77911376953125
20220209-1413,2022-02-09 14:14:02Z,u01, 77,40,movements,el-ex, lt, d,16845.38981316667, 0.2503168237014517, -0.31139454028745156, 0.28761646995761697, 0.43231385946273804, 0.5472798943519592, -0.06933389604091644, 0.23579782247543335, 0.30638641119003296, -0.9222400784492493, -0.06779849529266357, -0.03516140580177307, 0.12425124645233154, -0.169941433676011, 0.09999931267321077, 0.9728325084759283,0.12131431143072241,0.167999267578125,0.2712249755859375,-0.7979888916015625
20220209-1413,2022-02-09 14:14:02Z,u01, 78,40,movements,el-ex, lt, d,16845.414759166666, 0.26432805976264734, -0.30254508737198144, 0.2841176300427631, 0.3139970004558563, 0.6030372381210327, 0.0007065758109092712, 0.24939459562301636, 0.2979506552219391, -0.9214270114898682, 0.003611445426940918, -0.05100241303443909, 0.10625672340393066, -0.16632174970608085, 0.10781265658364088, 0.9728988601837664,0.11908536752309051,0.2776641845703125,0.2389678955078125,-0.8223876953125
20220209-1413,2022-02-09 14:14:02Z,u01, 79,40,movements,el-ex, lt, d,16845.439706166668, 0.2786723240181618, -0.29686658020166024, 0.28359249165260975, 0.17156799137592316, 0.5612009167671204, 0.08052344620227814, 0.26304686069488525, 0.2925252914428711, -0.9193668365478516, 0.03564399480819702, -0.055022209882736206, 0.09234046936035156, -0.1643973917662528, 0.11528265150361747, 0.9724920899914881,0.11807949992804503,0.2986907958984375,0.2375030517578125,-0.8270263671875
20220209-1413,2022-02-09 14:14:02Z,u01, 80,40,movements,el-ex, lt, d,16845.46465316667, 0.2934660873485269, -0.28950377734171795, 0.28444201640802247, 0.45605412125587463, 0.6318091750144958, 0.13753493130207062, 0.2772339880466461, 0.2854766845703125, -0.9174118041992188, -0.0063141584396362305, -0.012557953596115112, 0.08779144287109375, -0.1617630723565546, 0.12299112848684562, 0.9720140468059048,0.11787545139095318,0.2651824951171875,0.2827911376953125,-0.8331146240234375
20220209-1413,2022-02-09 14:14:02Z,u01, 81,40,movements,el-ex, lt, d,16845.489600166668, 0.3106624288581302, -0.2728859722077741, 0.2825648224520858, 0.8183900713920593, 0.765634298324585, 0.12399136275053024, 0.29437804222106934, 0.26951172947883606, -0.9168996810913086, -0.0057579874992370605, 0.028522968292236328, 0.053343772888183594, -0.15462574501448856, 0.13281958222527526, 0.9719892258469293,0.11699095041392597,0.2886199951171875,0.29803466796875,-0.863555908203125
20220209-1413,2022-02-09 14:14:02Z,u01, 82,40,movements,el-ex, lt, d,16845.51454616667, 0.3289878816937673, -0.2520565808103514, 0.27866431930590446, 0.7942057251930237, 0.7843940854072571, 0.10616469383239746, 0.3128763735294342, 0.24939608573913574, -0.9164660573005676, -0.005304902791976929, 0.017998963594436646, 0.05085021257400513, -0.14535850272059916, 0.14365894209650576, 0.972051571717371,0.11553698028384154,0.3087310791015625,0.2579193115234375,-0.8642425537109375
20220209-1413,2022-02-09 14:14:02Z,u01, 83,40,movements,el-ex, lt, d,16845.539493166667, 0.34762154734515344, -0.23638853071074245, 0.2749858588158593, 0.45273739099502563, 0.7710860967636108, 0.041114918887615204, 0.33118879795074463, 0.2341931313276291, -0.914039134979248, 0.021182477474212646, 0.009382963180541992, 0.04486805200576782, -0.13858388300468558, 0.15419121907483674, 0.9716260043133741,0.11385305394621405,0.3523712158203125,0.2435760498046875,-0.869171142578125
20220209-1413,2022-02-09 14:14:02Z,u01, 84,40,movements,el-ex, lt, d,16845.56444016667, 0.3657112107976448, -0.23110087296991288, 0.27406093599397924, -0.04892716184258461, 0.6806062459945679, 0.02911444567143917, 0.34810635447502136, 0.22904926538467407, -0.9090425968170166, 0.05011758208274841, 1.570582389831543e-05, 0.0316774845123291, -0.13698243876041127, 0.16344576991255522, 0.9704787250487991,0.1126606607041569,0.397918701171875,0.2260284423828125,-0.8780517578125
20220209-1413,2022-02-09 14:14:02Z,u01, 85,40,movements,el-ex, lt, d,16845.589386166666, 0.3819124617011637, -0.23644385571091964, 0.2764024093256112, -0.35401853919029236, 0.5816447138786316, -0.01049055252224207, 0.36232635378837585, 0.23424690961837769, -0.9021352529525757, 0.003503143787384033, -0.006784126162528992, 0.017232298851013184, -0.14066306105130527, 0.170722813031248, 0.9687580316104243,0.11214092277634033,0.3658294677734375,0.2274627685546875,-0.8849029541015625
20220209-1413,2022-02-09 14:14:02Z,u01, 86,40,movements,el-ex, lt, d,16845.614333166668, 0.39726113727036444, -0.24589695436314915, 0.27977691997296306, -0.44585004448890686, 0.6061607599258423, -0.027287375181913376, 0.375256210565567, 0.2434263974428177, -0.8943860530853271, -0.03190287947654724, 0.006848275661468506, 0.032218754291534424, -0.1463592975963228, 0.1771607776081878, 0.9668076774451327,0.1116956859489392,0.350799560546875,0.2521209716796875,-0.8478851318359375
20220209-1413,2022-02-09 14:14:02Z,u01, 87,40,movements,el-ex, lt, d,16845.639280166666, 0.4141303238585197, -0.25871494351256835, 0.2844799009375379, -0.6428443193435669, 0.6354832649230957, -0.023249156773090363, 0.38900208473205566, 0.2558384835720062, -0.8849994540214539, 0.05960637331008911, 0.014715135097503662, 0.07800793647766113, -0.15386742494806116, 0.1839159536344133, 0.9644207639449925,0.11132097016199764,0.4486083984375,0.2705535888671875,-0.8069915771484375
20220209-1413,2022-02-09 14:14:02Z,u01, 88,40,movements,el-ex, lt, d,16845.664227166668, 0.4316695284208282, -0.2753690447665731, 0.291283689745476, -0.7325157523155212, 0.6403195261955261, -0.05656636506319046, 0.4026249945163727, 0.27190208435058594, -0.8740494251251221, 0.05167496204376221, -0.0004024505615234375, 0.06731730699539185, -0.16343286137602753, 0.19043367014996235, 0.961576389560768,0.11133604966701299,0.43731689453125,0.2807464599609375,-0.8082733154296875
20220209-1413,2022-02-09 14:14:02Z,u01, 89,40,movements,el-ex, lt, d,16845.68917316667, 0.4501865446862083, -0.288760039369314, 0.2954017372158865, -0.28542816638946533, 0.7697269916534424, -0.11163455247879028, 0.41711798310279846, 0.28476381301879883, -0.8630887269973755, -0.019550174474716187, 0.03821897506713867, 0.010961711406707764, -0.17122723782769234, 0.19783038536720698, 0.9588541995817796,0.11019563846023767,0.3975677490234375,0.3229827880859375,-0.8521270751953125
20220209-1413,2022-02-09 14:14:02Z,u01, 90,40,movements,el-ex, lt, d,16845.714120166667, 0.46887094213502994, -0.2898623059925174, 0.29282444594058693, 0.21503303945064545, 0.7589874863624573, -0.10355931520462036, 0.4330284297466278, 0.28582027554512024, -0.8548644185066223, 0.04782184958457947, 0.02298712730407715, -0.02662050724029541, -0.1725046960985638, 0.20690557420098585, 0.9570454232186392,0.10722133027574607,0.487823486328125,0.2979583740234375,-0.8777618408203125
20220209-1413,2022-02-09 14:14:02Z,u01, 91,40,movements,el-ex, lt, d,16845.73906716667, 0.4851248709985065, -0.2852462152755886, 0.28702424254761666, 0.25672850012779236, 0.6950305104255676, -0.12287401407957077, 0.44747599959373474, 0.28139373660087585, -0.8488714694976807, 0.013904064893722534, -0.0008608698844909668, 0.0014594197273254395, -0.1705638738123379, 0.215574170774589, 0.9558743448849168,0.10363378876334675,0.4613800048828125,0.2805328369140625,-0.847412109375
20220209-1413,2022-02-09 14:14:02Z,u01, 92,40,movements,el-ex, lt, d,16845.764013166667, 0.5019102142134158, -0.2841903513553745, 0.28241813993801856, -0.018716663122177124, 0.7723258137702942, -0.13120678067207336, 0.4618035852909088, 0.28038036823272705, -0.8415012359619141, 0.006183534860610962, -0.013015836477279663, 0.04021644592285156, -0.17041365612216638, 0.22407269204479552, 0.9543179126161534,0.10013991063333237,0.4865875244140625,0.2634124755859375,-0.7956085205078125
20220209-1413,2022-02-09 14:14:02Z,u01, 93,40,movements,el-ex, lt, d,16845.78896016667, 0.5213842947486675, -0.2885606094222496, 0.28159434258189375, -0.19299732148647308, 0.775374174118042, -0.1116393432021141, 0.47748756408691406, 0.28457263112068176, -0.8312785625457764, 0.052145034074783325, -0.018840789794921875, 0.015574276447296143, -0.17334221405514275, 0.23305188929536882, 0.9519113894045992,0.09748947677189326,0.529632568359375,0.2657318115234375,-0.815704345703125
20220209-1413,2022-02-09 14:14:02Z,u01, 94,40,movements,el-ex, lt, d,16845.813908541666, 0.5398757475190044, -0.2918072591653262, 0.2799360934297677, 0.05217771977186203, 0.7407161593437195, -0.13563701510429382, 0.4922991096973419, 0.28768354654312134, -0.8215106725692749, 0.007594168186187744, 0.008932054042816162, -0.029029428958892822, -0.17555980741126564, 0.2417093410653094, 0.9496309225242218,0.09463947759794597,0.4949798583984375,0.297576904296875,-0.8502044677734375
20220209-1413,2022-02-09 14:14:02Z,u01, 95,40,movements,el-ex, lt, d,16845.838855541668, 0.5566107905341611, -0.2917380710380331, 0.2764230262011195, 0.008375108242034912, 0.6965026259422302, -0.08731236308813095, 0.5059880614280701, 0.2876172959804535, -0.813174307346344, 0.018151402473449707, -0.036549150943756104, -0.0035675764083862305, -0.17587435975723423, 0.24996211664662743, 0.9477408771756919,0.09151257061122625,0.524139404296875,0.251068115234375,-0.816741943359375
20220209-1413,2022-02-09 14:14:02Z,u01, 96,40,movements,el-ex, lt, d,16845.86380154167, 0.5743789243705599, -0.2950745730857437, 0.2774932839828805, -0.24552388489246368, 0.7094066739082336, 0.00030164141207933426, 0.5198317170143127, 0.2908112108707428, -0.8032458424568176, 0.04102039337158203, -0.03345644474029541, -0.007957100868225098, -0.17837662641121438, 0.25799004302239437, 0.9452675796451104,0.08995712059049477,0.5609130859375,0.2699737548828125,-0.8094482421875
20220209-1413,2022-02-09 14:14:03Z,u01, 97,40,movements,el-ex, lt, d,16845.888748541667, 0.5941295046815394, -0.3004647469774683, 0.281437763723589, -0.22649236023426056, 0.7597394585609436, -0.0013116346672177315, 0.5347086191177368, 0.29596415162086487, -0.7915124297142029, 0.007741391658782959, -0.0050858259201049805, -0.028113365173339844, -0.18229006034080064, 0.26648474701223324, 0.9422289123693611,0.08922418006659352,0.542449951171875,0.2908782958984375,-0.8196258544921875
20220209-1413,2022-02-09 14:14:03Z,u01, 98,40,movements,el-ex, lt, d,16845.91369554167, 0.6135531996708861, -0.30328973054397623, 0.2832305389931632, -0.05204479396343231, 0.7490013241767883, -0.009198586456477642, 0.5494973063468933, 0.29866141080856323, -0.7802910208702087, 0.005846381187438965, 0.005339473485946655, -0.030194759368896484, -0.1847038366951906, 0.275207151463449, 0.9393767270886298,0.08784577257499972,0.5608673095703125,0.305755615234375,-0.80712890625
20220209-1413,2022-02-09 14:14:03Z,u01, 99,40,movements,el-ex, lt, d,16845.938641541667, 0.6319668245626016, -0.3043340330366546, 0.2842377491346819, -0.07058022916316986, 0.6960942149162292, 0.03031373769044876, 0.5635867714881897, 0.2996578812599182, -0.7697890400886536, 0.03411531448364258, -0.015203475952148438, -0.04687654972076416, -0.1861298577655123, 0.2836567793078442, 0.9367080517724791,0.08644389692042576,0.5977020263671875,0.284454345703125,-0.8166656494140625
20220209-1413,2022-02-09 14:14:03Z,u01, 100,40,movements,el-ex, lt, d,16845.96358854167, 0.649905885777033, -0.305919449091526, 0.2865651938845018, -0.11274765431880951, 0.6926853656768799, 0.038753293454647064, 0.5770164132118225, 0.3011700510978699, -0.7591763138771057, 0.008799076080322266, 0.0032123029232025146, -0.05077540874481201, -0.1879668436150274, 0.29168529558752687, 0.9339496209483432,0.08559406932370146,0.5865478515625,0.31109619140625,-0.8065185546875
20220209-1413,2022-02-09 14:14:03Z,u01, 101,40,movements,el-ex, lt, d,16845.988535541666, 0.6675205138900745, -0.3078832857342602, 0.28920530646913206, -0.17377732694149017, 0.6375912427902222, 0.013467377983033657, 0.5899316072463989, 0.30304214358329773, -0.7484291791915894, 0.010959625244140625, -0.006807982921600342, -0.04022127389907837, -0.19000928965277417, 0.2994693163692394, 0.9311383692825654,0.0848296318905131,0.60089111328125,0.296234130859375,-0.7886505126953125
20220209-1413,2022-02-09 14:14:03Z,u01, 102,40,movements,el-ex, lt, d,16846.013482541668, 0.6842982839184354, -0.31288221711149444, 0.29409451207017, -0.37087178230285645, 0.5838496088981628, 0.02417881228029728, 0.6014397740364075, 0.3078022003173828, -0.7372435331344604, 0.02731388807296753, -0.008577316999435425, -0.028289854526519775, -0.19374700379040743, 0.30633370254772796, 0.9281485066270674,0.08462958264901871,0.6397857666015625,0.303375244140625,-0.7648773193359375
20220209-1413,2022-02-09 14:14:03Z,u01, 103,40,movements,el-ex, lt, d,16846.03842854167, 0.7004071492982156, -0.32153423176680934, 0.30316874225015067, -0.5952947735786438, 0.5005300641059875, 0.051263824105262756, 0.6114979982376099, 0.3160225450992584, -0.7253963947296143, 0.04000657796859741, -0.008359551429748535, -0.019201934337615967, -0.1997751180170496, 0.31207643403399743, 0.9248515363267859,0.08571956554163807,0.6515045166015625,0.3076629638671875,-0.744598388671875
20220209-1413,2022-02-09 14:14:03Z,u01, 104,40,movements,el-ex, lt, d,16846.063375541667, 0.7171096896795122, -0.33272190527970774, 0.3149725238761483, -0.6383374333381653, 0.5466524958610535, 0.03386019915342331, 0.6211655139923096, 0.3266168534755707, -0.7123726606369019, 0.0004318356513977051, 0.003568112850189209, -0.0017996430397033691, -0.20742195699011148, 0.31747410329346126, 0.9211623425926216,0.08744292613248827,0.618621826171875,0.3292999267578125,-0.708251953125
20220209-1413,2022-02-09 14:14:03Z,u01, 105,40,movements,el-ex, lt, d,16846.08832254167, 0.7353112747555068, -0.34326015279502115, 0.3255775234270019, -0.49895212054252625, 0.6273385286331177, 0.016202643513679504, 0.6316841244697571, 0.33655884861946106, -0.6983575820922852, 0.00324934720993042, 0.01153990626335144, 0.01847177743911743, -0.21466525088607427, 0.32363566974901353, 0.9172549362729886,0.08844309927518079,0.6349334716796875,0.3480987548828125,-0.6798858642578125
20220209-1413,2022-02-09 14:14:03Z,u01, 106,40,movements,el-ex, lt, d,16846.113268541667, 0.7541226849383316, -0.34988318227439424, 0.3331294803614138, -0.27436456084251404, 0.6690829396247864, 0.04457669332623482, 0.6431685090065002, 0.34278807044029236, -0.6847121715545654, 0.01906299591064453, 0.006836563348770142, 0.005924999713897705, -0.21969655814452996, 0.3307224626997061, 0.9135132536803515,0.088599010020899,0.6671905517578125,0.34820556640625,-0.6827239990234375
20220209-1413,2022-02-09 14:14:03Z,u01, 107,40,movements,el-ex, lt, d,16846.13821554167, 0.7731662152747882, -0.3523007174588806, 0.33756004998999795, -0.09563680738210678, 0.7237306833267212, 0.06232393532991409, 0.6555097699165344, 0.3450581431388855, -0.6717454791069031, 0.02585625648498535, 0.020527243614196777, -0.008796453475952148, -0.22235486748049182, 0.33865259219126115, 0.91001159272931,0.08804433565504363,0.681365966796875,0.3655853271484375,-0.6805419921875
20220209-1413,2022-02-09 14:14:03Z,u01, 108,40,movements,el-ex, lt, d,16846.163162541667, 0.7918794329108559, -0.3516902092288359, 0.3393354461526086, 0.024370422586798668, 0.7094764113426208, 0.0659511610865593, 0.6681145429611206, 0.3444850444793701, -0.6595097780227661, 0.03099745512008667, 0.011227846145629883, -0.026174426078796387, -0.22320716654776965, 0.3470211574436838, 0.9067555571738336,0.08688753223140755,0.6961212158203125,0.353790283203125,-0.687469482421875
20220209-1413,2022-02-09 14:14:03Z,u01, 109,40,movements,el-ex, lt, d,16846.18810954167, 0.8094262725313145, -0.3501624233423421, 0.3399368264721718, -0.0030897329561412334, 0.6810210347175598, 0.04341542348265648, 0.6799635887145996, 0.34305039048194885, -0.6480478644371033, -0.003816068172454834, 0.003019005060195923, -0.030037403106689453, -0.22339504278684272, 0.35506439320636635, 0.9037212374665968,0.08551027813103024,0.6761474609375,0.3460693359375,-0.6780853271484375
20220209-1413,2022-02-09 14:14:03Z,u01, 110,40,movements,el-ex, lt, d,16846.213055541666, 0.827192242282179, -0.3506268081004581, 0.3418369011121314, -0.09900257736444473, 0.6907651424407959, 0.03916388750076294, 0.6912515759468079, 0.3434865474700928, -0.635758101940155, 0.006456613540649414, 0.010502129793167114, -0.007277727127075195, -0.22469418602585714, 0.3628132725151547, 0.9004309398228661,0.08428116105794237,0.7089385986328125,0.354949951171875,-0.6404571533203125
20220209-1413,2022-02-09 14:14:03Z,u01, 111,40,movements,el-ex, lt, d,16846.238002541668, 0.8453383375616462, -0.35141039525531004, 0.3442517676935153, -0.061941035091876984, 0.6808301210403442, 0.03618181124329567, 0.7024720311164856, 0.34422236680984497, -0.6229318380355835, 0.05050349235534668, 0.024613112211227417, -0.03878074884414673, -0.22623919167313458, 0.3706074883399902, 0.8969677717035205,0.08315559778008948,0.7529754638671875,0.36883544921875,-0.661712646484375
20220209-1413,2022-02-09 14:14:03Z,u01, 112,40,movements,el-ex, lt, d,16846.262949541666, 0.8620523559662172, -0.35160972482168035, 0.34541342511572615, -0.036888375878334045, 0.6182533502578735, 0.00033200159668922424, 0.7127330303192139, 0.3444094955921173, -0.6110595464706421, 0.027852356433868408, 0.015728473663330078, -0.052880823612213135, -0.22723236739974387, 0.37793606901622473, 0.8937833811026616,0.08173807452071191,0.7330322265625,0.356353759765625,-0.662200927734375
20220209-1413,2022-02-09 14:14:03Z,u01, 113,40,movements,el-ex, lt, d,16846.287896541668, 0.8774526378619776, -0.35370869236720537, 0.34746329346528, -0.19629257917404175, 0.563475489616394, -0.01627873256802559, 0.7215010523796082, 0.34637928009033203, -0.5995479226112366, -0.0034986138343811035, -0.0043992698192596436, -0.026092886924743652, -0.22915706294532837, 0.38433460641094297, 0.8906760126297734,0.0804378677376097,0.7180023193359375,0.34197998046875,-0.625640869140625
20220209-1413,2022-02-09 14:14:03Z,u01, 114,40,movements,el-ex, lt, d,16846.31284254167, 0.8932746797587379, -0.35675848669160876, 0.3520591992690975, -0.1901802271604538, 0.5649301409721375, 0.03450614959001541, 0.7300699353218079, 0.34923866391181946, -0.5873927474021912, 0.03203028440475464, -0.003978043794631958, -0.06377595663070679, -0.2319973532113285, 0.3904879616472516, 0.8872989419278934,0.07998114201763921,0.767578125,0.3473968505859375,-0.654388427734375
20220209-1413,2022-02-09 14:14:03Z,u01, 115,40,movements,el-ex, lt, d,16846.337789541667, 0.908438681626609, -0.35822905730837434, 0.35559099868218447, -0.07526428997516632, 0.545534610748291, 0.04346262663602829, 0.7384871244430542, 0.3506162762641907, -0.5759384632110596, -0.003394901752471924, 0.010025262832641602, -0.08383631706237793, -0.2339279464129961, 0.39662135151791966, 0.8841138800294559,0.07944810127618337,0.7350921630859375,0.3606414794921875,-0.6597747802734375
20220209-1413,2022-02-09 14:14:03Z,u01, 116,40,movements,el-ex, lt, d,16846.36273654167, 0.92226759181829, -0.3587900279315163, 0.35778133999656253, -0.13401681184768677, 0.4896111786365509, 0.03488032519817352, 0.7462239861488342, 0.3511415719985962, -0.565552294254303, -0.03308916091918945, 0.0004819929599761963, -0.058776259422302246, -0.23515187505119575, 0.4024020894457622, 0.8812423066646686,0.07866509216579623,0.7166290283203125,0.352264404296875,-0.61273193359375
20220209-1413,2022-02-09 14:14:03Z,u01, 117,40,movements,el-ex, lt, d,16846.387682541666, 0.9361385128753795, -0.3608103546163321, 0.3641560673294635, -0.3680438697338104, 0.45164161920547485, 0.10129976272583008, 0.753423810005188, 0.35303252935409546, -0.5547256469726562, 0.02781093120574951, -0.014867246150970459, -0.0395277738571167, -0.23785019486489278, 0.40751007738635636, 0.8781027867991789,0.0793616104897672,0.7812347412109375,0.338165283203125,-0.5942535400390625
20220209-1413,2022-02-09 14:14:03Z,u01, 118,40,movements,el-ex, lt, d,16846.412629541668, 0.9515650039923719, -0.36595644761005364, 0.3759358337515758, -0.5336120128631592, 0.4535573422908783, 0.06843248754739761, 0.7604018449783325, 0.3578425645828247, -0.5419757962226868, 0.047184884548187256, -0.0025111138820648193, -0.04040634632110596, -0.243061292373171, 0.4122296767302839, 0.8742723359070061,0.08146060313228985,0.80487060546875,0.3663177490234375,-0.5822906494140625
20220209-1413,2022-02-09 14:14:03Z,u01, 119,40,movements,el-ex, lt, d,16846.437576541666, 0.9674589259414951, -0.37244702991083745, 0.38716633701216674, -0.40247994661331177, 0.48091307282447815, -0.00760554987937212, 0.7669907808303833, 0.3638957738876343, -0.5284931063652039, 0.0154494047164917, 0.03496897220611572, -0.04082745313644409, -0.24876893604318356, 0.4169741931508232, 0.870276368387134,0.08285845223506316,0.782440185546875,0.39886474609375,-0.5693206787109375
20220209-1413,2022-02-09 14:14:03Z,u01, 120,40,movements,el-ex, lt, d,16846.462523541668, 0.9807982881803797, -0.37657045800840216, 0.3921932805268036, -0.07983257621526718, 0.42748886346817017, -0.03629325330257416, 0.7727187871932983, 0.3677333891391754, -0.5173760056495667, 0.01623702049255371, 0.03754007816314697, -0.035419344902038574, -0.2520953105633125, 0.4216158721200725, 0.8671230263581315,0.08237580922564394,0.792510986328125,0.4050140380859375,-0.545806884765625
20220209-1413,2022-02-09 14:14:03Z,u01, 121,40,movements,el-ex, lt, d,16846.48746954167, 0.9914408148854396, -0.37758479885538654, 0.39179648563527053, 0.0013579456135630608, 0.4530782401561737, -0.04206019639968872, 0.7778685688972473, 0.36867648363113403, -0.5089187026023865, 0.02430129051208496, 0.019171446561813354, 0.00075531005859375, -0.25286654932167313, 0.42614451687115257, 0.8648473974604698,0.08061288315817541,0.8021697998046875,0.387847900390625,-0.5081634521484375
20220209-1413,2022-02-09 14:14:03Z,u01, 122,40,movements,el-ex, lt, d,16846.512416541667, 1.0035259525100662, -0.3792494613706422, 0.3925740812054807, -0.11364992707967758, 0.47825750708580017, -0.053602203726768494, 0.7834432721138, 0.37022337317466736, -0.49915069341659546, 0.04394936561584473, -0.006362259387969971, 0.012532711029052734, -0.25420498970616395, 0.43105043961861583, 0.8621679003660322,0.07900629704832089,0.82403564453125,0.3670806884765625,-0.4875640869140625
20220209-1413,2022-02-09 14:14:03Z,u01, 123,40,movements,el-ex, lt, d,16846.53736354167, 1.0160072781413652, -0.38121303176586435, 0.39297840097914766, 0.08231844007968903, 0.5085287094116211, -0.04838919639587402, 0.7889926433563232, 0.37204670906066895, -0.488949716091156, -0.0001742839813232422, 0.018273144960403442, -0.004427880048751831, -0.25558985286935215, 0.4361180612760256, 0.8593778999596756,0.0771005056270307,0.788818359375,0.39031982421875,-0.493377685546875
20220209-1413,2022-02-09 14:14:03Z,u01, 124,40,movements,el-ex, lt, d,16846.562309541667, 1.0265366983974717, -0.3792600882782218, 0.3869861604901692, 0.3612956702709198, 0.5053839683532715, -0.036937739700078964, 0.7947173118591309, 0.3702332377433777, -0.4809904396533966, -0.015801846981048584, 0.0044921040534973145, 0.007815510034561157, -0.25386855697613664, 0.4416509129580962, 0.8573603332438272,0.07367857873321072,0.78466796875,0.3715057373046875,-0.4707183837890625
20220209-1413,2022-02-09 14:14:03Z,u01, 125,40,movements,el-ex, lt, d,16846.58725654167, 1.0365308529650124, -0.3743421949703549, 0.3777827702348061, 0.3671814501285553, 0.5831664800643921, 0.01429388951510191, 0.8010420799255371, 0.3656603693962097, -0.4739454984664917, -0.0026868581771850586, -0.004438996315002441, 0.03528594970703125, -0.25016074121498943, 0.4477129092653313, 0.855635188077132,0.0697235964543696,0.7983551025390625,0.3612213134765625,-0.43865966796875
20220209-1413,2022-02-09 14:14:03Z,u01, 126,40,movements,el-ex, lt, d,16846.612203541667, 1.0504534627762416, -0.37046563006840266, 0.371815190464215, 0.2084161788225174, 0.674404501914978, 0.030643034726381302, 0.8087865114212036, 0.36204952001571655, -0.46344855427742004, 0.018773972988128662, -0.0013470053672790527, 0.0033809244632720947, -0.24769896179174142, 0.4548856424796629, 0.8528252981812384,0.0664324874875944,0.83984375,0.3693084716796875,-0.469696044921875
20220209-1413,2022-02-09 14:14:03Z,u01, 127,40,movements,el-ex, lt, d,16846.63715054167, 1.0655975438511816, -0.36748148190079943, 0.3676102211057194, 0.181209534406662, 0.6435455679893494, 0.010296618565917015, 0.8166537880897522, 0.3592661917209625, -0.4516684412956238, 0.025051593780517578, -0.0022715628147125244, -0.028800219297409058, -0.2460076495757919, 0.4622185858919689, 0.8495859274856038,0.0635446861696189,0.841705322265625,0.35699462890625,-0.48046875
20220209-1413,2022-02-09 14:14:03Z,u01, 128,40,movements,el-ex, lt, d,16846.662096541666, 1.07989837604512, -0.36588253155709927, 0.3649058257472368, 0.030906351283192635, 0.5728040337562561, 0.019177261739969254, 0.8235348463058472, 0.3577735424041748, -0.440214067697525, 0.013928532600402832, -0.027848005294799805, -0.024843186140060425, -0.24517283151948926, 0.4688104628058645, 0.8463915926688041,0.061059748213481625,0.8361358642578125,0.324615478515625,-0.4600067138671875
20220209-1413,2022-02-09 14:14:03Z,u01, 129,40,movements,el-ex, lt, d,16846.687043541668, 1.0955394907339717, -0.36690151025596784, 0.3684236924133114, -0.30827900767326355, 0.5829361081123352, 0.01756904646754265, 0.8299946784973145, 0.3587248921394348, -0.42711272835731506, -0.005363941192626953, -0.034277260303497314, -0.019389837980270386, -0.2468902663499094, 0.474856650790247, 0.8425639746997677,0.06035168104394336,0.8246307373046875,0.3244476318359375,-0.446502685546875
20220209-1413,2022-02-09 14:14:03Z,u01, 130,40,movements,el-ex, lt, d,16846.71199054167, 1.114630211106828, -0.3716652081628847, 0.37879197946710613, -0.516822874546051, 0.634125292301178, 0.00031708739697933197, 0.8364531993865967, 0.3631674349308014, -0.41043320298194885, -0.00991511344909668, -0.02747407555580139, -0.0412726104259491, -0.2518630506980624, 0.4809869001993212, 0.8375497141440447,0.06104969097696027,0.8266143798828125,0.3375244140625,-0.4545135498046875
20220209-1413,2022-02-09 14:14:03Z,u01, 131,40,movements,el-ex, lt, d,16846.736936541667, 1.1351808313583724, -0.37815286248769836, 0.39150561222734126, -0.5070528388023376, 0.6082292199134827, -0.0832664892077446, 0.842556893825531, 0.36920446157455444, -0.3921557068824768, 0.0009795427322387695, -0.017718195915222168, -0.04203307628631592, -0.2581567282687758, 0.4871111294009694, 0.8320082479121116,0.06197003555690889,0.843536376953125,0.3514862060546875,-0.4341888427734375
20220209-1413,2022-02-09 14:14:03Z,u01, 132,40,movements,el-ex, lt, d,16846.76188354167, 1.1506884185302153, -0.3819709284857024, 0.39877873625895005, -0.044610247015953064, 0.4275935888290405, 0.049028366804122925, 0.8472433686256409, 0.37275007367134094, -0.37846529483795166, 0.02174466848373413, 0.06873247027397156, -0.03655841946601868, -0.2619254304456666, 0.4921000110541647, 0.8278881267117637,0.06191813366172786,0.8706512451171875,0.4277496337890625,-0.419891357421875
20220209-1413,2022-02-09 14:14:03Z,u01, 133,40,movements,el-ex, lt, d,16846.786830541667, 1.1614579320349274, -0.3821080872736386, 0.40072849821347717, -0.23585423827171326, 0.38413184881210327, -0.0066676512360572815, 0.8512232303619385, 0.3728773593902588, -0.3692988157272339, 0.0169561505317688, -0.03065323829650879, -0.02253153920173645, -0.26279272726130176, 0.49627671795292555, 0.8251636769408187,0.06127294927268143,0.8681793212890625,0.34222412109375,-0.3918304443359375
20220209-1413,2022-02-09 14:14:03Z,u01, 134,40,movements,el-ex, lt, d,16846.811777875002, 1.175466798414883, -0.3866440656562509, 0.4115828132653471, -0.5680810213088989, 0.41983187198638916, -0.016709299758076668, 0.8547433018684387, 0.37708234786987305, -0.35668325424194336, 0.031960248947143555, -0.007758587598800659, -0.00707089900970459, -0.2677007238352225, 0.4999946883537111, 0.8212320778926936,0.06260716249587986,0.881317138671875,0.3762359619140625,-0.3600006103515625
20220209-1413,2022-02-09 14:14:03Z,u01, 135,40,movements,el-ex, lt, d,16846.836723875, 1.1917979496018734, -0.3924722179897744, 0.42409005245473375, -0.38837072253227234, 0.49412214756011963, -0.05637142434716225, 0.8583977818489075, 0.38247382640838623, -0.3418584167957306, 0.009827375411987305, 0.018298298120498657, -0.026503920555114746, -0.2736129600224828, 0.5041891845466027, 0.8166095019562047,0.06386100715512782,0.86822509765625,0.4007720947265625,-0.3683624267578125
20220209-1413,2022-02-09 14:14:03Z,u01, 136,40,movements,el-ex, lt, d,16846.861670875, 1.2051719948144657, -0.39493640561880383, 0.42694130682427206, 0.14129507541656494, 0.4742692708969116, -0.0345948226749897, 0.8620100021362305, 0.38474950194358826, -0.33000993728637695, 0.024235785007476807, 0.03543177247047424, -0.047171980142593384, -0.27570413229176316, 0.5089029986889754, 0.8130814454743384,0.062477857610479456,0.8881378173828125,0.4182586669921875,-0.378021240234375
20220209-1413,2022-02-09 14:14:03Z,u01, 137,40,movements,el-ex, lt, d,16846.886617875, 1.2138878143384648, -0.39346918864187647, 0.4187682827466443, 0.36872798204421997, 0.4799128472805023, -0.08573437482118607, 0.8653815984725952, 0.3833948075771332, -0.3226813077926636, 0.0075127482414245605, 0.011945217847824097, -0.03257375955581665, -0.273316384638941, 0.513767947960546, 0.811129861435657,0.05838760259309807,0.872894287109375,0.3953399658203125,-0.355255126953125
20220209-1413,2022-02-09 14:14:04Z,u01, 138,40,movements,el-ex, lt, d,16846.911563875, 1.2224517700046682, -0.3924980940758697, 0.40939595265386247, 0.29622381925582886, 0.46906259655952454, -0.08364298939704895, 0.868462860584259, 0.38249772787094116, -0.3153854310512543, 0.03644442558288574, 0.0009861588478088379, -0.04943692684173584, -0.2707662497127828, 0.5186452832372158, 0.8092022250733119,0.053708737936547006,0.9104766845703125,0.3771820068359375,-0.372650146484375
20220209-1413,2022-02-09 14:14:04Z,u01, 139,40,movements,el-ex, lt, d,16846.936510875003, 1.2309491884232733, -0.3914087934022291, 0.40049109004968614, 0.45410242676734924, 0.425650954246521, -0.04825890064239502, 0.8715037107467651, 0.3814910352230072, -0.3081331253051758, 0.013307809829711914, -0.011678993701934814, -0.09978002309799194, -0.26824951445372064, 0.5234268249237963, 0.807240826813889,0.04928375279004599,0.8848114013671875,0.36981201171875,-0.4079132080078125
20220209-1413,2022-02-09 14:14:04Z,u01, 140,40,movements,el-ex, lt, d,16846.961457875, 1.235089085901095, -0.38751399274402254, 0.38535796179662773, 0.6379360556602478, 0.37795355916023254, -0.02121363766491413, 0.8741680383682251, 0.37788790464401245, -0.3050096929073334, 0.006721854209899902, -0.007984340190887451, -0.08051875233650208, -0.26288304407484125, 0.5276245396310056, 0.8065908876649823,0.04377186829215656,0.8812408447265625,0.3622283935546875,-0.376708984375
20220209-1413,2022-02-09 14:14:04Z,u01, 141,40,movements,el-ex, lt, d,16846.986404875002, 1.239413653132295, -0.3833980521905973, 0.37162101171219564, 0.3840866982936859, 0.3819391429424286, -0.017620034515857697, 0.8769423365592957, 0.37407398223876953, -0.3017299771308899, 0.00013297796249389648, -0.052571237087249756, -0.03866302967071533, -0.25776126622824763, 0.5316898930493594, 0.8058245728260437,0.038882393912948954,0.8770751953125,0.321502685546875,-0.34039306640625
20220209-1413,2022-02-09 14:14:04Z,u01, 142,40,movements,el-ex, lt, d,16847.011350875, 1.246536133584416, -0.38218356568233713, 0.36549399674974686, 0.10155658423900604, 0.36158162355422974, -0.0388079434633255, 0.879499077796936, 0.3729473948478699, -0.2956208884716034, 0.00580066442489624, -0.0391308069229126, -0.04835790395736694, -0.25579552949288026, 0.5354980859412349, 0.804067508564377,0.03586041243380855,0.88580322265625,0.34161376953125,-0.34490966796875
20220209-1413,2022-02-09 14:14:04Z,u01, 143,40,movements,el-ex, lt, d,16847.036297875, 1.2546707970035857, -0.38239228447467705, 0.36402392361219554, 0.005771969445049763, 0.3315730392932892, -0.014994556084275246, 0.881800651550293, 0.3731410503387451, -0.2884325087070465, 0.007435739040374756, -0.024691343307495117, -0.04460567235946655, -0.25562268541644156, 0.5389255820069357, 0.801903183293312,0.03416821881695271,0.8892364501953125,0.34844970703125,-0.333038330078125
20220209-1413,2022-02-09 14:14:04Z,u01, 144,40,movements,el-ex, lt, d,16847.061244875, 1.2632588524851764, -0.3831276449939809, 0.36567788099069776, -0.11456087231636047, 0.3158440887928009, 0.0034738657996058464, 0.8839835524559021, 0.3738231956958771, -0.28076595067977905, 0.009998440742492676, -0.0099925696849823, -0.029109477996826172, -0.25649441091939934, 0.5420587129176249, 0.799537419691898,0.033511660547747804,0.8966827392578125,0.36834716796875,-0.308013916015625
20220209-1413,2022-02-09 14:14:04Z,u01, 145,40,movements,el-ex, lt, d,16847.086190875, 1.2719905869582941, -0.3837243993459295, 0.3680479901075639, -0.04926758259534836, 0.30889996886253357, -0.018079562112689018, 0.8861880302429199, 0.3743765950202942, -0.27297088503837585, 0.021862566471099854, 0.014432638883590698, -0.029793918132781982, -0.2575100829817307, 0.5451633798483347, 0.7971111421223728,0.03315676291651014,0.908050537109375,0.3888092041015625,-0.302764892578125
20220209-1413,2022-02-09 14:14:04Z,u01, 146,40,movements,el-ex, lt, d,16847.111137875, 1.2788977749214903, -0.38422637121489056, 0.3668189627878097, 0.14498186111450195, 0.26599445939064026, -0.030058594420552254, 0.8878721594810486, 0.3748420178890228, -0.2667892277240753, 0.021795809268951416, 0.03751149773597717, -0.022685140371322632, -0.25747549029482125, 0.5480070777464787, 0.7952322663945196,0.03162697189218915,0.9077911376953125,0.4149322509765625,-0.2867584228515625
20220209-1413,2022-02-09 14:14:04Z,u01, 147,40,movements,el-ex, lt, d,16847.136084875, 1.2836586697052232, -0.38352382008868685, 0.36191181332696976, 0.14683501422405243, 0.2633855938911438, -0.044803451746702194, 0.8893847465515137, 0.3741905987262726, -0.26263371109962463, -0.0002549886703491211, 0.0028846263885498047, -0.014374256134033203, -0.2559355563953126, 0.5506179583499724, 0.7940149795115347,0.029278671192549857,0.889129638671875,0.3770751953125,-0.277008056640625
20220209-1413,2022-02-09 14:14:04Z,u01, 148,40,movements,el-ex, lt, d,16847.161031875003, 1.2894182693895204, -0.3846517122428312, 0.35963543858512104, 0.012130065821111202, 0.2643483579158783, -0.08726675808429718, 0.8904764652252197, 0.3752363324165344, -0.25738948583602905, -0.0027506351470947266, 0.009285151958465576, 0.002140551805496216, -0.2558131260332959, 0.5530505439645281, 0.7924327093736832,0.02729683210083366,0.8850555419921875,0.3863525390625,-0.2560882568359375
20220209-1413,2022-02-09 14:14:04Z,u01, 149,40,movements,el-ex, lt, d,16847.185977875, 1.2959198314068043, -0.38738447624398104, 0.359088918084696, -0.018793761730194092, 0.25532421469688416, -0.11804171651601791, 0.8911409378051758, 0.37776800990104675, -0.2513153553009033, 0.0009794831275939941, 0.015374749898910522, -0.02312910556793213, -0.2567724223643781, 0.5553469588706432, 0.7905769188500693,0.02541537749505013,0.892120361328125,0.3931427001953125,-0.274444580078125
20220209-1413,2022-02-09 14:14:04Z,u01, 150,40,movements,el-ex, lt, d,16847.210924875002, 1.3011711593573885, -0.38946377556694844, 0.3579626201084784, 0.044283606112003326, 0.2004266083240509, -0.06241041049361229, 0.8916892409324646, 0.379692405462265, -0.24642245471477509, 0.016132473945617676, 0.014121681451797485, -0.04930804669857025, -0.25730146123692277, 0.5573012954106672, 0.7890826432440301,0.02366030085727478,0.905426025390625,0.3875579833984375,-0.29852294921875
20220209-1413,2022-02-09 14:14:04Z,u01, 151,40,movements,el-ex, lt, d,16847.235871875, 1.306058324690763, -0.39126190546300776, 0.35752857527460224, -0.05659063905477524, 0.19465693831443787, -0.09139059484004974, 0.8922225832939148, 0.38135525584220886, -0.24188268184661865, -0.01055443286895752, -0.0001601576805114746, -0.0339503288269043, -0.2579076362862788, 0.5590548338615349, 0.7876825626510091,0.022308577210909293,0.8816680908203125,0.381195068359375,-0.2758331298828125
20220209-1413,2022-02-09 14:14:04Z,u01, 152,40,movements,el-ex, lt, d,16847.260818875002, 1.3114653318305338, -0.3942032613314857, 0.358388564595727, -0.03785620257258415, 0.212933748960495, -0.11850497126579285, 0.8924294114112854, 0.3840726912021637, -0.2367662638425827, -0.015811800956726074, 0.009054869413375854, -0.03969237208366394, -0.25930204491686876, 0.5606953845336439, 0.7860919394558604,0.021043347013751566,0.8779449462890625,0.3902435302734375,-0.28350830078125
20220209-1413,2022-02-09 14:14:04Z,u01, 153,40,movements,el-ex, lt, d,16847.285764875, 1.3144520806985627, -0.39680286675210624, 0.35639325795190024, 0.0864752009510994, 0.1865817755460739, -0.11949806660413742, 0.8921636939048767, 0.38647159934043884, -0.2338458001613617, 0.009035706520080566, 0.005358874797821045, -0.07223016023635864, -0.25973786716363123, 0.5617947490142153, 0.785212944358835,0.019070548953177356,0.9011993408203125,0.3918304443359375,-0.3060760498046875
20220209-1413,2022-02-09 14:14:04Z,u01, 154,40,movements,el-ex, lt, d,16847.310711875, 1.3136972396365758, -0.397503014356309, 0.3513639901062151, 0.1126069724559784, 0.12388677150011063, -0.09048871695995331, 0.8917248845100403, 0.38711726665496826, -0.23445028066635132, 0.015333831310272217, 0.002805858850479126, -0.07434175908565521, -0.2585781217386985, 0.5620606870622533, 0.7854532977044569,0.016977545918372812,0.90838623046875,0.3851165771484375,-0.3110504150390625
20220209-1413,2022-02-09 14:14:04Z,u01, 155,40,movements,el-ex, lt, d,16847.335658875, 1.3133949007824648, -0.39959611942756, 0.3491835717943754, -0.0723549947142601, 0.07772493362426758, -0.11161976307630539, 0.8908684253692627, 0.389046311378479, -0.2345130741596222, 0.020493268966674805, -0.018959641456604004, -0.07253943383693695, -0.2587409259212508, 0.5619578218309766, 0.7855035192459078,0.015514957861936206,0.9113616943359375,0.370086669921875,-0.3070526123046875
20220209-1413,2022-02-09 14:14:04Z,u01, 156,40,movements,el-ex, lt, d,16847.360604875, 1.3135030678707302, -0.40250574525185095, 0.349602907531497, -0.03071979619562626, 0.05118759348988533, -0.11836395412683487, 0.8897954225540161, 0.3917250633239746, -0.2341277152299881, 0.017293930053710938, -0.004136532545089722, -0.07014775276184082, -0.2599406909228924, 0.5615754475622565, 0.7853953441791133,0.014768590155243025,0.902252197265625,0.3893585205078125,-0.3013916015625
20220209-1413,2022-02-09 14:14:04Z,u01, 157,40,movements,el-ex, lt, d,16847.385551875002, 1.3117940823652643, -0.40460227513610003, 0.3469830056064304, 0.0807894915342331, 0.08398935198783875, -0.12757861614227295, 0.8885980248451233, 0.39365318417549133, -0.23543712496757507, -0.0007654428482055664, 0.004662215709686279, -0.0405484139919281, -0.2599725802857043, 0.5609774470944989, 0.785837900239192,0.013315538761574625,0.8878326416015625,0.3983154296875,-0.2759857177734375
20220209-1413,2022-02-09 14:14:04Z,u01, 158,40,movements,el-ex, lt, d,16847.410498875, 1.3097471053031071, -0.4047550391405703, 0.3414405710099348, 0.22288364171981812, 0.0379938967525959, -0.08374539017677307, 0.8880561590194702, 0.39379361271858215, -0.2372400462627411, 0.010213494300842285, -0.0022835731506347656, -0.05301247537136078, -0.2584623464637926, 0.5608718112639519, 0.7864420353308297,0.0113552713157581,0.898651123046875,0.3831024169921875,-0.2958221435546875
20220209-1413,2022-02-09 14:14:04Z,u01, 159,40,movements,el-ex, lt, d,16847.435445875002, 1.3056622550646833, -0.4037213100880062, 0.335016842005372, 0.12584909796714783, -0.03703134506940842, -0.04897329583764076, 0.8874720931053162, 0.39284318685531616, -0.24097219109535217, 0.015802443027496338, -0.03674882650375366, -0.05491088330745697, -0.25625491230530995, 0.560220781015975, 0.7876500626064145,0.00967047653367626,0.9032745361328125,0.3560943603515625,-0.2958831787109375
20220209-1413,2022-02-09 14:14:04Z,u01, 160,40,movements,el-ex, lt, d,16847.460391875, 1.3027287949546393, -0.4040681250391223, 0.3341189869475665, -0.08353480696678162, -0.08864434063434601, -0.003159069921821356, 0.8866298794746399, 0.3931621015071869, -0.24353839457035065, 0.015652775764465332, -0.03162038326263428, -0.040137678384780884, -0.2561191759778229, 0.5591366310566672, 0.7884651126602178,0.009586180179379976,0.8991241455078125,0.364959716796875,-0.2829742431640625
20220209-1413,2022-02-09 14:14:04Z,u01, 161,40,movements,el-ex, lt, d,16847.485338875, 1.300109657668872, -0.4045835977055512, 0.3362339310256198, -0.10538391768932343, -0.07097745686769485, -0.002828039228916168, 0.8857936263084412, 0.393636018037796, -0.2458055466413498, 0.005334973335266113, -0.027364015579223633, -0.03243833780288696, -0.2568893457573967, 0.5577679518065634, 0.789170740628301,0.010598583683658389,0.8911285400390625,0.36627197265625,-0.2782440185546875
20220209-1413,2022-02-09 14:14:04Z,u01, 162,40,movements,el-ex, lt, d,16847.510285875, 1.296743259828924, -0.40275348070851624, 0.33674173874659996, 0.028466660529375076, -0.09143993258476257, 0.018011130392551422, 0.8856531977653503, 0.3919529914855957, -0.24898065626621246, 0.016568541526794434, -0.006027668714523315, -0.03255915641784668, -0.25632651734900874, 0.5566025436426765, 0.7901590970590341,0.01178980637633794,0.9052886962890625,0.391571044921875,-0.28692626953125
20220209-1413,2022-02-09 14:14:04Z,u01, 163,40,movements,el-ex, lt, d,16847.535231875, 1.2917706084070821, -0.39776715817889213, 0.3346697550142032, 0.0468977689743042, -0.11083485931158066, 0.06054241210222244, 0.8862718939781189, 0.3873607814311981, -0.2539167106151581, 0.019260942935943604, -0.017640292644500732, -0.040867745876312256, -0.25384741043729736, 0.5555206011339674, 0.7916982566082633,0.013123109002279872,0.9055328369140625,0.369720458984375,-0.2947845458984375
20220209-1413,2022-02-09 14:14:04Z,u01, 164,40,movements,el-ex, lt, d,16847.560178875003, 1.287894451366105, -0.3947453051029813, 0.3350059859435828, -0.03674815967679024, -0.15114904940128326, 0.0697944313287735, 0.8864011168479919, 0.3845731019973755, -0.2576757073402405, 0.016141057014465332, -0.0207577645778656, -0.024443894624710083, -0.25277626624935357, 0.5543160644366099, 0.7928574264560986,0.014664906074019504,0.9004974365234375,0.3649749755859375,-0.2801055908203125
20220209-1413,2022-02-09 14:14:04Z,u01, 165,40,movements,el-ex, lt, d,16847.585125875, 1.283448835364044, -0.3924169388207775, 0.33548087746992683, 0.01460377685725689, -0.15312179923057556, 0.0541817843914032, 0.8861030340194702, 0.3824227452278137, -0.2618667781352997, 0.005132317543029785, 0.0016409456729888916, -0.028828293085098267, -0.2519952563720579, 0.5527793373065546, 0.7941495517785891,0.016119532231927303,0.8912353515625,0.384063720703125,-0.2906951904296875
20220209-1413,2022-02-09 14:14:04Z,u01, 166,40,movements,el-ex, lt, d,16847.610072875003, 1.2784853006817387, -0.39059557766106, 0.33519651207977413, -0.009814680553972721, -0.17214728891849518, 0.05794762447476387, 0.8854579329490662, 0.3807392120361328, -0.2664620578289032, 0.010538220405578613, -0.0009479224681854248, -0.01924341917037964, -0.2511869084129056, 0.5510663404277938, 0.7955726956444792,0.017180952135722204,0.8962249755859375,0.3788299560546875,-0.283172607421875
20220209-1413,2022-02-09 14:14:04Z,u01, 167,40,movements,el-ex, lt, d,16847.635018875, 1.2734153075392736, -0.3871696100382356, 0.336085770015187, -0.015333615243434906, -0.20656532049179077, 0.0789015144109726, 0.8853376507759094, 0.3775690495967865, -0.27132850885391235, 0.012031853199005127, 0.008905619382858276, -0.006549179553985596, -0.2500871971573039, 0.5493561097049892, 0.7970544078068955,0.019201718932463974,0.897369384765625,0.386474609375,-0.2778778076171875
20220209-1413,2022-02-09 14:14:04Z,u01, 168,40,movements,el-ex, lt, d,16847.659965875002, 1.2681495732825816, -0.38468706976549405, 0.336397807133695, 0.010080563835799694, -0.21044468879699707, 0.07742006331682205, 0.8847885727882385, 0.3752690851688385, -0.2762651741504669, 0.011604368686676025, 0.008550524711608887, -0.014780879020690918, -0.24917719182887338, 0.5475199862026786, 0.7985630939646602,0.02072830578206243,0.896881103515625,0.382049560546875,-0.2931060791015625
20220209-1413,2022-02-09 14:14:04Z,u01, 169,40,movements,el-ex, lt, d,16847.684912875, 1.2624556716447692, -0.38323901034685287, 0.3371817461991605, -0.042419593781232834, -0.2439471036195755, 0.06924322247505188, 0.883717954158783, 0.37392646074295044, -0.2814631462097168, 0.02195221185684204, 0.0051171183586120605, -0.00991860032081604, -0.24877893166031123, 0.5453232647957362, 0.8001496184164092,0.022183412314862136,0.905670166015625,0.3790435791015625,-0.2913818359375
20220209-1413,2022-02-09 14:14:04Z,u01, 170,40,movements,el-ex, lt, d,16847.709858875, 1.2572173493713887, -0.38159318991782426, 0.3390829094584367, -0.02747456729412079, -0.2642368674278259, 0.08945588767528534, 0.8828158378601074, 0.37239953875541687, -0.28627797961235046, 0.014706313610076904, 0.014029353857040405, -0.0018231570720672607, -0.24860761440370008, 0.5431898926546754, 0.8015978088857035,0.02408651296172011,0.8973388671875,0.387054443359375,-0.28973388671875
20220209-1413,2022-02-09 14:14:04Z,u01, 171,40,movements,el-ex, lt, d,16847.734805875, 1.2516203977514821, -0.3804149082334266, 0.34041526448290405, -0.020517591387033463, -0.24952316284179688, 0.07755262404680252, 0.8816156983375549, 0.3713057339191437, -0.2913520038127899, 0.01233583688735962, 0.010057181119918823, -0.00714033842086792, -0.2484485496764901, 0.5409226476252271, 0.8031297217631128,0.025666406455344813,0.893951416015625,0.3813629150390625,-0.298492431640625
20220209-1413,2022-02-09 14:14:04Z,u01, 172,40,movements,el-ex, lt, d,16847.759752875, 1.2460869222923072, -0.37881507891568916, 0.3419827680449271, -0.05726075917482376, -0.25194278359413147, 0.07160724699497223, 0.8805517554283142, 0.3698198199272156, -0.2964150309562683, 0.03006225824356079, -9.933114051818848e-05, -0.0017111003398895264, -0.24818507357760125, 0.5386990379196033, 0.8046450240364759,0.027456846899688074,0.916534423828125,0.364776611328125,-0.296875
20220209-1413,2022-02-09 14:14:04Z,u01, 173,40,movements,el-ex, lt, d,16847.784699875, 1.2414335809054224, -0.37829813455488726, 0.34529725319332816, -0.1190488189458847, -0.26173216104507446, 0.07571423798799515, 0.8793438076972961, 0.3693394660949707, -0.30057114362716675, 0.04477429389953613, -0.004044026136398315, -0.0007898211479187012, -0.24881123171812342, 0.5364768367228805, 0.8058623742931095,0.029522010040701867,0.9241180419921875,0.36529541015625,-0.301361083984375
20220209-1413,2022-02-09 14:14:04Z,u01, 174,40,movements,el-ex, lt, d,16847.809645541667, 1.2360275149053217, -0.3774164009979048, 0.34813518789029896, -0.036715567111968994, -0.2717205286026001, 0.08094688504934311, 0.8780133724212646, 0.36851993203163147, -0.3054274320602417, 0.03148692846298218, 0.006419092416763306, -0.024238616228103638, -0.2491491247468308, 0.5340514969544451, 0.8072889604692276,0.031598768018424254,0.9017486572265625,0.37847900390625,-0.328765869140625
20220209-1413,2022-02-09 14:14:04Z,u01, 175,40,movements,el-ex, lt, d,16847.83459254167, 1.229740186962213, -0.37574366825182626, 0.34900352862869183, 0.03587410971522331, -0.30602574348449707, 0.09465796500444412, 0.8766552209854126, 0.3669644296169281, -0.31114739179611206, 0.009682059288024902, 0.0138339102268219, -0.020075052976608276, -0.24863409492407842, 0.5316083006884716, 0.8089932040552531,0.03322198827373063,0.8863372802734375,0.38079833984375,-0.3312225341796875
20220209-1413,2022-02-09 14:14:04Z,u01, 176,40,movements,el-ex, lt, d,16847.859539541667, 1.2222976037373887, -0.3735158374419489, 0.34960467763784703, -0.032022614032030106, -0.32854321599006653, 0.09484659135341644, 0.875081479549408, 0.3648911118507385, -0.31794169545173645, 0.008539795875549316, -0.009895354509353638, -0.028478503227233887, -0.2478056471457093, 0.5287925048448102, 0.8110136549111375,0.03503872051854669,0.8815460205078125,0.3601226806640625,-0.345550537109375
20220209-1413,2022-02-09 14:14:04Z,u01, 177,40,movements,el-ex, lt, d,16847.88448554167, 1.21484901025894, -0.37185927646773786, 0.35234300998508844, -0.06509345024824142, -0.37387895584106445, 0.118101105093956, 0.8732544779777527, 0.36334824562072754, -0.3246611952781677, 0.00948178768157959, 0.005960255861282349, -0.03375244140625, -0.24775038958948184, 0.5256321438918802, 0.8129701711478067,0.03755391816049998,0.8827362060546875,0.3693084716796875,-0.3584136962890625
20220209-1413,2022-02-09 14:14:05Z,u01, 178,40,movements,el-ex, lt, d,16847.909432541666, 1.206431973111693, -0.36984147589234295, 0.3546233227844315, -0.006567155010998249, -0.3895796239376068, 0.11934427917003632, 0.8711740374565125, 0.3614676296710968, -0.3322603404521942, 0.004360020160675049, 0.017987936735153198, -0.03710898756980896, -0.2474002317085774, 0.52217138202052, 0.8151819556695625,0.040106351875446124,0.8749847412109375,0.38262939453125,-0.37713623046875
20220209-1413,2022-02-09 14:14:05Z,u01, 179,40,movements,el-ex, lt, d,16847.934379541668, 1.1970692955253819, -0.3670960502957626, 0.35477939043381646, 0.09835992753505707, -0.39215007424354553, 0.1162606030702591, 0.8689457774162292, 0.35890647768974304, -0.34076327085494995, 0.009075522422790527, 0.021434128284454346, -0.06283164024353027, -0.2461777930916125, 0.518666425847085, 0.8176847297524871,0.04211296793015871,0.878021240234375,0.380340576171875,-0.403594970703125
20220209-1413,2022-02-09 14:14:05Z,u01, 180,40,movements,el-ex, lt, d,16847.959326541666, 1.1861423361939163, -0.36329242840531606, 0.35257392532009846, 0.16568922996520996, -0.42443785071372986, 0.11523435264825821, 0.8664294481277466, 0.3553536832332611, -0.35074734687805176, 0.018793940544128418, 0.015144973993301392, -0.05141320824623108, -0.24388397027287004, 0.514924210618675, 0.8206521244090863,0.04363176565180156,0.885772705078125,0.3649749755859375,-0.403289794921875
20220209-1413,2022-02-09 14:14:05Z,u01, 181,40,movements,el-ex, lt, d,16847.984272541667, 1.1746900988700681, -0.3596944620663802, 0.34963506608750133, 0.1622771918773651, -0.43141481280326843, 0.09893181174993515, 0.8635299801826477, 0.3519882559776306, -0.3611376881599426, 0.03458714485168457, 0.031221002340316772, -0.0547558069229126, -0.24146063678105484, 0.5110067723819663, 0.8237470810303539,0.04482986046910383,0.8981170654296875,0.383209228515625,-0.4158935546875
20220209-1413,2022-02-09 14:14:05Z,u01, 182,40,movements,el-ex, lt, d,16848.00921954167, 1.1627071504734798, -0.35607730941036275, 0.3461431381725921, 0.21612854301929474, -0.43862536549568176, 0.08207979798316956, 0.860303521156311, 0.348600298166275, -0.37196195125579834, 0.041414618492126465, 0.042162030935287476, -0.04934832453727722, -0.238869123150089, 0.506912778642582, 0.8269701244100428,0.045841178419543965,0.9011383056640625,0.3887786865234375,-0.42218017578125
20220209-1413,2022-02-09 14:14:05Z,u01, 183,40,movements,el-ex, lt, d,16848.034166541667, 1.1494192265487642, -0.35217209031546576, 0.3401167062109448, 0.3829399049282074, -0.4868064820766449, 0.057864733040332794, 0.85652095079422, 0.34493741393089294, -0.38391435146331787, 0.039994001388549805, 0.04942601919174194, -0.04938936233520508, -0.23548894976037207, 0.5025811109687537, 0.8305666841952453,0.04600367183855602,0.896514892578125,0.3943634033203125,-0.4333038330078125
20220209-1413,2022-02-09 14:14:05Z,u01, 184,40,movements,el-ex, lt, d,16848.05911254167, 1.132542755900086, -0.34573396317181043, 0.3284524632304519, 0.5918460488319397, -0.5528547763824463, 0.05074284225702286, 0.8519134521484375, 0.3388873040676117, -0.3992481827735901, 0.045120298862457275, 0.03785222768783569, -0.06968486309051514, -0.22960792509263833, 0.49765058375062565, 0.835230832642873,0.04487479524303029,0.89453125,0.366607666015625,-0.4700927734375
20220209-1413,2022-02-09 14:14:05Z,u01, 185,40,movements,el-ex, lt, d,16848.084059541667, 1.1138275446856123, -0.33882634740789536, 0.3152861661646657, 0.5455394983291626, -0.5986772179603577, 0.03698648512363434, 0.8463731408119202, 0.33238038420677185, -0.4161440134048462, 0.026887357234954834, 0.01214781403541565, -0.058511048555374146, -0.22314408553485937, 0.4920718579268438, 0.8403529776012914,0.04334651177887924,0.873260498046875,0.3445281982421875,-0.4746551513671875
20220209-1413,2022-02-09 14:14:05Z,u01, 186,40,movements,el-ex, lt, d,16848.10900654167, 1.0948368850460968, -0.3322811238593407, 0.3037483273859034, 0.4685715436935425, -0.6312742233276367, 0.05346512794494629, 0.8402339220046997, 0.3262002170085907, -0.4331287443637848, 0.02780812978744507, 0.01883155107498169, -0.04746198654174805, -0.21724578284902715, 0.48604516722123986, 0.8454428274440541,0.04231865408443537,0.86834716796875,0.340789794921875,-0.4809112548828125
20220209-1413,2022-02-09 14:14:05Z,u01, 187,40,movements,el-ex, lt, d,16848.133953541666, 1.07577656711126, -0.32627225866706316, 0.29465296264556673, 0.3815475106239319, -0.6745025515556335, 0.05845842510461807, 0.83353590965271, 0.32051417231559753, -0.4499872028827667, 0.03185105323791504, -0.003177136182785034, -0.060648053884506226, -0.21217607233656782, 0.4795703370856993, 0.8504248594542466,0.0420849934960211,0.865386962890625,0.3173370361328125,-0.5106353759765625
20220209-1413,2022-02-09 14:14:05Z,u01, 188,40,movements,el-ex, lt, d,16848.158899541668, 1.0558957166010472, -0.32068394361167185, 0.287426146410067, 0.3281410038471222, -0.7385760545730591, 0.07728031277656555, 0.8259716629981995, 0.31521570682525635, -0.46734336018562317, 0.04086488485336304, -0.0026088953018188477, -0.06036648154258728, -0.20771843383189179, 0.47242076076945777, 0.8554897276841116,0.04253227803779822,0.8635711669921875,0.3160858154296875,-0.5286712646484375
20220209-1413,2022-02-09 14:14:05Z,u01, 189,40,movements,el-ex, lt, d,16848.18384654167, 1.0357655862467576, -0.3151009882024841, 0.281460549490481, 0.3059327304363251, -0.7271403074264526, 0.09850377589464188, 0.8178984522819519, 0.3099125027656555, -0.4847642183303833, 0.024844467639923096, 0.011223971843719482, -0.045966893434524536, -0.2035550260712135, 0.46495510345970886, 0.8605192485459351,0.04345962328357903,0.842742919921875,0.321136474609375,-0.530731201171875
20220209-1413,2022-02-09 14:14:05Z,u01, 190,40,movements,el-ex, lt, d,16848.208793541668, 1.0165520119303149, -0.3090693088463724, 0.2751001502805533, 0.40666353702545166, -0.658650279045105, 0.06464660912752151, 0.8100088238716125, 0.30417218804359436, -0.501363217830658, 0.0030863285064697266, 0.0027278661727905273, -0.038950443267822266, -0.19912808402533294, 0.45789342280985734, 0.8652930617407896,0.04415451387981391,0.8067169189453125,0.3120574951171875,-0.5485076904296875
20220209-1413,2022-02-09 14:14:05Z,u01, 191,40,movements,el-ex, lt, d,16848.23373954167, 0.9979995519028572, -0.3007098602564414, 0.26283983535893457, 0.7859876751899719, -0.5521454811096191, 0.019761625677347183, 0.8026772737503052, 0.2961982786655426, -0.5176637768745422, -0.0237465500831604, 0.036550164222717285, -0.05417448282241821, -0.1923921778335715, 0.4518333175585144, 0.87006238333469,0.04270170493089286,0.7789306640625,0.3327484130859375,-0.57183837890625
20220209-1413,2022-02-09 14:14:05Z,u01, 192,40,movements,el-ex, lt, d,16848.258686541667, 0.9785359917818713, -0.28728628137308654, 0.24334340014174782, 0.9570715427398682, -0.5669964551925659, 0.07317624986171722, 0.7956777215003967, 0.28335076570510864, -0.5353592038154602, 0.023231029510498047, 0.026585787534713745, -0.03127586841583252, -0.18187559290790112, 0.4463649402011978, 0.8752938421424927,0.03924860437322367,0.826812744140625,0.2952880859375,-0.5569305419921875
20220209-1413,2022-02-09 14:14:05Z,u01, 193,40,movements,el-ex, lt, d,16848.28363354167, 0.9595603596645346, -0.27440853596700965, 0.22868467744494264, 0.5716460347175598, -0.6508167386054993, 0.1349230259656906, 0.7882992625236511, 0.270977646112442, -0.552408754825592, 0.07037389278411865, -0.01594221591949463, 0.047190308570861816, -0.1727083588330416, 0.44041735795752895, 0.8802245178610376,0.037540089608693386,0.858673095703125,0.255035400390625,-0.505218505859375
20220209-1413,2022-02-09 14:14:05Z,u01, 194,40,movements,el-ex, lt, d,16848.308580541667, 0.9409492716195433, -0.2658808765003521, 0.22263512165884153, 0.23791338503360748, -0.7014598250389099, 0.1663934886455536, 0.7797215580940247, 0.2627592980861664, -0.5683238506317139, 0.06204485893249512, 8.863210678100586e-05, 0.05138665437698364, -0.16732969501818049, 0.43340379949465907, 0.8846949442970833,0.038430877549595975,0.8336639404296875,0.258575439453125,-0.521942138671875
20220209-1413,2022-02-09 14:14:05Z,u01, 195,40,movements,el-ex, lt, d,16848.333526541668, 0.9235476529217397, -0.2599769162475916, 0.22229428001374252, 0.11508923768997192, -0.692439615726471, 0.2094360888004303, 0.7709383368492126, 0.2570582330226898, -0.582730770111084, 0.03353559970855713, 0.0032414495944976807, 0.05143505334854126, -0.16433174718806823, 0.4261803479107704, 0.8886387355512857,0.041068139719722625,0.804473876953125,0.2602996826171875,-0.5312957763671875
20220209-1413,2022-02-09 14:14:05Z,u01, 196,40,movements,el-ex, lt, d,16848.358473541666, 0.9064187765255441, -0.2532365647289128, 0.22221856368952264, 0.24090203642845154, -0.6642974615097046, 0.20266632735729218, 0.7621910572052002, 0.2505386173725128, -0.5969047546386719, 0.02148514986038208, 0.01439976692199707, 0.02207571268081665, -0.16099256620314004, 0.4190811579800651, 0.8924808136559829,0.04393772724611349,0.7785491943359375,0.2682647705078125,-0.5801239013671875
20220209-1413,2022-02-09 14:14:05Z,u01, 197,40,movements,el-ex, lt, d,16848.383420541668, 0.8889434505900777, -0.2447106411113495, 0.21937861205173995, 0.342115193605423, -0.6999098062515259, 0.21149365603923798, 0.7532752156257629, 0.24227559566497803, -0.6114565134048462, 0.041921377182006836, 0.03035321831703186, -0.008416473865509033, -0.15624725298442943, 0.4121389913741267, 0.8964478625375315,0.04593042146343234,0.795196533203125,0.2726287841796875,-0.619873046875
20220209-1413,2022-02-09 14:14:05Z,u01, 198,40,movements,el-ex, lt, d,16848.40836654167, 0.8700106768179011, -0.2358534224397706, 0.2168946279511244, 0.24407196044921875, -0.776698112487793, 0.20218555629253387, 0.7431753873825073, 0.2336728721857071, -0.6269667744636536, 0.05920809507369995, 0.01721218228340149, -0.02153170108795166, -0.15136446780197096, 0.4044816620616729, 0.9006451882854993,0.04818326352236665,0.79949951171875,0.25286865234375,-0.6530303955078125
20220209-1413,2022-02-09 14:14:05Z,u01, 199,40,movements,el-ex, lt, d,16848.433313541667, 0.8497580934403579, -0.2296975442204841, 0.21660633420438052, 0.09274851530790329, -0.8314054608345032, 0.1653463989496231, 0.7313928008079529, 0.22768302261829376, -0.6428258419036865, 0.054801106452941895, 0.023659750819206238, -0.0346795916557312, -0.1480587505905855, 0.39581016473030267, 0.9048895312064849,0.050871109853572426,0.78619384765625,0.2513427734375,-0.6775054931640625
20220209-1413,2022-02-09 14:14:05Z,u01, 200,40,movements,el-ex, lt, d,16848.45826054167, 0.8291883870060163, -0.22703516827889592, 0.21919869432279998, -0.07491981238126755, -0.8705054521560669, 0.12796925008296967, 0.718460738658905, 0.22508977353572845, -0.6581404805183411, 0.055678725242614746, 0.011757194995880127, -0.01649630069732666, -0.14683200319880058, 0.3864842957431573, 0.9089236338107815,0.054113954319376295,0.7734222412109375,0.2392120361328125,-0.673065185546875
20220209-1413,2022-02-09 14:14:05Z,u01, 201,40,movements,el-ex, lt, d,16848.483207541667, 0.8080032263578233, -0.22645562544991343, 0.2231787583624137, -0.12387031316757202, -0.9025075435638428, 0.10811139643192291, 0.704451858997345, 0.2245250642299652, -0.6733023524284363, 0.0664222240447998, 0.010231435298919678, -0.013297319412231445, -0.14673856200444244, 0.3765854704271873, 0.9128710705196328,0.05759876495019131,0.7708740234375,0.2347564697265625,-0.6865997314453125
20220209-1413,2022-02-09 14:14:05Z,u01, 202,40,movements,el-ex, lt, d,16848.50815354167, 0.7861561351369646, -0.2268237142696206, 0.22774345563966442, -0.13265374302864075, -0.9233464002609253, 0.11995753645896912, 0.6895167231559753, 0.22488373517990112, -0.6884722709655762, 0.062466979026794434, 0.015838950872421265, -0.007709980010986328, -0.14710385807688495, 0.3662298859467572, 0.9167815673824202,0.061219027748946074,0.7457733154296875,0.243988037109375,-0.697723388671875
20220209-1413,2022-02-09 14:14:05Z,u01, 203,40,movements,el-ex, lt, d,16848.533100541666, 0.7648565147108667, -0.22755170277648348, 0.2321820562025841, -0.13294290006160736, -0.8719672560691833, 0.09852507710456848, 0.6745837330818176, 0.22559301555156708, -0.7028831243515015, 0.05641913414001465, 0.025887101888656616, 0.02382129430770874, -0.14756572934166584, 0.35606570659112147, 0.9204658466336434,0.06468667048489268,0.7310028076171875,0.2514801025390625,-0.6790618896484375
20220209-1413,2022-02-09 14:14:05Z,u01, 204,40,movements,el-ex, lt, d,16848.55804754167, 0.7443581860878282, -0.22861118907969957, 0.23565588659998749, -0.10163094848394394, -0.8443564176559448, 0.027012748643755913, 0.6598727703094482, 0.22662506997585297, -0.7163861393928528, 0.07882052659988403, 0.028379857540130615, 0.04138314723968506, -0.14798111400794908, 0.34627809421955796, 0.9239171864434116,0.0676039348095733,0.7360382080078125,0.26519775390625,-0.671783447265625
20220209-1413,2022-02-09 14:14:05Z,u01, 205,40,movements,el-ex, lt, d,16848.582994541666, 0.7238325401748917, -0.22854829995150547, 0.235737976447872, 0.1459289789199829, -0.8257235288619995, -0.010297739878296852, 0.6450399160385132, 0.22656381130218506, -0.7297892570495605, 0.06128948926925659, 0.06562677025794983, 0.04648548364639282, -0.14726449564372873, 0.3367766908794006, 0.9274213869770981,0.06916849445244813,0.706329345703125,0.2921905517578125,-0.6833038330078125
20220209-1413,2022-02-09 14:14:05Z,u01, 206,40,movements,el-ex, lt, d,16848.607940541668, 0.702207633984714, -0.22388240027925443, 0.23045154318593186, 0.35235264897346497, -0.8133945465087891, -0.0695715844631195, 0.6297847032546997, 0.22201679646968842, -0.7443654537200928, 0.03911489248275757, 0.04402020573616028, 0.04485678672790527, -0.14349209861677475, 0.32745580574785454, 0.931346291916658,0.06911600547933108,0.6617431640625,0.2570343017578125,-0.697601318359375
20220209-1413,2022-02-09 14:14:05Z,u01, 207,40,movements,el-ex, lt, d,16848.63288754167, 0.6799105581616036, -0.217586795180351, 0.22274949961333032, 0.3933395445346832, -0.8407028317451477, -0.05312196910381317, 0.6138989925384521, 0.21587395668029785, -0.7592934966087341, 0.04959899187088013, 0.030311375856399536, 0.05487149953842163, -0.1385721556153794, 0.31804248745409913, 0.9354132462329642,0.06818351643543674,0.6634979248046875,0.246185302734375,-0.7044219970703125
20220209-1413,2022-02-09 14:14:05Z,u01, 208,40,movements,el-ex, lt, d,16848.657834541667, 0.6580523286016491, -0.21342051701297413, 0.21710971601143136, 0.13928262889385223, -0.8376449346542358, -0.0644017904996872, 0.5977016687393188, 0.21180404722690582, -0.7732346057891846, 0.04693645238876343, 0.010745421051979065, 0.07160502672195435, -0.1350096285732726, 0.3084721901830581, 0.9391642202309516,0.06773443634822443,0.646026611328125,0.2194061279296875,-0.7109375
20220209-1413,2022-02-09 14:14:05Z,u01, 209,40,movements,el-ex, lt, d,16848.68278054167, 0.6364825102126543, -0.21294972446344645, 0.21472757905858383, 0.05488305538892746, -0.8587539196014404, -0.04272498935461044, 0.5809445977210999, 0.211343914270401, -0.786026120185852, 0.039111554622650146, 0.015462741255760193, 0.0399019718170166, -0.13369568321639702, 0.298516987854944, 0.942533848332778,0.06813934346001557,0.62005615234375,0.226806640625,-0.746124267578125
20220209-1413,2022-02-09 14:14:05Z,u01, 210,40,movements,el-ex, lt, d,16848.707727541667, 0.6148600471745522, -0.2123156068489462, 0.21364345919715952, 0.025754766538739204, -0.855509340763092, -0.006557862274348736, 0.5638915300369263, 0.21072407066822052, -0.7985122203826904, 0.029202401638031006, -0.008835002779960632, 0.03740382194519043, -0.13249722080744608, 0.28842397015513005, 0.9457653552584013,0.06916638754324694,0.5894317626953125,0.20037841796875,-0.7623443603515625
20220209-1413,2022-02-09 14:14:05Z,u01, 211,40,movements,el-ex, lt, d,16848.73267454167, 0.5938742593301296, -0.2118817533636362, 0.2141501416361882, 0.011947141028940678, -0.8522639274597168, 0.06657986342906952, 0.5470622777938843, 0.21029993891716003, -0.8102449178695679, 0.04384958744049072, -0.01318688690662384, 0.023974835872650146, -0.13163035038904042, 0.27847977724565487, 0.9487369041605009,0.07085828635005655,0.590911865234375,0.197113037109375,-0.7862701416015625
20220209-1413,2022-02-09 14:14:05Z,u01, 212,40,movements,el-ex, lt, d,16848.757621541667, 0.5733431522759178, -0.21076119454457598, 0.21583195410283057, -0.021124958992004395, -0.8353531360626221, 0.09900431334972382, 0.5304403901100159, 0.2092043161392212, -0.8215026259422302, 0.03633207082748413, -0.015722841024398804, 0.016693115234375, -0.13059245798241992, 0.2686899859652097, 0.9515238599380801,0.07316865211205456,0.55889892578125,0.193572998046875,-0.81146240234375
20220209-1413,2022-02-09 14:14:05Z,u01, 213,40,movements,el-ex, lt, d,16848.782567541668, 0.5534547762064707, -0.2098691176707634, 0.21872773620531702, -0.0106377974152565, -0.8050618171691895, 0.13728199899196625, 0.5140961408615112, 0.208331897854805, -0.8320474624633789, 0.01909172534942627, -0.0191228985786438, 0.0035257935523986816, -0.1298108350402284, 0.2590857191609354, 0.954071400794682,0.0759704538733399,0.5331878662109375,0.189208984375,-0.828521728515625
20220209-1413,2022-02-09 14:14:05Z,u01, 214,40,movements,el-ex, lt, d,16848.807514541666, 0.534118595045859, -0.20752028288085025, 0.22205273347728233, 0.037660956382751465, -0.8098611831665039, 0.19127106666564941, 0.49816015362739563, 0.20603401958942413, -0.8422508239746094, 0.040139466524124146, -0.01082831621170044, -0.0036353468894958496, -0.12836937355330982, 0.24979168894763984, 0.9564850605550372,0.07913144512474346,0.5384521484375,0.19635009765625,-0.844207763671875
20220209-1413,2022-02-09 14:14:05Z,u01, 215,40,movements,el-ex, lt, d,16848.832461541668, 0.5149881155736276, -0.2046741744758501, 0.22658261755783668, -0.034906383603811264, -0.7976424694061279, 0.23668155074119568, 0.4822441637516022, 0.20324814319610596, -0.85213303565979, 0.0318244993686676, -0.005097493529319763, 0.023580849170684814, -0.12679544435287077, 0.24053354211574773, 0.9587460071239672,0.08290134006355387,0.514068603515625,0.198150634765625,-0.82855224609375
20220209-1413,2022-02-09 14:14:05Z,u01, 216,40,movements,el-ex, lt, d,16848.85740754167, 0.49667783462803416, -0.2043416255957185, 0.23316200344154914, -0.17028596997261047, -0.7983930706977844, 0.22991938889026642, 0.46659359335899353, 0.202922523021698, -0.860879123210907, 0.041386812925338745, -0.00619092583656311, 0.03733181953430176, -0.1266340986162841, 0.2313530643350106, 0.960637809860042,0.08726160440674077,0.50823974609375,0.20758056640625,-0.81805419921875
20220209-1413,2022-02-09 14:14:05Z,u01, 217,40,movements,el-ex, lt, d,16848.882354541667, 0.4787365214505054, -0.2058607680616113, 0.2409254168936137, -0.19028332829475403, -0.7507114410400391, 0.2378871589899063, 0.45093151926994324, 0.20440982282161713, -0.8688368201255798, 0.03518304228782654, 0.02558593451976776, 0.05522298812866211, -0.1274363191783347, 0.22212962080538057, 0.9622707548284303,0.09194329224438166,0.486114501953125,0.2299957275390625,-0.8136138916015625
20220209-1413,2022-02-09 14:14:06Z,u01, 218,40,movements,el-ex, lt, d,16848.90730154167, 0.46249977868522035, -0.20651256193287676, 0.24774471126116485, -0.07385937869548798, -0.6768611669540405, 0.2057476043701172, 0.4367060661315918, 0.2050478160381317, -0.8759242296218872, 0.05732780694961548, 0.036819279193878174, 0.06572830677032471, -0.12772785500669073, 0.2138305057350327, 0.9636965107161769,0.09618356228134509,0.488800048828125,0.248687744140625,-0.8054046630859375
20220209-1413,2022-02-09 14:14:06Z,u01, 219,40,movements,el-ex, lt, d,16848.932248541667, 0.44674401714767115, -0.20447019880465211, 0.2516560886683241, 0.07837696373462677, -0.6659420728683472, 0.13357554376125336, 0.42303162813186646, 0.20304842293262482, -0.8830717206001282, 0.04109501838684082, 0.05699189007282257, 0.06436139345169067, -0.12638944019885875, 0.20613069028087366, 0.9652323131191245,0.09931058712945344,0.4641265869140625,0.260040283203125,-0.8187103271484375
20220209-1413,2022-02-09 14:14:06Z,u01, 220,40,movements,el-ex, lt, d,16848.95719454167, 0.4299785185878062, -0.20081987090188536, 0.25334694359684395, 0.10099692642688751, -0.7089475989341736, 0.11464552581310272, 0.4084739685058594, 0.19947278499603271, -0.8907073736190796, 0.06052020192146301, 0.03491748869419098, 0.060934484004974365, -0.1239650826369699, 0.1981892175418177, 0.9669710824012288,0.10159106729364063,0.47015380859375,0.23077392578125,-0.8291778564453125
20220209-1413,2022-02-09 14:14:06Z,u01, 221,40,movements,el-ex, lt, d,16848.982141541666, 0.4130427034233308, -0.19936278390580503, 0.25547986779638765, -0.04620733857154846, -0.6944781541824341, 0.08086646348237991, 0.39344751834869385, 0.1980447769165039, -0.8977624177932739, 0.06156963109970093, 0.006682410836219788, 0.057308316230773926, -0.12260112759939107, 0.18996778908016937, 0.9685562935516228,0.10382657857569971,0.45501708984375,0.2047271728515625,-0.8404541015625
20220209-1413,2022-02-09 14:14:06Z,u01, 222,40,movements,el-ex, lt, d,16849.007088541668, 0.39579267038959315, -0.19896743565670777, 0.2569115809201517, 0.09189510345458984, -0.7211042642593384, 0.047299645841121674, 0.37793347239494324, 0.1976572424173355, -0.904487669467926, 0.03853997588157654, 0.024098768830299377, 0.015541136264801025, -0.12164026763640642, 0.18154837781023808, 0.970097594794374,0.10561542694008622,0.4001312255859375,0.2141571044921875,-0.90557861328125
20220209-1413,2022-02-09 14:14:06Z,u01, 223,40,movements,el-ex, lt, d,16849.03203454167, 0.37717155788945705, -0.19266632371289805, 0.255540713523449, 0.4136095941066742, -0.7570868730545044, 0.06494035571813583, 0.36147788166999817, 0.19147656857967377, -0.9125077724456787, -0.0019349753856658936, -0.01680918037891388, -0.016493022441864014, -0.11748599742295562, 0.17304087110804933, 0.9720438545274762,0.1066988440719858,0.3595428466796875,0.1746673583984375,-0.9290008544921875
20220209-1413,2022-02-09 14:14:06Z,u01, 224,40,movements,el-ex, lt, d,16849.056981541667, 0.357722743499779, -0.18262078660281456, 0.2535266478138604, 0.3197300434112549, -0.7427059412002563, 0.08876831829547882, 0.34431958198547363, 0.18160739541053772, -0.9211204051971436, -0.021107852458953857, -0.008496418595314026, 0.051613569259643555, -0.11140724452716641, 0.164402620360374, 0.9741356348712054,0.1077967421269037,0.31640625,0.1745147705078125,-0.8482666015625
20220209-1413,2022-02-09 14:14:06Z,u01, 225,40,movements,el-ex, lt, d,16849.08192854167, 0.3417464079528701, -0.17969737309057926, 0.25496167668259545, -0.1532399207353592, -0.5926834344863892, 0.0763513371348381, 0.3297366499900818, 0.17873182892799377, -0.9269998669624329, 0.02844822406768799, 0.010263562202453613, 0.15449315309524536, -0.10923492946991681, 0.15674122100573967, 0.9754373646037195,0.10964517046900056,0.358184814453125,0.188995361328125,-0.7725067138671875
20220209-1413,2022-02-09 14:14:06Z,u01, 226,40,movements,el-ex, lt, d,16849.106875541667, 0.3275012109148131, -0.18722888945221253, 0.2589904625329779, -0.42165040969848633, -0.6170130968093872, 0.030207673087716103, 0.31605637073516846, 0.18613693118095398, -0.9303017854690552, 0.07304278016090393, 0.00848892331123352, 0.17815035581588745, -0.11241424398334121, 0.14903736407091642, 0.9760460433412165,0.11173716497494218,0.3729400634765625,0.1956787109375,-0.7553253173828125
20220209-1413,2022-02-09 14:14:06Z,u01, 227,40,movements,el-ex, lt, d,16849.13182154167, 0.3140753842234551, -0.1948006480906753, 0.26202633803637226, -0.17799879610538483, -0.4991725981235504, 0.019788190722465515, 0.3030940592288971, 0.19357095658779144, -0.9330939650535583, -0.02846631407737732, 0.050523921847343445, 0.17099374532699585, -0.11556075379472128, 0.14177003213183598, 0.9765761445302842,0.11334127858009299,0.274627685546875,0.2440948486328125,-0.7621002197265625
20220209-1413,2022-02-09 14:14:06Z,u01, 228,40,movements,el-ex, lt, d,16849.156768541667, 0.30354693171705066, -0.19899763512735782, 0.264028368110196, -0.26748546957969666, -0.3878587484359741, 0.02707180380821228, 0.2930079996585846, 0.19768685102462769, -0.9354497790336609, -0.004815220832824707, 0.0476439893245697, 0.2414495348930359, -0.11714147391339687, 0.13620938867614657, 0.9770337643586888,0.11458646096133913,0.301910400390625,0.24322509765625,-0.670257568359375
20220209-1413,2022-02-09 14:14:06Z,u01, 229,40,movements,el-ex, lt, d,16849.18171554167, 0.2955522667099008, -0.20870813487858952, 0.268264661509492, -0.5138082504272461, -0.3405829071998596, 0.04015078768134117, 0.2849475145339966, 0.20719623565673828, -0.9358817338943481, 0.05616277456283569, 0.021624580025672913, 0.2738639712333679, -0.12168722908375613, 0.1313443599740418, 0.9769354539090004,0.11635404270721136,0.3411102294921875,0.22882080078125,-0.662017822265625
20220209-1413,2022-02-09 14:14:06Z,u01, 230,40,movements,el-ex, lt, d,16849.206661541666, 0.28989384774890503, -0.2205626219478554, 0.27274597237618237, -0.40230682492256165, -0.19374606013298035, 0.027589987963438034, 0.2789256274700165, 0.21877865493297577, -0.9350595474243164, -0.003473907709121704, 0.03888130187988281, 0.2568369507789612, -0.1274100963492435, 0.12742402564312594, 0.9765324395377146,0.11795865980307199,0.26171875,0.2569580078125,-0.6824188232421875
20220209-1413,2022-02-09 14:14:06Z,u01, 231,40,movements,el-ex, lt, d,16849.231608541668, 0.2894039721809836, -0.22871827551111662, 0.2753413215044863, -0.16900041699409485, -0.03924795985221863, -0.00016640964895486832, 0.27794909477233887, 0.2267293632030487, -0.9334549307823181, -0.021448791027069092, 0.03260904550552368, 0.24537509679794312, -0.13150893208058645, 0.12640385550343006, 0.9760418735560331,0.1186161776611471,0.256500244140625,0.25933837890625,-0.688079833984375
20220209-1413,2022-02-09 14:14:06Z,u01, 232,40,movements,el-ex, lt, d,16849.256555541666, 0.2907340640707848, -0.2323910885428298, 0.27667792448536827, -0.1413373500108719, 0.09664595872163773, 0.00951418187469244, 0.2789498269557953, 0.23030498623847961, -0.9322803020477295, -0.029315978288650513, 0.009319067001342773, 0.25192147493362427, -0.13345618327728362, 0.1266857636647828, 0.9757075944144683,0.11889035535154854,0.245941162109375,0.2385101318359375,-0.679229736328125
20220209-1413,2022-02-09 14:14:06Z,u01, 233,40,movements,el-ex, lt, d,16849.281502541668, 0.2960066212373229, -0.23533296608480778, 0.2783370914383391, -0.08370228111743927, 0.2633872628211975, 0.05021447315812111, 0.2836625576019287, 0.23316678404808044, -0.9301444888114929, -0.018861472606658936, 0.01031772792339325, 0.2349236011505127, -0.135303785086323, 0.12892104583331124, 0.9751332743631818,0.1191103395087732,0.264801025390625,0.2434844970703125,-0.695220947265625
20220209-1413,2022-02-09 14:14:06Z,u01, 234,40,movements,el-ex, lt, d,16849.30644854167, 0.30457028169069045, -0.23681286856150677, 0.2802240118267385, -0.0958833247423172, 0.3738000690937042, 0.05029277130961418, 0.29151371121406555, 0.23460564017295837, -0.9273510575294495, -0.010431498289108276, 0.009840190410614014, 0.21153074502944946, -0.13665537648025133, 0.13285248249014062, 0.974390473208453,0.11932690572422895,0.286224365234375,0.24261474609375,-0.7176361083984375
20220209-1413,2022-02-09 14:14:06Z,u01, 235,40,movements,el-ex, lt, d,16849.331395541667, 0.3153576543537122, -0.23974467771447552, 0.2828528206034518, -0.20082248747348785, 0.4239581227302551, 0.06800924241542816, 0.30128562450408936, 0.2374546080827713, -0.9234946370124817, 0.010604113340377808, 0.004946529865264893, 0.1748221516609192, -0.13889765225435854, 0.13769579267577362, 0.9733648989960146,0.11961724982418856,0.3118896484375,0.242401123046875,-0.7486724853515625
20220209-1413,2022-02-09 14:14:06Z,u01, 236,40,movements,el-ex, lt, d,16849.35634254167, 0.3276809278280206, -0.2458071262385329, 0.28679806837922384, -0.35709384083747864, 0.4895850419998169, 0.05952388420701027, 0.31217387318611145, 0.24333927035331726, -0.9183319211006165, 0.011983901262283325, -0.01174132525920868, 0.16694337129592896, -0.14284482062632722, 0.14293144467143384, 0.9719735590752772,0.12013979321239927,0.32537841796875,0.23541259765625,-0.75042724609375
20220209-1413,2022-02-09 14:14:06Z,u01, 237,40,movements,el-ex, lt, d,16849.381288541666, 0.3423158017626776, -0.25380742370973075, 0.29123058309490785, -0.30365514755249023, 0.5755430459976196, 0.07219913601875305, 0.32491573691368103, 0.25109121203422546, -0.9118020534515381, 0.022710055112838745, 0.013465702533721924, 0.12792754173278809, -0.14790956242419367, 0.14906955170211925, 0.970247553859661,0.12050269364474028,0.347625732421875,0.264556884765625,-0.78387451171875
20220209-1413,2022-02-09 14:14:06Z,u01, 238,40,movements,el-ex, lt, d,16849.406235541668, 0.35830459642168877, -0.25892241670464095, 0.2947949312094178, -0.19593365490436554, 0.6335591077804565, 0.04518342763185501, 0.33899736404418945, 0.256039023399353, -0.9052760601043701, 0.006415903568267822, 0.010837197303771973, 0.11993676424026489, -0.15160773683144874, 0.15613151603049974, 0.9685587109198506,0.12054885561095285,0.346527099609375,0.268646240234375,-0.7796783447265625
20220209-1413,2022-02-09 14:14:06Z,u01, 239,40,movements,el-ex, lt, d,16849.431182541666, 0.3759474938344501, -0.2637876480687361, 0.2978991019589961, -0.2835041582584381, 0.716620147228241, 0.03155863285064697, 0.3544539213180542, 0.2607390582561493, -0.8979852795600891, -0.003669559955596924, -0.0028807222843170166, 0.1384028196334839, -0.15525498802497023, 0.16402207269885347, 0.9667165518912803,0.1202157993855141,0.3507843017578125,0.2578582763671875,-0.75958251953125
20220209-1413,2022-02-09 14:14:06Z,u01, 240,40,movements,el-ex, lt, d,16849.456129541668, 0.39689553780196923, -0.2713656193806964, 0.30188955818674773, -0.3500986397266388, 0.8719798922538757, 0.03341565281152725, 0.37241131067276, 0.2680473327636719, -0.8885158896446228, -0.014806270599365234, 0.016239196062088013, 0.1357845664024353, -0.1604773111036019, 0.17317359987089279, 0.9643285111185252,0.11970173635610806,0.361114501953125,0.287567138671875,-0.760040283203125
20220209-1413,2022-02-09 14:14:06Z,u01, 241,40,movements,el-ex, lt, d,16849.48107554167, 0.4200057573927647, -0.2754689544917942, 0.30480067281491285, 0.02766098827123642, 0.8980939388275146, 0.048438943922519684, 0.39239203929901123, 0.27199822664260864, -0.8786611557006836, 0.005023181438446045, 0.026875704526901245, 0.03758150339126587, -0.16407380731895088, 0.18370954094719277, 0.9618846380707954,0.1187796469764626,0.3974151611328125,0.2988739013671875,-0.8410797119140625
20220209-1413,2022-02-09 14:14:06Z,u01, 242,40,movements,el-ex, lt, d,16849.506022541667, 0.4427597111860756, -0.26999053356262215, 0.3035156168314842, 0.3375295400619507, 0.9441229701042175, 0.05140497535467148, 0.412913978099823, 0.26672232151031494, -0.8708394169807434, 0.019962668418884277, 0.037080198526382446, 0.021474242210388184, -0.16268465300936866, 0.1952280678820535, 0.9600763270902719,0.11693261006383765,0.4590301513671875,0.29345703125,-0.8532257080078125
20220209-1413,2022-02-09 14:14:06Z,u01, 243,40,movements,el-ex, lt, d,16849.53096954167, 0.4639907350154256, -0.2639873128380071, 0.301858975796776, 0.09989214688539505, 0.7750334739685059, 0.027818020433187485, 0.43201714754104614, 0.2609317898750305, -0.8632935881614685, 0.07811477780342102, -0.00308874249458313, -0.004229545593261719, -0.1608980791911044, 0.2060704056969981, 0.9583264801194868,0.11514021721285445,0.5101318359375,0.257843017578125,-0.867523193359375
20220209-1413,2022-02-09 14:14:06Z,u01, 244,40,movements,el-ex, lt, d,16849.555915541667, 0.4829681228616425, -0.26478317555898956, 0.30162733002872366, -0.09182752668857574, 0.7870863080024719, -0.07533586025238037, 0.44822484254837036, 0.26170000433921814, -0.8547558784484863, -0.026944875717163086, 0.001315772533416748, -0.013667523860931396, -0.16233521173657856, 0.21510307294847109, 0.9563049984990657,0.1133966656331471,0.413330078125,0.263641357421875,-0.863800048828125
20220209-1413,2022-02-09 14:14:06Z,u01, 245,40,movements,el-ex, lt, d,16849.58086254167, 0.5024349623347912, -0.2664581602129067, 0.3004389344064304, 0.033730700612068176, 0.7635930180549622, -0.041330426931381226, 0.46456649899482727, 0.26331624388694763, -0.8454836010932922, 0.050539761781692505, 0.006703317165374756, -0.04343235492706299, -0.164088756406082, 0.22435033708812213, 0.9541569712332325,0.11102415445565292,0.515106201171875,0.27001953125,-0.888916015625
20220209-1413,2022-02-09 14:14:06Z,u01, 246,40,movements,el-ex, lt, d,16849.605809541667, 0.5203517329530365, -0.2667768942193948, 0.2994181118002448, -0.05422418937087059, 0.6972249150276184, -0.05572720617055893, 0.47959771752357483, 0.2636237144470215, -0.8369519710540771, 0.050645262002944946, -0.009091854095458984, -0.009330987930297852, -0.16510798020651832, 0.23294499672464036, 0.9521505174820238,0.10902053540331624,0.523895263671875,0.2511749267578125,-0.8313140869140625
20220209-1413,2022-02-09 14:14:06Z,u01, 247,40,movements,el-ex, lt, d,16849.63075654167, 0.5388534117249149, -0.27102465465913056, 0.2988016282040251, -0.17287632822990417, 0.8419710993766785, -0.13698303699493408, 0.4944206476211548, 0.2677188217639923, -0.8269672393798828, 0.01598590612411499, 0.024960041046142578, 0.09282118082046509, -0.16802982362251145, 0.24141738210089783, 0.9497999154816864,0.10660084884906829,0.510406494140625,0.2926788330078125,-0.7341461181640625
20220209-1413,2022-02-09 14:14:06Z,u01, 248,40,movements,el-ex, lt, d,16849.655702541666, 0.5612361035126929, -0.2755951021268412, 0.2973280555716123, -0.00326443649828434, 0.9411769509315491, -0.14906348288059235, 0.5121484398841858, 0.2721196413040161, -0.8146501779556274, 0.07198858261108398, 0.014409929513931274, 0.09809744358062744, -0.17116514661099033, 0.2517487127178502, 0.9469126133103154,0.10335155617616823,0.58624267578125,0.2747039794921875,-0.734588623046875
20220209-1413,2022-02-09 14:14:06Z,u01, 249,40,movements,el-ex, lt, d,16849.680649541668, 0.5830427534707768, -0.2713772337195014, 0.2891516553129938, 0.6681978106498718, 0.991780698299408, -0.18178234994411469, 0.530417263507843, 0.26805850863456726, -0.8042401075363159, -0.0018374919891357422, 0.05875426530838013, 0.006632745265960693, -0.16924071885048542, 0.2631302315671053, 0.944704474696091,0.09825250296891908,0.5285797119140625,0.326812744140625,-0.797607421875
20220209-1413,2022-02-09 14:14:06Z,u01, 250,40,movements,el-ex, lt, d,16849.70559654167, 0.604040072328245, -0.25621882187945344, 0.27336273435229486, 0.8701171278953552, 0.9851175546646118, -0.14667168259620667, 0.5494309067726135, 0.25342464447021484, -0.7961794137954712, 0.02056121826171875, 0.01766306161880493, 0.013876616954803467, -0.1610361609648731, 0.275640412151187, 0.943260528376964,0.09137535019892026,0.5877227783203125,0.251556396484375,-0.7729034423828125
