SessionID,LoggingTime,UID,RecNo,Hertz,Activity,MoveType,Wrist,Side,TimeStamp,DMRoll,DMPitch,DMYaw,DMRotX,DMRotY,DMRotZ,DMGrvX,DMGrvY,DMGrvZ,DMUAccelX,DMUAccelY,DMUAccelZ,DMQuatX,DMQuatY,DMQuatW,DMQuatZ,AccelroX,AceelroY,AceelroZ
20220209-1401,2022-02-09 14:01:30Z,u01, 1,40,movements,el-ex, lt, d,16107.112032041668, 1.3854660194340633, -0.4528782161095482, 0.3778600084042361, -0.028986409306526184, -0.16949671506881714, 0.027923349291086197, 0.8837929964065552, 0.4375554025173187, -0.16569505631923676, 0.020259499549865723, 0.004598408937454224, -0.013427957892417908, -0.28656665710082285, 0.5788195112055505, 0.7634443843914125,5.551115123125783e-17,0.8986358642578125,0.440155029296875,-0.1775970458984375
20220209-1401,2022-02-09 14:01:30Z,u01, 2,40,movements,el-ex, lt, d,16107.136978041668, 1.3821829357326574, -0.45244203847775455, 0.3796920560623509, -0.07492024451494217, -0.1909797042608261, 0.03957407921552658, 0.8834317326545715, 0.43716317415237427, -0.16863149404525757, -0.001031339168548584, -0.006178706884384155, -0.003197774291038513, -0.2869402671000597, 0.5773642979644575, 0.7644042950369354,0.0013107701310407227,0.8824005126953125,0.4309844970703125,-0.1718292236328125
20220209-1401,2022-02-09 14:01:30Z,u01, 3,40,movements,el-ex, lt, d,16107.161924041668, 1.3790457405352297, -0.4514956021880416, 0.3826734343445543, -0.08850373327732086, 0.2605850100517273, -0.299498587846756, 0.883304238319397, 0.4363117516040802, -0.1714809685945511, -0.14990580081939697, 0.0155467689037323, 0.014910385012626648, -0.28745989400077276, 0.5758700616289467, 0.7653301503514068,0.0032053150897536076,1.1304168701171875,0.413726806640625,-0.2035369873046875
20220209-1401,2022-02-09 14:01:30Z,u01, 4,40,movements,el-ex, lt, d,16107.186871041667, 1.3750374264850245, -0.44978435176471304, 0.3859022263227942, -0.10762502998113632, -0.21667887270450592, 0.0924147218465805, 0.8833407759666443, 0.4347713589668274, -0.1751650869846344, 0.027654588222503662, 0.008328527212142944, -0.014196619391441345, -0.28777043625700305, 0.5741129109954288, 0.76651903789178,0.0055665806970438825,0.9109954833984375,0.4430999755859375,-0.189361572265625
20220209-1401,2022-02-09 14:01:30Z,u01, 5,40,movements,el-ex, lt, d,16107.211817041667, 1.370133809939503, -0.44822649857497265, 0.38875063862052706, -0.06897923350334167, -0.27087366580963135, 0.0817173421382904, 0.8831338286399841, 0.43336790800094604, -0.17962931096553802, 0.01635640859603882, 0.017498761415481567, -0.013547047972679138, -0.28801482638462217, 0.5720426607057849, 0.7679535887625644,0.007863165648746895,0.89263916015625,0.450103759765625,-0.1931610107421875
20220209-1401,2022-02-09 14:01:30Z,u01, 6,40,movements,el-ex, lt, d,16107.236763041668, 1.3641686923579097, -0.4470643837929614, 0.39070396037775873, -0.05295003205537796, -0.2759077847003937, 0.07810376584529877, 0.882538914680481, 0.4323202967643738, -0.18499727547168732, -0.002732515335083008, 0.00943690538406372, -0.024521231651306152, -0.2881307566485697, 0.5696332414640786, 0.769676305624961,0.009843646088657065,0.8798065185546875,0.4417572021484375,-0.2095184326171875
20220209-1401,2022-02-09 14:01:30Z,u01, 7,40,movements,el-ex, lt, d,16107.261710041668, 1.3585816486140418, -0.44574127496761273, 0.39304791908195397, -0.04550476372241974, -0.3054227828979492, 0.10557320713996887, 0.8820500373840332, 0.43112683296203613, -0.19004547595977783, 0.01592963933944702, 0.013483703136444092, -0.02331829071044922, -0.28829269388422285, 0.5673311093772921, 0.7712842146150738,0.011972164996267187,0.90185546875,0.4450836181640625,-0.21771240234375
20220209-1401,2022-02-09 14:01:30Z,u01, 8,40,movements,el-ex, lt, d,16107.286656041668, 1.3520758770854069, -0.44380400399409836, 0.3946025447410581, 0.012046442367136478, -0.3310878574848175, 0.12175330519676208, 0.881608784198761, 0.42937806248664856, -0.19596070051193237, 0.015531778335571289, 0.015705585479736328, -0.02657356858253479, -0.28799467482789126, 0.5648705282707256, 0.7731629601251274,0.014123215709726522,0.8971405029296875,0.4450836181640625,-0.2225341796875
20220209-1401,2022-02-09 14:01:30Z,u01, 9,40,movements,el-ex, lt, d,16107.311602041667, 1.3444101091767844, -0.4412367396676565, 0.3945366987574737, 0.07484401017427444, -0.32497546076774597, 0.11034345626831055, 0.8811519145965576, 0.42705807089805603, -0.2029598355293274, 0.00010406970977783203, 0.024312138557434082, -0.022748291492462158, -0.2869934301051248, 0.562276492291111, 0.775386112049092,0.016009346685277814,0.8793792724609375,0.45050048828125,-0.2273406982421875
20220209-1401,2022-02-09 14:01:30Z,u01, 10,40,movements,el-ex, lt, d,16107.336548041667, 1.3364464374706517, -0.438998937479062, 0.39323360984124306, 0.08580935001373291, -0.35290101170539856, 0.09241166710853577, 0.880435049533844, 0.4250335395336151, -0.21019192039966583, 0.0012940168380737305, 0.012908935546875, -0.019346117973327637, -0.2857520169460677, 0.5596872558623409, 0.7776857166281947,0.017346281459857893,0.8817291259765625,0.4379425048828125,-0.2295379638671875
20220209-1401,2022-02-09 14:01:30Z,u01, 11,40,movements,el-ex, lt, d,16107.361495041667, 1.3273088663269108, -0.43665392119615964, 0.39302556604367395, -0.01580359786748886, -0.42544347047805786, 0.12141022831201553, 0.8794424533843994, 0.4229097068309784, -0.21846774220466614, 0.022122979164123535, 0.007296532392501831, -0.015922605991363525, -0.28475833212958607, 0.5564879333908769, 0.7802956098551355,0.019301080650980684,0.9056549072265625,0.43096923828125,-0.234161376953125
20220209-1401,2022-02-09 14:01:30Z,u01, 12,40,movements,el-ex, lt, d,16107.386441041668, 1.3187791671887, -0.4348707341667601, 0.3974801232006915, -0.19067120552062988, -0.4802735447883606, 0.15395444631576538, 0.8782759308815002, 0.421293169260025, -0.22614876925945282, 0.028691112995147705, 0.012712478637695312, -0.004823565483093262, -0.2852535807359891, 0.5527712081297551, 0.7826582364586816,0.02281138921428949,0.9069671630859375,0.4340057373046875,-0.2309722900390625
20220209-1401,2022-02-09 14:01:31Z,u01, 13,40,movements,el-ex, lt, d,16107.411387041668, 1.310306903551139, -0.433101447361746, 0.4036048012670173, -0.12757015228271484, -0.4533098638057709, 0.12596915662288666, 0.8770473599433899, 0.4196878969669342, -0.23377318680286407, 0.005719244480133057, 0.04463702440261841, 0.0009850263595581055, -0.28618777226463943, 0.5488259917210864, 0.7849580917803678,0.02696930653749649,0.8797149658203125,0.46478271484375,-0.2349853515625
20220209-1401,2022-02-09 14:01:31Z,u01, 14,40,movements,el-ex, lt, d,16107.436334041668, 1.3015796688279924, -0.43167466085903616, 0.4062192009988776, 0.016746290028095245, -0.44221460819244385, 0.09830290824174881, 0.8755501508712769, 0.4183924198150635, -0.2415774017572403, 0.011900901794433594, 0.04419296979904175, -0.00825488567352295, -0.2862557891526225, 0.5452237358830445, 0.7873420249854194,0.029685060218244907,0.887451171875,0.46258544921875,-0.2498321533203125
20220209-1401,2022-02-09 14:01:31Z,u01, 15,40,movements,el-ex, lt, d,16107.461280041667, 1.2914104611816943, -0.42969406218647244, 0.4066298642376158, 0.013136574067175388, -0.46077218651771545, 0.10010679811239243, 0.8738431334495544, 0.41659268736839294, -0.25069645047187805, 0.02396869659423828, 0.02997097373008728, -0.013631641864776611, -0.28548123723424446, 0.5414353539920658, 0.7901456669023302,0.031906698537475436,0.9006500244140625,0.4490509033203125,-0.26513671875
20220209-1401,2022-02-09 14:01:31Z,u01, 16,40,movements,el-ex, lt, d,16107.486226041668, 1.2823193002198432, -0.4286463272384107, 0.409104269097372, -0.07147148996591568, -0.5035568475723267, 0.10969823598861694, 0.871945858001709, 0.4156399667263031, -0.25875425338745117, 0.03225940465927124, 0.03035914897918701, -0.02536451816558838, -0.285610362830806, 0.5376333317102205, 0.7925822609617956,0.03450254418738816,0.904205322265625,0.4459991455078125,-0.28411865234375
20220209-1401,2022-02-09 14:01:31Z,u01, 17,40,movements,el-ex, lt, d,16107.511172041668, 1.272462910547992, -0.427782965347965, 0.4128425531266449, -0.07266747951507568, -0.5144925117492676, 0.09634602069854736, 0.869695782661438, 0.4148545563220978, -0.26744112372398376, 0.015588521957397461, 0.038896024227142334, -0.0225369930267334, -0.28611305389388486, 0.533309247796, 0.7951744721642173,0.037656408902832866,0.8805999755859375,0.4566192626953125,-0.290130615234375
20220209-1401,2022-02-09 14:01:31Z,u01, 18,40,movements,el-ex, lt, d,16107.536119041668, 1.2624141504256672, -0.427287360032943, 0.41493573551016166, 0.05182984098792076, -0.5123164653778076, 0.06140108034014702, 0.8671603798866272, 0.4144035875797272, -0.27622926235198975, 0.013256430625915527, 0.04690009355545044, -0.040299177169799805, -0.2862891123136025, 0.5290783661936875, 0.7978148146049833,0.040077064154379005,0.8804168701171875,0.4613037109375,-0.3165283203125
20220209-1401,2022-02-09 14:01:31Z,u01, 19,40,movements,el-ex, lt, d,16107.561065041667, 1.2496167877752322, -0.42566488350387577, 0.4125222591489719, 0.20666378736495972, -0.5172056555747986, 0.04880306497216225, 0.8641911745071411, 0.41292643547058105, -0.2875155210494995, 0.01593559980392456, 0.04315871000289917, -0.04993268847465515, -0.2847854695707854, 0.5245373854752916, 0.8012750544123619,0.04142370140747276,0.8809661865234375,0.45208740234375,-0.3448486328125
20220209-1401,2022-02-09 14:01:31Z,u01, 20,40,movements,el-ex, lt, d,16107.586011041667, 1.2351735123967789, -0.4234112449792122, 0.40729634141206006, 0.23214881122112274, -0.5570222735404968, 0.03611955791711807, 0.8608251214027405, 0.41087284684181213, -0.3002726435661316, 0.020202040672302246, 0.023300737142562866, -0.057591795921325684, -0.2822707774659063, 0.5197950489820156, 0.8052136381458468,0.04203937186745135,0.8810272216796875,0.434173583984375,-0.3578643798828125
20220209-1401,2022-02-09 14:01:31Z,u01, 21,40,movements,el-ex, lt, d,16107.610958041667, 1.2197203248655724, -0.4212557182625027, 0.4032947145520669, 0.10989853739738464, -0.5853638648986816, 0.039641059935092926, 0.8569119572639465, 0.4089067280292511, -0.3138425946235657, 0.02902853488922119, 0.0039045512676239014, -0.0349886417388916, -0.2800890072283035, 0.5144208908882608, 0.809353190027987,0.043228366149166475,0.8895263671875,0.40997314453125,-0.346435546875
20220209-1401,2022-02-09 14:01:31Z,u01, 22,40,movements,el-ex, lt, d,16107.635904041668, 1.2048757697209043, -0.420078996236773, 0.4030895027643016, -0.01989005133509636, -0.6369407176971436, 0.06503570079803467, 0.8526076078414917, 0.4078325927257538, -0.32669997215270996, 0.061912596225738525, -0.003108501434326172, -0.02600705623626709, -0.2792577057132884, 0.5085913407468677, 0.8131875835463022,0.0455623323688181,0.914520263671875,0.40472412109375,-0.3527069091796875
20220209-1401,2022-02-09 14:01:31Z,u01, 23,40,movements,el-ex, lt, d,16107.660850041668, 1.1893551188937495, -0.4189764820130447, 0.40461955169900415, -0.021587684750556946, -0.6702257394790649, 0.06235309690237045, 0.8478512763977051, 0.4068256914615631, -0.3400602638721466, 0.04404008388519287, 0.010486900806427002, -0.03651142120361328, -0.27885530727070496, 0.5022047180382829, 0.81710556912803,0.048668173218864824,0.8828887939453125,0.41876220703125,-0.38201904296875
20220209-1401,2022-02-09 14:01:31Z,u01, 24,40,movements,el-ex, lt, d,16107.685796041667, 1.173084001874165, -0.4174549851723072, 0.404598556674394, 0.08156273514032364, -0.6540007591247559, 0.05296904593706131, 0.8427757620811462, 0.40543532371520996, -0.3540494441986084, 0.013715147972106934, 0.023733317852020264, -0.049240440130233765, -0.2778553642665196, 0.4957536448176185, 0.8212107420314888,0.05135646519364276,0.8564910888671875,0.429168701171875,-0.403289794921875
20220209-1401,2022-02-09 14:01:31Z,u01, 25,40,movements,el-ex, lt, d,16107.710743041667, 1.1556678052654668, -0.415360629375585, 0.40232655159055597, 0.13249832391738892, -0.6912920475006104, 0.04456271231174469, 0.8372573256492615, 0.4035199284553528, -0.3690146505832672, 0.03638458251953125, 0.013228118419647217, -0.04895418882369995, -0.2760250904110243, 0.48918588325767687, 0.825623110302426,0.05342086427114329,0.87750244140625,0.4155120849609375,-0.423309326171875
20220209-1401,2022-02-09 14:01:31Z,u01, 26,40,movements,el-ex, lt, d,16107.735689041667, 1.1370714365174945, -0.4133995002921697, 0.39987100529129643, 0.10742981731891632, -0.7400660514831543, 0.03689620643854141, 0.830967128276825, 0.40172478556632996, -0.38485172390937805, 0.04877829551696777, 0.010506629943847656, -0.04698735475540161, -0.27415411342857565, 0.4820929971044245, 0.8302680239740126,0.05550590566642752,0.8797454833984375,0.4122314453125,-0.4318389892578125
20220209-1401,2022-02-09 14:01:31Z,u01, 27,40,movements,el-ex, lt, d,16107.760635041668, 1.1175481402913023, -0.41167996124916423, 0.39803285889844575, 0.07572601735591888, -0.7644224166870117, 0.03181076422333717, 0.8239153623580933, 0.40014949440956116, -0.40130239725112915, 0.04406541585922241, 0.009732037782669067, -0.04590222239494324, -0.2724825367772506, 0.4744492265323798, 0.8350455278763522,0.05787885429855924,0.865142822265625,0.410247802734375,-0.44683837890625
20220209-1401,2022-02-09 14:01:31Z,u01, 28,40,movements,el-ex, lt, d,16107.785582041668, 1.0977540185159242, -0.4099249505023305, 0.39654581918794446, 0.09903343766927719, -0.7820965051651001, 0.04689590632915497, 0.8164349794387817, 0.3985404968261719, -0.4178507328033447, 0.048173606395721436, 0.014194458723068237, -0.04099634289741516, -0.2708495595212985, 0.4665995608127234, 0.8398064790856121,0.06041790136264946,0.8646087646484375,0.4127349853515625,-0.4588470458984375
20220209-1401,2022-02-09 14:01:31Z,u01, 29,40,movements,el-ex, lt, d,16107.810528041668, 1.0770698572531712, -0.4075742485176836, 0.39459666139679983, 0.10617823153734207, -0.8344211578369141, 0.04994642361998558, 0.8084408044815063, 0.39638346433639526, -0.43509018421173096, 0.0638430118560791, 0.01708391308784485, -0.022597283124923706, -0.26881902099830235, 0.45846617858518374, 0.8447333852697064,0.06301157615921721,0.8710784912109375,0.4153900146484375,-0.460296630859375
20220209-1401,2022-02-09 14:01:31Z,u01, 30,40,movements,el-ex, lt, d,16107.835474041667, 1.0554669631804232, -0.4056366169489427, 0.3935443659718132, 0.03906751051545143, -0.8529735207557678, 0.05164792016148567, 0.7995205521583557, 0.39460378885269165, -0.4528296887874603, 0.057199299335479736, 0.019992738962173462, -0.019918203353881836, -0.2671015691051284, 0.44971313815265557, 0.8497431122435356,0.06596609654973346,0.856719970703125,0.4145965576171875,-0.472747802734375
20220209-1401,2022-02-09 14:01:31Z,u01, 31,40,movements,el-ex, lt, d,16107.860420041668, 1.03420963083195, -0.4046056468898789, 0.39432403016782447, -0.037398938089609146, -0.8761739730834961, 0.04046497493982315, 0.7900639176368713, 0.39365628361701965, -0.4699294865131378, 0.06760203838348389, 0.003117978572845459, 0.017979323863983154, -0.2661367587471652, 0.44068865187856765, 0.8544874380742918,0.06939678977918609,0.855010986328125,0.39288330078125,-0.44354248046875
20220209-1401,2022-02-09 14:01:31Z,u01, 32,40,movements,el-ex, lt, d,16107.885367041668, 1.0120119462033148, -0.4042859582298565, 0.3941735755882887, 0.09006870537996292, -0.896783709526062, -0.031643643975257874, 0.7795453667640686, 0.3933623731136322, -0.48741650581359863, 0.035411179065704346, 0.030282586812973022, -0.0003612339496612549, -0.2651864735587011, 0.4312399291080204, 0.8593438863381233,0.07236153576498675,0.8149566650390625,0.42364501953125,-0.4877777099609375
20220209-1401,2022-02-09 14:01:31Z,u01, 33,40,movements,el-ex, lt, d,16107.910313041668, 0.9876756877003263, -0.40231799268638613, 0.3893796234295658, 0.2723691165447235, -0.9132726788520813, -0.015500158071517944, 0.7680985331535339, 0.39155229926109314, -0.5066667795181274, 0.038084208965301514, 0.0528293251991272, -0.02429330348968506, -0.26246232751517506, 0.42163981171972187, 0.8647880180317388,0.07399235490846934,0.8028564453125,0.43670654296875,-0.532012939453125
20220209-1401,2022-02-09 14:01:31Z,u01, 34,40,movements,el-ex, lt, d,16107.935259041667, 0.9627510580503053, -0.3992017603568235, 0.38326896583192743, 0.21278853714466095, -0.9018529653549194, -0.014428902417421341, 0.7562305927276611, 0.3886829912662506, -0.5263465046882629, 0.037958741188049316, 0.025532037019729614, 0.0009711384773254395, -0.2589621121171919, 0.4120259312636081, 0.8703425618185312,0.07534538546655997,0.794189453125,0.414215087890625,-0.5253753662109375
20220209-1401,2022-02-09 14:01:31Z,u01, 35,40,movements,el-ex, lt, d,16107.960205625, 0.9389366685640491, -0.39754007131923225, 0.38019385836399866, 0.06515263766050339, -0.9063922166824341, -0.020782604813575745, 0.7440029382705688, 0.38715142011642456, -0.5445854663848877, 0.0383455753326416, 0.017023324966430664, 0.012587785720825195, -0.25672960275706297, 0.4022401817400395, 0.8753807793054884,0.07746726991592773,0.779205322265625,0.4009246826171875,-0.5360107421875
20220209-1401,2022-02-09 14:01:31Z,u01, 36,40,movements,el-ex, lt, d,16107.985151625, 0.9154801974312944, -0.3965515211515045, 0.3780918732242581, 0.14287710189819336, -0.9115175604820251, -0.0046106260269880295, 0.7313284873962402, 0.38623976707458496, -0.5621187090873718, 0.03129047155380249, 0.037710368633270264, -0.00843799114227295, -0.2549724912038689, 0.39233870735104, 0.8801677915904811,0.07977466161000382,0.7626190185546875,0.4239501953125,-0.570556640625
20220209-1401,2022-02-09 14:01:31Z,u01, 37,40,movements,el-ex, lt, d,16108.010097625001, 0.8912260187083211, -0.3930659024672324, 0.37331427750378676, 0.30912619829177856, -0.900638997554779, 0.003979267552495003, 0.7185238599777222, 0.3830223083496094, -0.5805320143699646, 0.03457361459732056, 0.039966583251953125, -0.018863797187805176, -0.25158599888675487, 0.38267281019502103, 0.8852226997427233,0.0815278324334702,0.750732421875,0.421783447265625,-0.6049041748046875
20220209-1401,2022-02-09 14:01:31Z,u01, 38,40,movements,el-ex, lt, d,16108.035043625001, 0.8664054517528893, -0.3876572837746267, 0.36664428055864967, 0.30845651030540466, -0.8859719634056091, 0.012643794529139996, 0.7054631114006042, 0.37802058458328247, -0.5995182991027832, 0.021740198135375977, 0.031845688819885254, -0.0038753151893615723, -0.24698659631078795, 0.37314672723741005, 0.8904458267906754,0.08285721012177993,0.727203369140625,0.4098663330078125,-0.6033935546875
20220209-1401,2022-02-09 14:01:31Z,u01, 39,40,movements,el-ex, lt, d,16108.059990625, 0.8431844620009107, -0.38356056088501406, 0.36239781075829514, 0.14931994676589966, -0.8685543537139893, 0.041667390614748, 0.6925034523010254, 0.3742246925830841, -0.6167615652084351, 0.04460275173187256, 0.027234017848968506, 0.009034454822540283, -0.24346173862126352, 0.3637933632949023, 0.8951020970185956,0.08469306145821054,0.74029541015625,0.4033203125,-0.6085205078125
20220209-1401,2022-02-09 14:01:31Z,u01, 40,40,movements,el-ex, lt, d,16108.084936625, 0.8205819242081179, -0.38041199368870476, 0.3607632304231005, 0.12996888160705566, -0.8910506367683411, 0.030682917684316635, 0.6792459487915039, 0.3713030517101288, -0.6330552101135254, 0.04861342906951904, 0.02132079005241394, 0.012739598751068115, -0.24082697607946385, 0.3542241864137448, 0.89938627338385,0.0873598042926822,0.7278594970703125,0.3926239013671875,-0.6203155517578125
20220209-1401,2022-02-09 14:01:31Z,u01, 41,40,movements,el-ex, lt, d,16108.109882625002, 0.7976656283921981, -0.37745569638248244, 0.35861285648188007, 0.14780864119529724, -0.8895706534385681, 0.039931610226631165, 0.6653443574905396, 0.3685564696788788, -0.6492171883583069, 0.056838810443878174, 0.022633075714111328, 0.01631307601928711, -0.23814327056239404, 0.3444984535315998, 0.9036342042548395,0.08974255523482239,0.71728515625,0.3896026611328125,-0.6346893310546875
20220209-1401,2022-02-09 14:01:31Z,u01, 42,40,movements,el-ex, lt, d,16108.134829625002, 0.7749869899651254, -0.37496140998309396, 0.35707478599341175, 0.0907139927148819, -0.8856762051582336, 0.026112865656614304, 0.6510923504829407, 0.3662366271018982, -0.6647927761077881, 0.04664623737335205, 0.02408313751220703, 0.02114647626876831, -0.23575262832139726, 0.3347003414541673, 0.9076834951513724,0.09223312793028632,0.6977386474609375,0.39031982421875,-0.643646240234375
20220209-1401,2022-02-09 14:01:31Z,u01, 43,40,movements,el-ex, lt, d,16108.159775625001, 0.7526048506074378, -0.37286093807943715, 0.3557794733493854, 0.09426061809062958, -0.8791395425796509, 0.00468447245657444, 0.63657546043396, 0.3642812669277191, -0.679757833480835, 0.049688518047332764, 0.01654753088951111, 0.03081679344177246, -0.23356358969463425, 0.32491402052439744, 0.9115450235739337,0.09468070417736968,0.6809234619140625,0.382720947265625,-0.6505889892578125
20220209-1401,2022-02-09 14:01:31Z,u01, 44,40,movements,el-ex, lt, d,16108.184721625, 0.7302312532100491, -0.3715558218841454, 0.3541369019838105, 0.07075522840023041, -0.8895736932754517, -0.027974538505077362, 0.6215254068374634, 0.36306554079055786, -0.6941826939582825, 0.035853683948516846, 0.02232566475868225, 0.036956071853637695, -0.23164921551124495, 0.3150354088772692, 0.9152730029088801,0.0967812116973753,0.657379150390625,0.3853912353515625,-0.6572265625
20220209-1401,2022-02-09 14:01:31Z,u01, 45,40,movements,el-ex, lt, d,16108.209667625, 0.7073262989988307, -0.37127213848248414, 0.3514973320845643, 0.08122571557760239, -0.8738213181495667, -0.09996964037418365, 0.6055304408073425, 0.362801194190979, -0.7083135843276978, 0.02812117338180542, 0.04103782773017883, 0.023697495460510254, -0.2299963801251078, 0.30486861527125614, 0.9189669700580008,0.09826686251457001,0.633026123046875,0.4095001220703125,-0.6915740966796875
20220209-1401,2022-02-09 14:01:31Z,u01, 46,40,movements,el-ex, lt, d,16108.234614625, 0.6839553342322772, -0.3711237755640826, 0.3482844402578007, 0.07530484348535538, -0.9168004989624023, -0.06474986672401428, 0.5888466238975525, 0.3626629412174225, -0.7223124504089355, 0.022450923919677734, 0.007301628589630127, 0.03841346502304077, -0.22829277862430838, 0.2944931144722243, 0.9226361722860745,0.09949200488052473,0.611297607421875,0.369964599609375,-0.68389892578125
20220209-1401,2022-02-09 14:01:31Z,u01, 47,40,movements,el-ex, lt, d,16108.259560625002, 0.6605004879828993, -0.3715666109481453, 0.34589907539320836, 0.04308838024735451, -0.8736938834190369, -0.09630365669727325, 0.5716459155082703, 0.3630755841732025, -0.7357969284057617, -0.014364480972290039, 0.030143380165100098, 0.06000036001205444, -0.22697235197040955, 0.28387515230359384, 0.9261215398013477,0.10098169193312495,0.5542449951171875,0.3997650146484375,-0.675689697265625
20220209-1401,2022-02-09 14:01:31Z,u01, 48,40,movements,el-ex, lt, d,16108.284506625001, 0.6386646344343702, -0.3715906418837482, 0.34285656222563293, 0.08085450530052185, -0.8149038553237915, -0.09966010600328445, 0.5554389357566833, 0.3630979657173157, -0.7480958700180054, 0.0329093337059021, 0.02204909920692444, 0.07117021083831787, -0.22545058066162593, 0.27408778529164557, 0.9293203995915897,0.10203605856033815,0.588348388671875,0.3851470947265625,-0.6769256591796875
20220209-1401,2022-02-09 14:01:31Z,u01, 49,40,movements,el-ex, lt, d,16108.309453625001, 0.6170268575689322, -0.3721660425563321, 0.33976594941223043, 0.02949567511677742, -0.836571455001831, -0.10700757056474686, 0.5390020608901978, 0.36363404989242554, -0.7597677707672119, 0.0630638599395752, 0.008817732334136963, 0.08459681272506714, -0.22418799054097122, 0.2643025971190662, 0.9323562863097172,0.10293527644982509,0.5976715087890625,0.37786865234375,-0.680419921875
20220209-1401,2022-02-09 14:01:31Z,u01, 50,40,movements,el-ex, lt, d,16108.334399625, 0.5955034007842418, -0.37304428342872226, 0.33679426905485255, 0.04857552796602249, -0.7998061180114746, -0.10216028243303299, 0.5223463177680969, 0.3644520342350006, -0.770927369594574, 0.0375138521194458, 0.0343669056892395, 0.0569380521774292, -0.2230919535701657, 0.25449222266173327, 0.9352465936073948,0.10381448618919137,0.5598602294921875,0.3988189697265625,-0.7139892578125
20220209-1401,2022-02-09 14:01:31Z,u01, 51,40,movements,el-ex, lt, d,16108.359345625002, 0.574742934188197, -0.37358868498825537, 0.33368370283601956, 0.050662145018577576, -0.7964401245117188, -0.11290100961923599, 0.5061221718788147, 0.36495891213417053, -0.7814379334449768, 0.04189711809158325, 0.026779919862747192, 0.03372675180435181, -0.22187196764506303, 0.24505888436283757, 0.9379664928093688,0.1045830626559816,0.543121337890625,0.3852691650390625,-0.7578277587890625
20220209-1401,2022-02-09 14:01:31Z,u01, 52,40,movements,el-ex, lt, d,16108.384291625001, 0.5537600885326404, -0.37393634582030566, 0.3305817273114803, 0.041648976504802704, -0.799649715423584, -0.08863581717014313, 0.4895484149456024, 0.3652825951576233, -0.7917771339416504, 0.029860705137252808, 0.009549528360366821, 0.028837621212005615, -0.22055805634819026, 0.23551133076360373, 0.9406277073218325,0.10539504368862235,0.5194091796875,0.3748321533203125,-0.762939453125
20220209-1401,2022-02-09 14:01:32Z,u01, 53,40,movements,el-ex, lt, d,16108.409238625001, 0.533188474252252, -0.3754078139518454, 0.32876269542864583, -0.0657767504453659, -0.7969706654548645, -0.0940706729888916, 0.4728841185569763, 0.3666519820690155, -0.8012158870697021, 0.03772065043449402, 0.0004134178161621094, 0.05384039878845215, -0.21993888398911415, 0.22587372100079606, 0.9429985701730483,0.10659082746054871,0.5103302001953125,0.3736114501953125,-0.7490692138671875
20220209-1401,2022-02-09 14:01:32Z,u01, 54,40,movements,el-ex, lt, d,16108.434184625, 0.513322351994629, -0.3782749331268267, 0.3275861325567432, -0.045045338571071625, -0.7753071188926697, -0.09820755571126938, 0.4563567042350769, 0.3693179190158844, -0.8095324635505676, 0.03851628303527832, 0.028356611728668213, 0.04930907487869263, -0.22007458320112677, 0.2163352326823605, 0.9450615438909147,0.10781910199817335,0.494873046875,0.397674560546875,-0.760223388671875
20220209-1401,2022-02-09 14:01:32Z,u01, 55,40,movements,el-ex, lt, d,16108.459130625, 0.4935514348407336, -0.3792090606399901, 0.32487597925676254, 0.06850709021091461, -0.7339273691177368, -0.1145012378692627, 0.44009971618652344, 0.37018582224845886, -0.8180920481681824, 0.03353303670883179, 0.027015656232833862, 0.05648010969161987, -0.21915284675005958, 0.20718589788133385, 0.9472359429025394,0.10858140265901445,0.46734619140625,0.3959808349609375,-0.7537384033203125
20220209-1401,2022-02-09 14:01:32Z,u01, 56,40,movements,el-ex, lt, d,16108.484076625002, 0.4745830294186653, -0.37957091565217305, 0.3216399008237978, 0.004419848322868347, -0.6975334286689758, -0.11838413029909134, 0.424442321062088, 0.3705219626426697, -0.8261731863021851, 0.012615084648132324, 0.010169535875320435, 0.10231149196624756, -0.21796140991112012, 0.19851001707170732, 0.9493100992773273,0.10907251981915506,0.4370574951171875,0.3806915283203125,-0.7238616943359375
20220209-1401,2022-02-09 14:01:32Z,u01, 57,40,movements,el-ex, lt, d,16108.509023625002, 0.45699600646725663, -0.38125744331593703, 0.31926856436869583, -0.0304090715944767, -0.648746907711029, -0.10567012429237366, 0.40957120060920715, 0.37208792567253113, -0.8329477906227112, 0.01851406693458557, 0.011731624603271484, 0.1220254898071289, -0.21755877449317174, 0.19024796449024964, 0.9510264627519985,0.10964738730460233,0.42791748046875,0.387298583984375,-0.7063751220703125
20220209-1401,2022-02-09 14:01:32Z,u01, 58,40,movements,el-ex, lt, d,16108.533969625001, 0.44090250401870035, -0.38372660659827296, 0.31748159781078905, -0.09487514942884445, -0.6063781380653381, -0.09892114996910095, 0.39572039246559143, 0.37437865138053894, -0.8385975956916809, 0.036774665117263794, 0.008906841278076172, 0.1538746953010559, -0.21766598097875184, 0.18254510584551048, 0.9524414030759127,0.11024544015277188,0.4324951171875,0.3832855224609375,-0.684722900390625
20220209-1401,2022-02-09 14:01:32Z,u01, 59,40,movements,el-ex, lt, d,16108.558915625, 0.42578522011954495, -0.3881942007647028, 0.31637713661040934, -0.16485609114170074, -0.5744189023971558, -0.11858060210943222, 0.3823036849498749, 0.37851759791374207, -0.8429521322250366, 0.02615872025489807, 0.01515910029411316, 0.16222703456878662, -0.21883143512673459, 0.17503356256277097, 0.9535150411870882,0.11083741057976115,0.401153564453125,0.3986358642578125,-0.675750732421875
20220209-1401,2022-02-09 14:01:32Z,u01, 60,40,movements,el-ex, lt, d,16108.583862625, 0.4123125657900247, -0.39335588386236486, 0.31490652776894357, -0.15616640448570251, -0.47018077969551086, -0.1564738005399704, 0.3701246678829193, 0.3832901418209076, -0.8462247848510742, -0.008293062448501587, 0.007380574941635132, 0.18690776824951172, -0.22038718689973627, 0.16827688125919493, 0.9543516924816136,0.11101826199721798,0.3618316650390625,0.3906707763671875,-0.6593170166015625
20220209-1401,2022-02-09 14:01:32Z,u01, 61,40,movements,el-ex, lt, d,16108.608808625, 0.4008523794946451, -0.3981548866244792, 0.3123666997019626, -0.09502957761287689, -0.37741363048553467, -0.16422659158706665, 0.35968077182769775, 0.38771823048591614, -0.8487074375152588, -0.002548903226852417, 0.005668550729751587, 0.1933424472808838, -0.22180340347204502, 0.1626331498315264, 0.9550583174847965,0.11053143920841224,0.3555908203125,0.39520263671875,-0.648681640625
20220209-1401,2022-02-09 14:01:32Z,u01, 62,40,movements,el-ex, lt, d,16108.633754625002, 0.39191921513648853, -0.40137107084784324, 0.3093260536674135, -0.05612944811582565, -0.2706243395805359, -0.1508074551820755, 0.3516067862510681, 0.39068081974983215, -0.850729763507843, 0.01272726058959961, -0.014627993106842041, 0.22717934846878052, -0.22258434708849248, 0.15840239877691273, 0.9556815023904066,0.10971636467242124,0.3643341064453125,0.3760528564453125,-0.6235504150390625
20220209-1401,2022-02-09 14:01:32Z,u01, 63,40,movements,el-ex, lt, d,16108.658700625001, 0.3859910669308922, -0.40566375582895875, 0.3067808717582659, -0.14207512140274048, -0.18190456926822662, -0.15591086447238922, 0.3459227979183197, 0.39462873339653015, -0.8512376546859741, 0.016976922750473022, -0.02945542335510254, 0.24964463710784912, -0.22408693535707702, 0.15545486525655486, 0.9559309630678845,0.10869568699291215,0.3593292236328125,0.366058349609375,-0.5923614501953125
20220209-1401,2022-02-09 14:01:32Z,u01, 64,40,movements,el-ex, lt, d,16108.683647625001, 0.38322977192424, -0.4113661822934044, 0.3050166570405294, -0.1646563559770584, -0.026604803279042244, -0.14920775592327118, 0.34272393584251404, 0.3998619019985199, -0.8500886559486389, 0.015079319477081299, -0.025792717933654785, 0.2857423424720764, -0.22649288958589014, 0.15380714112245367, 0.9557601086204986,0.10754971268746094,0.3578033447265625,0.3740692138671875,-0.5643463134765625
20220209-1401,2022-02-09 14:01:32Z,u01, 65,40,movements,el-ex, lt, d,16108.708593625, 0.3839710417221004, -0.4153851234249977, 0.30276079464795413, -0.02816292643547058, 0.14905282855033875, -0.12028655409812927, 0.3427492082118988, 0.40354233980178833, -0.8483374714851379, 0.005547821521759033, -0.019554972648620605, 0.26786261796951294, -0.22825535661722818, 0.15404787008103715, 0.9554799545491237,0.10595570814226285,0.337432861328125,0.3779296875,-0.595245361328125
20220209-1401,2022-02-09 14:01:32Z,u01, 66,40,movements,el-ex, lt, d,16108.733539625002, 0.38854945270101093, -0.41400072328102344, 0.29805174433770615, 0.2574462592601776, 0.3495567739009857, -0.1698388010263443, 0.3468409776687622, 0.4022752642631531, -0.8472756147384644, -0.03740805387496948, -0.03733086585998535, 0.21957474946975708, -0.22747562189102624, 0.15689820439747637, 0.955489331653685,0.10333383094055448,0.3094329833984375,0.3649444580078125,-0.6277008056640625
20220209-1401,2022-02-09 14:01:32Z,u01, 67,40,movements,el-ex, lt, d,16108.758486625002, 0.395893231600391, -0.4088922506623559, 0.291155737597403, 0.23669405281543732, 0.4265731871128082, -0.11956983804702759, 0.3538416624069214, 0.3975931406021118, -0.8465906977653503, 0.012460768222808838, -0.052714020013809204, 0.24495184421539307, -0.22488833750329487, 0.1616474253847811, 0.9556894134651986,0.0997654710888658,0.385009765625,0.3333740234375,-0.5997161865234375
20220209-1401,2022-02-09 14:01:32Z,u01, 68,40,movements,el-ex, lt, d,16108.783432625001, 0.40468620182157483, -0.40832329655646493, 0.28910186709121105, -0.14273613691329956, 0.3749791085720062, -0.030355136841535568, 0.36136090755462646, 0.3970710337162018, -0.843654453754425, 0.010221034288406372, -0.07091447710990906, 0.16773587465286255, -0.22488602249149683, 0.16612962835607908, 0.9551181672129719,0.09785859042206918,0.37158203125,0.3261566162109375,-0.6759185791015625
20220209-1401,2022-02-09 14:01:32Z,u01, 69,40,movements,el-ex, lt, d,16108.808378625, 0.41677470355492974, -0.4123368046681154, 0.29059066040406223, -0.08833739161491394, 0.5603044629096985, -0.01121879369020462, 0.3708846867084503, 0.40075138211250305, -0.8377606868743896, -0.052845776081085205, -0.03028327226638794, 0.12444275617599487, -0.22749091640251468, 0.17136964134674218, 0.9536877335479548,0.09674765831490784,0.3216705322265625,0.376617431640625,-0.7266998291015625
20220209-1401,2022-02-09 14:01:32Z,u01, 70,40,movements,el-ex, lt, d,16108.833324625, 0.43158636284865187, -0.4108091756987681, 0.28951179156393025, 0.22457954287528992, 0.6208831667900085, -0.0001093503087759018, 0.3835078179836273, 0.3993512988090515, -0.8327306509017944, 0.023108363151550293, -0.02752518653869629, 0.08472949266433716, -0.2273869972929973, 0.17868922743274265, 0.9525713243880427,0.09472691084425161,0.4066162109375,0.371826171875,-0.7480010986328125
20220209-1401,2022-02-09 14:01:32Z,u01, 71,40,movements,el-ex, lt, d,16108.858271625, 0.4460743134527486, -0.40597895338426004, 0.28755825655884426, 0.12061236053705215, 0.5948986411094666, 0.05004243180155754, 0.39635926485061646, 0.3949183225631714, -0.8288177251815796, 0.04600822925567627, -0.047063738107681274, 0.12436521053314209, -0.22561880879758647, 0.18624523603232906, 0.9517401008210682,0.09273419974326202,0.4473114013671875,0.335906982421875,-0.6994476318359375
20220209-1401,2022-02-09 14:01:32Z,u01, 72,40,movements,el-ex, lt, d,16108.883217625002, 0.4611707013139451, -0.4054364418518793, 0.28934240792419513, -0.11991238594055176, 0.5667753219604492, 0.06681042909622192, 0.4089210629463196, 0.3944198489189148, -0.8229316473007202, 0.028441518545150757, -0.021952897310256958, 0.07560193538665771, -0.22623067739525157, 0.19327147768137556, 0.9502693855096395,0.0919440271950781,0.4373626708984375,0.372467041015625,-0.7473297119140625
20220209-1401,2022-02-09 14:01:32Z,u01, 73,40,movements,el-ex, lt, d,16108.908163625001, 0.47729460185644146, -0.40736019029042214, 0.2925921314200043, -0.06645678728818893, 0.6186656355857849, 0.061899229884147644, 0.4217868745326996, 0.3961869180202484, -0.8155561089515686, 0.002727806568145752, -0.0024034082889556885, 0.025455951690673828, -0.22818962868005785, 0.20037823975907584, 0.9483786952195183,0.09141074198943205,0.4250640869140625,0.39593505859375,-0.7960205078125
20220209-1401,2022-02-09 14:01:32Z,u01, 74,40,movements,el-ex, lt, d,16108.933110625001, 0.4934444529450776, -0.4071100344804916, 0.294148699845473, -0.01744716614484787, 0.6110178232192993, 0.056789152324199677, 0.4349493384361267, 0.39595723152160645, -0.8087255358695984, 0.025148868560791016, -0.002509385347366333, 0.03338062763214111, -0.22896555028977802, 0.20787499807416115, 0.9466796612394559,0.09033515326175562,0.4600982666015625,0.3934478759765625,-0.7753448486328125
20220209-1401,2022-02-09 14:01:32Z,u01, 75,40,movements,el-ex, lt, d,16108.958057000002, 0.5094126428385753, -0.40895641026351154, 0.29742497313643323, -0.25088149309158325, 0.5639908909797668, 0.08516007661819458, 0.4474499225616455, 0.3976520001888275, -0.8010376691818237, 0.04492062330245972, -0.026253104209899902, 0.06435859203338623, -0.23089034729525867, 0.2148739185591031, 0.9446981731580544,0.08980002230233064,0.496337890625,0.3684844970703125,-0.7349395751953125
20220209-1401,2022-02-09 14:01:32Z,u01, 76,40,movements,el-ex, lt, d,16108.983003000001, 0.525802834535942, -0.414540334844618, 0.3038177153746942, -0.29036685824394226, 0.559417188167572, 0.10346078127622604, 0.45939674973487854, 0.4027692377567291, -0.7916637659072876, 0.022536754608154297, -0.0029127299785614014, 0.025901436805725098, -0.23491512461188035, 0.22132105680656755, 0.9421824453880349,0.09013279844946837,0.48193359375,0.3998565673828125,-0.7657623291015625
20220209-1401,2022-02-09 14:01:32Z,u01, 77,40,movements,el-ex, lt, d,16109.007949, 0.5427834614900923, -0.4177460874844368, 0.3090251333156921, -0.1415238380432129, 0.6171414852142334, 0.08803042769432068, 0.472103476524353, 0.4057013988494873, -0.7826395034790039, -0.0034908652305603027, 0.007048815488815308, 0.021500587463378906, -0.23774740065338096, 0.2283777775912103, 0.9397863033793755,0.09011845538251734,0.4725494384765625,0.4079132080078125,-0.75164794921875
20220209-1401,2022-02-09 14:01:32Z,u01, 78,40,movements,el-ex, lt, d,16109.032896, 0.5599960004760456, -0.4196890311344728, 0.31317392870804095, -0.1472439467906952, 0.6239737272262573, 0.094750314950943, 0.4850844740867615, 0.4074764847755432, -0.773728609085083, 0.02893829345703125, 0.005273759365081787, 0.011094272136688232, -0.23989752396401667, 0.23576445202345905, 0.937450686522716,0.08972452290946642,0.5140228271484375,0.412750244140625,-0.76263427734375
20220209-1401,2022-02-09 14:01:32Z,u01, 79,40,movements,el-ex, lt, d,16109.057842, 0.5773361044275015, -0.42165021611867226, 0.31790967920593105, -0.19235685467720032, 0.6182414889335632, 0.09711673110723495, 0.49799028038978577, 0.4092666804790497, -0.7645301818847656, 0.021678239107131958, 0.01184535026550293, 0.002368927001953125, -0.2421417193185595, 0.24310962643455003, 0.9350106341993704,0.08955522345493189,0.5169525146484375,0.4252777099609375,-0.75030517578125
20220209-1401,2022-02-09 14:01:32Z,u01, 80,40,movements,el-ex, lt, d,16109.082788000002, 0.5950209080591656, -0.42515099046894683, 0.32291224535936863, -0.21602696180343628, 0.6305209398269653, 0.06376290321350098, 0.5106260180473328, 0.4124583303928375, -0.7544130682945251, 0.022195518016815186, 0.0251179039478302, 0.007846295833587646, -0.245149633581269, 0.2503899193269347, 0.9323364328288204,0.08919195843950045,0.5328216552734375,0.4375762939453125,-0.7465667724609375
20220209-1401,2022-02-09 14:01:32Z,u01, 81,40,movements,el-ex, lt, d,16109.107734000001, 0.6123299419482278, -0.42792373979085385, 0.3269626826439159, -0.12723185122013092, 0.6153646111488342, 0.048595406115055084, 0.5229477286338806, 0.4149826467037201, -0.7445234060287476, 0.01783895492553711, 0.01345360279083252, -0.020186126232147217, -0.24769558932485847, 0.257653267680262, 0.9297467628764203,0.08850205798835153,0.540496826171875,0.427978515625,-0.763519287109375
20220209-1401,2022-02-09 14:01:32Z,u01, 82,40,movements,el-ex, lt, d,16109.132681000001, 0.6285839234727838, -0.42930918476398905, 0.3296878626581665, -0.10482591390609741, 0.6020721793174744, 0.06325604021549225, 0.5346409678459167, 0.416242778301239, -0.7354596257209778, 0.008815944194793701, 0.011445760726928711, -0.0010210871696472168, -0.2493953229946096, 0.2647114454292149, 0.9273994946295293,0.08752061574380587,0.54345703125,0.4276885986328125,-0.736480712890625
20220209-1401,2022-02-09 14:01:32Z,u01, 83,40,movements,el-ex, lt, d,16109.157627, 0.6459807165980339, -0.4320853080771036, 0.33465203878763555, -0.2695351243019104, 0.6267895102500916, 0.08914622664451599, 0.5466563701629639, 0.4187653660774231, -0.7251222729682922, 0.009877324104309082, -0.0018037855625152588, 0.013772785663604736, -0.25207568575702155, 0.27183950736312296, 0.924641476733025,0.08717257624072361,0.562255859375,0.4226226806640625,-0.7174224853515625
20220209-1401,2022-02-09 14:01:32Z,u01, 84,40,movements,el-ex, lt, d,16109.182573000002, 0.664293904344124, -0.4337214889328211, 0.33936144003411595, 0.021532155573368073, 0.6943421959877014, 0.09150685369968414, 0.5594200491905212, 0.42025062441825867, -0.7144497632980347, 0.009259641170501709, 0.055121660232543945, -0.03214752674102783, -0.25425742725716055, 0.2795143479922504, 0.9217915382303778,0.08674702465870476,0.5686798095703125,0.475372314453125,-0.7465972900390625
20220209-1401,2022-02-09 14:01:32Z,u01, 85,40,movements,el-ex, lt, d,16109.207520000002, 0.6816661866557119, -0.4294686489092944, 0.33752888028805356, 0.22971785068511963, 0.7401877045631409, 0.013087677769362926, 0.5728676319122314, 0.41638776659965515, -0.7060055136680603, 0.010918259620666504, 0.039376914501190186, -0.010013163089752197, -0.2528335339693397, 0.2882228969494356, 0.9197123822721006,0.08444939757498299,0.5937957763671875,0.4473419189453125,-0.702392578125
20220209-1401,2022-02-09 14:01:32Z,u01, 86,40,movements,el-ex, lt, d,16109.232466000001, 0.6983116163498405, -0.42662685970319186, 0.335140178854881, 0.04548605903983116, 0.6744323372840881, 0.013761922717094421, 0.5852978825569153, 0.4138023555278778, -0.6972760558128357, 0.039351046085357666, -0.002455979585647583, 0.0028790831565856934, -0.2519048481370677, 0.2964893172379074, 0.917579896330878,0.08176227338638942,0.6246490478515625,0.411346435546875,-0.69439697265625
20220209-1401,2022-02-09 14:01:32Z,u01, 87,40,movements,el-ex, lt, d,16109.257412, 0.71532875848146, -0.4252614150474715, 0.334900154288162, 0.11193772405385971, 0.7124611139297485, 0.038921207189559937, 0.5974482893943787, 0.412558913230896, -0.6876413822174072, 0.011514663696289062, 0.01842552423477173, -0.017009496688842773, -0.2519469539731178, 0.3044700780667626, 0.9151279883096991,0.07975905501610359,0.60638427734375,0.43408203125,-0.7042694091796875
20220209-1401,2022-02-09 14:01:32Z,u01, 88,40,movements,el-ex, lt, d,16109.282358, 0.7325875100826006, -0.42004018576423924, 0.3314417908671823, 0.32219767570495605, 0.7610854506492615, 0.04106731340289116, 0.6106588244438171, 0.4077971577644348, -0.6788204312324524, 0.00884789228439331, 0.022683709859848022, -0.021298587322235107, -0.24976716378800268, 0.31337858836694116, 0.9129526967670546,0.07699004873384951,0.6195068359375,0.43048095703125,-0.7001190185546875
20220209-1401,2022-02-09 14:01:32Z,u01, 89,40,movements,el-ex, lt, d,16109.307305, 0.7494297410369248, -0.41557668550421545, 0.32773968836896494, 0.08021045476198196, 0.6993248462677002, 0.0018045306205749512, 0.6232383251190186, 0.40371760725975037, -0.6697657108306885, 0.00572890043258667, -0.005615830421447754, 0.018612027168273926, -0.2478350294339222, 0.3220170124273204, 0.9107130440005203,0.07405756320530515,0.6342620849609375,0.3946075439453125,-0.634429931640625
20220209-1401,2022-02-09 14:01:32Z,u01, 90,40,movements,el-ex, lt, d,16109.332251000002, 0.7665699219381106, -0.4165109926067756, 0.3288579987420762, -0.1716790795326233, 0.6328714489936829, 0.021616250276565552, 0.634364128112793, 0.40457218885421753, -0.6587134003639221, 0.052052319049835205, -0.0030525028705596924, 0.03894716501235962, -0.2490572872281765, 0.3295660309587326, 0.9078191958380208,0.07225527565241402,0.6864166259765625,0.401519775390625,-0.6197662353515625
20220209-1401,2022-02-09 14:01:32Z,u01, 91,40,movements,el-ex, lt, d,16109.357197000001, 0.7842595152066144, -0.4183066082233883, 0.3330712721837972, -0.0935235545039177, 0.6708952784538269, 0.0741761326789856, 0.6454025506973267, 0.406213641166687, -0.646873950958252, 0.037840187549591064, 0.023809492588043213, 0.021446704864501953, -0.25118586838348533, 0.3368511103691518, 0.9046053461262689,0.07159618223525144,0.670654296875,0.4412689208984375,-0.6212921142578125
20220209-1401,2022-02-09 14:01:32Z,u01, 92,40,movements,el-ex, lt, d,16109.382144000001, 0.8026640124816579, -0.4159649271581396, 0.33311130981254, 0.22408859431743622, 0.7867269515991211, 0.0490797683596611, 0.6578803062438965, 0.40407276153564453, -0.6355459690093994, -0.01595836877822876, 0.022578179836273193, 0.012392222881317139, -0.25081680395828365, 0.3454242913261505, 0.9016118844859294,0.0697780391078977,0.6419219970703125,0.4266510009765625,-0.6231536865234375
20220209-1401,2022-02-09 14:01:33Z,u01, 93,40,movements,el-ex, lt, d,16109.40709, 0.8205787110430768, -0.41145741265903996, 0.3292591910376232, 0.15761902928352356, 0.7560721039772034, 0.05455202981829643, 0.670485258102417, 0.39994552731513977, -0.6248943209648132, 0.02436929941177368, -0.006009429693222046, 0.06114310026168823, -0.24878544803182712, 0.35448363518354736, 0.8988844812412939,0.06673542078957162,0.7120819091796875,0.3769073486328125,-0.5451202392578125
20220209-1401,2022-02-09 14:01:33Z,u01, 94,40,movements,el-ex, lt, d,16109.432036, 0.8392987901817988, -0.4093106771775747, 0.33122401977638954, -0.11729669570922852, 0.6924675703048706, 0.1598544716835022, 0.6827026009559631, 0.3979770541191101, -0.6128061413764954, 0.06688535213470459, -0.03851056098937988, 0.012067556381225586, -0.24882370425264094, 0.36288248107430743, 0.8955899334405159,0.06573886992454153,0.7495880126953125,0.359466552734375,-0.600738525390625
20220209-1401,2022-02-09 14:01:33Z,u01, 95,40,movements,el-ex, lt, d,16109.456982000002, 0.8588713507260326, -0.4062321819696841, 0.33463520856240864, 0.18100197613239288, 0.7754594087600708, 0.16867460310459137, 0.6954895853996277, 0.39515095949172974, -0.6001249551773071, -0.00011610984802246094, 0.04105198383331299, -0.046512067317962646, -0.2487588381175655, 0.3715596302400076, 0.8920615285292861,0.06548802991433006,0.6825714111328125,0.443115234375,-0.6610565185546875
20220209-1401,2022-02-09 14:01:33Z,u01, 96,40,movements,el-ex, lt, d,16109.481929000001, 0.8761981233561498, -0.39776028252111745, 0.3281485627040899, 0.537963330745697, 0.7493360042572021, 0.06430352479219437, 0.7083295583724976, 0.38735446333885193, -0.5901065468788147, -4.7206878662109375e-05, 0.005452513694763184, -0.04555940628051758, -0.24443582402068068, 0.3810483611324796, 0.8894778095603355,0.06230971787252482,0.708282470703125,0.3928070068359375,-0.6356658935546875
20220209-1401,2022-02-09 14:01:33Z,u01, 97,40,movements,el-ex, lt, d,16109.506875000001, 0.8912183366148838, -0.3884292622204868, 0.32071534307657673, 0.28318727016448975, 0.6806557774543762, 0.12845435738563538, 0.7198929786682129, 0.37873515486717224, -0.5816473960876465, 0.03343331813812256, -0.04587996006011963, -0.001543581485748291, -0.23944102690234967, 0.3896720534063959, 0.8873062929809385,0.05925483033595996,0.7571563720703125,0.3411407470703125,-0.5819244384765625
20220209-1401,2022-02-09 14:01:33Z,u01, 98,40,movements,el-ex, lt, d,16109.531821, 0.9069880638512363, -0.3841278763394501, 0.31996672398115394, 0.049497246742248535, 0.6326314806938171, 0.11410757154226303, 0.7302519679069519, 0.37475070357322693, -0.5712214708328247, 0.01382756233215332, 0.030827850103378296, -0.037619590759277344, -0.2379079843941402, 0.39722672109560614, 0.8844466907293156,0.05800610251074628,0.74407958984375,0.40557861328125,-0.6088409423828125
20220209-1401,2022-02-09 14:01:33Z,u01, 99,40,movements,el-ex, lt, d,16109.556768, 0.9235215994898477, -0.38049230797983197, 0.32010120604022413, 0.1322452872991562, 0.6773311495780945, 0.10700631141662598, 0.7406779527664185, 0.3713776171207428, -0.5598881244659424, -0.004929780960083008, 0.019338905811309814, -0.03895837068557739, -0.23685376319791324, 0.40491509358917743, 0.8813074318005963,0.056930885989108504,0.7387542724609375,0.37957763671875,-0.5868988037109375
20220209-1401,2022-02-09 14:01:33Z,u01, 100,40,movements,el-ex, lt, d,16109.581714000002, 0.9398649331693717, -0.3773162759032974, 0.3195387241376817, 0.05177954211831093, 0.6367390751838684, 0.11052794754505157, 0.7506777048110962, 0.3684268593788147, -0.5484017729759216, 0.021935701370239258, -0.011249154806137085, 0.02175992727279663, -0.23584388321004546, 0.4125248937744537, 0.878135494407422,0.05548624297710664,0.772613525390625,0.357177734375,-0.526641845703125
20220209-1401,2022-02-09 14:01:33Z,u01, 101,40,movements,el-ex, lt, d,16109.606660000001, 0.956429635547243, -0.37499507232049306, 0.32127944782632434, -0.04205390810966492, 0.6428261995315552, 0.07885464280843735, 0.7603551745414734, 0.36626794934272766, -0.536383867263794, 0.02431267499923706, 0.013279110193252563, 0.0005257129669189453, -0.23567739185410233, 0.4198383495951163, 0.8747480708150384,0.054841040515163836,0.7912445068359375,0.3956756591796875,-0.5501556396484375
20220209-1401,2022-02-09 14:01:33Z,u01, 102,40,movements,el-ex, lt, d,16109.631606, 0.9735665215687204, -0.3735349674240386, 0.32311117001096823, 0.03477246314287186, 0.646409273147583, 0.0898815244436264, 0.7698764204978943, 0.364908903837204, -0.5235758423805237, 0.05093950033187866, 0.037663668394088745, -0.03100496530532837, -0.2359143808746318, 0.4272663067764761, 0.8711344554501088,0.053967956487955826,0.8208160400390625,0.4025726318359375,-0.5545806884765625
20220209-1401,2022-02-09 14:01:33Z,u01, 103,40,movements,el-ex, lt, d,16109.656553, 0.9892526544708954, -0.3717088250064056, 0.3228955766294578, 0.032499656081199646, 0.6085206270217896, 0.03699447587132454, 0.7785497903823853, 0.3632080852985382, -0.5118007063865662, 0.017867326736450195, 0.023297011852264404, -0.015726208686828613, -0.23551705530651926, 0.43431712946627976, 0.8678406550198619,0.05246680420893876,0.7945404052734375,0.37994384765625,-0.519805908203125
20220209-1401,2022-02-09 14:01:33Z,u01, 104,40,movements,el-ex, lt, d,16109.681499, 1.004583272087558, -0.3712731389313351, 0.3241578081331186, -0.09281954914331436, 0.5858128666877747, 0.02202584594488144, 0.7864376902580261, 0.362802118062973, -0.49989020824432373, 0.01268017292022705, 0.010092079639434814, -0.022998034954071045, -0.23600849092481618, 0.44085699418424606, 0.8644720256077233,0.0513129611200088,0.7991180419921875,0.372894287109375,-0.52288818359375
20220209-1401,2022-02-09 14:01:33Z,u01, 105,40,movements,el-ex, lt, d,16109.706445000002, 1.0204638878519667, -0.3727851013461374, 0.32706418810013704, -0.12735246121883392, 0.5942586064338684, -0.018649347126483917, 0.7938083410263062, 0.36421066522598267, -0.48705121874809265, 0.0450739860534668, 0.027375608682632446, -0.03780543804168701, -0.23768735807744212, 0.4471902433855137, 0.8608103482122684,0.05031060420402944,0.844757080078125,0.401275634765625,-0.524139404296875
20220209-1401,2022-02-09 14:01:33Z,u01, 106,40,movements,el-ex, lt, d,16109.731392000002, 1.035554184558591, -0.37617231465889683, 0.32933443154783637, -0.20278367400169373, 0.5264250040054321, -0.11532256007194519, 0.8000016808509827, 0.3673631250858307, -0.47438544034957886, 0.04162728786468506, 0.056724369525909424, 0.009785771369934082, -0.2399757743674723, 0.45301093814802196, 0.8572208614192708,0.048631668092552094,0.8416290283203125,0.4240875244140625,-0.464599609375
20220209-1401,2022-02-09 14:01:33Z,u01, 107,40,movements,el-ex, lt, d,16109.756338000001, 1.0509224169580438, -0.38450053477068435, 0.3367212322423911, -0.5893336534500122, 0.4784499704837799, -0.1692923903465271, 0.8045142292976379, 0.3750961720943451, -0.46049943566322327, 0.026799798011779785, 0.03878316283226013, 0.0797467827796936, -0.24545937580426277, 0.4577116723000366, 0.8532084163227615,0.047802827544951326,0.8342742919921875,0.4024200439453125,-0.3897552490234375
20220209-1401,2022-02-09 14:01:33Z,u01, 108,40,movements,el-ex, lt, d,16109.781284, 1.0675688341652931, -0.3959788717442505, 0.34774357972999914, -0.45691442489624023, 0.5331781506538391, -0.21121913194656372, 0.8082428574562073, 0.3857114911079407, -0.44493818283081055, 0.020583927631378174, 0.06156930327415466, -0.021599382162094116, -0.25308258873872524, 0.46203907484921136, 0.8486561887029376,0.047451301413478225,0.828826904296875,0.4472808837890625,-0.4665374755859375
20220209-1401,2022-02-09 14:01:33Z,u01, 109,40,movements,el-ex, lt, d,16109.80623, 1.0826774846255984, -0.40312762601438673, 0.3502420227177785, 0.03302080184221268, 0.5778212547302246, -0.22139878571033478, 0.812416672706604, 0.3922971785068512, -0.4313722848892212, 0.00847560167312622, 0.050802767276763916, -0.07570785284042358, -0.2569115747294541, 0.4672368707184517, 0.8448000364991994,0.04471035009206531,0.817779541015625,0.4338226318359375,-0.507080078125
20220209-1401,2022-02-09 14:01:33Z,u01, 110,40,movements,el-ex, lt, d,16109.831177000002, 1.094511180416879, -0.4070697800058948, 0.34543370010991586, 0.025120999664068222, 0.4989829957485199, -0.19073955714702606, 0.8160836696624756, 0.3959202468395233, -0.421016126871109, -0.010221362113952637, -0.020676136016845703, -0.012943923473358154, -0.2576243772909172, 0.4723575142171684, 0.8419611993370268,0.040117075977581684,0.8058624267578125,0.375244140625,-0.4339599609375
20220209-1401,2022-02-09 14:01:33Z,u01, 111,40,movements,el-ex, lt, d,16109.856123000001, 1.1083094613383213, -0.41382264964878945, 0.3498679478936863, -0.5707034468650818, 0.472202867269516, -0.1357516050338745, 0.8194035887718201, 0.4021122455596924, -0.4085135757923126, 0.002526223659515381, -0.06052902340888977, 0.04456087946891785, -0.26165949841402203, 0.47673631520798465, 0.8383217612891003,0.03838334032657634,0.8316650390625,0.3388824462890625,-0.38006591796875
20220209-1401,2022-02-09 14:01:33Z,u01, 112,40,movements,el-ex, lt, d,16109.881069000001, 1.1269306676206519, -0.4234421824092601, 0.3642074563876778, -0.548071026802063, 0.5349212884902954, -0.0937352403998375, 0.8233365416526794, 0.4109010398387909, -0.3915060758590698, 0.03822028636932373, 0.03081032633781433, -0.05278417468070984, -0.2692876883594931, 0.4813845708701, 0.8331917342605861,0.03929862380692464,0.8615570068359375,0.44171142578125,-0.4442901611328125
20220209-1401,2022-02-09 14:01:33Z,u01, 113,40,movements,el-ex, lt, d,16109.906015, 1.1434246769646275, -0.42816689437172384, 0.36932124968991686, 0.09565431624650955, 0.6051744818687439, -0.11714169383049011, 0.8279058337211609, 0.41520386934280396, -0.37706446647644043, 0.0061699748039245605, 0.04512318968772888, -0.10628828406333923, -0.27270932676310977, 0.48692647775493225, 0.8289127712570133,0.03789136198694604,0.825439453125,0.4570770263671875,-0.4866943359375
20220209-1401,2022-02-09 14:01:33Z,u01, 114,40,movements,el-ex, lt, d,16109.930962, 1.1546106059341366, -0.42823020572975384, 0.359891359882365, 0.40680310130119324, 0.5742639303207397, -0.13304083049297333, 0.8320477604866028, 0.41526147723197937, -0.3677695691585541, -0.016618192195892334, -0.0004055202007293701, -0.059903860092163086, -0.2706211341477984, 0.49282798138639533, 0.8263362830463435,0.03245215103545346,0.8154296875,0.41485595703125,-0.42767333984375
20220209-1401,2022-02-09 14:01:33Z,u01, 115,40,movements,el-ex, lt, d,16109.955908000002, 1.1649135854074795, -0.42853562528592415, 0.352149729932045, 0.019333917647600174, 0.5068182349205017, -0.11210259795188904, 0.8356758952140808, 0.41553929448127747, -0.3591274619102478, -0.007276475429534912, -0.027813583612442017, -0.022128671407699585, -0.26897819864185396, 0.49808332419497287, 0.8238880898069713,0.0277830813995808,0.83306884765625,0.382904052734375,-0.3748321533203125
20220209-1401,2022-02-09 14:01:33Z,u01, 116,40,movements,el-ex, lt, d,16109.980853291667, 1.179034299750945, -0.43153711203431216, 0.3552025586477736, -0.21373477578163147, 0.49815434217453003, -0.030667461454868317, 0.8395071625709534, 0.41826748847961426, -0.34681397676467896, 0.05130082368850708, -0.002938508987426758, -0.03967595100402832, -0.2711045370693964, 0.5030858187530224, 0.820192636972037,0.026286169996816933,0.89080810546875,0.4153289794921875,-0.3864898681640625
20220209-1401,2022-02-09 14:01:33Z,u01, 117,40,movements,el-ex, lt, d,16110.005800291668, 1.1925917197766005, -0.4331443650342386, 0.3586262863142741, -0.025815052911639214, 0.48211345076560974, -0.0021835537627339363, 0.843505859375, 0.4197268486022949, -0.33515220880508423, 0.045013248920440674, 0.02299162745475769, -0.01477763056755066, -0.27276860297068134, 0.5079578539302745, 0.8166587299468794,0.02538681556832964,0.87738037109375,0.4462127685546875,-0.334228515625
20220209-1401,2022-02-09 14:01:33Z,u01, 118,40,movements,el-ex, lt, d,16110.030746291668, 1.2044675902837085, -0.43214293273554794, 0.35517337270506044, 0.28299596905708313, 0.5733055472373962, -0.02706293761730194, 0.8478186726570129, 0.4188176989555359, -0.3252618908882141, -0.01993781328201294, 0.06244450807571411, 0.025609701871871948, -0.2716428638002841, 0.5133996567564482, 0.8137063109563373,0.022650316049725977,0.827880859375,0.48126220703125,-0.299652099609375
20220209-1401,2022-02-09 14:01:33Z,u01, 119,40,movements,el-ex, lt, d,16110.055692291668, 1.2150624370548908, -0.43028283340029116, 0.34326701515254204, 0.6017881035804749, 0.6836246252059937, -0.13035836815834045, 0.8519458770751953, 0.4171278774738312, -0.31653204560279846, -0.012453138828277588, 0.054765403270721436, -0.0224725604057312, -0.2679566930709072, 0.5195509476004694, 0.8111594336193824,0.016921658238975068,0.8555145263671875,0.4783935546875,-0.3450469970703125
20220209-1401,2022-02-09 14:01:33Z,u01, 120,40,movements,el-ex, lt, d,16110.080638291667, 1.2232252858427337, -0.4260899622143901, 0.32255584073430255, 0.8563048839569092, 0.6379526257514954, -0.0649949386715889, 0.8561380505561829, 0.41331353783607483, -0.31016024947166443, 0.06532484292984009, 0.019715577363967896, -0.03401705622673035, -0.2609803883287723, 0.5261265158561352, 0.8093236942158495,0.00866872254670073,0.9214630126953125,0.4330291748046875,-0.34417724609375
20220209-1401,2022-02-09 14:01:33Z,u01, 121,40,movements,el-ex, lt, d,16110.105585291667, 1.2312630580237034, -0.4222916910457371, 0.3046600365614939, 0.3972005248069763, 0.5943982005119324, -0.10490141063928604, 0.8600773811340332, 0.40985190868377686, -0.30378949642181396, 0.02052241563796997, -0.05597013235092163, 0.0011618435382843018, -0.2548027990101169, 0.5321473280487706, 0.8073984852327893,0.0015060581855929622,0.870697021484375,0.3497161865234375,-0.2949676513671875
20220209-1401,2022-02-09 14:01:33Z,u01, 122,40,movements,el-ex, lt, d,16110.130531291668, 1.2434089189901112, -0.4231221446458194, 0.29879786291589444, 0.06499464809894562, 0.5589446425437927, -0.08337315171957016, 0.863381028175354, 0.41060924530029297, -0.2932114005088806, -0.00541001558303833, -0.04819783568382263, -0.010942071676254272, -0.2535508421668113, 0.5376860275095423, 0.8041134834699143,-0.0026427643516988564,0.85797119140625,0.3624114990234375,-0.3041534423828125
20220209-1401,2022-02-09 14:01:33Z,u01, 123,40,movements,el-ex, lt, d,16110.155477291668, 1.2567508535030236, -0.42507071175638883, 0.29794545487494617, -0.010183827951550484, 0.5337935090065002, -0.07844969630241394, 0.8664536476135254, 0.4123851954936981, -0.2814188599586487, 0.006791532039642334, -0.04556393623352051, -0.05709749460220337, -0.25404016962963805, 0.5429126674752681, 0.80042605067861,-0.0052535728326805475,0.8803558349609375,0.370574951171875,-0.34759521484375
20220209-1401,2022-02-09 14:01:33Z,u01, 124,40,movements,el-ex, lt, d,16110.180424291668, 1.2690708781270703, -0.42682307705910616, 0.2965080926347482, 0.07961267232894897, 0.49266132712364197, -0.08157031983137131, 0.8691635131835938, 0.41398099064826965, -0.2705078721046448, 0.017219483852386475, 0.006307065486907959, -0.057586669921875, -0.25427511740788594, 0.5478049221126711, 0.7969888776107696,-0.007915325544085666,0.886383056640625,0.4202880859375,-0.328094482421875
20220209-1401,2022-02-09 14:01:33Z,u01, 125,40,movements,el-ex, lt, d,16110.205370291667, 1.279734600002143, -0.42847870651380776, 0.2929239780301091, 0.11040446907281876, 0.47163155674934387, -0.1336086243391037, 0.8713409304618835, 0.41548752784729004, -0.26102709770202637, 0.00520014762878418, -0.00023484230041503906, -0.049397826194763184, -0.2538662644926746, 0.5523027877538547, 0.7939699609010509,-0.011192357694780747,0.8765411376953125,0.413726806640625,-0.304901123046875
20220209-1401,2022-02-09 14:01:33Z,u01, 126,40,movements,el-ex, lt, d,16110.230316291667, 1.2900521218675185, -0.43142049753954503, 0.2890859279211366, 0.09348604083061218, 0.4741481840610504, -0.15301993489265442, 0.8728092908859253, 0.4181615710258484, -0.2516835033893585, 0.022942543029785156, 0.004934042692184448, -0.02764400839805603, -0.2538461415556229, 0.5565252793139849, 0.7909609646921248,-0.01491108097220778,0.895751953125,0.423095703125,-0.279327392578125
20220209-1401,2022-02-09 14:01:33Z,u01, 127,40,movements,el-ex, lt, d,16110.255262291668, 1.300695053156276, -0.43464107959918946, 0.2858360168296143, 0.05102280527353287, 0.48119688034057617, -0.15680734813213348, 0.8741359710693359, 0.4210848808288574, -0.24201954901218414, 0.03920912742614746, -0.004382729530334473, -0.0071260035037994385, -0.2540607892869471, 0.560752475509008, 0.7878238430002235,-0.018523846291033125,0.9167633056640625,0.414703369140625,-0.250762939453125
20220209-1401,2022-02-09 14:01:33Z,u01, 128,40,movements,el-ex, lt, d,16110.280209291668, 1.3117969009263495, -0.4380068957401735, 0.28338658308388887, 0.0813891664147377, 0.4770036041736603, -0.15009231865406036, 0.8753939867019653, 0.42413535714149475, -0.2319360226392746, 0.04495495557785034, 0.008512288331985474, -0.046353861689567566, -0.2545194137454988, 0.5650237636696186, 0.7845298271100617,-0.021927584396324612,0.92034912109375,0.432647705078125,-0.278289794921875
20220209-1401,2022-02-09 14:01:33Z,u01, 129,40,movements,el-ex, lt, d,16110.305155291668, 1.3215816152255018, -0.44112706631106036, 0.2784044490031878, 0.20692552626132965, 0.46231013536453247, -0.1886349320411682, 0.8763346672058105, 0.42695891857147217, -0.22303207218647003, 0.022407829761505127, 0.014752417802810669, -0.055089935660362244, -0.2541527321911635, 0.5691136523498993, 0.7815596718827871,-0.02608253848533104,0.89581298828125,0.439910888671875,-0.2715606689453125
20220209-1401,2022-02-09 14:01:33Z,u01, 130,40,movements,el-ex, lt, d,16110.330101291667, 1.3292632196371608, -0.4448405295640288, 0.2707183691908968, 0.2335790991783142, 0.40602317452430725, -0.22298064827919006, 0.8764766454696655, 0.43031394481658936, -0.21591322124004364, 0.013202190399169922, -0.001954019069671631, -0.03694027662277222, -0.25322895996053474, 0.5726416715133649, 0.7790910778974861,-0.031203709185429723,0.889678955078125,0.4283599853515625,-0.2528533935546875
20220209-1401,2022-02-09 14:01:33Z,u01, 131,40,movements,el-ex, lt, d,16110.355047291667, 1.336917804644663, -0.44938791164283687, 0.26558178994199544, 0.02094016969203949, 0.3874020278453827, -0.22792620956897736, 0.8761910200119019, 0.4344142973423004, -0.20874221622943878, 0.011610984802246094, -0.014019429683685303, -0.021741867065429688, -0.25331175615462204, 0.5757274034006719, 0.7765982854187403,-0.035582246236224496,0.8858795166015625,0.41888427734375,-0.2229461669921875
20220209-1401,2022-02-09 14:01:33Z,u01, 132,40,movements,el-ex, lt, d,16110.379994291668, 1.3468793316149017, -0.455112186796242, 0.26588604441783487, -0.0885610580444336, 0.39192134141921997, -0.2055535763502121, 0.8757878541946411, 0.4395630955696106, -0.1994483470916748, 0.021871328353881836, -0.002932935953140259, -0.024169310927391052, -0.255327597322572, 0.5788640974978325, 0.773460067588043,-0.038516538592913485,0.8976593017578125,0.4366302490234375,-0.2236175537109375
20220209-1401,2022-02-09 14:01:34Z,u01, 133,40,movements,el-ex, lt, d,16110.404940291668, 1.3559449021246002, -0.4597533631129081, 0.26478822782606587, 0.11436235904693604, 0.36406657099723816, -0.17850998044013977, 0.8755573630332947, 0.4437271058559418, -0.1910637468099594, 0.02045387029647827, 0.015013068914413452, -0.06165240705013275, -0.2565320213705078, 0.5819445408467556, 0.7705873613494734,-0.04155587308801345,0.8921356201171875,0.461517333984375,-0.2550506591796875
20220209-1401,2022-02-09 14:01:34Z,u01, 134,40,movements,el-ex, lt, d,16110.429886291668, 1.3617884271015632, -0.4632421298994978, 0.25813070426485096, 0.2544955611228943, 0.3355271518230438, -0.19902950525283813, 0.8751392960548401, 0.44685089588165283, -0.18562184274196625, -0.004045605659484863, 0.0020321011543273926, -0.05616903305053711, -0.2557396258889052, 0.5846249396770891, 0.7685689066353487,-0.04596437327538494,0.87109375,0.448883056640625,-0.241790771484375
20220209-1401,2022-02-09 14:01:34Z,u01, 135,40,movements,el-ex, lt, d,16110.454833291667, 1.3667765074581968, -0.467184045783044, 0.25093769981828734, 0.18189316987991333, 0.3190087080001831, -0.2099878042936325, 0.8743224740028381, 0.45037388801574707, -0.18089596927165985, 0.0032408833503723145, -0.014064133167266846, -0.04542247951030731, -0.25495267138331634, 0.5869847928999298, 0.7667377829837483,-0.0506062391125528,0.8775787353515625,0.4383697509765625,-0.223388671875
20220209-1401,2022-02-09 14:01:34Z,u01, 136,40,movements,el-ex, lt, d,16110.479779291667, 1.372686166638313, -0.4715838978170829, 0.24611716971176842, 0.10585406422615051, 0.31752216815948486, -0.19797749817371368, 0.8734248876571655, 0.45429787039756775, -0.17533418536186218, 0.012134015560150146, -0.009473741054534912, -0.031239375472068787, -0.25498387400057776, 0.5893353277102337, 0.764647667885844,-0.054597287433041986,0.88555908203125,0.44482421875,-0.206573486328125
20220209-1401,2022-02-09 14:01:34Z,u01, 137,40,movements,el-ex, lt, d,16110.504725291668, 1.3784438674091113, -0.47547711184783237, 0.2421003135087414, 0.12014634162187576, 0.27540457248687744, -0.1607685387134552, 0.8726773858070374, 0.4577626883983612, -0.16996300220489502, 0.02627885341644287, 0.00018405914306640625, -0.03119373321533203, -0.25505167839754395, 0.5915802048178678, 0.7626308177889777,-0.05810044563177852,0.9000244140625,0.45941162109375,-0.2028961181640625
20220209-1401,2022-02-09 14:01:34Z,u01, 138,40,movements,el-ex, lt, d,16110.529671291668, 1.3826920467114483, -0.4784021415980152, 0.23810916629060722, 0.0801519975066185, 0.20637372136116028, -0.13242624700069427, 0.8720724582672119, 0.4603613018989563, -0.16600310802459717, 0.01643151044845581, -0.017993807792663574, -0.03730511665344238, -0.25480432083682036, 0.5933575714948915, 0.7610973533968438,-0.06109259356892335,0.8885040283203125,0.4423675537109375,-0.20330810546875
20220209-1401,2022-02-09 14:01:34Z,u01, 139,40,movements,el-ex, lt, d,16110.554618291668, 1.3868590483409169, -0.481456916249625, 0.23728458743291497, -0.048971667885780334, 0.16372045874595642, -0.11553388088941574, 0.8713699579238892, 0.46307095885276794, -0.16210977733135223, 0.0069563984870910645, -0.021908879280090332, -0.03280609846115112, -0.2555366781558404, 0.5946815284883493, 0.7596690035203073,-0.06291129908514087,0.876739501953125,0.4409942626953125,-0.19329833984375
20220209-1401,2022-02-09 14:01:34Z,u01, 140,40,movements,el-ex, lt, d,16110.579564291667, 1.3922478368099158, -0.4846656962374148, 0.23988049759140717, -0.1524697244167328, 0.16319549083709717, -0.11359383910894394, 0.8707640767097473, 0.4659125804901123, -0.1571470946073532, 0.009332239627838135, -0.014496654272079468, -0.021212980151176453, -0.2572978937581135, 0.5960069185979036, 0.7579729771525864,-0.06364261871586191,0.880096435546875,0.451416015625,-0.1783599853515625
20220209-1401,2022-02-09 14:01:34Z,u01, 141,40,movements,el-ex, lt, d,16110.604510291667, 1.3975616905954413, -0.4877103400421548, 0.24253735874891857, -0.034947630017995834, 0.15925773978233337, -0.09080623090267181, 0.8701855540275574, 0.4686044156551361, -0.15227258205413818, 0.013572931289672852, 0.008278459310531616, -0.027689695358276367, -0.25901652244013773, 0.5973057453389458, 0.756308081385093,-0.06429859114432088,0.880523681640625,0.480712890625,-0.183074951171875
20220209-1401,2022-02-09 14:01:34Z,u01, 142,40,movements,el-ex, lt, d,16110.629457291667, 1.4007354260592886, -0.48959073084373955, 0.24014585916647538, 0.1672583371400833, 0.17546546459197998, -0.09017612785100937, 0.8697943687438965, 0.470264732837677, -0.14936067163944244, -0.0010811090469360352, 0.0032612085342407227, -0.0393296480178833, -0.2588732696210034, 0.5985852444111482, 0.7551791066818454,-0.06621727555866641,0.86871337890625,0.4735260009765625,-0.188690185546875
20220209-1401,2022-02-09 14:01:34Z,u01, 143,40,movements,el-ex, lt, d,16110.654403291668, 1.4002821029597428, -0.48947767341056, 0.2326253501219406, 0.27386635541915894, 0.14343370497226715, -0.0735924243927002, 0.8697789311408997, 0.470164954662323, -0.14976397156715393, 0.008043825626373291, -0.03040674328804016, -0.047333940863609314, -0.2565956268648053, 0.5993969469268391, 0.755066929636156,-0.06896199107634207,0.8757781982421875,0.4301910400390625,-0.1943359375
20220209-1401,2022-02-09 14:01:34Z,u01, 144,40,movements,el-ex, lt, d,16110.679349291668, 1.398186609351404, -0.4889956394021532, 0.2256503075850148, 0.10479925572872162, 0.12399542331695557, -0.06526325643062592, 0.869686484336853, 0.46973946690559387, -0.15162518620491028, 0.012286722660064697, -0.02969127893447876, -0.03822481632232666, -0.25440490106579866, 0.599554464147851, 0.7554779044957491,-0.0711736068992401,0.8819732666015625,0.4400482177734375,-0.189849853515625
20220209-1401,2022-02-09 14:01:34Z,u01, 145,40,movements,el-ex, lt, d,16110.704295291667, 1.3971567423466245, -0.49009433575765204, 0.22259593792542612, 0.020367290824651718, 0.06568730622529984, -0.02862168662250042, 0.869020938873291, 0.4707091152667999, -0.15243148803710938, 0.02160400152206421, -0.02167356014251709, -0.042652249336242676, -0.2539222858055182, 0.5994228281765227, 0.7556138605995651,-0.07254872536359855,0.8897552490234375,0.4447021484375,-0.19873046875
20220209-1401,2022-02-09 14:01:34Z,u01, 146,40,movements,el-ex, lt, d,16110.729242291667, 1.3944012182743384, -0.4885540953253829, 0.2212970264436818, -0.0720965638756752, 0.01997341960668564, -0.0028129257261753082, 0.8693103194236755, 0.46934962272644043, -0.15495255589485168, 0.018659532070159912, -0.044544994831085205, -0.05152951180934906, -0.25307723115016867, 0.5987283501946397, 0.7564811016002019,-0.07219746835713348,0.887969970703125,0.4248046875,-0.20648193359375
20220209-1401,2022-02-09 14:01:34Z,u01, 147,40,movements,el-ex, lt, d,16110.754188291668, 1.3936768461285611, -0.48577339188535895, 0.2227242067492554, -0.11836982518434525, 0.005213047377765179, -0.008141977712512016, 0.870479166507721, 0.46689242124557495, -0.15581157803535461, 0.016025841236114502, -0.018970757722854614, -0.04021821916103363, -0.25252592519294875, 0.5986024311834404, 0.7569084858214592,-0.07067661659452645,0.88568115234375,0.455780029296875,-0.1950225830078125
20220209-1401,2022-02-09 14:01:34Z,u01, 148,40,movements,el-ex, lt, d,16110.779134291668, 1.3915711750997906, -0.48279697808678346, 0.22458248121002553, -0.10387899726629257, -0.04532729089260101, 0.002971460111439228, 0.871512770652771, 0.4642582833766937, -0.15789121389389038, 0.01772361993789673, -0.004022747278213501, -0.055991336703300476, -0.2520791903563474, 0.5979217977070007, 0.7577718291659483,-0.06875585852042485,0.8892364501953125,0.460235595703125,-0.2138824462890625
20220209-1401,2022-02-09 14:01:34Z,u01, 149,40,movements,el-ex, lt, d,16110.804080291668, 1.388695158569349, -0.4801482972270718, 0.22616572307446592, -0.09825310111045837, -0.10024520009756088, 0.012015222571790218, 0.8722612261772156, 0.4619106948375702, -0.16061915457248688, 0.014686226844787598, -0.004833728075027466, -0.05561326444149017, -0.2516909373263202, 0.5969439641761687, 0.7588329274051328,-0.06694763043269619,0.889984130859375,0.452423095703125,-0.21807861328125
20220209-1401,2022-02-09 14:01:34Z,u01, 150,40,movements,el-ex, lt, d,16110.829027291667, 1.3845416682438962, -0.47727271420720263, 0.2283202968039605, -0.14320869743824005, -0.15306894481182098, 0.011899175122380257, 0.8728883266448975, 0.4593583643436432, -0.16448597609996796, 0.01775181293487549, -0.023338526487350464, -0.0502510666847229, -0.251427184913218, 0.5954337751845542, 0.7603012722240067,-0.06469028009615577,0.8906402587890625,0.4360198974609375,-0.2147369384765625
20220209-1401,2022-02-09 14:01:34Z,u01, 151,40,movements,el-ex, lt, d,16110.853973291667, 1.3812425318856658, -0.47726687671808143, 0.23222690139945515, -0.1602064073085785, -0.17292778193950653, 0.01991802081465721, 0.8723435997962952, 0.45935317873954773, -0.16736537218093872, 0.012147307395935059, -0.014818936586380005, -0.03858262300491333, -0.25269155990354886, 0.5936870311838626, 0.7614068885868043,-0.06278644693015811,0.8870086669921875,0.447906494140625,-0.2063140869140625
20220209-1401,2022-02-09 14:01:34Z,u01, 152,40,movements,el-ex, lt, d,16110.878919291668, 1.376181602266573, -0.4762005779971825, 0.23505832402915144, -0.10469698905944824, -0.18361885845661163, 0.053467389196157455, 0.8719654083251953, 0.4584057927131653, -0.17187269032001495, 0.02293187379837036, -0.0021680593490600586, -0.03349541127681732, -0.25329908625355335, 0.5915261859462663, 0.7630519072425269,-0.06072857175724172,0.8948974609375,0.45623779296875,-0.2053680419921875
20220209-1401,2022-02-09 14:01:34Z,u01, 153,40,movements,el-ex, lt, d,16110.903866291668, 1.371534492559592, -0.4741380418849602, 0.23698739053306023, -0.0489632822573185, -0.18956542015075684, 0.05824163928627968, 0.8720824122428894, 0.4565717577934265, -0.17610976099967957, 0.02232682704925537, 0.0007494091987609863, -0.03563655912876129, -0.25325609825958184, 0.5897511927932284, 0.7645936022924452,-0.05874999508793058,0.8923187255859375,0.457183837890625,-0.213958740234375
20220209-1401,2022-02-09 14:01:34Z,u01, 154,40,movements,el-ex, lt, d,16110.928812291668, 1.3657418234671732, -0.4713112620719581, 0.23742181894099043, -0.01595989242196083, -0.22968347370624542, 0.07378977537155151, 0.872307538986206, 0.45405498147010803, -0.1814204901456833, 0.016715168952941895, -0.00146406888961792, -0.03143966197967529, -0.25251909655408245, 0.5878127741057232, 0.7664632051509042,-0.056958428017612445,0.8890228271484375,0.4525909423828125,-0.212860107421875
20220209-1401,2022-02-09 14:01:34Z,u01, 155,40,movements,el-ex, lt, d,16110.953758291667, 1.3596273135177406, -0.4691346080337927, 0.2391509722178481, -0.0860765278339386, -0.2923026382923126, 0.09514113515615463, 0.8721462488174438, 0.4521145522594452, -0.18695752322673798, 0.0214998722076416, -0.008770495653152466, -0.03073972463607788, -0.25239993296606733, 0.5855044956035244, 0.7684213943585955,-0.05483778817073928,0.8919525146484375,0.4421234130859375,-0.2209625244140625
20220209-1401,2022-02-09 14:01:34Z,u01, 156,40,movements,el-ex, lt, d,16110.978705166668, 1.353197365704767, -0.4665335673645905, 0.24242254323183612, -0.12023363262414932, -0.30023473501205444, 0.13597898185253143, 0.872071385383606, 0.4497930109500885, -0.1928146928548813, 0.022520720958709717, -0.0026037395000457764, -0.028895601630210876, -0.2525719554225617, 0.582923716195556, 0.7705246921998212,-0.051951182531330964,0.89459228515625,0.4471893310546875,-0.221710205078125
20220209-1401,2022-02-09 14:01:34Z,u01, 157,40,movements,el-ex, lt, d,16111.003652166668, 1.3476004043761567, -0.4645293325455084, 0.2465014011124608, -0.1089906394481659, -0.3322005271911621, 0.14232969284057617, 0.8718560934066772, 0.44800207018852234, -0.19789177179336548, 0.020447373390197754, -0.005832850933074951, -0.02305564284324646, -0.2531617572142726, 0.5804853454769401, 0.7723604563251103,-0.049043269449031285,0.8914031982421875,0.4458770751953125,-0.2197113037109375
20220209-1401,2022-02-09 14:01:34Z,u01, 158,40,movements,el-ex, lt, d,16111.028598166668, 1.3424887162028591, -0.4636604455159104, 0.25123210819115704, -0.11928492039442062, -0.36257225275039673, 0.15154695510864258, 0.8712118864059448, 0.44722506403923035, -0.20243383944034576, 0.013172149658203125, -0.007573604583740234, -0.02396094799041748, -0.2543332763323076, 0.5780118208973322, 0.773998489739575,-0.04629484321335128,0.8843841552734375,0.4396514892578125,-0.2263946533203125
20220209-1401,2022-02-09 14:01:34Z,u01, 159,40,movements,el-ex, lt, d,16111.053544166667, 1.3368244698386211, -0.46213708627114264, 0.2568532715595577, -0.19049181044101715, -0.36407628655433655, 0.143296018242836, 0.8707130551338196, 0.4458620250225067, -0.20752303302288055, 0.020171284675598145, -0.004989892244338989, -0.017010152339935303, -0.25551757068123965, 0.57528188995716, 0.7758345656956526,-0.04292096372300577,0.8957366943359375,0.4430389404296875,-0.222320556640625
20220209-1401,2022-02-09 14:01:34Z,u01, 160,40,movements,el-ex, lt, d,16111.078490166668, 1.3310888279208088, -0.46089383601746753, 0.2627368609866417, -0.12868914008140564, -0.38562360405921936, 0.13758546113967896, 0.8700462579727173, 0.4447488486766815, -0.21264514327049255, 0.027155160903930664, 0.010497093200683594, -0.02305746078491211, -0.2568639098132294, 0.5724494399566387, 0.7776638654193956,-0.03951553479497874,0.8972015380859375,0.4552459716796875,-0.2357025146484375
20220209-1401,2022-02-09 14:01:34Z,u01, 161,40,movements,el-ex, lt, d,16111.103437166668, 1.3235634779616419, -0.45901260661216714, 0.2672046954182163, -0.12030014395713806, -0.4095693528652191, 0.1407696008682251, 0.869231104850769, 0.4430631399154663, -0.21939082443714142, 0.017426490783691406, 0.006369233131408691, -0.02680981159210205, -0.25758386741062933, 0.5691705689565019, 0.7799891558343858,-0.03622630019741083,0.8853912353515625,0.441375732421875,-0.2489471435546875
20220209-1401,2022-02-09 14:01:34Z,u01, 162,40,movements,el-ex, lt, d,16111.128383166668, 1.3163351745666227, -0.45734832251669, 0.2718904489029477, -0.13305895030498505, -0.4004285931587219, 0.12075409293174744, 0.8683348894119263, 0.441570520401001, -0.22585336863994598, 0.020535171031951904, 0.004779517650604248, -0.02648124098777771, -0.25841977063817845, 0.5659439335989069, 0.7822024743003355,-0.03295144316916343,0.8888702392578125,0.44635009765625,-0.2523345947265625
20220209-1401,2022-02-09 14:01:34Z,u01, 163,40,movements,el-ex, lt, d,16111.153329166667, 1.3077551096907198, -0.45491335799681404, 0.2749673918322807, -0.010221311822533607, -0.42543116211891174, 0.14728368818759918, 0.8674008250236511, 0.43938449025154114, -0.23357424139976501, 0.030868709087371826, 0.018455415964126587, -0.049552664160728455, -0.2585144567812835, 0.5624794730368373, 0.7847888585554674,-0.029890827771111295,0.8972015380859375,0.4504852294921875,-0.2869110107421875
20220209-1401,2022-02-09 14:01:34Z,u01, 164,40,movements,el-ex, lt, d,16111.178276166667, 1.2978169492444656, -0.4522935889951568, 0.27649763456734705, -0.018115121871232986, -0.47911369800567627, 0.14011219143867493, 0.8661422729492188, 0.437029629945755, -0.2424924373626709, 0.031440675258636475, 0.006619572639465332, -0.05374181270599365, -0.2581044055009872, 0.5586912333982947, 0.7877219992618401,-0.027206984225112474,0.8975830078125,0.4436492919921875,-0.296234130859375
20220209-1401,2022-02-09 14:01:34Z,u01, 165,40,movements,el-ex, lt, d,16111.203222166667, 1.2861770235309609, -0.44910070555485176, 0.2782172024901496, -0.02228653058409691, -0.5157363414764404, 0.15162751078605652, 0.8645959496498108, 0.43415558338165283, -0.25294816493988037, 0.021054625511169434, 0.009188473224639893, -0.05448603630065918, -0.257531122242478, 0.5542595443290494, 0.7911353642386834,-0.024060600430647033,0.8834381103515625,0.437286376953125,-0.3061981201171875
20220209-1401,2022-02-09 14:01:34Z,u01, 166,40,movements,el-ex, lt, d,16111.228168166668, 1.2744142268607854, -0.44655414589896814, 0.2806242274031299, -0.03795443847775459, -0.5412712693214417, 0.1348554641008377, 0.8626154661178589, 0.43186014890670776, -0.26342254877090454, 0.04039967060089111, 0.008066028356552124, -0.05804970860481262, -0.2573648971634123, 0.5495926052138969, 0.7945298003452002,-0.020826324451504896,0.90301513671875,0.4399261474609375,-0.32147216796875
20220209-1401,2022-02-09 14:01:34Z,u01, 167,40,movements,el-ex, lt, d,16111.253114166668, 1.26145374874976, -0.44359071234574965, 0.2823793314780739, -0.01963462121784687, -0.5709520578384399, 0.1318395584821701, 0.8603442907333374, 0.4291854202747345, -0.2749684154987335, 0.0464550256729126, -0.0029616355895996094, -0.06304439902305603, -0.2568437518203448, 0.5445613605287721, 0.798232609164132,-0.017576806078924395,0.9057159423828125,0.4281005859375,-0.33740234375
20220209-1401,2022-02-09 14:01:34Z,u01, 168,40,movements,el-ex, lt, d,16111.278061166668, 1.2476756090267356, -0.4410626731030116, 0.28493967503376755, -0.08696702122688293, -0.6401742100715637, 0.14204485714435577, 0.8575002551078796, 0.4269006848335266, -0.2871394753456116, 0.04549950361251831, -0.007467091083526611, -0.0603337287902832, -0.2566808104444963, 0.5390224672060024, 0.802105195366964,-0.014035274357512006,0.9029998779296875,0.41943359375,-0.34747314453125
20220209-1401,2022-02-09 14:01:34Z,u01, 169,40,movements,el-ex, lt, d,16111.303007166667, 1.232884216057634, -0.43867915875990987, 0.28959347813429626, -0.17172619700431824, -0.702941358089447, 0.15372295677661896, 0.8541169762611389, 0.4247440695762634, -0.30012771487236023, 0.043404996395111084, -0.012299001216888428, -0.06455746293067932, -0.25709994661367774, 0.5327623860713896, 0.8062086482293487,-0.00956492047962798,0.8968353271484375,0.410491943359375,-0.3639984130859375
20220209-1401,2022-02-09 14:01:34Z,u01, 170,40,movements,el-ex, lt, d,16111.327953166669, 1.2178204024618662, -0.4367618568325202, 0.29625031876317637, -0.20116543769836426, -0.7452192902565002, 0.16185492277145386, 0.8502616882324219, 0.4230075180530548, -0.3132403492927551, 0.052661776542663574, -0.0006901025772094727, -0.06182071566581726, -0.2581746655810805, 0.5260472172628506, 0.8103091105357518,-0.004376940178787203,0.902923583984375,0.4223175048828125,-0.37506103515625
20220209-1401,2022-02-09 14:01:34Z,u01, 171,40,movements,el-ex, lt, d,16111.352900166668, 1.2012798291147022, -0.4347172074535465, 0.30195249334529994, -0.12867708504199982, -0.7864177823066711, 0.15817156434059143, 0.8457692265510559, 0.4211539328098297, -0.3275723457336426, 0.04992157220840454, 0.005680114030838013, -0.06860694289207458, -0.25888632644380694, 0.5188368654027954, 0.8147303841358575,0.0006660898609875121,0.893157958984375,0.4230499267578125,-0.4007720947265625
20220209-1401,2022-02-09 14:01:34Z,u01, 172,40,movements,el-ex, lt, d,16111.377846166668, 1.1827257686482109, -0.43216880107458266, 0.30717859751187143, -0.13611815869808197, -0.908632218837738, 0.17917098104953766, 0.840536892414093, 0.4188411831855774, -0.34361252188682556, 0.05605417490005493, -0.023943811655044556, -0.08610555529594421, -0.2592065228611413, 0.5108871850958354, 0.8196163225128694,0.005929496660657313,0.8965911865234375,0.3948974609375,-0.429718017578125
20220209-1401,2022-02-09 14:01:35Z,u01, 173,40,movements,el-ex, lt, d,16111.402792166667, 1.1617436578723384, -0.43031272583264923, 0.3142050810800841, -0.2817138731479645, -1.0131020545959473, 0.1758188009262085, 0.8338545560836792, 0.41715502738952637, -0.3614804446697235, 0.05915069580078125, -0.018336117267608643, -0.06806981563568115, -0.26016152253966035, 0.5015732870896832, 0.824981560259462,0.0120639184431727,0.8924102783203125,0.396392822265625,-0.4277496337890625
20220209-1401,2022-02-09 14:01:35Z,u01, 174,40,movements,el-ex, lt, d,16111.427738166667, 1.1400834027778584, -0.43007198334717844, 0.32493231945580753, -0.3967711925506592, -1.084376335144043, 0.16991889476776123, 0.8259210586547852, 0.4169362187385559, -0.3794976472854614, 0.05704391002655029, -0.0001882612705230713, -0.029224365949630737, -0.262558573276924, 0.49123738293037966, 0.8302845027050079,0.019400393581995273,0.882965087890625,0.416748046875,-0.408721923828125
20220209-1401,2022-02-09 14:01:35Z,u01, 175,40,movements,el-ex, lt, d,16111.452685166667, 1.1181920701987398, -0.429755653089424, 0.33564115880018247, -0.2302073985338211, -1.0296798944473267, 0.17145361006259918, 0.8175346851348877, 0.4166486859321594, -0.39754346013069153, 0.045136094093322754, 0.0019151568412780762, -0.022821009159088135, -0.2647820251255247, 0.48074810886050445, 0.8354948868068648,0.026832522824363936,0.8631439208984375,0.423431396484375,-0.4254913330078125
20220209-1401,2022-02-09 14:01:35Z,u01, 176,40,movements,el-ex, lt, d,16111.477631166668, 1.094673351707076, -0.42620083254858165, 0.33906516715671864, 0.16261282563209534, -0.9942002296447754, 0.2291964739561081, 0.809270977973938, 0.41341447830200195, -0.41733530163764954, 0.06365370750427246, 0.01756995916366577, -0.03139519691467285, -0.26382525254494277, 0.47088064387476497, 0.8412029001494534,0.0323294728525588,0.8729248046875,0.4309844970703125,-0.44873046875
20220209-1401,2022-02-09 14:01:35Z,u01, 177,40,movements,el-ex, lt, d,16111.502577166668, 1.0682765804011476, -0.4173521145448779, 0.3350863255430004, 0.3698144555091858, -0.9987633228302002, 0.2704584300518036, 0.8011487126350403, 0.4053412675857544, -0.4402943253517151, 0.05471670627593994, 0.02269822359085083, -0.008665084838867188, -0.2588675077453071, 0.46134634793884444, 0.847832599202579,0.036427461207045486,0.848785400390625,0.42669677734375,-0.44891357421875
20220209-1401,2022-02-09 14:01:35Z,u01, 178,40,movements,el-ex, lt, d,16111.527523166667, 1.0427651373891584, -0.40819171692637524, 0.3328049580051043, 0.08096535503864288, -0.9871154427528381, 0.2819505035877228, 0.7928309440612793, 0.39695027470588684, -0.46243876218795776, 0.020416676998138428, -0.0075002312660217285, 0.01585972309112549, -0.25411153165389294, 0.45189374115991254, 0.8541258952748705,0.0410895443335933,0.8132476806640625,0.3894500732421875,-0.4465789794921875
20220209-1401,2022-02-09 14:01:35Z,u01, 179,40,movements,el-ex, lt, d,16111.552470166667, 1.02134256819249, -0.40424870073855546, 0.3402561679797721, -0.35739707946777344, -0.981675386428833, 0.2791706919670105, 0.7840718030929565, 0.39332813024520874, -0.4801294207572937, 0.024964332580566406, -0.007433414459228516, 0.013668179512023926, -0.25367709927147897, 0.44224790894214694, 0.8589300700394874,0.04799756895332152,0.81036376953125,0.390655517578125,-0.47918701171875
20220209-1401,2022-02-09 14:01:35Z,u01, 180,40,movements,el-ex, lt, d,16111.577416166667, 1.0016672764563248, -0.4032836507749282, 0.3527936988667525, -0.2889351546764374, -0.9991141557693481, 0.27341121435165405, 0.7747933864593506, 0.39244067668914795, -0.4956666827201843, 0.03279316425323486, 0.04653939604759216, -0.02508533000946045, -0.2555068109050188, 0.43229957424303755, 0.8629494083383024,0.05613956777713339,0.807586669921875,0.4389801025390625,-0.520751953125
20220209-1401,2022-02-09 14:01:35Z,u01, 181,40,movements,el-ex, lt, d,16111.602362166668, 0.9799804028513411, -0.3997198807911217, 0.3599616813475454, -0.01878354139626026, -0.9743353724479675, 0.2662198543548584, 0.7650191187858582, 0.38916030526161194, -0.5131273865699768, 0.04397118091583252, 0.0647428035736084, -0.024973809719085693, -0.254911348939567, 0.4224411183743516, 0.8675307176041638,0.06288039737888532,0.8128662109375,0.449676513671875,-0.538970947265625
20220209-1401,2022-02-09 14:01:35Z,u01, 182,40,movements,el-ex, lt, d,16111.627309166668, 0.9571096425371669, -0.39458414625672134, 0.363863940978545, -0.010810969397425652, -0.9855280518531799, 0.2259129285812378, 0.7547085881233215, 0.3844243288040161, -0.5316323041915894, 0.05422079563140869, 0.051168292760849, -0.00770491361618042, -0.25282442689891393, 0.4126301674702939, 0.8724072885291825,0.06871458510607331,0.808929443359375,0.4355926513671875,-0.539337158203125
20220209-1401,2022-02-09 14:01:35Z,u01, 183,40,movements,el-ex, lt, d,16111.652255166668, 0.9338548055199992, -0.39039718608479146, 0.3672208329037368, 0.03709017485380173, -0.993392288684845, 0.2012481987476349, 0.7434300184249878, 0.38055574893951416, -0.5499900579452515, 0.06299686431884766, 0.06431421637535095, -0.00823754072189331, -0.25091440950994526, 0.4025505396259129, 0.8772141109197146,0.07409700063094751,0.8071136474609375,0.4427642822265625,-0.5633544921875
20220209-1401,2022-02-09 14:01:35Z,u01, 184,40,movements,el-ex, lt, d,16111.677201166667, 0.9095551147896943, -0.38582634815044387, 0.3686109111422288, 0.09296216070652008, -0.9903220534324646, 0.16167214512825012, 0.7312124967575073, 0.376324862241745, -0.568953275680542, 0.051502227783203125, 0.06393694877624512, -0.0011456012725830078, -0.24832294387879936, 0.3922487320716301, 0.8821950778808766,0.07879399723940822,0.78271484375,0.4402618408203125,-0.570098876953125
20220209-1401,2022-02-09 14:01:35Z,u01, 185,40,movements,el-ex, lt, d,16111.702147166669, 0.8850032069589934, -0.3812794815999741, 0.3683863349078042, 0.14418746531009674, -0.9836893081665039, 0.11622251570224762, 0.7183414101600647, 0.3721083700656891, -0.5878101587295532, 0.05909377336502075, 0.07062533497810364, 0.012492775917053223, -0.24534549521756055, 0.38196924667385124, 0.8871626846836066,0.08274797275477558,0.7769927978515625,0.442474365234375,-0.577301025390625
20220209-1401,2022-02-09 14:01:35Z,u01, 186,40,movements,el-ex, lt, d,16111.727094166668, 0.8598986408748529, -0.37699008950505486, 0.3669787116451563, 0.15237608551979065, -0.9911292791366577, 0.08706183731555939, 0.7045629620552063, 0.3681235909461975, -0.6066926121711731, 0.06937795877456665, 0.057337164878845215, 0.013110458850860596, -0.24217477116907474, 0.3714903258780879, 0.8921484719780136,0.08612351874229779,0.7739410400390625,0.4254608154296875,-0.5935821533203125
20220209-1401,2022-02-09 14:01:35Z,u01, 187,40,movements,el-ex, lt, d,16111.752040166668, 0.8343515451916661, -0.37353159678688985, 0.3656490493124287, 0.10198036581277847, -1.0161772966384888, 0.06295663118362427, 0.6897746324539185, 0.36490577459335327, -0.6253436207771301, 0.06347537040710449, 0.040855854749679565, 0.03417235612869263, -0.23931195479100792, 0.36063550479922835, 0.8970447703045156,0.08934408822794226,0.7454833984375,0.401824951171875,-0.58905029296875
20220209-1401,2022-02-09 14:01:35Z,u01, 188,40,movements,el-ex, lt, d,16111.776986166667, 0.8092611105807758, -0.371630928033365, 0.36480097212826484, 0.07282620668411255, -0.9810434579849243, 0.022015858441591263, 0.6743698120117188, 0.36313551664352417, -0.642929196357727, 0.0477370023727417, 0.04396894574165344, 0.034286558628082275, -0.23719246023106524, 0.3496786136215049, 0.901629910040957,0.09234783238839844,0.72210693359375,0.4071044921875,-0.608642578125
20220209-1401,2022-02-09 14:01:35Z,u01, 189,40,movements,el-ex, lt, d,16111.801933166667, 0.7846496696105564, -0.36969215231818797, 0.36335976828847844, 0.11412597447633743, -0.9706712365150452, 0.011688652448356152, 0.6588399410247803, 0.3613283932209015, -0.659826934337616, 0.050510525703430176, 0.045440346002578735, 0.04863607883453369, -0.23494055738317532, 0.3389534740300745, 0.9060294035963076,0.0949949050307311,0.7050628662109375,0.4069976806640625,-0.61212158203125
20220209-1401,2022-02-09 14:01:35Z,u01, 190,40,movements,el-ex, lt, d,16111.826879166667, 0.7600001193248355, -0.3671774460681101, 0.3609410636063608, 0.17128074169158936, -0.9396281242370605, -0.0019512590952217579, 0.6430009603500366, 0.3589824438095093, -0.6765214800834656, 0.03976869583129883, 0.037715524435043335, 0.0485917329788208, -0.2322414556987222, 0.32833392290107377, 0.910383926519839,0.09727189522619961,0.682769775390625,0.396697998046875,-0.6279296875
20220209-1401,2022-02-09 14:01:35Z,u01, 191,40,movements,el-ex, lt, d,16111.851825166668, 0.7358984063025852, -0.3636590430933749, 0.35743856493126047, 0.22366854548454285, -0.9013055562973022, -0.00015475740656256676, 0.6273543834686279, 0.35569635033607483, -0.6927528381347656, 0.03972923755645752, 0.03379946947097778, 0.05876535177230835, -0.22892834809826879, 0.3181436787345135, 0.9146310845909291,0.09912755875600282,0.6658935546875,0.38836669921875,-0.6410064697265625
20220209-1401,2022-02-09 14:01:35Z,u01, 192,40,movements,el-ex, lt, d,16111.876771166668, 0.7118814556441179, -0.3582559761880306, 0.3521739257102258, 0.3857676386833191, -0.8717269897460938, -0.007086566649377346, 0.6117838621139526, 0.3506414592266083, -0.7090635299682617, 0.03438001871109009, 0.05440300703048706, 0.025210320949554443, -0.22448925733681546, 0.3083387890155631, 0.9189357966788253,0.10044301798103139,0.6461639404296875,0.4050445556640625,-0.6838531494140625
20220209-1401,2022-02-09 14:01:35Z,u01, 193,40,movements,el-ex, lt, d,16111.901718166668, 0.6879300601446708, -0.34880169388131227, 0.34388441973491823, 0.5924158096313477, -0.8250507712364197, 0.014424119144678116, 0.5967051982879639, 0.3417719006538391, -0.7260404825210571, 0.03136175870895386, 0.05072987079620361, 0.02410566806793213, -0.21776780286767553, 0.29926064193643387, 0.9234842856446083,0.10097950381780724,0.62542724609375,0.3848724365234375,-0.70416259765625
20220209-1401,2022-02-09 14:01:35Z,u01, 194,40,movements,el-ex, lt, d,16111.926664166667, 0.664012261031142, -0.33564988234517507, 0.33337246276677684, 0.6996166110038757, -0.8134353756904602, 0.026003876700997353, 0.5818908214569092, 0.32938286662101746, -0.743579089641571, 0.03393852710723877, 0.04348084330558777, 0.013629138469696045, -0.2090463906000708, 0.2907061268309997, 0.9282220541288856,0.10096120923173996,0.6158294677734375,0.37286376953125,-0.729949951171875
20220209-1401,2022-02-09 14:01:35Z,u01, 195,40,movements,el-ex, lt, d,16111.951610166667, 0.6410803325668877, -0.3238273269457826, 0.32440225318796173, 0.41172853112220764, -0.8009591102600098, 0.013372103683650494, 0.5669770836830139, 0.3181972801685333, -0.7597943544387817, 0.03650796413421631, 0.017129838466644287, 0.028364241123199463, -0.20120483505070888, 0.2821691846765232, 0.9325603625429799,0.10113440597106327,0.603179931640625,0.3311004638671875,-0.7298583984375
20220209-1401,2022-02-09 14:01:35Z,u01, 196,40,movements,el-ex, lt, d,16111.976555750001, 0.6216977814462931, -0.31830686609401637, 0.32090995952430273, 0.20696116983890533, -0.7462608814239502, 0.023732665926218033, 0.5531594157218933, 0.3129589259624481, -0.7720565795898438, 0.03451746702194214, 0.015669554471969604, 0.00710296630859375, -0.19719878855991202, 0.27401523497417607, 0.9357112399912526,0.1023361312610726,0.587677001953125,0.3286285400390625,-0.76495361328125
20220209-1401,2022-02-09 14:01:35Z,u01, 197,40,movements,el-ex, lt, d,16112.001502750001, 0.600185400491032, -0.31183542718816737, 0.3169539087189937, 0.43997329473495483, -0.8755398988723755, 0.040195927023887634, 0.537556529045105, 0.3068060576915741, -0.7854316830635071, 0.06739330291748047, 0.042070865631103516, -0.01119917631149292, -0.19257331151051985, 0.2649522023704533, 0.9391389518159168,0.10360384778723053,0.596588134765625,0.3491668701171875,-0.8033905029296875
20220209-1401,2022-02-09 14:01:35Z,u01, 198,40,movements,el-ex, lt, d,16112.02644875, 0.5752161335356281, -0.2997548506713838, 0.3098354985235112, 0.619343101978302, -0.9641945362091064, 0.04772694408893585, 0.519757866859436, 0.29528599977493286, -0.8016594648361206, 0.01718360185623169, 0.03679099678993225, -0.00963515043258667, -0.18474667649109247, 0.2550273267701056, 0.9433551090607113,0.1044543839474219,0.5369415283203125,0.3320770263671875,-0.8112945556640625
20220209-1401,2022-02-09 14:01:35Z,u01, 199,40,movements,el-ex, lt, d,16112.05139475, 0.5495463756245994, -0.2880979300026983, 0.304361355760347, 0.28953826427459717, -0.9591476917266846, 0.07854411751031876, 0.5007743835449219, 0.2841290533542633, -0.817615807056427, 0.01611703634262085, -0.023005425930023193, 0.0433085560798645, -0.1772752320573651, 0.24446999859659785, 0.9474141653843378,0.10589657285934495,0.513397216796875,0.242401123046875,-0.759765625
20220209-1401,2022-02-09 14:01:35Z,u01, 200,40,movements,el-ex, lt, d,16112.07634175, 0.52601294296253, -0.28790107152945743, 0.30597947284948995, -0.273488312959671, -0.98744136095047, 0.048792146146297455, 0.4814242422580719, 0.28394031524658203, -0.8292216658592224, 0.025060653686523438, -0.03361988067626953, 0.06696879863739014, -0.17611320841860886, 0.23318084010692725, 0.9501471835158949,0.10877100053775418,0.5064849853515625,0.2503204345703125,-0.7622528076171875
20220209-1401,2022-02-09 14:01:35Z,u01, 201,40,movements,el-ex, lt, d,16112.101287750002, 0.5039378066836423, -0.2933971253077947, 0.3113746190794127, -0.18297886848449707, -0.9056806564331055, 0.10732556134462357, 0.4622427225112915, 0.2892058491706848, -0.8382670283317566, 0.05667808651924133, 0.011300712823867798, 0.06728619337081909, -0.17808797513919863, 0.22170060595480523, 0.9520852271422261,0.1125482200486102,0.527069091796875,0.306243896484375,-0.77716064453125
20220209-1401,2022-02-09 14:01:35Z,u01, 202,40,movements,el-ex, lt, d,16112.126233750001, 0.4825512832706143, -0.290802353716643, 0.3135351329526046, 0.3056635558605194, -0.8891439437866211, 0.1404401659965515, 0.4445574879646301, 0.28672099113464355, -0.84862220287323, 0.0870739221572876, 0.054068803787231445, 0.08128821849822998, -0.17587862600410153, 0.21155519234183232, 0.9544104541714337,0.11580858543689238,0.5316314697265625,0.340789794921875,-0.767333984375
20220209-1401,2022-02-09 14:01:35Z,u01, 203,40,movements,el-ex, lt, d,16112.15117975, 0.46103026318054824, -0.27914388679894053, 0.3115366951211918, 0.5238970518112183, -0.7916994094848633, 0.14614786207675934, 0.4276508092880249, 0.2755327820777893, -0.8609276413917542, 0.05651050806045532, 0.054682642221450806, 0.11829763650894165, -0.16890093456557598, 0.2025059215553116, 0.9573403228916766,0.11816586635484172,0.47833251953125,0.324005126953125,-0.73504638671875
20220209-1401,2022-02-09 14:01:35Z,u01, 204,40,movements,el-ex, lt, d,16112.17612675, 0.4425375723794074, -0.2674255254874435, 0.30996453001952873, 0.3505471646785736, -0.6923706531524658, 0.15879926085472107, 0.4130121171474457, 0.26424935460090637, -0.8715464472770691, 0.06615957617759705, 0.03041309118270874, 0.1780192255973816, -0.16208072989636768, 0.19482456322961464, 0.9598382933293855,0.12034732599652964,0.4791717529296875,0.2946624755859375,-0.6935272216796875
20220209-1401,2022-02-09 14:01:35Z,u01, 205,40,movements,el-ex, lt, d,16112.20107275, 0.4257190011485198, -0.26194904310250194, 0.3112529804059214, 0.025192175060510635, -0.689719557762146, 0.11863148212432861, 0.39888790249824524, 0.25896358489990234, -0.879673957824707, 0.05506104230880737, 0.02684876322746277, 0.18666553497314453, -0.15857410917643333, 0.18712904452323714, 0.9616240868052977,0.12294662179928384,0.44366455078125,0.2855224609375,-0.6962127685546875
20220209-1401,2022-02-09 14:01:35Z,u01, 206,40,movements,el-ex, lt, d,16112.226018750001, 0.4102413511203431, -0.2628000749517225, 0.31438231467445976, -0.14825162291526794, -0.615446925163269, 0.08069641888141632, 0.3851373493671417, 0.2597855031490326, -0.8855397701263428, 0.027612805366516113, 0.03002464771270752, 0.18557333946228027, -0.1583049781487793, 0.17935896470953638, 0.9628077462018556,0.12558338971901745,0.412750244140625,0.2898101806640625,-0.6999664306640625
20220209-1401,2022-02-09 14:01:35Z,u01, 207,40,movements,el-ex, lt, d,16112.250964750001, 0.39685644979610113, -0.2669795795837258, 0.3181408016297626, -0.24014559388160706, -0.5436720848083496, 0.04482097178697586, 0.372827410697937, 0.26381921768188477, -0.8896061778068542, 0.03536039590835571, 0.02061980962753296, 0.20767557621002197, -0.1597821949668855, 0.1722398486332165, 0.9635443552775322,0.12800531724158892,0.401702880859375,0.291473388671875,-0.682647705078125
20220209-1401,2022-02-09 14:01:35Z,u01, 208,40,movements,el-ex, lt, d,16112.27591175, 0.38575916646241315, -0.2694811177047896, 0.3197813230894913, 0.06331578642129898, -0.39219188690185547, -0.010902410373091698, 0.3626829981803894, 0.26623132824897766, -0.8930744528770447, -0.0025146007537841797, 0.05737707018852234, 0.1991809606552124, -0.16040225299303995, 0.16653499026324953, 0.964254950862534,0.12942029761634216,0.36016845703125,0.3236083984375,-0.6938934326171875
20220209-1401,2022-02-09 14:01:35Z,u01, 209,40,movements,el-ex, lt, d,16112.30085775, 0.37661107834272534, -0.26419962517666007, 0.31652193874994444, 0.4317314624786377, -0.2847779095172882, -0.06178855895996094, 0.35501018166542053, 0.2611367404460907, -0.897649884223938, 0.0005500614643096924, 0.053499460220336914, 0.184911847114563, -0.15701566634302067, 0.16285307441849298, 0.9654809625098904,0.12911799450998707,0.352935791015625,0.314544677734375,-0.7137603759765625
20220209-1401,2022-02-09 14:01:35Z,u01, 210,40,movements,el-ex, lt, d,16112.325803750002, 0.3695225389823917, -0.2541315652737703, 0.3104493304200551, 0.4089830815792084, -0.18807172775268555, -0.08117783814668655, 0.3495701849460602, 0.2514049708843231, -0.9025498628616333, 0.011071264743804932, 0.015761137008666992, 0.2248460054397583, -0.1512428613569096, 0.16078142868788045, 0.966931352300642,0.12774475273320596,0.3606414794921875,0.2671661376953125,-0.677703857421875
20220209-1401,2022-02-09 14:01:35Z,u01, 211,40,movements,el-ex, lt, d,16112.350750750002, 0.3646580063646885, -0.25133707991688553, 0.306037598117762, -0.04565839841961861, -0.13095903396606445, -0.15054745972156525, 0.3454247713088989, 0.24869924783706665, -0.9048924446105957, 0.02421930432319641, -0.004528149962425232, 0.24884086847305298, -0.14923955343662992, 0.1590010088154622, 0.967732533616465,0.1262529450868637,0.3736572265625,0.2428741455078125,-0.6591796875
20220209-1401,2022-02-09 14:01:35Z,u01, 212,40,movements,el-ex, lt, d,16112.375696750001, 0.3624514089862269, -0.25705161869305715, 0.3031919615668468, -0.15710273385047913, -0.10052702575922012, -0.19589702785015106, 0.34291768074035645, 0.2542301416397095, -0.9043088555335999, 0.02391880750656128, 0.00974687933921814, 0.21279573440551758, -0.15162127975072948, 0.15765966287918054, 0.9678112686153522,0.12448147171135415,0.3668365478515625,0.26397705078125,-0.6915130615234375
20220209-1401,2022-02-09 14:01:36Z,u01, 213,40,movements,el-ex, lt, d,16112.40064275, 0.36127118097951644, -0.2635384308326082, 0.30053993954835473, -0.19702568650245667, -0.016429796814918518, -0.18809936940670013, 0.34126004576683044, 0.26049843430519104, -0.9031512141227722, -0.0002567172050476074, -0.031906574964523315, 0.22445553541183472, -0.15445604698528717, 0.15674095296090315, 0.9677454948729618,0.12265412152953303,0.335601806640625,0.2254486083984375,-0.673583984375
20220209-1401,2022-02-09 14:01:36Z,u01, 214,40,movements,el-ex, lt, d,16112.42558875, 0.3622227980786092, -0.27102883615520335, 0.29873081470424834, -0.24617429077625275, 0.10050594061613083, -0.14918917417526245, 0.3414183259010315, 0.26772284507751465, -0.9009761214256287, 0.01040351390838623, -0.029762089252471924, 0.20842546224594116, -0.15796918441610952, 0.156708887576505, 0.9673954434867214,0.12097106082480968,0.3518218994140625,0.2379608154296875,-0.6925506591796875
20220209-1401,2022-02-09 14:01:36Z,u01, 215,40,movements,el-ex, lt, d,16112.45053575, 0.3657103039451859, -0.277318439110643, 0.2974077421113781, -0.18967688083648682, 0.18199022114276886, -0.13752873241901398, 0.34394940733909607, 0.2737775146961212, -0.8981896638870239, 0.0010059475898742676, -0.03952464461326599, 0.18105703592300415, -0.1610930489509733, 0.15796901603477578, 0.966866309948339,0.11943276969634148,0.3431854248046875,0.2302703857421875,-0.7281036376953125
20220209-1401,2022-02-09 14:01:36Z,u01, 216,40,movements,el-ex, lt, d,16112.475481750002, 0.37084942754241584, -0.28280662893567377, 0.2961715279398915, -0.2128995954990387, 0.23785200715065002, -0.09997349977493286, 0.34801098704338074, 0.27905187010765076, -0.8949962854385376, 0.0029411017894744873, -0.06423866748809814, 0.1553722620010376, -0.16393118486165276, 0.1600887539555871, 0.9662322965101835,0.11787001562765015,0.3509521484375,0.214813232421875,-0.7396240234375
20220209-1401,2022-02-09 14:01:36Z,u01, 217,40,movements,el-ex, lt, d,16112.500427750001, 0.37734267711494884, -0.29143188481619525, 0.29768882849105294, -0.4633721113204956, 0.23431994020938873, -0.05425094813108444, 0.35291507840156555, 0.28732404112815857, -0.8904469609260559, 0.02119988203048706, -0.07750043272972107, 0.1361897587776184, -0.16856579595334567, 0.16236403007861544, 0.9651374681154002,0.1171882241024032,0.3782501220703125,0.2159271240234375,-0.7724761962890625
20220209-1401,2022-02-09 14:01:36Z,u01, 218,40,movements,el-ex, lt, d,16112.525374750001, 0.38484326495617593, -0.30450935743361135, 0.3017951955425529, -0.5887525081634521, 0.27236324548721313, -0.03468863293528557, 0.3581426441669464, 0.29982513189315796, -0.8842164278030396, -0.012027591466903687, -0.04326388239860535, 0.07130444049835205, -0.17559145580916347, 0.16449747282181357, 0.9635244996037468,0.11716957518766641,0.3461151123046875,0.256561279296875,-0.8129119873046875
20220209-1401,2022-02-09 14:01:36Z,u01, 219,40,movements,el-ex, lt, d,16112.55032075, 0.3944401766744734, -0.3186821281126348, 0.3068696778814245, -0.5964123606681824, 0.35936734080314636, -0.044221751391887665, 0.3649420142173767, 0.31331533193588257, -0.8767273426055908, -0.022031307220458984, -0.03311818838119507, 0.04613041877746582, -0.18333144941430526, 0.16740940487488776, 0.961569889737902,0.1172475527528053,0.3483734130859375,0.290069580078125,-0.8307952880859375
20220209-1401,2022-02-09 14:01:36Z,u01, 220,40,movements,el-ex, lt, d,16112.57526675, 0.40535334695468234, -0.3314359758861496, 0.3119346921697703, -0.45778805017471313, 0.3721783459186554, 0.007264741696417332, 0.37288177013397217, 0.3254011869430542, -0.8689494729042053, 0.019635260105133057, 0.008750975131988525, 0.03610950708389282, -0.1904621464432758, 0.1710246416902072, 0.9595427971971562,0.11726957382384368,0.39251708984375,0.3341522216796875,-0.8328399658203125
20220209-1401,2022-02-09 14:01:36Z,u01, 221,40,movements,el-ex, lt, d,16112.600212750001, 0.4159894157503684, -0.3396516846158052, 0.3164831196457342, -0.3184657394886017, 0.3582092523574829, 0.02678358182311058, 0.3810095191001892, 0.3331587016582489, -0.8624598383903503, 0.021929264068603516, -0.012586832046508789, 0.04007214307785034, -0.19537419301332407, 0.17492570566559418, 0.9578218608201169,0.11750317112079517,0.4026336669921875,0.3228607177734375,-0.81768798828125
20220209-1401,2022-02-09 14:01:36Z,u01, 222,40,movements,el-ex, lt, d,16112.625159750001, 0.4266688962969701, -0.3467041967281478, 0.32120764587443995, -0.35746490955352783, 0.38979387283325195, 0.05715007707476616, 0.38921618461608887, 0.3397999703884125, -0.8561815023422241, -0.008036434650421143, -0.012514233589172363, 0.05169236660003662, -0.19975517697709808, 0.17890533313019874, 0.9561332842888102,0.11789806102105649,0.3811798095703125,0.3272857666015625,-0.8044891357421875
20220209-1401,2022-02-09 14:01:36Z,u01, 223,40,movements,el-ex, lt, d,16112.65010575, 0.43980220745021414, -0.35524782764561424, 0.32724277564661386, -0.4367974102497101, 0.47458121180534363, 0.06433981657028198, 0.39917615056037903, 0.34782272577285767, -0.84833824634552, -0.007315278053283691, -0.018171876668930054, 0.05918419361114502, -0.20510652955777592, 0.18374491804422477, 0.9540130385328089,0.11844103813877666,0.40020751953125,0.3379364013671875,-0.78460693359375
20220209-1401,2022-02-09 14:01:36Z,u01, 224,40,movements,el-ex, lt, d,16112.67505175, 0.45461741265876104, -0.3634585086705974, 0.3337461833312468, -0.3149694502353668, 0.5086879134178162, 0.09570719301700592, 0.41043224930763245, 0.3555089235305786, -0.8397372961044312, 0.03680276870727539, 0.006139576435089111, 0.05256688594818115, -0.2104508457052524, 0.18931927951955113, 0.951686811728767,0.11899913623661573,0.447235107421875,0.3616485595703125,-0.78717041015625
20220209-1401,2022-02-09 14:01:36Z,u01, 225,40,movements,el-ex, lt, d,16112.699997750002, 0.46930956116015693, -0.3677915111753713, 0.3389057769583059, -0.20382782816886902, 0.5184098482131958, 0.10102639347314835, 0.4220243990421295, 0.35955551266670227, -0.8322350382804871, 0.04040834307670593, 0.010485321283340454, 0.06049126386642456, -0.2138519745383011, 0.19531977060680433, 0.949670101243572,0.11934822378004112,0.46112060546875,0.365386962890625,-0.76739501953125
20220209-1401,2022-02-09 14:01:36Z,u01, 226,40,movements,el-ex, lt, d,16112.724944750002, 0.4847721052807984, -0.3731614394933913, 0.3443946506933469, -0.3687211275100708, 0.5564913153648376, 0.06326529383659363, 0.43393588066101074, 0.3645611107349396, -0.8238900303840637, 0.010964542627334595, -0.014158368110656738, 0.09024745225906372, -0.21782730202094258, 0.20150992194831135, 0.9474407215905807,0.11958665737843288,0.4449005126953125,0.35040283203125,-0.733642578125
20220209-1401,2022-02-09 14:01:36Z,u01, 227,40,movements,el-ex, lt, d,16112.749890750001, 0.5017075033133961, -0.3802602592886089, 0.3501470984721873, -0.2566291093826294, 0.6302144527435303, 0.061043087393045425, 0.4465700387954712, 0.37116214632987976, -0.8141338229179382, 0.0004361271858215332, 0.0069200992584228516, 0.05909836292266846, -0.22273096913883467, 0.20814421698181407, 0.9448747251070002,0.11949305330581161,0.4518890380859375,0.3831329345703125,-0.761505126953125
20220209-1401,2022-02-09 14:01:36Z,u01, 228,40,movements,el-ex, lt, d,16112.77483675, 0.5192888854316332, -0.3811765132070638, 0.3527799676054105, 0.08445250242948532, 0.6853182315826416, 0.07808952033519745, 0.4606449007987976, 0.37201279401779175, -0.8058614730834961, 0.012484312057495117, 0.018688470125198364, 0.035246849060058594, -0.2244816276696904, 0.21604919494889274, 0.9427907933415267,0.11864340673904472,0.4731292724609375,0.3907012939453125,-0.7706146240234375
20220209-1401,2022-02-09 14:01:36Z,u01, 229,40,movements,el-ex, lt, d,16112.79978275, 0.5368521793610296, -0.378248514383302, 0.3535541954732483, 0.01773485541343689, 0.6862061619758606, 0.09114512801170349, 0.4752817451953888, 0.36929336190223694, -0.798579752445221, 0.021330714225769043, -0.003982752561569214, 0.05550724267959595, -0.2242499775335779, 0.22454861932621256, 0.9410070128077591,0.11745394953738769,0.4999847412109375,0.3600616455078125,-0.7370147705078125
20220209-1401,2022-02-09 14:01:36Z,u01, 230,40,movements,el-ex, lt, d,16112.82472975, 0.5553628610720017, -0.3792805723534335, 0.3571160979106254, -0.23234626650810242, 0.7034796476364136, 0.07584892958402634, 0.4897805452346802, 0.37025225162506104, -0.7893214225769043, 0.02012234926223755, -0.0061013102531433105, 0.06779426336288452, -0.22621735956240557, 0.23273376791866612, 0.9386143609160986,0.11689205817996878,0.5099029541015625,0.3641510009765625,-0.721527099609375
20220209-1401,2022-02-09 14:01:36Z,u01, 231,40,movements,el-ex, lt, d,16112.849675750002, 0.5757235226948442, -0.3837868031351226, 0.36223301714211503, -0.19096440076828003, 0.7586197257041931, 0.05869004875421524, 0.5048355460166931, 0.3744344711303711, -0.7777788639068604, 0.01507711410522461, 0.01786896586418152, 0.053978145122528076, -0.23007939385099088, 0.24119297673862733, 0.9356104474328841,0.11628634117541953,0.5254669189453125,0.398956298828125,-0.7382965087890625
20220209-1401,2022-02-09 14:01:36Z,u01, 232,40,movements,el-ex, lt, d,16112.874621750001, 0.5949268444186478, -0.38275343207711204, 0.36309382594390094, 0.22524753212928772, 0.7526293396949768, 0.03616543486714363, 0.519894003868103, 0.3734760880470276, -0.7682615518569946, -0.004375934600830078, 0.03974711894989014, -0.013965070247650146, -0.2308212045797875, 0.2501815432135565, 0.9332679627846129,0.1146367451035662,0.5155181884765625,0.4132232666015625,-0.7822265625
20220209-1401,2022-02-09 14:01:36Z,u01, 233,40,movements,el-ex, lt, d,16112.899568750001, 0.6131221391195602, -0.3773700823305814, 0.3607447120227641, 0.10643748939037323, 0.7701811194419861, 0.057375844568014145, 0.5349351167678833, 0.36847686767578125, -0.7603086233139038, -0.015922725200653076, -0.0017166435718536377, 0.02913796901702881, -0.22909899442015041, 0.25953677591194907, 0.9314186736001546,0.11231025900205693,0.5264739990234375,0.3562164306640625,-0.709197998046875
20220209-1401,2022-02-09 14:01:36Z,u01, 234,40,movements,el-ex, lt, d,16112.92451475, 0.6336696216004107, -0.37890532868475213, 0.36365202064013286, -0.27443358302116394, 0.7764242887496948, 0.03695599362254143, 0.5501079559326172, 0.36990365386009216, -0.7487005591392517, 0.05024904012680054, -0.0009461939334869385, 0.041409850120544434, -0.23132813994326085, 0.26858333894541453, 0.9284499585406597,0.11104474922648927,0.6003570556640625,0.36895751953125,-0.7072906494140625
20220209-1401,2022-02-09 14:01:36Z,u01, 235,40,movements,el-ex, lt, d,16112.94946075, 0.6542104552405199, -0.38325142197937573, 0.367928188545, -0.11072365194559097, 0.758877158164978, 0.013842616230249405, 0.5643861293792725, 0.3739379942417145, -0.7359610795974731, 0.013815164566040039, 0.03960570693016052, -0.02497953176498413, -0.2350127682472502, 0.2771073035112989, 0.9251504059698877,0.10989665567910112,0.560516357421875,0.4141693115234375,-0.7667999267578125
20220209-1401,2022-02-09 14:01:36Z,u01, 236,40,movements,el-ex, lt, d,16112.974406291667, 0.6736769032910722, -0.38274386051320736, 0.3675990969007479, 0.10312708467245102, 0.7970393896102905, 0.00888853706419468, 0.578723132610321, 0.37346720695495605, -0.7249839305877686, -0.02336430549621582, 0.005820512771606445, 0.017876386642456055, -0.23579594700194267, 0.2861962534912879, 0.9224568612871068,0.107541558367452,0.55535888671875,0.3792877197265625,-0.7071075439453125
20220209-1401,2022-02-09 14:01:36Z,u01, 237,40,movements,el-ex, lt, d,16112.999353291667, 0.6933656229704659, -0.38268288059174144, 0.3683566005272472, -0.2091582864522934, 0.7708532810211182, 0.036201052367687225, 0.5928986072540283, 0.3734106421470642, -0.7134674191474915, 0.025952041149139404, -0.02457946538925171, 0.05947566032409668, -0.23692766618330685, 0.295180596839264, 0.9195584306927851,0.10557441552147961,0.630859375,0.3488616943359375,-0.6507568359375
20220209-1401,2022-02-09 14:01:36Z,u01, 238,40,movements,el-ex, lt, d,16113.024299291668, 0.7150377820406084, -0.3883485472454509, 0.3753769741215391, -0.35575026273727417, 0.7418935298919678, 0.07133374363183975, 0.6068236827850342, 0.3786604404449463, -0.6988428235054016, 0.05992424488067627, 0.01600813865661621, 0.001943349838256836, -0.2416507077233364, 0.3036174159262802, 0.9156208551210792,0.10516590647134877,0.666748046875,0.3946685791015625,-0.6968994140625
20220209-1401,2022-02-09 14:01:36Z,u01, 239,40,movements,el-ex, lt, d,16113.049245291668, 0.7359142534282084, -0.39150167657539536, 0.38058417663698296, -0.06790071725845337, 0.7763780951499939, 0.039983607828617096, 0.620475172996521, 0.38157689571380615, -0.6851346492767334, 0.012596547603607178, 0.042205363512039185, -0.0202333927154541, -0.2449461621578995, 0.31214429005924393, 0.9119567180140915,0.10441276380354358,0.6257171630859375,0.4192962646484375,-0.6980133056640625
20220209-1401,2022-02-09 14:01:36Z,u01, 240,40,movements,el-ex, lt, d,16113.074192291668, 0.7559889694639449, -0.39031100837720195, 0.3797485182977705, 0.15978294610977173, 0.8434914350509644, -0.012894455343484879, 0.6344143748283386, 0.38047605752944946, -0.6728716492652893, 0.021499812602996826, 0.02717772126197815, -0.012766778469085693, -0.24532259877594087, 0.3215291405742329, 0.9088851274751001,0.10180114873550034,0.655914306640625,0.40765380859375,-0.685638427734375
20220209-1401,2022-02-09 14:01:36Z,u01, 241,40,movements,el-ex, lt, d,16113.099138291667, 0.7758199369253621, -0.3879104351827221, 0.37690566015865995, 0.08141579478979111, 0.8070163726806641, -0.0011332035064697266, 0.6482701897621155, 0.3782549202442169, -0.6608092188835144, 0.05845576524734497, 0.020762354135513306, -0.009356796741485596, -0.2447954612260505, 0.33116546326581187, 0.9059202713667278,0.09855407563986551,0.71234130859375,0.3885345458984375,-0.6719818115234375
20220209-1401,2022-02-09 14:01:36Z,u01, 242,40,movements,el-ex, lt, d,16113.124084291667, 0.7947802310396315, -0.3881200921299432, 0.3769568098545735, -0.07139472663402557, 0.7193900346755981, 0.0018203752115368843, 0.6606254577636719, 0.3784489929676056, -0.6483442783355713, 0.018268465995788574, 0.0040583014488220215, -0.040315449237823486, -0.2458191289905028, 0.33970696610534123, 0.9027268625921793,0.09620948075222041,0.67889404296875,0.38250732421875,-0.68865966796875
20220209-1401,2022-02-09 14:01:36Z,u01, 243,40,movements,el-ex, lt, d,16113.149030291668, 0.8139565836793692, -0.3900653585281108, 0.3796936586156999, -0.2062274068593979, 0.730919599533081, 0.021770048886537552, 0.672399640083313, 0.38024887442588806, -0.6350507736206055, -0.013998270034790039, 0.01509106159210205, -0.020237982273101807, -0.24805328142459648, 0.3477702945765336, 0.8992007401001486,0.09467531371079912,0.6646728515625,0.3934326171875,-0.643798828125
20220209-1401,2022-02-09 14:01:36Z,u01, 244,40,movements,el-ex, lt, d,16113.173977291668, 0.8349070431006494, -0.3951799134757856, 0.3864622591483931, -0.3936021029949188, 0.697039008140564, 0.0311104878783226, 0.6841051578521729, 0.38497424125671387, -0.6195117831230164, 0.0718761682510376, 0.011845767498016357, -0.04064452648162842, -0.2524500328583997, 0.3556867975091695, 0.894939460783508,0.0940163522107465,0.7559814453125,0.396820068359375,-0.66015625
20220209-1401,2022-02-09 14:01:36Z,u01, 245,40,movements,el-ex, lt, d,16113.198923291668, 0.854512242916516, -0.400271195314482, 0.3943664794901767, -0.28562745451927185, 0.6445433497428894, 0.04228511080145836, 0.6946312189102173, 0.3896681070327759, -0.6046867966651917, 0.046472787857055664, 0.04207929968833923, -0.041858673095703125, -0.2569841308931169, 0.3627888643784875, 0.8907949122955823,0.09395574666564194,0.724090576171875,0.43536376953125,-0.638336181640625
20220209-1401,2022-02-09 14:01:36Z,u01, 246,40,movements,el-ex, lt, d,16113.223869291667, 0.873627783381587, -0.4044122789562224, 0.39998111038085116, -0.26305949687957764, 0.7096952795982361, -0.030776184052228928, 0.70481938123703, 0.39347851276397705, -0.5902577638626099, -0.016251325607299805, 0.03311145305633545, -0.0010050535202026367, -0.2606785550609679, 0.37002405110797193, 0.8868296141675294,0.09307017756712563,0.688568115234375,0.4265899658203125,-0.5912628173828125
20220209-1401,2022-02-09 14:01:36Z,u01, 247,40,movements,el-ex, lt, d,16113.248815291669, 0.8940172617311082, -0.4097218173957728, 0.40468296584872626, -0.23747467994689941, 0.7385069131851196, -0.05633727088570595, 0.7150682210922241, 0.398354172706604, -0.5744485855102539, 0.03952455520629883, 0.03935939073562622, -0.0031118392944335938, -0.26475428792856964, 0.37773120096868484, 0.8825480736769326,0.0912852683809979,0.773895263671875,0.4346771240234375,-0.5825958251953125
20220209-1401,2022-02-09 14:01:36Z,u01, 248,40,movements,el-ex, lt, d,16113.273762291668, 0.9130270327762464, -0.41367000912716706, 0.40711138925599843, -0.09821011871099472, 0.7068943977355957, -0.08096831291913986, 0.7246082425117493, 0.4019724726676941, -0.5597864985466003, 0.05889993906021118, 0.03740432858467102, -0.014920532703399658, -0.2677413314560135, 0.38525489494814047, 0.8786271027520282,0.08892437681206067,0.78350830078125,0.4393768310546875,-0.57470703125
20220209-1401,2022-02-09 14:01:36Z,u01, 249,40,movements,el-ex, lt, d,16113.298708291668, 0.9308069872328546, -0.4167472515660484, 0.40715531470893324, -0.07477117329835892, 0.7125455141067505, -0.12410792708396912, 0.7334505319595337, 0.4047882556915283, -0.5460739135742188, 0.018639802932739258, 0.012066543102264404, -0.0017166733741760254, -0.269818789683844, 0.39263324063909977, 0.8750247147184138,0.08584088076491084,0.745391845703125,0.4116973876953125,-0.5400390625
20220209-1401,2022-02-09 14:01:36Z,u01, 250,40,movements,el-ex, lt, d,16113.323654291667, 0.9488675479754791, -0.4213965579258047, 0.407426724809543, -0.16349466145038605, 0.7145324945449829, -0.14252422749996185, 0.741655170917511, 0.40903523564338684, -0.5316368341445923, 0.03074467182159424, -0.003151506185531616, 0.00562053918838501, -0.2725734553105408, 0.39985659084604963, 0.871221056137402,0.08241483588267046,0.77239990234375,0.4058837890625,-0.5260162353515625
20220209-1401,2022-02-09 14:01:36Z,u01, 251,40,movements,el-ex, lt, d,16113.348601291667, 0.9671567443412968, -0.42672520234988465, 0.4098190854979155, -0.21934226155281067, 0.6680335998535156, -0.10957439243793488, 0.7494487166404724, 0.41389188170433044, -0.5167397856712341, 0.03830146789550781, -0.015439152717590332, -0.035826802253723145, -0.2760080258481148, 0.406755040757981, 0.8671923229494495,0.0796698038801921,0.7829132080078125,0.4023895263671875,-0.5548553466796875
