SessionID,LoggingTime,UID,RecNo,Hertz,Activity,MoveType,Wrist,Side,TimeStamp,DMRoll,DMPitch,DMYaw,DMRotX,DMRotY,DMRotZ,DMGrvX,DMGrvY,DMGrvZ,DMUAccelX,DMUAccelY,DMUAccelZ,DMQuatX,DMQuatY,DMQuatW,DMQuatZ,AccelroX,AceelroY,AceelroZ
20220209-1353,2022-02-09 13:54:00Z,u01, 1,40,movements,el-ex, lt, d,15656.784697041667, 1.3600251699804742, -0.4181999245483573, 0.3398967649118605, 0.018585868179798126, -0.5930089354515076, 0.018726322799921036, 0.8935986757278442, 0.40611615777015686, -0.19118434190750122, 0.026796340942382812, 0.019939839839935303, 0.006263256072998047, -0.26311505163955257, 0.5789458517046685, 0.7717463554494661,-5.551115123125783e-17,0.925079345703125,0.4227294921875,-0.18414306640625
20220209-1353,2022-02-09 13:54:00Z,u01, 2,40,movements,el-ex, lt, d,15656.809643041668, 1.3480271822903547, -0.41870909292120917, 0.3415399666856446, -0.05011170357465744, -0.603882372379303, 0.005079485476016998, 0.891038715839386, 0.40658140182495117, -0.20184597373008728, 0.022581398487091064, 0.021824419498443604, 0.012545585632324219, -0.26376823215643497, 0.57402380912886, 0.7751895881702076,0.0020551184654249988,0.90802001953125,0.43218994140625,-0.1855316162109375
20220209-1353,2022-02-09 13:54:00Z,u01, 3,40,movements,el-ex, lt, d,15656.834590041668, 1.3351239631704772, -0.41927222820186116, 0.3437557715164077, -0.02924800105392933, -0.8169981241226196, 0.1543985903263092, 0.8881374001502991, 0.4070958197116852, -0.21327263116836548, 0.05941826105117798, 0.022469699382781982, 0.016937971115112305, -0.2645866238071768, 0.5686454084066216, 0.778856065533989,0.004443866771177585,1.2047119140625,0.39739990234375,-0.245147705078125
20220209-1353,2022-02-09 13:54:00Z,u01, 4,40,movements,el-ex, lt, d,15656.859536041668, 1.3218107621256772, -0.4197057688825292, 0.34464065331059984, 0.05162051320075989, -0.5705472826957703, -0.0048482464626431465, 0.8850482702255249, 0.4074917733669281, -0.22503380477428436, 0.05016303062438965, 0.028528213500976562, -0.019747495651245117, -0.2649606032997554, 0.5632752192403034, 0.7826083734145042,0.00641693177143926,0.896331787109375,0.459320068359375,-0.2404632568359375
20220209-1353,2022-02-09 13:54:00Z,u01, 5,40,movements,el-ex, lt, d,15656.884483041667, 1.3059520842884473, -0.4186435762699599, 0.3400047608620871, 0.26474547386169434, -0.5829604268074036, 0.0057567935436964035, 0.8817857503890991, 0.4065215289592743, -0.23915381729602814, 0.01979529857635498, 0.046801984310150146, -0.016827493906021118, -0.2632141443032979, 0.5578005078445392, 0.7871009553872365,0.007019235352144992,0.9023590087890625,0.4371795654296875,-0.257965087890625
20220209-1353,2022-02-09 13:54:00Z,u01, 6,40,movements,el-ex, lt, d,15656.909429041667, 1.289126741474303, -0.41694395272517304, 0.33352868593282825, 0.21813802421092987, -0.5749640464782715, 0.007179454900324345, 0.8782995939254761, 0.40496811270713806, -0.2541472613811493, 0.014965295791625977, 0.013824671506881714, -0.0034667253494262695, -0.26072200379001687, 0.5522231455751744, 0.7918473074757084,0.007185431426044553,0.8925628662109375,0.4178466796875,-0.25860595703125
20220209-1353,2022-02-09 13:54:00Z,u01, 7,40,movements,el-ex, lt, d,15656.934376041667, 1.273301711457627, -0.4155931169699496, 0.3292269809081228, 0.1339675635099411, -0.5723819732666016, 0.008837672881782055, 0.8746901154518127, 0.40373262763023376, -0.26817408204078674, 0.01805591583251953, 0.0173337459564209, 0.007920324802398682, -0.2589715536229342, 0.5466687204054226, 0.7962563155807683,0.007941591934580772,0.89599609375,0.4207000732421875,-0.2708587646484375
20220209-1353,2022-02-09 13:54:00Z,u01, 8,40,movements,el-ex, lt, d,15656.959322041668, 1.2575609728464936, -0.4143522001220688, 0.3255445638650529, 0.18869784474372864, -0.589052140712738, 0.0027673961594700813, 0.870836615562439, 0.402597039937973, -0.28206270933151245, 0.027173757553100586, 0.02562573552131653, -0.026530861854553223, -0.25743327520931225, 0.5410145536685884, 0.8005952367213902,0.008874691225108533,0.8985595703125,0.4321746826171875,-0.3142852783203125
20220209-1353,2022-02-09 13:54:00Z,u01, 9,40,movements,el-ex, lt, d,15656.984269041668, 1.2400963425092648, -0.41224309649848634, 0.3191580990944978, 0.2958122193813324, -0.619479238986969, 0.01775813102722168, 0.8665791749954224, 0.4006655216217041, -0.2975028455257416, 0.03645133972167969, 0.04519638419151306, -0.024472713470458984, -0.2548301167916259, 0.5350796127952652, 0.8053989694073745,0.009170890343157823,0.9083404541015625,0.43536376953125,-0.3241424560546875
20220209-1353,2022-02-09 13:54:00Z,u01, 10,40,movements,el-ex, lt, d,15657.009215041668, 1.2220900997940027, -0.41012444507509027, 0.3131560480150363, 0.14094281196594238, -0.6527712941169739, -0.009463503956794739, 0.861877977848053, 0.39872345328330994, -0.3133469521999359, 0.04560816287994385, 0.007847100496292114, -0.009986639022827148, -0.2523324812381592, 0.5288240168576588, 0.8102966235597715,0.00964863426293927,0.903717041015625,0.405517578125,-0.32171630859375
20220209-1353,2022-02-09 13:54:00Z,u01, 11,40,movements,el-ex, lt, d,15657.034162041668, 1.2046858288639601, -0.4096852153780694, 0.3108805366845332, 0.07302084565162659, -0.6758663058280945, -0.013382412493228912, 0.8564574122428894, 0.39832061529159546, -0.32836171984672546, 0.034304916858673096, 0.013590425252914429, -0.00302848219871521, -0.2514740805685989, 0.5220918809899806, 0.8148981190156332,0.011042977475980653,0.88690185546875,0.411529541015625,-0.3516998291015625
20220209-1353,2022-02-09 13:54:00Z,u01, 12,40,movements,el-ex, lt, d,15657.059109041667, 1.187091853188036, -0.4094778618087458, 0.3090196225275359, 0.06412415951490402, -0.6917901039123535, -0.01292088720947504, 0.8506247401237488, 0.3981304168701172, -0.34340959787368774, 0.03829151391983032, 0.01573386788368225, -0.022801250219345093, -0.25080663476598886, 0.5151613715522192, 0.8194800607969823,0.012551079588099034,0.8957061767578125,0.41436767578125,-0.3705291748046875
20220209-1353,2022-02-09 13:54:00Z,u01, 13,40,movements,el-ex, lt, d,15657.084055041667, 1.1682410060122936, -0.4085177310731492, 0.30689357602000833, 0.1021394208073616, -0.7524186372756958, 0.017255324870347977, 0.844351589679718, 0.3972494602203369, -0.3595321476459503, 0.06217312812805176, 0.019498616456985474, -0.016520529985427856, -0.2497583881452548, 0.5077939241462265, 0.8243552081144015,0.014306773374699766,0.902618408203125,0.4149932861328125,-0.3760528564453125
20220209-1353,2022-02-09 13:54:00Z,u01, 14,40,movements,el-ex, lt, d,15657.109002041667, 1.1488043873104772, -0.4075058879394025, 0.3050305518711893, 0.06301398575305939, -0.7589852213859558, 0.002893696539103985, 0.83757084608078, 0.3963207006454468, -0.3760390281677246, 0.0495295524597168, 0.016048192977905273, -0.0036147236824035645, -0.24873926495247467, 0.5001092496133661, 0.8293105836777201,0.01623997312327541,0.883941650390625,0.4155731201171875,-0.3843231201171875
20220209-1353,2022-02-09 13:54:00Z,u01, 15,40,movements,el-ex, lt, d,15657.133948041668, 1.1294774982014284, -0.4066895699004974, 0.30349799935009236, 0.08740031719207764, -0.752267062664032, -2.213194966316223e-05, 0.8304393887519836, 0.3955710828304291, -0.3922934830188751, 0.03912860155105591, 0.018598318099975586, -0.006723761558532715, -0.24786648270202374, 0.4923570565040244, 0.8341551161514398,0.018225700346873486,0.8614959716796875,0.41741943359375,-0.406036376953125
20220209-1353,2022-02-09 13:54:00Z,u01, 16,40,movements,el-ex, lt, d,15657.158895041668, 1.109720004156266, -0.40496960853869357, 0.3001618303466499, 0.20108386874198914, -0.7385451197624207, 0.014722990803420544, 0.8231351971626282, 0.39399081468582153, -0.408925324678421, 0.04052770137786865, 0.026266783475875854, -0.015253603458404541, -0.24617222726113577, 0.48470255352297165, 0.8390908248932968,0.019734667182795984,0.8698272705078125,0.42230224609375,-0.4268646240234375
20220209-1353,2022-02-09 13:54:00Z,u01, 17,40,movements,el-ex, lt, d,15657.183841041668, 1.0890153442450363, -0.4020498653908844, 0.2948050142404124, 0.24880434572696686, -0.7751583456993103, 0.017530428245663643, 0.8155086636543274, 0.3913055658340454, -0.42641040682792664, 0.08421075344085693, 0.024664372205734253, -0.014522671699523926, -0.24349106753045013, 0.4769768261178422, 0.8442589349186252,0.02079078448002103,0.915557861328125,0.4178009033203125,-0.4574127197265625
20220209-1353,2022-02-09 13:54:00Z,u01, 18,40,movements,el-ex, lt, d,15657.208788041668, 1.0664602713279705, -0.3983579554981688, 0.2885650356242082, 0.30112144351005554, -0.8321346044540405, 0.0151233971118927, 0.8069434762001038, 0.38790538907051086, -0.4453892707824707, 0.06396716833114624, 0.02867487072944641, -0.03306517004966736, -0.24026664779222912, 0.4685907674560248, 0.8498338931441096,0.021840044600077158,0.8509674072265625,0.412811279296875,-0.4807281494140625
20220209-1353,2022-02-09 13:54:00Z,u01, 19,40,movements,el-ex, lt, d,15657.233734041667, 1.0433249422477158, -0.39418313598233023, 0.2807898006661648, 0.35831889510154724, -0.7913239002227783, -0.01508417259901762, 0.7978166937828064, 0.3840540945529938, -0.46474847197532654, 0.012089431285858154, 0.012735545635223389, -0.026096105575561523, -0.23648449404031677, 0.46010961079983254, 0.855496801206856,0.022352672129470952,0.8052825927734375,0.39166259765625,-0.5035858154296875
20220209-1353,2022-02-09 13:54:00Z,u01, 20,40,movements,el-ex, lt, d,15657.258681041667, 1.020463814885172, -0.3899006666657547, 0.2724251168765416, 0.34711459279060364, -0.8087451457977295, -0.0070663932710886, 0.7883791327476501, 0.38009652495384216, -0.4837201237678528, 0.03851008415222168, -0.0007171630859375, -0.03376638889312744, -0.2325400793070783, 0.4517355959072252, 0.861018657922951,0.02251998208028122,0.8287811279296875,0.3836517333984375,-0.5177764892578125
20220209-1353,2022-02-09 13:54:00Z,u01, 21,40,movements,el-ex, lt, d,15657.283627041668, 0.9966064155693067, -0.3855819886259683, 0.26489058639310054, 0.33297890424728394, -0.8693900108337402, 0.017588753253221512, 0.7779865860939026, 0.3760984539985657, -0.5032762289047241, 0.04401975870132446, 0.008606165647506714, -0.013843953609466553, -0.22877161910654925, 0.44274758390178276, 0.8666634621458765,0.023080360451226023,0.8130340576171875,0.38360595703125,-0.5256500244140625
20220209-1353,2022-02-09 13:54:00Z,u01, 22,40,movements,el-ex, lt, d,15657.308574041668, 0.9720952382173504, -0.38060007795362266, 0.25833724906344446, 0.27107444405555725, -0.8981935977935791, 0.04667220264673233, 0.7669565081596375, 0.3714776635169983, -0.5232419967651367, 0.0229606032371521, -0.0007652938365936279, -0.0046356916427612305, -0.2249388919802223, 0.43333762342379845, 0.8723731642858973,0.024211643566839303,0.7827301025390625,0.36993408203125,-0.5250396728515625
20220209-1353,2022-02-09 13:54:00Z,u01, 23,40,movements,el-ex, lt, d,15657.333520041668, 0.9486907896909538, -0.37652732931127714, 0.2544679582344011, 0.1800689399242401, -0.8742724657058716, 0.05926928669214249, 0.7557246088981628, 0.36769330501556396, -0.5419244170188904, 0.011472105979919434, 0.01177757978439331, 0.02997690439224243, -0.22207859498356863, 0.4239326368461732, 0.8776568266729099,0.026094118589864823,0.76519775390625,0.3852996826171875,-0.5190277099609375
20220209-1353,2022-02-09 13:54:00Z,u01, 24,40,movements,el-ex, lt, d,15657.358467041668, 0.9258623661848302, -0.37243444855707963, 0.2511771464170565, 0.2294929474592209, -0.8697383999824524, 0.06645742058753967, 0.7443539500236511, 0.3638840615749359, -0.5599337220191956, 0.028122425079345703, 0.03546905517578125, 0.023953616619110107, -0.21932141521858195, 0.41464593969328156, 0.8827099957673171,0.028108740067613436,0.7731475830078125,0.3990478515625,-0.53302001953125
20220209-1353,2022-02-09 13:54:00Z,u01, 25,40,movements,el-ex, lt, d,15657.383413041667, 0.9024122421286362, -0.3668944878062035, 0.24692747599937376, 0.2865143120288849, -0.8873016238212585, 0.08814281225204468, 0.7325908541679382, 0.3587183356285095, -0.5784738063812256, 0.04226583242416382, 0.035095810890197754, 0.04293620586395264, -0.21571295699620818, 0.4052542704145863, 0.8878825649761021,0.030027084174628238,0.7707366943359375,0.39501953125,-0.5402374267578125
20220209-1353,2022-02-09 13:54:00Z,u01, 26,40,movements,el-ex, lt, d,15657.408360041667, 0.8787946743842654, -0.3605226951195222, 0.24252695003077904, 0.27322444319725037, -0.8784672021865845, 0.10018662363290787, 0.7204709649085999, 0.3527633845806122, -0.5970591902732849, 0.03192472457885742, 0.04016578197479248, 0.05569273233413696, -0.21168904270079741, 0.39580063230760304, 0.8930320001151331,0.031994396308777096,0.7452850341796875,0.3884429931640625,-0.54693603515625
20220209-1353,2022-02-09 13:54:00Z,u01, 27,40,movements,el-ex, lt, d,15657.433307041667, 0.8561190082541411, -0.35521615885226315, 0.2394543128571821, 0.20331978797912598, -0.861236572265625, 0.08689771592617035, 0.708152174949646, 0.3477930426597595, -0.6144596934318542, 0.029213666915893555, 0.03770512342453003, 0.03877615928649902, -0.20838504795587603, 0.3864528821710561, 0.8978109361976881,0.03414091795479435,0.7298431396484375,0.388763427734375,-0.58563232421875
20220209-1353,2022-02-09 13:54:01Z,u01, 28,40,movements,el-ex, lt, d,15657.458253041668, 0.8337675025969293, -0.34994287144245406, 0.23613098972892405, 0.30345314741134644, -0.8452067971229553, 0.08670377731323242, 0.6955906748771667, 0.3428441286087036, -0.631356954574585, 0.026745319366455078, 0.06143754720687866, 0.01738917827606201, -0.20502988906101993, 0.37720585093376324, 0.9024290370147534,0.03606215112247635,0.723419189453125,0.401336669921875,-0.6194000244140625
20220209-1353,2022-02-09 13:54:01Z,u01, 29,40,movements,el-ex, lt, d,15657.483200041668, 0.8110459205530833, -0.3425384193207217, 0.23088079942975145, 0.37222549319267273, -0.8505422472953796, 0.07176730036735535, 0.6828887462615967, 0.3358791172504425, -0.6487282514572144, 0.03685319423675537, 0.05148059129714966, 0.024247169494628906, -0.20034321114561002, 0.36810116775123913, 0.9071701567680543,0.03750550818481185,0.7100982666015625,0.385101318359375,-0.6238861083984375
20220209-1353,2022-02-09 13:54:01Z,u01, 30,40,movements,el-ex, lt, d,15657.508145875001, 0.7882721656239305, -0.3352165049482863, 0.22506783044880838, 0.3458537757396698, -0.8270333409309387, 0.053484637290239334, 0.6696649789810181, 0.3289736211299896, -0.6658267378807068, 0.018292903900146484, 0.06186509132385254, 0.04158979654312134, -0.19557837944255846, 0.35893692916300557, 0.9118253034558524,0.03857641335718742,0.68463134765625,0.385345458984375,-0.6223297119140625
20220209-1353,2022-02-09 13:54:01Z,u01, 31,40,movements,el-ex, lt, d,15657.533092875, 0.766615811943786, -0.32957669053547817, 0.22081342978255689, 0.1844799965620041, -0.8021726012229919, 0.031801044940948486, 0.6563662886619568, 0.3236425220966339, -0.6814975142478943, 0.02287876605987549, 0.04218703508377075, 0.06603431701660156, -0.19186198314541728, 0.3499146076715314, 0.9160582780723561,0.0398254095545591,0.678558349609375,0.364166259765625,-0.60772705078125
20220209-1353,2022-02-09 13:54:01Z,u01, 32,40,movements,el-ex, lt, d,15657.558038875, 0.7460881564739821, -0.3268168420089538, 0.21898684662421394, 0.11278766393661499, -0.7979768514633179, 0.01649472489953041, 0.6428433060646057, 0.32102999091148376, -0.6954798698425293, 0.04285627603530884, 0.0501248836517334, 0.05493128299713135, -0.1898808949667134, 0.34088898389967315, 0.9197936324598395,0.04146875964566671,0.68365478515625,0.378143310546875,-0.65142822265625
20220209-1353,2022-02-09 13:54:01Z,u01, 33,40,movements,el-ex, lt, d,15657.582985875, 0.7250678094888685, -0.32339674189962614, 0.2161868455331946, 0.2617354691028595, -0.8233886957168579, 0.006247681565582752, 0.6288076043128967, 0.3177890479564667, -0.7096556425094604, 0.05217701196670532, 0.0687619149684906, 0.0308074951171875, -0.1874126762928031, 0.3317358213942445, 0.9235782091436414,0.042792304340662335,0.6735076904296875,0.388214111328125,-0.6913299560546875
20220209-1353,2022-02-09 13:54:01Z,u01, 34,40,movements,el-ex, lt, d,15657.607931875002, 0.7028990800917645, -0.3175114750270812, 0.2107648580585285, 0.3016701340675354, -0.8201539516448975, -0.02027733623981476, 0.614120602607727, 0.31220340728759766, -0.7248344421386719, 0.0230255126953125, 0.05274111032485962, 0.040981411933898926, -0.1833593912910058, 0.3224315598929598, 0.9276498473415989,0.04339406119895045,0.6264190673828125,0.354644775390625,-0.67572021484375
20220209-1353,2022-02-09 13:54:01Z,u01, 35,40,movements,el-ex, lt, d,15657.632878875002, 0.6821214719383758, -0.31495442733890977, 0.20712068307779768, 0.04912107437849045, -0.7558251023292542, -0.06117689609527588, 0.5994301438331604, 0.30977314710617065, -0.7380543351173401, 0.004589080810546875, 0.03118455410003662, 0.08564960956573486, -0.1811519531568599, 0.31329986402971083, 0.9311755132113364,0.044039893539151276,0.6045684814453125,0.341522216796875,-0.6471099853515625
20220209-1353,2022-02-09 13:54:01Z,u01, 36,40,movements,el-ex, lt, d,15657.657824875001, 0.6635403543164728, -0.31530361960746894, 0.20567808082096845, 0.04811210185289383, -0.7149699330329895, -0.04217078536748886, 0.5855469107627869, 0.3101051449775696, -0.7489790916442871, 0.03229677677154541, 0.03997734189033508, 0.08001863956451416, -0.18067645583029268, 0.30473999831721715, 0.9340587614903597,0.04498870498082419,0.6205291748046875,0.349609375,-0.683563232421875
20220209-1353,2022-02-09 13:54:01Z,u01, 37,40,movements,el-ex, lt, d,15657.682771875001, 0.6446980785459191, -0.3128870858182206, 0.2028298635673504, 0.23968593776226044, -0.739453136920929, -0.015226785093545914, 0.5717800259590149, 0.3078068196773529, -0.7604752779006958, 0.04195910692214966, 0.04151272773742676, 0.059318721294403076, -0.17870294504336848, 0.2963572673157161, 0.937093779152518,0.045748846454823244,0.59490966796875,0.34234619140625,-0.705780029296875
20220209-1353,2022-02-09 13:54:01Z,u01, 38,40,movements,el-ex, lt, d,15657.707717875, 0.6249665394056817, -0.3074865982504365, 0.19788957856611958, 0.2725614011287689, -0.7153937220573425, -0.04253390431404114, 0.5576288104057312, 0.3026640713214874, -0.7729454636573792, -0.00907522439956665, 0.03534868359565735, 0.0727044939994812, -0.1750196357364876, 0.2879156280845937, 0.940400378386373,0.046042976153684634,0.5439453125,0.3352813720703125,-0.6917266845703125
20220209-1353,2022-02-09 13:54:01Z,u01, 39,40,movements,el-ex, lt, d,15657.732664875, 0.6069696619962601, -0.30600253167962, 0.19534149220004085, -0.09486216306686401, -0.6812666654586792, -0.04723891243338585, 0.5438842177391052, 0.30124929547309875, -0.7832233905792236, 0.006820797920227051, 0.021275818347930908, 0.11552935838699341, -0.17354890021923497, 0.2797661230564211, 0.9430992898008843,0.04664325128270713,0.56256103515625,0.3166351318359375,-0.6491851806640625
20220209-1353,2022-02-09 13:54:01Z,u01, 40,40,movements,el-ex, lt, d,15657.757610875002, 0.5909923595816508, -0.31181965046829446, 0.1976814849066638, -0.28183913230895996, -0.6673879027366638, -0.05323588475584984, 0.530316174030304, 0.3067910373210907, -0.7903442978858948, 0.039416611194610596, 0.030428260564804077, 0.15000927448272705, -0.17621221976952228, 0.27161940850046257, 0.9449039219346802,0.04825905221794702,0.568267822265625,0.34368896484375,-0.652923583984375
20220209-1353,2022-02-09 13:54:01Z,u01, 41,40,movements,el-ex, lt, d,15657.782557875002, 0.5757535289073495, -0.3168259722592078, 0.19931697850764876, -0.11208745092153549, -0.6145192384719849, -0.07435888051986694, 0.5173683762550354, 0.3115520775318146, -0.7970353364944458, 0.03123098611831665, 0.04081922769546509, 0.12412279844284058, -0.17840330981903363, 0.26392156226354185, 0.9466012086444904,0.049638793422388916,0.5290069580078125,0.351226806640625,-0.68438720703125
20220209-1353,2022-02-09 13:54:01Z,u01, 42,40,movements,el-ex, lt, d,15657.807504875002, 0.5605661715781222, -0.3176208094231086, 0.19760185851427634, 0.14414654672145844, -0.5615090727806091, -0.07726898044347763, 0.5050724744796753, 0.3123072683811188, -0.8045905828475952, -0.012762844562530518, 0.0417729914188385, 0.09813928604125977, -0.17817458108016954, 0.25682393901729145, 0.9485720321706377,0.05006462508019305,0.4854583740234375,0.3546600341796875,-0.70648193359375
20220209-1353,2022-02-09 13:54:01Z,u01, 43,40,movements,el-ex, lt, d,15657.832450875001, 0.5466398782266814, -0.31425781202817393, 0.1928241594158306, 0.21147629618644714, -0.44780683517456055, -0.09271005541086197, 0.49436208605766296, 0.30911073088645935, -0.8124387264251709, -0.01691451668739319, 0.042421311140060425, 0.13304126262664795, -0.17563881660711667, 0.25086179159031224, 0.9506674904511676,0.049504369588837305,0.484161376953125,0.3364105224609375,-0.6568450927734375
20220209-1353,2022-02-09 13:54:01Z,u01, 44,40,movements,el-ex, lt, d,15657.857397875001, 0.5356189409058207, -0.3132684650382518, 0.18906944378892573, 0.02210523560643196, -0.3598209321498871, -0.11333264410495758, 0.48553428053855896, 0.3081696629524231, -0.8181002736091614, 0.002167254686355591, 0.0022857189178466797, 0.17979466915130615, -0.17443476429304786, 0.24601298835048493, 0.9521906151863326,0.048819822023118686,0.487762451171875,0.31109619140625,-0.636505126953125
20220209-1353,2022-02-09 13:54:01Z,u01, 45,40,movements,el-ex, lt, d,15657.882343875, 0.5269547299939231, -0.314296377393034, 0.18623718005307044, 0.05402735248208046, -0.28821834921836853, -0.09573501348495483, 0.4782683849334717, 0.3091473877429962, -0.8220019936561584, 0.010257095098495483, 0.01641419529914856, 0.195750892162323, -0.17436498183295926, 0.24206578931125866, 0.9532517423902676,0.048086209933248525,0.489959716796875,0.3208770751953125,-0.6282958984375
20220209-1353,2022-02-09 13:54:01Z,u01, 46,40,movements,el-ex, lt, d,15657.907290875, 0.5203995541710074, -0.3149930097101957, 0.18423297061662808, -0.02272838167846203, -0.1961890459060669, -0.0636632889509201, 0.4727625548839569, 0.3098098337650299, -0.8249323964118958, -0.008727431297302246, -0.0005751252174377441, 0.22195088863372803, -0.17429665017149065, 0.23907002933983892, 0.954043878059949,0.04760839179631354,0.4637908935546875,0.3057403564453125,-0.5998077392578125
20220209-1353,2022-02-09 13:54:01Z,u01, 47,40,movements,el-ex, lt, d,15657.932236875002, 0.5171861984230001, -0.3167757862183842, 0.1836336185826758, -0.02724909782409668, -0.0953255444765091, -0.051870547235012054, 0.469835489988327, 0.31150439381599426, -0.8259658813476562, 0.0028361082077026367, -0.0083884596824646, 0.2178117036819458, -0.17499288559068044, 0.23747534130748824, 0.9543267785046979,0.04736576112245389,0.4720001220703125,0.306121826171875,-0.6165924072265625
20220209-1353,2022-02-09 13:54:01Z,u01, 48,40,movements,el-ex, lt, d,15657.957183875002, 0.5174911145729312, -0.31870647152233217, 0.1829646062854628, 0.010306199081242085, 0.027216751128435135, -0.059494778513908386, 0.46978893876075745, 0.31333842873573303, -0.8252984285354614, -0.029176026582717896, -0.01171785593032837, 0.2251550555229187, -0.17583463079765888, 0.23755625637409106, 0.9541816678762582,0.04676350807293961,0.4410858154296875,0.2974853515625,-0.59906005859375
20220209-1353,2022-02-09 13:54:01Z,u01, 49,40,movements,el-ex, lt, d,15657.982129875001, 0.5197086660054456, -0.31965371952180544, 0.18196454536736273, -0.04779495298862457, 0.10615890473127365, -0.04192730411887169, 0.47147029638290405, 0.3142378330230713, -0.8239966034889221, 0.008479773998260498, -0.028303325176239014, 0.2055732011795044, -0.1762153201094974, 0.2386416872127345, 0.9538793137717695,0.04596526581785748,0.5094757080078125,0.276519775390625,-0.6281280517578125
20220209-1353,2022-02-09 13:54:01Z,u01, 50,40,movements,el-ex, lt, d,15658.007076875001, 0.5224749374633031, -0.3243499794843648, 0.18301551934778465, -0.3040425479412079, 0.07481835782527924, -0.07689055055379868, 0.4730062186717987, 0.31869271397590637, -0.8214012980461121, 0.019105076789855957, -0.02860778570175171, 0.19539427757263184, -0.17862568344817242, 0.23956672479147684, 0.953216671601465,0.04559321180498932,0.47845458984375,0.2886505126953125,-0.6263275146484375
20220209-1353,2022-02-09 13:54:01Z,u01, 51,40,movements,el-ex, lt, d,15658.032022875, 0.5262291324121926, -0.33401991179303026, 0.18580913720611797, -0.4597568213939667, 0.17485667765140533, -0.11598588526248932, 0.47451648116111755, 0.32784339785575867, -0.8169167041778564, -0.02914285659790039, -0.02507844567298889, 0.20023280382156372, -0.18361438217851295, 0.2404732977063267, 0.9520546774610723,0.04528248312883365,0.44598388671875,0.298187255859375,-0.59844970703125
20220209-1353,2022-02-09 13:54:01Z,u01, 52,40,movements,el-ex, lt, d,15658.056969875, 0.5339909832578659, -0.34525019932030604, 0.19001775820252162, -0.4128112196922302, 0.3209139406681061, -0.06708924472332001, 0.4789386987686157, 0.3384321331977844, -0.8099885582923889, -0.003718852996826172, -0.02544376254081726, 0.1854006052017212, -0.18959258228403797, 0.24302338368202167, 0.9502456226106863,0.045030480934986794,0.473052978515625,0.32208251953125,-0.6233062744140625
20220209-1353,2022-02-09 13:54:01Z,u01, 53,40,movements,el-ex, lt, d,15658.081915875, 0.5451737304767663, -0.3512040296241226, 0.19224495273544331, -0.051854174584150314, 0.5110783576965332, -0.04172976315021515, 0.48691293597221375, 0.3440285921096802, -0.8028450608253479, -0.035893529653549194, -0.0032387077808380127, 0.16768276691436768, -0.19291511909917394, 0.24771197811776274, 0.9484037578955078,0.04419297115571824,0.449798583984375,0.350738525390625,-0.6509552001953125
20220209-1353,2022-02-09 13:54:01Z,u01, 54,40,movements,el-ex, lt, d,15658.106862875002, 0.5585230828124428, -0.3492381331808693, 0.189675978833699, 0.24061886966228485, 0.5935879349708557, -0.04476384073495865, 0.4979441463947296, 0.3421820402145386, -0.7968457937240601, -0.0055123865604400635, 0.007564753293991089, 0.12683236598968506, -0.19195755865408856, 0.25441975767706054, 0.9469221899118857,0.04196944590453311,0.506591796875,0.3459320068359375,-0.6680908203125
20220209-1353,2022-02-09 13:54:01Z,u01, 55,40,movements,el-ex, lt, d,15658.131808875001, 0.5716714740551494, -0.34535356924380295, 0.18581973575392993, 0.12470627576112747, 0.5668818354606628, -0.0240132175385952, 0.5090933442115784, 0.3385293781757355, -0.7913418412208557, 0.02566629648208618, -0.01856774091720581, 0.11562168598175049, -0.1899076697605101, 0.2612741240257757, 0.9455763757551277,0.039450942261403055,0.5356292724609375,0.3149566650390625,-0.6743927001953125
20220209-1353,2022-02-09 13:54:01Z,u01, 56,40,movements,el-ex, lt, d,15658.156755875001, 0.5860362103620511, -0.3455115638408278, 0.18544437969476027, -0.055569350719451904, 0.602433443069458, -0.0016959290951490402, 0.5203782916069031, 0.3386780619621277, -0.7839028835296631, 0.008262574672698975, -0.014169275760650635, 0.10429173707962036, -0.19020962389204032, 0.26808368398488525, 0.9436717377249604,0.037885258758148466,0.529022216796875,0.3358001708984375,-0.68023681640625
20220209-1353,2022-02-09 13:54:01Z,u01, 57,40,movements,el-ex, lt, d,15658.181701875, 0.6018574823961825, -0.34504345430370154, 0.18491885806472066, 0.10594604164361954, 0.6655990481376648, -0.006683763582259417, 0.5328046679496765, 0.33823758363723755, -0.7757026553153992, 0.008714616298675537, 0.022373497486114502, 0.07762837409973145, -0.1902127914027886, 0.27562251193381637, 0.9415629403558117,0.036203609578137674,0.5484619140625,0.3522186279296875,-0.6966400146484375
20220209-1353,2022-02-09 13:54:01Z,u01, 58,40,movements,el-ex, lt, d,15658.206648875, 0.6181476768956101, -0.34379751351913695, 0.18365173399112802, -0.0025349631905555725, 0.6659353375434875, -0.007795500103384256, 0.5456135869026184, 0.33706480264663696, -0.7672634720802307, 0.0036266446113586426, -0.0087871253490448, 0.07878696918487549, -0.1897426054077581, 0.28348898312163684, 0.9393927132343703,0.034253252290268266,0.551544189453125,0.3253326416015625,-0.6862030029296875
20220209-1353,2022-02-09 13:54:01Z,u01, 59,40,movements,el-ex, lt, d,15658.231595875, 0.635625028007977, -0.34521074745899455, 0.18504127417571756, -0.12252765148878098, 0.6813079714775085, 0.04042269289493561, 0.5586559176445007, 0.33839499950408936, -0.757226824760437, 0.016493678092956543, -0.0012519657611846924, 0.07096284627914429, -0.19089226923907035, 0.29145622132328813, 0.936762213372916,0.03301753212316322,0.5994110107421875,0.3379364013671875,-0.7003326416015625
20220209-1353,2022-02-09 13:54:01Z,u01, 60,40,movements,el-ex, lt, d,15658.256541875002, 0.6533847127203479, -0.3477484032537191, 0.18857999012938223, -0.19613692164421082, 0.6395338177680969, 0.05195145308971405, 0.5714914202690125, 0.3407818377017975, -0.7465021014213562, 0.0374564528465271, 0.009117543697357178, 0.05596566200256348, -0.19287988216601923, 0.2992428650642472, 0.9339118852499466,0.03255512416310147,0.6049652099609375,0.352996826171875,-0.6965484619140625
20220209-1353,2022-02-09 13:54:01Z,u01, 61,40,movements,el-ex, lt, d,15658.281488875002, 0.6711059986821285, -0.3513956400662554, 0.1930247440406896, -0.2249826192855835, 0.6829109787940979, 0.02695222571492195, 0.5838531255722046, 0.3442085087299347, -0.7352795600891113, -0.0023863911628723145, 0.015151292085647583, 0.028950393199920654, -0.1955214169521455, 0.30680870507550034, 0.9309118072370757,0.032296821462531655,0.5795745849609375,0.3659210205078125,-0.7045440673828125
20220209-1353,2022-02-09 13:54:01Z,u01, 62,40,movements,el-ex, lt, d,15658.306434875001, 0.6901071487496514, -0.3547367663964554, 0.19669132792787875, -0.14251300692558289, 0.6957754492759705, 0.0313185453414917, 0.5969825983047485, 0.3473435342311859, -0.7231627106666565, 0.050234317779541016, 0.02854156494140625, 0.006777942180633545, -0.19792818716155963, 0.3150286732597789, 0.9276775334269055,0.03155828894194729,0.6568450927734375,0.3772430419921875,-0.718994140625
20220209-1353,2022-02-09 13:54:01Z,u01, 63,40,movements,el-ex, lt, d,15658.331381875001, 0.7077344262093309, -0.3563506486985963, 0.1994444816961203, -0.09307454526424408, 0.6548693776130676, 0.03185397386550903, 0.6092713475227356, 0.34885647892951965, -0.7121009230613708, 0.03547358512878418, 0.022252589464187622, -0.019405364990234375, -0.19937973007903914, 0.3227960199949649, 0.92471733541115,0.030798562282798092,0.61676025390625,0.3712310791015625,-0.732666015625
20220209-1353,2022-02-09 13:54:01Z,u01, 64,40,movements,el-ex, lt, d,15658.356327875, 0.7255594690554692, -0.3576748498128439, 0.20092989449796395, -0.0778232291340828, 0.7062544226646423, -0.008346574380993843, 0.6215600371360779, 0.3500971794128418, -0.7007818222045898, -3.892183303833008e-05, 0.027207016944885254, -0.012429118156433105, -0.20049402781961742, 0.3307736879765864, 0.9216956786258663,0.029463915154726572,0.63616943359375,0.3740997314453125,-0.7109222412109375
20220209-1353,2022-02-09 13:54:01Z,u01, 65,40,movements,el-ex, lt, d,15658.381274875, 0.7430986746902065, -0.3595583502379179, 0.20285431039536297, -0.11347699165344238, 0.6403414011001587, 0.005517775192856789, 0.6333077549934387, 0.3518608510494232, -0.6892861723899841, 0.032051920890808105, 0.017996996641159058, -0.023146629333496094, -0.20192344056734485, 0.338502347840071, 0.9186108949134972,0.02823803835699923,0.65496826171875,0.37353515625,-0.7057952880859375
20220209-1353,2022-02-09 13:54:01Z,u01, 66,40,movements,el-ex, lt, d,15658.406220875, 0.7602588242354377, -0.361025993988493, 0.2038297771684343, 0.0166311077773571, 0.700599193572998, -0.02126370370388031, 0.6446855664253235, 0.35323426127433777, -0.6779425740242004, 0.002760171890258789, 0.04837709665298462, -0.05081707239151001, -0.2029891810008787, 0.3461561693664716, 0.9155654508593725,0.026672195198257587,0.655914306640625,0.3978729248046875,-0.7314605712890625
20220209-1353,2022-02-09 13:54:01Z,u01, 67,40,movements,el-ex, lt, d,15658.431167875002, 0.7770626979514574, -0.3605698374387382, 0.20277610809105945, 0.020626980811357498, 0.6724910736083984, -0.032034993171691895, 0.6560990214347839, 0.35280749201774597, -0.6671289801597595, 0.021315038204193115, 0.02330651879310608, -0.04280132055282593, -0.20281465384743558, 0.3539798316212369, 0.9126668801121455,0.02457336277522365,0.6865081787109375,0.369415283203125,-0.6878662109375
20220209-1353,2022-02-09 13:54:02Z,u01, 68,40,movements,el-ex, lt, d,15658.456113875001, 0.793418832477411, -0.36172551238866973, 0.20282896009564408, -0.07828155159950256, 0.6230514049530029, -0.036243986338377, 0.6666313409805298, 0.353888601064682, -0.6560225486755371, 0.048807621002197266, 0.00856870412826538, -0.00805509090423584, -0.20353592250989883, 0.36133342205932917, 0.90966794296059,0.022709770652530936,0.7164459228515625,0.3604888916015625,-0.658660888671875
20220209-1353,2022-02-09 13:54:02Z,u01, 69,40,movements,el-ex, lt, d,15658.481060875001, 0.8091145336446034, -0.3654102415996434, 0.20467166476599866, -0.2204018086194992, 0.5972920060157776, -0.08111345767974854, 0.6758973002433777, 0.3573324680328369, -0.6445746421813965, 0.029180943965911865, -0.0019246935844421387, -0.0015434026718139648, -0.2056909091428446, 0.36797274272130875, 0.9065526640875625,0.02120646539388643,0.7042236328125,0.3691253662109375,-0.641448974609375
20220209-1353,2022-02-09 13:54:02Z,u01, 70,40,movements,el-ex, lt, d,15658.506007250002, 0.8254613180285142, -0.37099777272064016, 0.20829706681610285, -0.28688228130340576, 0.5885571837425232, -0.06121638044714928, 0.6848653554916382, 0.3625454902648926, -0.6320762634277344, 0.04601550102233887, 0.009753763675689697, 0.0036431550979614258, -0.20901840903559873, 0.3745306033150704, 0.9031266056926294,0.02001795023808839,0.7342529296875,0.3669586181640625,-0.6209716796875
20220209-1353,2022-02-09 13:54:02Z,u01, 71,40,movements,el-ex, lt, d,15658.530954250002, 0.8419378497899703, -0.3782492754695581, 0.21425713599750423, -0.412244588136673, 0.5421653985977173, -0.06081743538379669, 0.6932069659233093, 0.36929407715797424, -0.6189394593238831, 0.04086291790008545, -0.00373917818069458, 0.022092103958129883, -0.2135167279467529, 0.380710996659618, 0.8994948961232456,0.019464040094546498,0.7222137451171875,0.366912841796875,-0.59747314453125
20220209-1353,2022-02-09 13:54:02Z,u01, 72,40,movements,el-ex, lt, d,15658.555900250001, 0.8579438863946863, -0.3856157655496365, 0.22091318524814824, -0.3205908238887787, 0.5519760251045227, -0.04769577831029892, 0.7009474635124207, 0.37612974643707275, -0.6059695482254028, -0.02071058750152588, 0.005858808755874634, 0.008664429187774658, -0.21819195301651367, 0.38653265790039476, 0.8958890778518118,0.019172790195698286,0.6800384521484375,0.38201904296875,-0.5966339111328125
20220209-1353,2022-02-09 13:54:02Z,u01, 73,40,movements,el-ex, lt, d,15658.580847250001, 0.8745726993082712, -0.3902494273674791, 0.226479029166151, -0.25022339820861816, 0.5865578055381775, 0.02820843830704689, 0.7095817923545837, 0.3804191052913666, -0.5931062698364258, -0.0039084553718566895, 0.0025154948234558105, 0.008862674236297607, -0.2214642687571336, 0.3929382236436223, 0.8922993915442292,0.018839810820721004,0.734588623046875,0.3822174072265625,-0.5847930908203125
20220209-1353,2022-02-09 13:54:02Z,u01, 74,40,movements,el-ex, lt, d,15658.605794250001, 0.891545883802751, -0.39384060656478176, 0.23249888539873947, -0.2816399931907654, 0.5749003887176514, 0.02795284241437912, 0.7184783816337585, 0.38373780250549316, -0.580115556716919, 0.02857661247253418, 0.01352471113204956, 0.0035011768341064453, -0.22438151764458894, 0.39949361897130464, 0.8886521665333766,0.018844392741857563,0.7450103759765625,0.397796630859375,-0.571563720703125
20220209-1353,2022-02-09 13:54:02Z,u01, 75,40,movements,el-ex, lt, d,15658.63074025, 0.9083535343507838, -0.39941725343636364, 0.24052605366078125, -0.5208920240402222, 0.4948587417602539, -0.004049897193908691, 0.726428210735321, 0.38888153433799744, -0.5666332840919495, -0.00044542551040649414, 0.007129848003387451, 0.013288676738739014, -0.2285733401800547, 0.4055090565882564, 0.8848421702508308,0.01926113539403207,0.7144317626953125,0.39447021484375,-0.5366363525390625
20220209-1353,2022-02-09 13:54:02Z,u01, 76,40,movements,el-ex, lt, d,15658.65568725, 0.9260530638196948, -0.41183779236446755, 0.2582602935302351, -1.1456094980239868, 0.40979209542274475, -0.00043438980355858803, 0.7324259281158447, 0.40029412508010864, -0.5507422685623169, -0.052417874336242676, -0.00934860110282898, 0.07001423835754395, -0.23771597712499515, 0.4100243515451031, 0.8802715158393066,0.0222121874515655,0.680419921875,0.406005859375,-0.4781494140625
20220209-1353,2022-02-09 13:54:02Z,u01, 77,40,movements,el-ex, lt, d,15658.680633250002, 0.9489876645975952, -0.4295081577886524, 0.2861762494589484, -1.220623254776001, 0.47181224822998047, 0.03978673368692398, 0.7389978766441345, 0.4164236783981323, -0.5295976400375366, 0.033570051193237305, 0.04942721128463745, -0.017155170440673828, -0.25128244930892424, 0.4147991123804003, 0.8740934706490991,0.027561549044240963,0.8313140869140625,0.5121917724609375,-0.5652618408203125
20220209-1353,2022-02-09 13:54:02Z,u01, 78,40,movements,el-ex, lt, d,15658.705580250002, 0.9705822213189954, -0.4448573788412196, 0.31032094902163304, -0.8595296144485474, 0.4565524756908417, -0.06168649345636368, 0.7448983192443848, 0.4303291440010071, -0.5098465085029602, 0.07671129703521729, 0.13154533505439758, -0.039820730686187744, -0.26309553238403194, 0.41935364294168886, 0.8682862030529622,0.03166217536252436,0.800140380859375,0.562286376953125,-0.5435943603515625
20220209-1353,2022-02-09 13:54:02Z,u01, 79,40,movements,el-ex, lt, d,15658.730526250001, 0.9877060822630243, -0.4562409187472343, 0.3209096685735596, -0.27252036333084106, 0.535653293132782, -0.2254798263311386, 0.7493812441825867, 0.4405766427516937, -0.4942874610424042, -0.005332052707672119, 0.10719868540763855, -0.0334223210811615, -0.2703387716126615, 0.4239967150246386, 0.8638111588956692,0.03121091526695241,0.7330169677734375,0.5236053466796875,-0.5076751708984375
20220209-1353,2022-02-09 13:54:02Z,u01, 80,40,movements,el-ex, lt, d,15658.755473250001, 1.0011145382376914, -0.4606918711082506, 0.31903029589287574, 0.16510596871376038, 0.5979655981063843, -0.10830719769001007, 0.7542824745178223, 0.4445679485797882, -0.4831327795982361, 0.02440410852432251, 0.014691144227981567, -0.0077117979526519775, -0.271976666154965, 0.4294907525605924, 0.8607035385442324,0.027491400322949222,0.79827880859375,0.4429168701171875,-0.50347900390625
20220209-1353,2022-02-09 13:54:02Z,u01, 81,40,movements,el-ex, lt, d,15658.78041925, 1.0137798936593545, -0.4586373639742387, 0.31302302864256554, 0.24215205013751984, 0.6226443648338318, 0.013384953141212463, 0.7611145377159119, 0.4427267014980316, -0.47402289509773254, 0.06257015466690063, -0.02683308720588684, -0.03552889823913574, -0.26999162546120936, 0.43599664896238355, 0.8581664238926647,0.023702927169493404,0.80877685546875,0.407806396484375,-0.4952239990234375
20220209-1353,2022-02-09 13:54:02Z,u01, 82,40,movements,el-ex, lt, d,15658.80536625, 1.0279492786640632, -0.455205286693887, 0.3087069643764337, 0.13632795214653015, 0.6737819910049438, 0.03775487467646599, 0.7690511345863342, 0.4396466910839081, -0.46397340297698975, -0.014763295650482178, -0.04590880870819092, 0.002486705780029297, -0.2677893118813469, 0.44306002553703705, 0.8553092507213456,0.020808293175690162,0.7481231689453125,0.3914337158203125,-0.4480743408203125
20220209-1353,2022-02-09 13:54:02Z,u01, 83,40,movements,el-ex, lt, d,15658.83031225, 1.0455327113020694, -0.4542365268028487, 0.3092484495175549, -0.1209181621670723, 0.7000553011894226, 0.06239110976457596, 0.777458131313324, 0.4387763738632202, -0.45059311389923096, -0.0120466947555542, -0.05726081132888794, 0.03788876533508301, -0.26768828710118725, 0.450606721940478, 0.851433047132852,0.018931053990013047,0.79345703125,0.38299560546875,-0.4075164794921875
20220209-1353,2022-02-09 13:54:02Z,u01, 84,40,movements,el-ex, lt, d,15658.855259250002, 1.065468406155882, -0.45436813902574863, 0.31434722756377675, -0.08827599883079529, 0.703205406665802, 0.12217096239328384, 0.7862354516983032, 0.438894659280777, -0.4349775016307831, 0.05923891067504883, -0.016165077686309814, -0.02180945873260498, -0.26908652989605186, 0.4583706871503054, 0.8468475606430695,0.01838674825130654,0.846649169921875,0.4378509521484375,-0.4692230224609375
20220209-1353,2022-02-09 13:54:02Z,u01, 85,40,movements,el-ex, lt, d,15658.880205250001, 1.0827427503011047, -0.4494937689952319, 0.3133762404556224, 0.33779728412628174, 0.7257506847381592, 0.16566677391529083, 0.7955118417739868, 0.43450963497161865, -0.42232972383499146, 0.022252559661865234, 0.026168525218963623, -0.0682860016822815, -0.26704246110646745, 0.46639410753796634, 0.843135919154568,0.01693475259038124,0.786590576171875,0.45379638671875,-0.4921417236328125
20220209-1353,2022-02-09 13:54:02Z,u01, 86,40,movements,el-ex, lt, d,15658.905152250001, 1.0977923161089, -0.44117574470788895, 0.30410090155567726, 0.5015432238578796, 0.7712423801422119, 0.11642478406429291, 0.8049671053886414, 0.4270029366016388, -0.41194257140159607, -0.031224310398101807, 0.003874838352203369, -0.05462527275085449, -0.26161915214593223, 0.47495697613065846, 0.8401167550691145,0.01324155614604522,0.7830810546875,0.424774169921875,-0.4537811279296875
20220209-1353,2022-02-09 13:54:02Z,u01, 87,40,movements,el-ex, lt, d,15658.93009825, 1.113429218922084, -0.43469994241672044, 0.2966793494585776, 0.15640534460544586, 0.7154875993728638, 0.10730326175689697, 0.8137739300727844, 0.4211382567882538, -0.4005182385444641, 0.0033954381942749023, -0.02331104874610901, -0.0029392242431640625, -0.2573271780635214, 0.48324280112913454, 0.8367572438361146,0.009832005124721321,0.8413848876953125,0.38616943359375,-0.3899993896484375
20220209-1353,2022-02-09 13:54:02Z,u01, 88,40,movements,el-ex, lt, d,15658.95504525, 1.1315743328318004, -0.43277662360029007, 0.2992890451264748, -0.1777224838733673, 0.6429471969604492, 0.11856217682361603, 0.8216385841369629, 0.41939306259155273, -0.38603082299232483, 0.05249178409576416, -0.01825466752052307, -0.017976045608520508, -0.25727861579657163, 0.49070592259867296, 0.8324258122651302,0.009106954976680404,0.8785247802734375,0.411285400390625,-0.414337158203125
20220209-1353,2022-02-09 13:54:02Z,u01, 89,40,movements,el-ex, lt, d,15658.97999225, 1.1491946569584166, -0.43120363487008395, 0.30426077993383177, -0.057694654911756516, 0.5999362468719482, 0.1532132923603058, 0.8289135694503784, 0.4179645776748657, -0.37176358699798584, 0.04764294624328613, 0.02516600489616394, -0.05632162094116211, -0.2579625736304375, 0.4975676010340382, 0.8281273175849775,0.00933254615798923,0.8674468994140625,0.4466705322265625,-0.4202880859375
20220209-1353,2022-02-09 13:54:02Z,u01, 90,40,movements,el-ex, lt, d,15659.00493825, 1.165020415603069, -0.4280114931902569, 0.30638912092641185, -0.011755059473216534, 0.5824471712112427, 0.13600806891918182, 0.8359146118164062, 0.41506248712539673, -0.35912424325942993, 0.005607724189758301, 0.023444652557373047, -0.023291409015655518, -0.25730622763037214, 0.5042136293137747, 0.8243059465183119,0.009059267383777325,0.837677001953125,0.434661865234375,-0.3709869384765625
20220209-1353,2022-02-09 13:54:02Z,u01, 91,40,movements,el-ex, lt, d,15659.029885250002, 1.1810994204649357, -0.4262427500757067, 0.30926823471537135, -0.12537840008735657, 0.6233930587768555, 0.08121652901172638, 0.8422583937644958, 0.4134526550769806, -0.3459160625934601, -0.002612888813018799, 0.02661094069480896, 0.013289868831634521, -0.25741258387821353, 0.5106669399020399, 0.8202944892180704,0.008670613684634565,0.8617706298828125,0.43798828125,-0.322357177734375
20220209-1353,2022-02-09 13:54:02Z,u01, 92,40,movements,el-ex, lt, d,15659.054831250001, 1.1988694579382624, -0.4263432177548085, 0.3144275717561904, -0.20374733209609985, 0.6059621572494507, 0.04961659386754036, 0.8482333421707153, 0.4135441184043884, -0.33088019490242004, 0.05700969696044922, 0.035888344049453735, -0.012335658073425293, -0.25885380435124217, 0.5172568175567034, 0.8157013636840553,0.008458728136454041,0.9031829833984375,0.4573516845703125,-0.35107421875
20220209-1353,2022-02-09 13:54:02Z,u01, 93,40,movements,el-ex, lt, d,15659.079778250001, 1.2156259693418754, -0.42613040034394883, 0.31758948120576, 0.040806353092193604, 0.6312923431396484, 0.0338490828871727, 0.8537408709526062, 0.41335034370422363, -0.3166515529155731, 0.029895663261413574, 0.05816158652305603, -0.04662954807281494, -0.2596615316254506, 0.5236889403484831, 0.8113369662750095,0.007633961164869307,0.8716583251953125,0.4651641845703125,-0.3604888916015625
20220209-1353,2022-02-09 13:54:02Z,u01, 94,40,movements,el-ex, lt, d,15659.10472425, 1.230287405876836, -0.42527066755783904, 0.3149645865847351, 0.08252932876348495, 0.5852580666542053, -0.01748141646385193, 0.8586262464523315, 0.4125673472881317, -0.30421948432922363, 0.025132417678833008, 0.02447497844696045, -0.03101593255996704, -0.2586845037533598, 0.530068466047225, 0.8075182649903186,0.004921598217904943,0.8956451416015625,0.4319000244140625,-0.330352783203125
20220209-1353,2022-02-09 13:54:02Z,u01, 95,40,movements,el-ex, lt, d,15659.12967125, 1.244038183653425, -0.42569352370145713, 0.3175954566017788, -0.26615482568740845, 0.4671970009803772, 0.028314901515841484, 0.8625628352165222, 0.4129525125026703, -0.2923282980918884, 0.07284688949584961, 0.008312255144119263, -0.047713667154312134, -0.2595782920868806, 0.5352148716449339, 0.8038331524772349,0.004075712791097863,0.9300537109375,0.427581787109375,-0.3382415771484375
20220209-1353,2022-02-09 13:54:02Z,u01, 96,40,movements,el-ex, lt, d,15659.15461725, 1.258825867154386, -0.42775730925792, 0.3226661474603686, -0.04736165702342987, 0.5602201223373413, -0.04164474457502365, 0.8659783005714417, 0.4148312211036682, -0.27927932143211365, -0.010997653007507324, 0.03461652994155884, -0.021303445100784302, -0.2617564652149297, 0.5402257727518638, 0.7997669498935527,0.0035699082559559336,0.8345489501953125,0.446136474609375,-0.28582763671875
20220209-1353,2022-02-09 13:54:02Z,u01, 97,40,movements,el-ex, lt, d,15659.17956425, 1.2729467063422866, -0.4277870647736481, 0.3188519644646955, 0.298112690448761, 0.6589885950088501, -0.03991548717021942, 0.8698235750198364, 0.41485831141471863, -0.2670198976993561, -0.05497366189956665, 0.028501123189926147, -0.016930729150772095, -0.2607449380325122, 0.5463534852381746, 0.7959334014911488,0.00019484627292215562,0.8326263427734375,0.45440673828125,-0.29833984375
20220209-1353,2022-02-09 13:54:02Z,u01, 98,40,movements,el-ex, lt, d,15659.204510250001, 1.2853892562239053, -0.4259770104602874, 0.30882666423840405, 0.3929044306278229, 0.6386783123016357, -0.043190110474824905, 0.8737976551055908, 0.4132106900215149, -0.2563876807689667, -0.009738147258758545, 0.024823427200317383, -0.0310724675655365, -0.257292473350892, 0.5528171010861223, 0.7925719712481553,-0.004852485198785228,0.87353515625,0.4358978271484375,-0.28631591796875
20220209-1353,2022-02-09 13:54:02Z,u01, 99,40,movements,el-ex, lt, d,15659.229457250001, 1.2971792223236527, -0.42506938228039426, 0.3006507576845426, 0.17191952466964722, 0.5680822730064392, -0.053982969373464584, 0.8771204352378845, 0.4123840034008026, -0.2461692988872528, 0.025436997413635254, 0.0034180283546447754, -0.042450517416000366, -0.2546374506086954, 0.5586368433639703, 0.7893021329706863,-0.009319314524384281,0.910919189453125,0.3969879150390625,-0.28619384765625
20220209-1353,2022-02-09 13:54:02Z,u01, 100,40,movements,el-ex, lt, d,15659.25440325, 1.3101719281347701, -0.4264241578009802, 0.29863400387355976, -0.007238838355988264, 0.5405442118644714, -0.07396213710308075, 0.8797041773796082, 0.4136178195476532, -0.2346085160970688, 0.016856610774993896, 0.0055106282234191895, -0.044337257742881775, -0.25450914438121763, 0.5638446934869596, 0.7855928060507706,-0.012181297831049487,0.89013671875,0.424835205078125,-0.275146484375
20220209-1353,2022-02-09 13:54:02Z,u01, 101,40,movements,el-ex, lt, d,15659.27935025, 1.3239642254003445, -0.42839171578796986, 0.29909065975919397, -0.046702757477760315, 0.534062385559082, -0.07105503231287003, 0.8820652961730957, 0.4154084026813507, -0.2222541719675064, -0.011093497276306152, 0.007870525121688843, -0.03272002935409546, -0.25527981731257265, 0.5689509038668419, 0.7816142627591017,-0.014366526300790494,0.86822509765625,0.4257354736328125,-0.252532958984375
20220209-1353,2022-02-09 13:54:02Z,u01, 102,40,movements,el-ex, lt, d,15659.30429625, 1.3379591437075171, -0.43021095314798247, 0.2995906682886092, -0.015635386109352112, 0.5551562309265137, -0.06227591633796692, 0.8843525052070618, 0.41706255078315735, -0.2097136527299881, 0.0001690983772277832, 0.012472450733184814, -0.03262627124786377, -0.255988069340214, 0.5741195680307508, 0.7775499596152531,-0.016525753031381207,0.8936309814453125,0.431121826171875,-0.23529052734375
20220209-1353,2022-02-09 13:54:02Z,u01, 103,40,movements,el-ex, lt, d,15659.32924325, 1.351818094045416, -0.4318033253502451, 0.29975745711448093, -0.01358102262020111, 0.5446588397026062, -0.0541578084230423, 0.886524498462677, 0.41850927472114563, -0.19729319214820862, 0.02759915590286255, 0.015221863985061646, -0.019228875637054443, -0.2564998023356666, 0.5792764946653334, 0.773495786077977,-0.018735657685561846,0.9143829345703125,0.43060302734375,-0.2072296142578125
20220209-1353,2022-02-09 13:54:02Z,u01, 104,40,movements,el-ex, lt, d,15659.354189250002, 1.3659440536199052, -0.4333113285346745, 0.3000763519764529, -0.027626533061265945, 0.5574824810028076, -0.06283251941204071, 0.888603925704956, 0.41987839341163635, -0.18462230265140533, 0.006629288196563721, 0.015088677406311035, -0.007790848612785339, -0.25700388515896555, 0.5844979459916636, 0.7693336986107966,-0.020902465779632506,0.8928375244140625,0.4325103759765625,-0.1978912353515625
20220209-1353,2022-02-09 13:54:02Z,u01, 105,40,movements,el-ex, lt, d,15659.379136250001, 1.37967674709446, -0.43527764804217595, 0.29992416961014357, 0.015446101315319538, 0.5071296095848083, -0.08750111609697342, 0.8902431726455688, 0.42166218161582947, -0.17224520444869995, 0.012360095977783203, 0.007415026426315308, -0.03165781497955322, -0.2575215183480758, 0.5895422507045971, 0.7652302818553945,-0.023353413297068526,0.91204833984375,0.44000244140625,-0.2095794677734375
20220209-1353,2022-02-09 13:54:02Z,u01, 106,40,movements,el-ex, lt, d,15659.404083250001, 1.3911060282570327, -0.43691066852267935, 0.2984285893343032, 0.044851064682006836, 0.45795151591300964, -0.05760859698057175, 0.8914749622344971, 0.42314237356185913, -0.16193605959415436, 0.00880897045135498, 0.01008528470993042, -0.03674846887588501, -0.25752802972196304, 0.5938950105869414, 0.7617718842817328,-0.02591967745361451,0.8954620361328125,0.4286956787109375,-0.191558837890625
20220209-1353,2022-02-09 13:54:02Z,u01, 107,40,movements,el-ex, lt, d,15659.42902925, 1.4026492093722707, -0.43824600137117703, 0.2987520903665274, -0.08121992647647858, 0.4491127133369446, -0.041953470557928085, 0.8927268981933594, 0.42435187101364136, -0.1515403389930725, -0.0006064176559448242, -0.00011166930198669434, -0.030878305435180664, -0.25794938477414525, 0.5980735268789574, 0.7582890029890276,-0.027715249384430762,0.88922119140625,0.4267730712890625,-0.174774169921875
20220209-1353,2022-02-09 13:54:03Z,u01, 108,40,movements,el-ex, lt, d,15659.45397625, 1.4155080755225895, -0.4398955056609481, 0.3014036547202479, -0.09709548950195312, 0.4768635332584381, -0.05361878126859665, 0.8939088582992554, 0.4258449077606201, -0.13994021713733673, -0.014590561389923096, 0.021786987781524658, -0.03732095658779144, -0.2591521690955446, 0.6023869581011265, 0.7544099451454579,-0.028910796873898137,0.8827667236328125,0.4463043212890625,-0.1798858642578125
20220209-1353,2022-02-09 13:54:03Z,u01, 109,40,movements,el-ex, lt, d,15659.47892225, 1.4281058730156755, -0.44173145070671976, 0.3023182930636523, 0.010312625207006931, 0.4822618067264557, -0.083564892411232, 0.8948253989219666, 0.42750534415245056, -0.1285567283630371, 0.004268288612365723, 0.023880213499069214, -0.04832296073436737, -0.25989198046761675, 0.6067765629072889, 0.7505529061235062,-0.030802109517995502,0.9112091064453125,0.45941162109375,-0.170562744140625
20220209-1353,2022-02-09 13:54:03Z,u01, 110,40,movements,el-ex, lt, d,15659.503869625001, 1.4392859127914979, -0.443635002483576, 0.3007638127095759, 0.07456745207309723, 0.4443657398223877, -0.07879716902971268, 0.8953983783721924, 0.4292254149913788, -0.11843778938055038, 0.029467403888702393, 0.02837046980857849, -0.03561478108167648, -0.2599105875640769, 0.6109235559738617, 0.7470603561418862,-0.03346378260207544,0.92230224609375,0.4566192626953125,-0.152984619140625
20220209-1353,2022-02-09 13:54:03Z,u01, 111,40,movements,el-ex, lt, d,15659.528815625, 1.4492216925600676, -0.44518208128681286, 0.29817359108335495, 0.09507894515991211, 0.4402918219566345, -0.0740075409412384, 0.8958706259727478, 0.4306222200393677, -0.10945494472980499, 0.009143412113189697, 0.0171927809715271, -0.04015731066465378, -0.2594868159180594, 0.6147675345773246, 0.7439185436072737,-0.03623167360355123,0.89501953125,0.44775390625,-0.1460113525390625
20220209-1353,2022-02-09 13:54:03Z,u01, 112,40,movements,el-ex, lt, d,15659.553762625, 1.4589359518849605, -0.4468457582276904, 0.29449956611250044, 0.16510164737701416, 0.44329625368118286, -0.08546140044927597, 0.8961784839630127, 0.4321231544017792, -0.1006670892238617, -0.00018233060836791992, 0.0127011239528656, -0.05489610880613327, -0.25875164109675397, 0.6186388644488495, 0.7407973313738019,-0.03940756032804277,0.8980560302734375,0.4449920654296875,-0.156646728515625
20220209-1353,2022-02-09 13:54:03Z,u01, 113,40,movements,el-ex, lt, d,15659.578708625, 1.467459452857837, -0.44851582286529834, 0.28943233727314804, 0.17818692326545715, 0.4048558473587036, -0.07190383970737457, 0.8962849974632263, 0.4336286187171936, -0.09295038133859634, 0.010682225227355957, 0.01009705662727356, -0.05733323097229004, -0.25758559949628157, 0.6222334504757476, 0.7379916093612788,-0.042939358413315254,0.9161529541015625,0.4346923828125,-0.1430206298828125
20220209-1353,2022-02-09 13:54:03Z,u01, 114,40,movements,el-ex, lt, d,15659.603655625, 1.4750393599635727, -0.450023957614514, 0.2851782114488818, 0.10869695246219635, 0.33746784925460815, -0.08051164448261261, 0.8963116407394409, 0.4349870979785919, -0.08609137684106827, 0.023900151252746582, -0.009541571140289307, -0.0529618114233017, -0.2566135030248331, 0.6253829396267869, 0.7354800475316458,-0.045986930648733215,0.9188232421875,0.4290008544921875,-0.1423797607421875
20220209-1353,2022-02-09 13:54:03Z,u01, 115,40,movements,el-ex, lt, d,15659.628601625001, 1.4821941909791563, -0.4516998758951929, 0.28306031218713, 0.045187052339315414, 0.313449501991272, -0.07730952650308609, 0.8961774110794067, 0.4364955425262451, -0.07961166650056839, 0.018831253051757812, -0.0009943842887878418, -0.07509702444076538, -0.2563608376829918, 0.6280710846893324, 0.7331291074415249,-0.04824642505869464,0.9137725830078125,0.43438720703125,-0.154510498046875
20220209-1353,2022-02-09 13:54:03Z,u01, 116,40,movements,el-ex, lt, d,15659.653548625001, 1.489265447650971, -0.4538321620067518, 0.2823337251012979, 0.024860206991434097, 0.2689288854598999, -0.0911577045917511, 0.8957882523536682, 0.43841299414634705, -0.0731966644525528, 0.022439956665039062, 0.0007350444793701172, -0.07105976343154907, -0.25669307727054247, 0.6304842050486579, 0.7308108426814794,-0.050139894291528264,0.9154510498046875,0.444061279296875,-0.1402435302734375
20220209-1353,2022-02-09 13:54:03Z,u01, 117,40,movements,el-ex, lt, d,15659.678494625, 1.4945639472101002, -0.45603143730598833, 0.27994285280938896, 0.15374422073364258, 0.24025346338748932, -0.08963397145271301, 0.8952000141143799, 0.44038859009742737, -0.06837572902441025, 0.012835383415222168, 0.007716357707977295, -0.07395803928375244, -0.2565577899463356, 0.6324478122477702, 0.728998190147845,-0.052437726441483035,0.90582275390625,0.43609619140625,-0.1432952880859375
20220209-1353,2022-02-09 13:54:03Z,u01, 118,40,movements,el-ex, lt, d,15659.703441625, 1.4983297614106585, -0.4583386431776098, 0.27500841211075194, 0.17388242483139038, 0.20400764048099518, -0.10888589918613434, 0.8944352865219116, 0.442458838224411, -0.06493034958839417, 0.027134597301483154, -0.017669349908828735, -0.061900489032268524, -0.2556846487665768, 0.6341610084352203, 0.7275884914276163,-0.0555004291951085,0.9239654541015625,0.4210662841796875,-0.120025634765625
20220209-1353,2022-02-09 13:54:03Z,u01, 119,40,movements,el-ex, lt, d,15659.728387625, 1.5008141184698505, -0.4605645373417142, 0.270431440475905, 0.1398649513721466, 0.15289364755153656, -0.10413049161434174, 0.8936092257499695, 0.4444538950920105, -0.0626390352845192, 0.021201133728027344, -0.03216129541397095, -0.044401176273822784, -0.25492360602031616, 0.6353695271098962, 0.7265865362245245,-0.05823837021762113,0.8929595947265625,0.4167327880859375,-0.1140594482421875
20220209-1353,2022-02-09 13:54:03Z,u01, 120,40,movements,el-ex, lt, d,15659.753334625, 1.5033668855308964, -0.46258877764622963, 0.2669602341251097, 0.09945522248744965, 0.1691056340932846, -0.07461867481470108, 0.8928666710853577, 0.4462662935256958, -0.0602969154715538, -0.02807474136352539, -0.013740599155426025, -0.06958574056625366, -0.2544366753129955, 0.6364852873553559, 0.7255941122459398,-0.06051262446206662,0.8628387451171875,0.436859130859375,-0.1314239501953125
20220209-1353,2022-02-09 13:54:03Z,u01, 121,40,movements,el-ex, lt, d,15659.778281625, 1.5069849862220162, -0.46392222536104566, 0.26491386205563283, 0.053696416318416595, 0.1837613433599472, -0.03395852819085121, 0.8924844861030579, 0.4474591910839081, -0.05702805891633034, -0.028943657875061035, -0.00660213828086853, -0.07041317969560623, -0.2541293397265637, 0.6378904687433942, 0.7243268170681657,-0.06216883252240585,0.8715972900390625,0.4454498291015625,-0.1220703125
20220209-1353,2022-02-09 13:54:03Z,u01, 122,40,movements,el-ex, lt, d,15659.803227625001, 1.5070491052102204, -0.4605249617023157, 0.2612993096443983, 0.12495022267103195, 0.12675638496875763, 0.03164152055978775, 0.8939997553825378, 0.44441843032836914, -0.057067323476076126, 0.007657289505004883, 0.02828359603881836, -0.06446873396635056, -0.25181318731422186, 0.6387929685121643, 0.724326570878299,-0.06232729382000207,0.9070587158203125,0.4716949462890625,-0.123748779296875
20220209-1353,2022-02-09 13:54:03Z,u01, 123,40,movements,el-ex, lt, d,15659.828174625001, 1.503714715019133, -0.4576446510116127, 0.25635438270515676, 0.04921784996986389, 0.043257635086774826, 0.03902953118085861, 0.8950780034065247, 0.4418363571166992, -0.06013350188732147, 0.017183959484100342, 0.0064820945262908936, -0.06723140180110931, -0.24935225877001774, 0.6385582987391183, 0.7253502200113863,-0.06272013829840778,0.9093017578125,0.4447784423828125,-0.1273040771484375
20220209-1353,2022-02-09 13:54:03Z,u01, 124,40,movements,el-ex, lt, d,15659.853120625, 1.4985680220789332, -0.45805510638396896, 0.2552554459979076, -0.13593026995658875, -0.04826528951525688, 0.012285599485039711, 0.8945758938789368, 0.4422045350074768, -0.06472630053758621, 0.03122079372406006, 0.011408895254135132, -0.055589087307453156, -0.24930404863576042, 0.6367765244939074, 0.7269404912914736,-0.06261704332754131,0.926910400390625,0.455291748046875,-0.12078857421875
20220209-1353,2022-02-09 13:54:03Z,u01, 125,40,movements,el-ex, lt, d,15659.878067625, 1.4957424549263199, -0.4594327864921013, 0.2583842695816615, -0.1602274626493454, -0.0942513570189476, -0.014181094244122505, 0.8937809467315674, 0.443439781665802, -0.06720796972513199, 0.027911007404327393, 0.01775723695755005, -0.057578206062316895, -0.25086051148631994, 0.6351889645443172, 0.7278807256407913,-0.061593261685513157,0.9215850830078125,0.4511871337890625,-0.1269073486328125
20220209-1353,2022-02-09 13:54:03Z,u01, 126,40,movements,el-ex, lt, d,15659.903013625, 1.4914693235502907, -0.4610054421425062, 0.26065224077797705, -0.09621721506118774, -0.12257414311170578, -0.01997113972902298, 0.8927892446517944, 0.44484880566596985, -0.07097122818231583, 0.037523865699768066, 0.0031492412090301514, -0.06802087277173996, -0.2522517323815747, 0.6331535753717833, 0.7292417738302541,-0.060762359090706874,0.9311065673828125,0.4515380859375,-0.1447601318359375
20220209-1353,2022-02-09 13:54:03Z,u01, 127,40,movements,el-ex, lt, d,15659.927960625, 1.486972545370387, -0.46077955605520854, 0.2609736533590826, 0.011651262640953064, -0.17799519002437592, 0.0050453972071409225, 0.8925612568855286, 0.4446465075016022, -0.07499358803033829, 0.03599715232849121, -0.0013938546180725098, -0.0790284276008606, -0.25241120888505597, 0.6314996337868948, 0.730682363338869,-0.060001347437475094,0.919677734375,0.433258056640625,-0.1513671875
20220209-1353,2022-02-09 13:54:03Z,u01, 128,40,movements,el-ex, lt, d,15659.952906625002, 1.4811635676582848, -0.4607746926792326, 0.2614041815744463, -0.08904841542243958, -0.2451571226119995, -0.00801867339760065, 0.8921128511428833, 0.4446421265602112, -0.08017736673355103, 0.01981353759765625, -0.02732938528060913, -0.08264899253845215, -0.25271819685983427, 0.6293209272032501, 0.732526490869451,-0.05910862639681219,0.9160308837890625,0.41546630859375,-0.1668853759765625
20220209-1353,2022-02-09 13:54:03Z,u01, 129,40,movements,el-ex, lt, d,15659.977853625001, 1.4752382138833575, -0.46102264465240106, 0.265163389037068, -0.1935594081878662, -0.33149126172065735, -0.003574988804757595, 0.8915122747421265, 0.4448642134666443, -0.08545148372650146, 0.042295217514038086, -0.01754176616668701, -0.09007024765014648, -0.2541565789970291, 0.6266407986593914, 0.7344860608750768,-0.05706242635871184,0.9405059814453125,0.4262542724609375,-0.1806793212890625
20220209-1353,2022-02-09 13:54:03Z,u01, 130,40,movements,el-ex, lt, d,15660.002799625001, 1.4678810419779107, -0.4609906389073705, 0.2703005613523511, -0.18345627188682556, -0.3743550479412079, -0.004465483129024506, 0.8908735513687134, 0.4448355436325073, -0.09200958162546158, 0.032054364681243896, -0.024654239416122437, -0.07573007792234421, -0.25595543137323606, 0.6232832647190486, 0.7369292075465754,-0.05422373009004744,0.9149627685546875,0.4261016845703125,-0.16668701171875
20220209-1353,2022-02-09 13:54:03Z,u01, 131,40,movements,el-ex, lt, d,15660.027746625, 1.4600286323721459, -0.46111860640116686, 0.27301121382842125, 0.008946090936660767, -0.34603384137153625, 0.009786488488316536, 0.8900671005249023, 0.4449501633644104, -0.09899589419364929, 0.008248448371887207, -0.005695343017578125, -0.07368767261505127, -0.25705158810829126, 0.6200213991759381, 0.7394370392984855,-0.05225886448021433,0.8974151611328125,0.4398651123046875,-0.17681884765625
20220209-1353,2022-02-09 13:54:03Z,u01, 132,40,movements,el-ex, lt, d,15660.052692625, 1.451733507376284, -0.46060319489084106, 0.2718941691201022, 0.0879259929060936, -0.37365779280662537, 0.04054706543684006, 0.8894428610801697, 0.444488525390625, -0.10640283674001694, 0.025291085243225098, -0.018875062465667725, -0.07716017216444016, -0.2567408853699442, 0.6171569477548062, 0.7419945518356468,-0.05143573634898152,0.9173126220703125,0.423583984375,-0.188720703125
20220209-1353,2022-02-09 13:54:03Z,u01, 133,40,movements,el-ex, lt, d,15660.077639625, 1.4411695355779703, -0.45898632934792905, 0.2696134940278938, 0.0984749123454094, -0.44075876474380493, 0.07312018424272537, 0.8889807462692261, 0.44303956627845764, -0.11588552594184875, 0.028759241104125977, -0.017899125814437866, -0.07942676544189453, -0.25573973992271937, 0.6137217780679665, 0.7452538033356741,-0.05039543278780334,0.920501708984375,0.427032470703125,-0.1942901611328125
20220209-1353,2022-02-09 13:54:03Z,u01, 134,40,movements,el-ex, lt, d,15660.102585625002, 1.429793271812235, -0.457093527108439, 0.2693615857729018, -0.06077197194099426, -0.5010862350463867, 0.08122718334197998, 0.8884335160255432, 0.4413418769836426, -0.12610870599746704, 0.029825210571289062, -0.01972624659538269, -0.06201671063899994, -0.2552746891666974, 0.6097380421237741, 0.7488060808512308,-0.048413744957588656,0.918731689453125,0.4244232177734375,-0.1838531494140625
20220209-1353,2022-02-09 13:54:03Z,u01, 135,40,movements,el-ex, lt, d,15660.127532625002, 1.4186740263109057, -0.4554724583209396, 0.2726576406736766, -0.0903012678027153, -0.527793824672699, 0.09284515678882599, 0.8876825571060181, 0.4398866593837738, -0.13608768582344055, 0.033261895179748535, 0.006188929080963135, -0.045110300183296204, -0.2559602207942062, 0.6053433126524057, 0.7523288698847138,-0.045225682025375524,0.925048828125,0.458648681640625,-0.182861328125
20220209-1353,2022-02-09 13:54:03Z,u01, 136,40,movements,el-ex, lt, d,15660.152478625001, 1.4064395503335707, -0.4530196264201503, 0.27379554575748183, 0.04520855471491814, -0.518049418926239, 0.11454419791698456, 0.8870128989219666, 0.437682569026947, -0.147113636136055, 0.028178870677947998, 0.020950913429260254, -0.026912689208984375, -0.2556952935765214, 0.6008852597855605, 0.7561457064678705,-0.0424346937850561,0.9068603515625,0.4557342529296875,-0.1684417724609375
20220209-1353,2022-02-09 13:54:03Z,u01, 137,40,movements,el-ex, lt, d,15660.177425625001, 1.3933996796447818, -0.4498807405968383, 0.2722905185522536, 0.12787894904613495, -0.48760393261909485, 0.1240151971578598, 0.8863672018051147, 0.43485814332962036, -0.15890900790691376, 0.0056923627853393555, 0.028887152671813965, -0.0004993826150894165, -0.254386272584303, 0.5965174946304408, 0.760150179827189,-0.040329582087965665,0.884765625,0.4648284912109375,-0.1644439697265625
20220209-1353,2022-02-09 13:54:03Z,u01, 138,40,movements,el-ex, lt, d,15660.202372625, 1.3802262136680004, -0.4465053640722261, 0.26868332974332265, 0.1614692509174347, -0.47345560789108276, 0.08493490517139435, 0.885633111000061, 0.4318161606788635, -0.17084845900535583, -0.0032477378845214844, 0.029624968767166138, -0.021961450576782227, -0.2523536157511452, 0.5923625763774076, 0.7641381026943863,-0.038954286837148855,0.8902130126953125,0.4653472900390625,-0.1978912353515625
20220209-1353,2022-02-09 13:54:03Z,u01, 139,40,movements,el-ex, lt, d,15660.227318625, 1.366153004994638, -0.4436444397397153, 0.2647635618931906, 0.17228904366493225, -0.5386036038398743, 0.08629025518894196, 0.8843470215797424, 0.42923393845558167, -0.18354511260986328, 0.031622886657714844, 0.03760877251625061, -0.022890806198120117, -0.2504242189443784, 0.5878053692005152, 0.768339460839918,-0.03777808576761221,0.9263458251953125,0.460357666015625,-0.2093658447265625
20220209-1353,2022-02-09 13:54:03Z,u01, 140,40,movements,el-ex, lt, d,15660.252265625, 1.3512026657307408, -0.441583930063083, 0.2613902892125997, 0.11163488775491714, -0.5486003756523132, 0.027023201808333397, 0.8823654651641846, 0.4273719787597656, -0.19693762063980103, 0.05841517448425293, 0.05112844705581665, -0.014106497168540955, -0.2489583594922059, 0.5827099814187341, 0.7727432225971211,-0.03656211912085833,0.9467010498046875,0.4896392822265625,-0.207183837890625
20220209-1353,2022-02-09 13:54:03Z,u01, 141,40,movements,el-ex, lt, d,15660.277211625002, 1.3351449248295724, -0.4404005671511625, 0.25767057405299726, 0.23510326445102692, -0.6173043847084045, 0.008257968351244926, 0.8795806765556335, 0.42630183696746826, -0.2111983597278595, 0.081662118434906, 0.07961863279342651, -0.017454445362091064, -0.24773190195247283, 0.5770872749939562, 0.7773860454100483,-0.03564036091390571,0.952301025390625,0.4935302734375,-0.2479248046875
20220209-1353,2022-02-09 13:54:03Z,u01, 142,40,movements,el-ex, lt, d,15660.302158625002, 1.3166533483667289, -0.43936669812348866, 0.24959266157011983, 0.3264605402946472, -0.6017220616340637, -0.06910965591669083, 0.8759511709213257, 0.4253664016723633, -0.22753682732582092, 0.04163616895675659, 0.04574880003929138, -0.016313672065734863, -0.24535976069267457, 0.5709905171104255, 0.7825973423216026,-0.0361920244401126,0.9151611328125,0.473236083984375,-0.24310302734375
20220209-1353,2022-02-09 13:54:03Z,u01, 143,40,movements,el-ex, lt, d,15660.327104625001, 1.2972464357005689, -0.43838357723615773, 0.2398571392929526, 0.3697369396686554, -0.6377553939819336, -0.02721593528985977, 0.8717730641365051, 0.4244764447212219, -0.24460531771183014, 0.053825199604034424, 0.04370909929275513, -0.016747117042541504, -0.24258226852085402, 0.5646690945612005, 0.7879771593064799,-0.037347425933779765,0.92181396484375,0.459014892578125,-0.2657318115234375
20220209-1353,2022-02-09 13:54:03Z,u01, 144,40,movements,el-ex, lt, d,15660.352051625001, 1.2779626776184725, -0.43696688610266216, 0.23284560049490802, 0.09858103096485138, -0.6672869920730591, -0.01479954645037651, 0.8674691915512085, 0.4231933057308197, -0.2615431845188141, 0.021279096603393555, -0.005575418472290039, -0.0004500746726989746, -0.24043610744222338, 0.5580491833293204, 0.7933320020284427,-0.03736407063106151,0.8786773681640625,0.41546630859375,-0.265716552734375
20220209-1353,2022-02-09 13:54:03Z,u01, 145,40,movements,el-ex, lt, d,15660.376997625, 1.2615815902127723, -0.4370374146709446, 0.2323905122923475, 0.023133281618356705, -0.6370723247528076, 0.005706260912120342, 0.8630402684211731, 0.4232572019100189, -0.27570846676826477, 0.0019806623458862305, 0.00652197003364563, -0.007250368595123291, -0.24063565405979895, 0.5515797777487792, 0.7978642393944315,-0.03559596558535322,0.863128662109375,0.4503631591796875,-0.2994232177734375
20220209-1353,2022-02-09 13:54:03Z,u01, 146,40,movements,el-ex, lt, d,15660.401944625, 1.244162050836792, -0.4353465836788315, 0.2288021532415062, 0.27579212188720703, -0.6491293907165527, 0.03383956104516983, 0.8587834239006042, 0.42172467708587646, -0.29092884063720703, 0.004818379878997803, 0.021177023649215698, -0.04473382234573364, -0.23930482551464038, 0.5452236036344759, 0.8026694422544104,-0.034443979044794626,0.864959716796875,0.4362030029296875,-0.3424224853515625
20220209-1353,2022-02-09 13:54:03Z,u01, 147,40,movements,el-ex, lt, d,15660.426890625002, 1.2238645232011938, -0.4316796728034488, 0.21996769688543247, 0.401033490896225, -0.6972694993019104, 0.04201992601156235, 0.8541504144668579, 0.4183969795703888, -0.3088226616382599, 0.02106332778930664, 0.011809438467025757, -0.044097721576690674, -0.23583553012798877, 0.5384888817628152, 0.8082200274451236,-0.03452530098170725,0.878021240234375,0.44171142578125,-0.356903076171875
20220209-1353,2022-02-09 13:54:04Z,u01, 148,40,movements,el-ex, lt, d,15660.451837625002, 1.2021358055571552, -0.426700103158712, 0.21079023261157923, 0.35280486941337585, -0.7388507723808289, 0.09014484286308289, 0.8491717576980591, 0.41386905312538147, -0.3280545473098755, 0.023066401481628418, 0.010523706674575806, -0.0352722704410553, -0.2318000775699976, 0.5312640088689045, 0.8141572582860783,-0.03428202653609158,0.870330810546875,0.417144775390625,-0.3640899658203125
20220209-1353,2022-02-09 13:54:04Z,u01, 149,40,movements,el-ex, lt, d,15660.476783625001, 1.181315605347573, -0.4220611592451383, 0.20504754218277335, 0.17663179337978363, -0.7522295117378235, 0.10005839169025421, 0.8439251780509949, 0.4096415936946869, -0.34638741612434387, 0.016701161861419678, 0.006770789623260498, -0.016069680452346802, -0.22879684566021016, 0.5238876755978575, 0.8198230977191787,-0.032922829997541925,0.8602447509765625,0.4176788330078125,-0.3740234375
20220209-1353,2022-02-09 13:54:04Z,u01, 150,40,movements,el-ex, lt, d,15660.501730000002, 1.1612166312506451, -0.4179276552746979, 0.2016696969210623, 0.21555516123771667, -0.7570803165435791, 0.10793456435203552, 0.8383392095565796, 0.405867338180542, -0.3639495372772217, 0.014245748519897461, 0.02884039282798767, -0.02556145191192627, -0.22658723835843542, 0.5164140399201361, 0.8252403002797035,-0.03087590583178157,0.851898193359375,0.4345703125,-0.3945770263671875
20220209-1353,2022-02-09 13:54:04Z,u01, 151,40,movements,el-ex, lt, d,15660.526676000001, 1.1399707848212084, -0.4125404034167303, 0.1961195555886061, 0.3353627026081085, -0.7793282866477966, 0.11140286177396774, 0.8323927521705627, 0.40093788504600525, -0.3825848400592804, 0.02133655548095703, 0.01820582151412964, -0.03155377507209778, -0.22331380645647916, 0.50876175527343, 0.830923173221541,-0.0293110305848997,0.858306884765625,0.4131011962890625,-0.4274749755859375
20220209-1353,2022-02-09 13:54:04Z,u01, 152,40,movements,el-ex, lt, d,15660.551623000001, 1.1167624468122082, -0.40592056934849274, 0.18802811179930898, 0.44986680150032043, -0.8495328426361084, 0.14263860881328583, 0.8256574273109436, 0.39486467838287354, -0.4029538035392761, 0.04731327295303345, 0.04553455114364624, -0.04304516315460205, -0.21891486894950107, 0.5005990154455877, 0.8370626099910972,-0.028339835655032508,0.87200927734375,0.434783935546875,-0.4497833251953125
20220209-1353,2022-02-09 13:54:04Z,u01, 153,40,movements,el-ex, lt, d,15660.576569, 1.09187144363159, -0.3976276554285552, 0.17915827580646007, 0.3301669955253601, -0.8593144416809082, 0.13281600177288055, 0.8182508945465088, 0.3872321844100952, -0.4248727560043335, 0.037294209003448486, 0.011419028043746948, -0.025917500257492065, -0.21365459298175263, 0.4918488890584495, 0.8436215619704133,-0.027188158976193644,0.84320068359375,0.387237548828125,-0.435333251953125
20220209-1353,2022-02-09 13:54:04Z,u01, 154,40,movements,el-ex, lt, d,15660.601516, 1.069836447543703, -0.3932272255470767, 0.17716446269825206, 0.02594691328704357, -0.8614795804023743, 0.12092845141887665, 0.8101776838302612, 0.38317131996154785, -0.44361239671707153, 0.040728747844696045, -0.003074824810028076, 0.014169186353683472, -0.21163080884637142, 0.48312131602920744, 0.8492370473684111,-0.02455063873319846,0.8575439453125,0.3826751708984375,-0.4384918212890625
20220209-1353,2022-02-09 13:54:04Z,u01, 155,40,movements,el-ex, lt, d,15660.626463, 1.0483965262447785, -0.39050447878018146, 0.1781001243880444, 0.042252346873283386, -0.8964962959289551, 0.11798826605081558, 0.8013824224472046, 0.3806549608707428, -0.4613981544971466, 0.05954909324645996, 0.013159215450286865, 0.00938713550567627, -0.21096388599050997, 0.47412568728693966, 0.8545467303948682,-0.02119476570099449,0.8470001220703125,0.390350341796875,-0.461151123046875
20220209-1353,2022-02-09 13:54:04Z,u01, 156,40,movements,el-ex, lt, d,15660.651409, 1.0259505247847587, -0.38682748444936965, 0.17798217509702738, 0.12538625299930573, -0.8940246105194092, 0.13308705389499664, 0.7920164465904236, 0.3772522211074829, -0.4799903631210327, 0.03082907199859619, 0.014456242322921753, 0.009256869554519653, -0.20961109058404442, 0.46483116790475243, 0.8600420790180964,-0.017967278543318088,0.819732666015625,0.3888702392578125,-0.470428466796875
20220209-1353,2022-02-09 13:54:04Z,u01, 157,40,movements,el-ex, lt, d,15660.676356000002, 1.003690549426438, -0.38252868695789394, 0.1772360052486794, 0.06713981926441193, -0.8658303022384644, 0.1220465824007988, 0.782497227191925, 0.37326759099960327, -0.4983668625354767, 0.040699303150177, 0.011147141456604004, 0.021346688270568848, -0.20780333789531183, 0.45566910713000996, 0.8654254494961039,-0.014913221853711855,0.8268585205078125,0.376312255859375,-0.4798583984375
20220209-1353,2022-02-09 13:54:04Z,u01, 158,40,movements,el-ex, lt, d,15660.701302000001, 0.9833012152033691, -0.3806736427913702, 0.17880600923134388, -0.041735097765922546, -0.8361868262290955, 0.07408738136291504, 0.7727488875389099, 0.3715459704399109, -0.514599621295929, 0.05296528339385986, 0.020376116037368774, 0.03802204132080078, -0.20750307857880548, 0.44681388783006404, 0.8701515228687869,-0.011668990239086297,0.8260345458984375,0.3962554931640625,-0.4847869873046875
20220209-1353,2022-02-09 13:54:04Z,u01, 159,40,movements,el-ex, lt, d,15660.726249000001, 0.9625671159103666, -0.3797756063643103, 0.1799069811255919, 0.02295844629406929, -0.8700281381607056, 0.020444992929697037, 0.7621873617172241, 0.3707120716571808, -0.5307006239891052, 0.05662989616394043, 0.01950100064277649, 0.012985289096832275, -0.20746810416205663, 0.4377289909467993, 0.874798612083289,-0.008825614315243258,0.80938720703125,0.4007415771484375,-0.52734375
20220209-1353,2022-02-09 13:54:04Z,u01, 160,40,movements,el-ex, lt, d,15660.751195, 0.9393866949260379, -0.3788333858406208, 0.17827737561813434, 0.11677777767181396, -0.9385024309158325, -0.022135423496365547, 0.7499634027481079, 0.36983683705329895, -0.5484302043914795, 0.041555821895599365, 0.027715742588043213, 0.012892663478851318, -0.20680068595646764, 0.4278064785896177, 0.8798677166273023,-0.006921738605837169,0.782379150390625,0.3961639404296875,-0.5295257568359375
20220209-1353,2022-02-09 13:54:04Z,u01, 161,40,movements,el-ex, lt, d,15660.776142, 0.9149695827352923, -0.37864216129167777, 0.17509337960148472, 0.08311968296766281, -0.9259037971496582, -0.08485420048236847, 0.736406147480011, 0.3696591556072235, -0.5666199326515198, 0.021055519580841064, 0.04418975114822388, 0.0734560489654541, -0.2061223662610898, 0.417377037882543, 0.8850292783200966,-0.005762766661137064,0.746246337890625,0.4336090087890625,-0.48858642578125
20220209-1353,2022-02-09 13:54:04Z,u01, 162,40,movements,el-ex, lt, d,15660.801088, 0.891224185208704, -0.37758239203007143, 0.17063012133942912, 0.2552335262298584, -0.8374893069267273, -0.0966796949505806, 0.7230495810508728, 0.36867424845695496, -0.5841907858848572, 0.002017676830291748, 0.021309971809387207, 0.04784446954727173, -0.20480354666816036, 0.4073820305959777, 0.8899831374649254,-0.0050699763703550005,0.7205047607421875,0.3873291015625,-0.5475921630859375
20220209-1353,2022-02-09 13:54:04Z,u01, 163,40,movements,el-ex, lt, d,15660.826035, 0.8678042258066659, -0.3734802206652131, 0.16096461496574946, 0.5169460773468018, -0.7605612874031067, -0.07539471238851547, 0.7103185653686523, 0.364857941865921, -0.6019354462623596, 0.017525792121887207, 0.03171807527542114, 0.01932448148727417, -0.20111878066641786, 0.3982254476223258, 0.8949471403129187,-0.0061228949186263315,0.7361602783203125,0.39910888671875,-0.5908355712890625
20220209-1353,2022-02-09 13:54:04Z,u01, 164,40,movements,el-ex, lt, d,15660.850981000001, 0.8448483559685048, -0.3655740322809532, 0.1491924506773865, 0.46297746896743774, -0.7477150559425354, -0.03240497410297394, 0.6984502673149109, 0.35748544335365295, -0.6199770569801331, 0.04634660482406616, 0.0005315840244293213, 0.029874026775360107, -0.19537677240964454, 0.38966575682272386, 0.8999627093018818,-0.007470291992860811,0.7425994873046875,0.3494415283203125,-0.5857086181640625
20220209-1353,2022-02-09 13:54:04Z,u01, 165,40,movements,el-ex, lt, d,15660.875928000001, 0.8237392669477164, -0.3610117031076011, 0.14322313244269394, 0.1558077037334442, -0.7843014597892761, 0.007237578742206097, 0.686397910118103, 0.3532209098339081, -0.6356830596923828, 0.05159348249435425, -0.005823999643325806, 0.03413593769073486, -0.19227033880761574, 0.38103884539093447, 0.9043174031108194,-0.007183093862056789,0.72821044921875,0.3585357666015625,-0.6172637939453125
20220209-1353,2022-02-09 13:54:04Z,u01, 166,40,movements,el-ex, lt, d,15660.900874, 0.8032957514929763, -0.3584514685990682, 0.14099138414208673, 0.13952234387397766, -0.7988498210906982, 0.0328340157866478, 0.6739084124565125, 0.3508245348930359, -0.6502074003219604, 0.0231894850730896, 0.027334064245224, 0.007766783237457275, -0.19076869024448828, 0.3721607316221155, 0.90833418837251,-0.005724810095057931,0.6934814453125,0.3749237060546875,-0.64776611328125
20220209-1353,2022-02-09 13:54:04Z,u01, 167,40,movements,el-ex, lt, d,15660.925821, 0.7827195958388151, -0.355170580703002, 0.13840969491125926, 0.1876460313796997, -0.8041202425956726, 0.026414670050144196, 0.6611960530281067, 0.34775030612945557, -0.6647477149963379, 0.028592824935913086, 0.02920287847518921, 0.0005327463150024414, -0.18886792977984074, 0.3632561801754207, 0.9123351057219169,-0.00430635372443422,0.69927978515625,0.3746185302734375,-0.666412353515625
20220209-1353,2022-02-09 13:54:04Z,u01, 168,40,movements,el-ex, lt, d,15660.950767, 0.7607759138061088, -0.3506432539339896, 0.1349911599295446, 0.22225870192050934, -0.8542582988739014, 0.0350688099861145, 0.6475299596786499, 0.3435019850730896, -0.6802289485931396, 0.03876471519470215, 0.022403836250305176, 0.0084761381149292, -0.1862452055331685, 0.3538336285674739, 0.9165729466460969,-0.0029496320140481314,0.6740570068359375,0.3662261962890625,-0.6616973876953125
20220209-1353,2022-02-09 13:54:04Z,u01, 169,40,movements,el-ex, lt, d,15660.975714, 0.7391661731242157, -0.34786207538867403, 0.1333750636475751, 0.012128202244639397, -0.840065598487854, 0.02924015000462532, 0.6333215236663818, 0.34088870882987976, -0.6947653889656067, 0.024927496910095215, 0.006401419639587402, 0.045839667320251465, -0.18471992051786207, 0.344232280263278, 0.9205333114518509,-0.0011722274374660335,0.6575469970703125,0.3373260498046875,-0.636199951171875
20220209-1353,2022-02-09 13:54:04Z,u01, 170,40,movements,el-ex, lt, d,15661.000661000002, 0.71867676678956, -0.3491220234646326, 0.13490169100141178, -0.12729960680007935, -0.8371385335922241, 0.005826967768371105, 0.6186709403991699, 0.3420729339122772, -0.707271158695221, 0.03327620029449463, 0.02192559838294983, 0.05616343021392822, -0.18555463901399677, 0.334565246026803, 0.9239232929279826,0.0012009286676839537,0.6456451416015625,0.3698577880859375,-0.6575164794921875
20220209-1353,2022-02-09 13:54:04Z,u01, 171,40,movements,el-ex, lt, d,15661.025607000001, 0.6989851346225389, -0.3506256112206015, 0.13667860337977922, -0.026214759796857834, -0.7971247434616089, 0.0034722676500678062, 0.6042929291725159, 0.34348541498184204, -0.7189213633537292, 0.038529396057128906, 0.029775172472000122, 0.04997611045837402, -0.18651377981258008, 0.3251952342299944, 0.9270641300297662,0.003590224228279315,0.6439361572265625,0.3677215576171875,-0.681793212890625
20220209-1353,2022-02-09 13:54:04Z,u01, 172,40,movements,el-ex, lt, d,15661.050554000001, 0.6794406408836872, -0.3501067947331616, 0.13623235275156764, 0.08752785623073578, -0.7675129175186157, -0.004399903118610382, 0.590239405632019, 0.34299811720848083, -0.7307324409484863, 0.04042172431945801, 0.021183490753173828, 0.042179644107818604, -0.18615998182376742, 0.31619335711034996, 0.9302357061488948,0.005292961828026743,0.6243133544921875,0.3639984130859375,-0.6944427490234375
20220209-1353,2022-02-09 13:54:04Z,u01, 173,40,movements,el-ex, lt, d,15661.0755, 0.6597811578138869, -0.3468076388543889, 0.13342192640482922, 0.26179933547973633, -0.7431265115737915, 0.00999754574149847, 0.5764508843421936, 0.3398972451686859, -0.7430843710899353, 0.03164243698120117, 0.02347564697265625, 0.03936433792114258, -0.18413992207973762, 0.30749034500052386, 0.9335427405407105,0.006354226612609426,0.60205078125,0.348388671875,-0.7259521484375
20220209-1353,2022-02-09 13:54:04Z,u01, 174,40,movements,el-ex, lt, d,15661.100447, 0.640003466802584, -0.34056765405029465, 0.1288329029250221, 0.3201198875904083, -0.7353247404098511, 0.029265515506267548, 0.5628982782363892, 0.33402219414711, -0.7560256719589233, 0.02403116226196289, 0.011909902095794678, 0.026136815547943115, -0.1804821477586992, 0.29902067831434964, 0.9369972003809742,0.007023489938111582,0.584991455078125,0.340545654296875,-0.727264404296875
20220209-1353,2022-02-09 13:54:04Z,u01, 175,40,movements,el-ex, lt, d,15661.125393, 0.621294308442685, -0.3354218204268894, 0.12641715561050887, 0.07539009302854538, -0.7059712409973145, 0.05969173461198807, 0.5496492385864258, 0.32916751503944397, -0.7678115367889404, 0.02939140796661377, -0.007191717624664307, 0.060780346393585205, -0.17765616643561133, 0.29074477816503125, 0.9401253813572105,0.008376126820774155,0.5818939208984375,0.3048553466796875,-0.7054443359375
20220209-1353,2022-02-09 13:54:04Z,u01, 176,40,movements,el-ex, lt, d,15661.15034, 0.6046358785174675, -0.3352370629054546, 0.1280882661173886, -0.04675961658358574, -0.6881738305091858, 0.052620042115449905, 0.5368176102638245, 0.3289930522441864, -0.7769108414649963, 0.04043769836425781, -0.009458690881729126, 0.05164545774459839, -0.17773008301704513, 0.28276595273264826, 0.9425187735308815,0.010671076884760322,0.572906494140625,0.3243408203125,-0.73516845703125
20220209-1353,2022-02-09 13:54:04Z,u01, 177,40,movements,el-ex, lt, d,15661.175286000002, 0.5879238952445917, -0.33322831227792116, 0.12808817330077757, 0.18183697760105133, -0.6572152972221375, 0.048510584980249405, 0.5241249799728394, 0.3270954489707947, -0.7863215804100037, 0.023604631423950195, 0.014350533485412598, 0.03775596618652344, -0.17669183115931802, 0.27498946429603777, 0.944989902749586,0.012452364473640787,0.535797119140625,0.334747314453125,-0.7489013671875
20220209-1353,2022-02-09 13:54:04Z,u01, 178,40,movements,el-ex, lt, d,15661.200233000001, 0.5710029801384686, -0.327264847064783, 0.12608835584163042, 0.23300395905971527, -0.645699143409729, 0.0850072130560875, 0.5117905139923096, 0.321454256772995, -0.7967042922973633, 0.01094520092010498, -0.012112736701965332, 0.07612329721450806, -0.17350529858535133, 0.2674766706444533, 0.9477131905706864,0.013855920877836547,0.5159912109375,0.2988739013671875,-0.707275390625
20220209-1353,2022-02-09 13:54:04Z,u01, 179,40,movements,el-ex, lt, d,15661.225179000001, 0.5560048376378115, -0.3251339633029691, 0.1271614699769907, -0.1283240169286728, -0.5914934277534485, 0.09104432910680771, 0.5001446604728699, 0.3194357454776764, -0.8048702478408813, 0.005852103233337402, -0.03165489435195923, 0.13969391584396362, -0.17253031678965863, 0.26038079654089397, 0.949831735119617,0.01596470824990942,0.5111846923828125,0.2918243408203125,-0.65411376953125
20220209-1353,2022-02-09 13:54:04Z,u01, 180,40,movements,el-ex, lt, d,15661.250126, 0.5440244613210975, -0.3281430927987674, 0.13191393209749855, -0.21498329937458038, -0.505132257938385, 0.08447238057851791, 0.48996663093566895, 0.3222857713699341, -0.8099781274795532, 0.026024669408798218, 0.013697624206542969, 0.17014670372009277, -0.1744588194315085, 0.25411620635833343, 0.9511224772509784,0.018845022267732103,0.513275146484375,0.3409423828125,-0.6434478759765625
20220209-1353,2022-02-09 13:54:04Z,u01, 181,40,movements,el-ex, lt, d,15661.275072, 0.5334779772210156, -0.33078327119503526, 0.13556317621602257, -0.08780844509601593, -0.44995924830436707, 0.030561741441488266, 0.48096275329589844, 0.32478395104408264, -0.8143649697303772, 0.008051007986068726, 0.0075678229331970215, 0.16292154788970947, -0.17606063258604657, 0.24863661533495096, 0.952226647095033,0.021145950402102986,0.4717254638671875,0.3450775146484375,-0.653045654296875
20220209-1353,2022-02-09 13:54:04Z,u01, 182,40,movements,el-ex, lt, d,15661.300019, 0.5239126090265616, -0.33016031761357395, 0.13601869550353027, 0.08058888465166092, -0.3483467400074005, 0.03607914596796036, 0.4732522666454315, 0.32419469952583313, -0.8191032409667969, -0.010254740715026855, 0.029473602771759033, 0.19613271951675415, -0.17571792755112223, 0.2440729334976916, 0.9534437114674323,0.02228763016583929,0.4680023193359375,0.350006103515625,-0.6132049560546875
20220209-1353,2022-02-09 13:54:04Z,u01, 183,40,movements,el-ex, lt, d,15661.324965000002, 0.5163532559727285, -0.3288326312732461, 0.13703492579953117, -0.07406164705753326, -0.2953242361545563, 0.05637596547603607, 0.467259019613266, 0.3229384422302246, -0.8230308890342712, 0.017375469207763672, -0.010590940713882446, 0.21747064590454102, -0.17512482296139897, 0.24044928728050613, 0.954441259382965,0.02361056187040894,0.4820098876953125,0.3094635009765625,-0.6046142578125
20220209-1353,2022-02-09 13:54:04Z,u01, 184,40,movements,el-ex, lt, d,15661.349912000001, 0.5113835319896929, -0.33215515258899236, 0.14019308232000768, -0.21146807074546814, -0.19821543991565704, 0.031521547585725784, 0.4626353979110718, 0.32608112692832947, -0.8244025707244873, -0.009861230850219727, 0.004409074783325195, 0.22407615184783936, -0.1770179556473625, 0.23762016917770226, 0.9547619439690951,0.02512176272675065,0.4471435546875,0.3335723876953125,-0.5973663330078125
20220209-1353,2022-02-09 13:54:04Z,u01, 185,40,movements,el-ex, lt, d,15661.374858000001, 0.5096484873957944, -0.3371060518309973, 0.14347473393533336, -0.24986478686332703, -0.06747327744960785, -0.015464471653103828, 0.46041104197502136, 0.33075740933418274, -0.8237847089767456, -0.0169142484664917, 0.002326756715774536, 0.24067014455795288, -0.179732929148829, 0.23622811428411192, 0.9545711365900098,0.02619992250430564,0.453155517578125,0.3379669189453125,-0.5744476318359375
20220209-1353,2022-02-09 13:54:04Z,u01, 186,40,movements,el-ex, lt, d,15661.399805000001, 0.5111059252200902, -0.34318259619037966, 0.1468702803114016, -0.20277045667171478, -0.018293343484401703, -0.01286216452717781, 0.46061956882476807, 0.3364858031272888, -0.8213446140289307, 0.0020575523376464844, 0.010880589485168457, 0.22400891780853271, -0.18303378719001517, 0.23627593149474763, 0.9539125120630062,0.02689786011841494,0.458160400390625,0.3516387939453125,-0.6063690185546875
20220209-1353,2022-02-09 13:54:04Z,u01, 187,40,movements,el-ex, lt, d,15661.424752, 0.512925692226195, -0.3466241790780308, 0.14848615865816334, -0.12076277285814285, 0.10310958325862885, -0.02268889546394348, 0.46154242753982544, 0.33972471952438354, -0.8194911479949951, -0.019953012466430664, 0.008328348398208618, 0.20718657970428467, -0.18487947947472036, 0.2367994847989479, 0.9534222306787568,0.027051802716793083,0.4445953369140625,0.3419189453125,-0.6097564697265625
20220209-1353,2022-02-09 13:54:04Z,u01, 188,40,movements,el-ex, lt, d,15661.449698, 0.5172993096997627, -0.34986047975714807, 0.14985984937129082, -0.13638676702976227, 0.18099500238895416, -0.016996189951896667, 0.46457597613334656, 0.34276673197746277, -0.8165048360824585, 0.0072106122970581055, -0.021218210458755493, 0.20958656072616577, -0.18663322317908324, 0.23856996793000618, 0.9526437682032249,0.02687515847926858,0.471527099609375,0.3187255859375,-0.6135406494140625
20220209-1353,2022-02-09 13:54:05Z,u01, 189,40,movements,el-ex, lt, d,15661.474645, 0.523557064942127, -0.3518694008279062, 0.1511192151635026, -0.033754102885723114, 0.2922360897064209, 0.021989094093441963, 0.46933114528656006, 0.34465327858924866, -0.8129836916923523, -0.016389131546020508, -0.021731436252593994, 0.18685460090637207, -0.18781763895112713, 0.24131450544707286, 0.9517264742354701,0.026622451079295728,0.438690185546875,0.3155364990234375,-0.6204986572265625
20220209-1353,2022-02-09 13:54:05Z,u01, 190,40,movements,el-ex, lt, d,15661.499590916668, 0.5335492992238542, -0.3521197532859179, 0.15217275371828093, -0.030212530866265297, 0.4428335130214691, 0.04641846939921379, 0.4773871898651123, 0.34488826990127563, -0.8081791996955872, -0.014557480812072754, -0.04384753108024597, 0.18072259426116943, -0.1881960093599908, 0.24595258398936318, 0.9504766278315341,0.026150452474139274,0.479400634765625,0.302825927734375,-0.6345367431640625
20220209-1353,2022-02-09 13:54:05Z,u01, 191,40,movements,el-ex, lt, d,15661.524537916668, 0.5458507608680285, -0.35278320934943663, 0.15418483290438256, -0.08293675631284714, 0.4776338040828705, 0.06295716762542725, 0.4871737062931061, 0.34551095962524414, -0.8020498752593994, 0.012490689754486084, -0.020758062601089478, 0.16505658626556396, -0.18891885760079752, 0.2515645364504525, 0.9488712710266861,0.025855007898944682,0.4969482421875,0.331634521484375,-0.6501312255859375
20220209-1353,2022-02-09 13:54:05Z,u01, 192,40,movements,el-ex, lt, d,15661.549483916668, 0.5597684553784703, -0.3543146233408516, 0.15736751953971437, -0.15684683620929718, 0.5485355854034424, 0.05794396623969078, 0.49800732731819153, 0.34694764018058777, -0.7947428226470947, -0.0053772032260894775, -0.008293986320495605, 0.137043297290802, -0.1902240703628411, 0.25776618086918157, 0.9469447828404909,0.02582910474770217,0.4971160888671875,0.3395233154296875,-0.661407470703125
20220209-1353,2022-02-09 13:54:05Z,u01, 193,40,movements,el-ex, lt, d,15661.574430916668, 0.575519511769663, -0.3568222813047196, 0.16125546104721808, -0.13026335835456848, 0.6031962633132935, 0.07661205530166626, 0.5099879503250122, 0.3492984473705292, -0.7860680222511292, 0.006354331970214844, -0.0038241147994995117, 0.10097897052764893, -0.19211121177464463, 0.26468709518665035, 0.9446525754348838,0.0258007650542873,0.5205230712890625,0.358184814453125,-0.68487548828125
20220209-1353,2022-02-09 13:54:05Z,u01, 194,40,movements,el-ex, lt, d,15661.599376916667, 0.5925760062918499, -0.35661120567070675, 0.16383204429036297, 0.025888852775096893, 0.6840150356292725, 0.08582453429698944, 0.5233618021011353, 0.34910064935684204, -0.7773166298866272, -0.007736682891845703, 0.022527217864990234, 0.12149399518966675, -0.1925769050444665, 0.2724991861636194, 0.9423443715636337,0.025407177477956455,0.516876220703125,0.3692169189453125,-0.654541015625
20220209-1353,2022-02-09 13:54:05Z,u01, 195,40,movements,el-ex, lt, d,15661.624323916667, 0.6104996895954371, -0.35532860436381775, 0.16468438855357861, 0.0004183156415820122, 0.7200972437858582, 0.018589967861771584, 0.5374656319618225, 0.3478984534740448, -0.7681779265403748, -0.013463497161865234, 0.015520155429840088, 0.08627808094024658, -0.19231943980728028, 0.28093461350823734, 0.9399465423733382,0.02427882344947291,0.5391845703125,0.3742828369140625,-0.6812744140625
20220209-1353,2022-02-09 13:54:05Z,u01, 196,40,movements,el-ex, lt, d,15661.649269916668, 0.628613146965263, -0.3556171644685208, 0.1658840925495777, -0.09068096429109573, 0.6836183667182922, 0.04635821655392647, 0.5512319803237915, 0.3481689691543579, -0.7582358717918396, 0.06310218572616577, 0.029394537210464478, 0.06722646951675415, -0.19283894444702676, 0.28930121790039487, 0.937329499357237,0.023052584272251264,0.627777099609375,0.3736114501953125,-0.692626953125
20220209-1353,2022-02-09 13:54:05Z,u01, 197,40,movements,el-ex, lt, d,15661.674216916668, 0.6459175057900508, -0.3594972642599238, 0.1699811510755325, -0.31532561779022217, 0.6046719551086426, 0.011831730604171753, 0.5634522438049316, 0.3518036901950836, -0.7474997639656067, 0.06656801700592041, 0.011141955852508545, 0.07222211360931396, -0.1954345905606697, 0.2967413819301752, 0.9344711274325392,0.02266668079529216,0.603546142578125,0.3666229248046875,-0.6706695556640625
20220209-1353,2022-02-09 13:54:05Z,u01, 198,40,movements,el-ex, lt, d,15661.699162916668, 0.6636296923486026, -0.3652540033101689, 0.17424212593005342, -0.2040831297636032, 0.7004048824310303, -0.03512778878211975, 0.5753459334373474, 0.35718655586242676, -0.7357954382896423, -0.024640917778015137, 0.029791682958602905, 0.06450039148330688, -0.19892899348500245, 0.3041866964454122, 0.9313515242908147,0.021958700503448225,0.5477294921875,0.3867034912109375,-0.668212890625
20220209-1353,2022-02-09 13:54:05Z,u01, 199,40,movements,el-ex, lt, d,15661.724109916668, 0.6828345445209666, -0.36911521958529264, 0.17650697393341386, -0.18656133115291595, 0.7537577748298645, -0.019606219604611397, 0.5884951949119568, 0.3607903718948364, -0.7235356569290161, -0.018182575702667236, 0.013782501220703125, 0.06980341672897339, -0.20125635373451542, 0.3126148562424619, 0.9280896750033178,0.020436492460671807,0.59088134765625,0.370574951171875,-0.6411895751953125
20220209-1353,2022-02-09 13:54:05Z,u01, 200,40,movements,el-ex, lt, d,15661.749055916667, 0.7034908711894018, -0.37326780683773103, 0.18052106344912494, -0.23947200179100037, 0.7812331318855286, 0.024415167048573494, 0.6023397445678711, 0.3646601736545563, -0.7100772857666016, 0.008790075778961182, 0.0234319269657135, 0.05692499876022339, -0.20399894388260184, 0.3214743741931502, 0.9244777862995579,0.019480281553549583,0.6109771728515625,0.397125244140625,-0.652618408203125
20220209-1353,2022-02-09 13:54:05Z,u01, 201,40,movements,el-ex, lt, d,15661.774002916667, 0.7252679116753995, -0.3774208486765557, 0.18490894535634858, -0.2447333037853241, 0.836845338344574, -0.0006405850872397423, 0.6166491508483887, 0.36852407455444336, -0.69565349817276, -0.0047869086265563965, 0.04373791813850403, 0.047796010971069336, -0.20681235389979855, 0.3307595726617223, 0.9205887358572643,0.01852429396705524,0.6147613525390625,0.4197845458984375,-0.6390228271484375
20220209-1353,2022-02-09 13:54:05Z,u01, 202,40,movements,el-ex, lt, d,15661.798948916668, 0.7485357910296646, -0.3822584795190599, 0.18877351830524686, -0.1783173829317093, 0.9011186957359314, -0.04061562940478325, 0.6314465403556824, 0.373016893863678, -0.679804265499115, 0.017876088619232178, 0.0677180290222168, 0.035196781158447266, -0.20985854582251307, 0.34067178777993623, 0.9163044721700127,0.01698373159776817,0.6573028564453125,0.4493255615234375,-0.6501922607421875
20220209-1353,2022-02-09 13:54:05Z,u01, 203,40,movements,el-ex, lt, d,15661.823895916668, 0.7708657496569307, -0.3843574005277807, 0.18771837371690223, 0.10133224725723267, 0.9063603281974792, -0.1396348923444748, 0.6459208726882935, 0.3749634921550751, -0.6649726629257202, 0.04092305898666382, 0.0789397656917572, -0.0020499229431152344, -0.21079337912023874, 0.35082734462185516, 0.9123032053905764,0.01375527303778723,0.689727783203125,0.44879150390625,-0.66729736328125
20220209-1353,2022-02-09 13:54:05Z,u01, 204,40,movements,el-ex, lt, d,15661.848842916668, 0.7907317158037256, -0.384506446238609, 0.18125590617959467, 0.17755341529846191, 0.8730961680412292, -0.20885491371154785, 0.6589632034301758, 0.37510165572166443, -0.651971161365509, 0.03067314624786377, 0.04056304693222046, -0.023367464542388916, -0.20982239235375727, 0.36053983923981314, 0.9087960131192436,0.00869507390686619,0.6883392333984375,0.4088897705078125,-0.6668548583984375
20220209-1353,2022-02-09 13:54:05Z,u01, 205,40,movements,el-ex, lt, d,15661.873788916668, 0.809765128826, -0.3865885226359273, 0.17538337540778695, 0.032537370920181274, 0.8400409817695618, -0.1937369406223297, 0.6706852912902832, 0.3770309090614319, -0.6387714743614197, 0.010833323001861572, 0.01733258366584778, -0.004889845848083496, -0.20973942040810345, 0.36962634994126287, 0.9051920614481701,0.003622596277042367,0.6885833740234375,0.3883819580078125,-0.650390625
20220209-1353,2022-02-09 13:54:05Z,u01, 206,40,movements,el-ex, lt, d,15661.898735916668, 0.829812437417516, -0.3897538484345418, 0.17182378917236488, 0.0003581289201974869, 0.8674971461296082, -0.16361792385578156, 0.6824714541435242, 0.3799607455730438, -0.6243899464607239, 0.045800209045410156, 0.01370084285736084, -0.030044198036193848, -0.21049625301598102, 0.37880913654554826, 0.9012184459628066,-0.000731930269018799,0.7421417236328125,0.3921966552734375,-0.6496734619140625
20220209-1353,2022-02-09 13:54:05Z,u01, 207,40,movements,el-ex, lt, d,15661.923681916667, 0.8500629213907501, -0.39274547163458784, 0.1687216552467368, 0.013353588059544563, 0.8346524238586426, -0.17617519199848175, 0.6941177248954773, 0.3827262818813324, -0.6096895933151245, 0.06694507598876953, 0.010157108306884766, -0.022848129272460938, -0.2111979877398477, 0.38800850943921383, 0.8971183255957882,-0.004880202769638464,0.7589263916015625,0.380950927734375,-0.6416168212890625
20220209-1353,2022-02-09 13:54:05Z,u01, 208,40,movements,el-ex, lt, d,15661.948628916667, 0.8689209705356405, -0.39666206125014236, 0.16492687490455024, -0.012902116402983665, 0.7853189706802368, -0.2270791232585907, 0.7043410539627075, 0.38634172081947327, -0.5955198407173157, 0.028950631618499756, -0.010090440511703491, -0.022857725620269775, -0.21211265492665993, 0.3965454616319255, 0.8931246648876012,-0.009400745237648667,0.730133056640625,0.3714141845703125,-0.6147003173828125
20220209-1353,2022-02-09 13:54:05Z,u01, 209,40,movements,el-ex, lt, d,15661.973574916668, 0.8869577648499343, -0.4006546673503176, 0.1621645270834947, -0.03910715505480766, 0.7646798491477966, -0.1469588428735733, 0.7137657999992371, 0.3900212347507477, -0.5817404985427856, 0.01539081335067749, -0.031119167804718018, -0.04428178071975708, -0.21320817660883873, 0.4045640036991812, 0.8892079140725083,-0.013407583602890627,0.73577880859375,0.3543853759765625,-0.6221160888671875
20220209-1353,2022-02-09 13:54:05Z,u01, 210,40,movements,el-ex, lt, d,15661.998521916668, 0.9060802398004492, -0.40411435777016086, 0.1621063952278509, -0.1314786672592163, 0.763543963432312, -0.07332943379878998, 0.7236925363540649, 0.39320459961891174, -0.5671502351760864, 0.03465414047241211, -0.02803117036819458, -0.04730582237243652, -0.21456495188497973, 0.41277930870913726, 0.8850489898264128,-0.01623582134001661,0.7633209228515625,0.3683319091796875,-0.609039306640625
20220209-1353,2022-02-09 13:54:05Z,u01, 211,40,movements,el-ex, lt, d,15662.023467916668, 0.9261115225216924, -0.40738216674022637, 0.16444733881215293, -0.16161170601844788, 0.7631348371505737, -0.04248663783073425, 0.7338763475418091, 0.3962070941925049, -0.5517657995223999, 0.03518199920654297, -0.024502933025360107, -0.04146528244018555, -0.21629988494319935, 0.4211074150511105, 0.8806564525942604,-0.01808958498877855,0.771636962890625,0.3756256103515625,-0.5748291015625
20220209-1353,2022-02-09 13:54:05Z,u01, 212,40,movements,el-ex, lt, d,15662.048414916668, 0.9462858146775109, -0.41096855121163667, 0.16824208050526468, -0.2195723056793213, 0.720947265625, -0.017414771020412445, 0.7437002658843994, 0.3994974195957184, -0.5360148549079895, 0.04086101055145264, -0.031211167573928833, -0.04275089502334595, -0.21846524699493786, 0.42926158430281547, 0.876145005075451,-0.019432148251081194,0.7809906005859375,0.37451171875,-0.5803985595703125
20220209-1353,2022-02-09 13:54:05Z,u01, 213,40,movements,el-ex, lt, d,15662.073360916667, 0.9661407625152763, -0.4139182147201112, 0.17278386332200188, -0.1693088263273239, 0.729001522064209, 0.03463917598128319, 0.7532228231430054, 0.40219974517822266, -0.5204718708992004, 0.01569819450378418, -0.009270578622817993, -0.050527095794677734, -0.220517048104313, 0.4371913627987378, 0.8716786220385554,-0.020311176696847344,0.777679443359375,0.3990325927734375,-0.5770721435546875
20220209-1353,2022-02-09 13:54:05Z,u01, 214,40,movements,el-ex, lt, d,15662.098307916667, 0.9860980909693146, -0.414629995616957, 0.17655785315175399, -0.11255460977554321, 0.7165901064872742, 0.05400994420051575, 0.7632203698158264, 0.40285131335258484, -0.5051787495613098, 0.04828786849975586, -0.005375027656555176, -0.06255489587783813, -0.22144691217595056, 0.4453895876654588, 0.8672638966514545,-0.021043915656776102,0.813018798828125,0.3997802734375,-0.5645599365234375
20220209-1353,2022-02-09 13:54:05Z,u01, 215,40,movements,el-ex, lt, d,15662.123253916667, 1.004966290002272, -0.4150139208197964, 0.17978850197900162, -0.10387802869081497, 0.6879158616065979, 0.049839701503515244, 0.7724852561950684, 0.40320268273353577, -0.4906061887741089, 0.03665792942047119, 0.0021318793296813965, -0.05439186096191406, -0.22213311487450835, 0.4531597818924508, 0.8630334557894541,-0.021831206955828242,0.8108062744140625,0.404296875,-0.5386505126953125
20220209-1353,2022-02-09 13:54:05Z,u01, 216,40,movements,el-ex, lt, d,15662.148200916668, 1.0235679682754386, -0.41609883387290375, 0.18350778917477228, -0.16925153136253357, 0.6731433868408203, 0.027460958808660507, 0.7811030745506287, 0.40419524908065796, -0.47592470049858093, 0.03876698017120361, -0.001958191394805908, -0.043728530406951904, -0.2232335088026183, 0.46065654936112926, 0.8587509598574655,-0.022566994539145235,0.8208770751953125,0.404937744140625,-0.5193023681640625
20220209-1353,2022-02-09 13:54:05Z,u01, 217,40,movements,el-ex, lt, d,15662.173146916668, 1.0418540959838287, -0.41684547717945514, 0.1868804841311139, -0.03503185510635376, 0.679084300994873, 0.03906135633587837, 0.7894140481948853, 0.40487807989120483, -0.46141013503074646, 0.0380396842956543, 0.011351287364959717, -0.0815737247467041, -0.22411941368018373, 0.468044249961746, 0.8544938799898274,-0.023353277358319324,0.8251953125,0.426422119140625,-0.553802490234375
20220209-1353,2022-02-09 13:54:05Z,u01, 218,40,movements,el-ex, lt, d,15662.198093916668, 1.0580793474596621, -0.41570411930109513, 0.18670841214133724, 0.05117140710353851, 0.6086491346359253, 0.04525786638259888, 0.797198474407196, 0.40383419394493103, -0.44876793026924133, 0.029095590114593506, 0.013600587844848633, -0.087837815284729, -0.2234073366952033, 0.4750844157262012, 0.8507416574781842,-0.024953802775100287,0.8225250244140625,0.411041259765625,-0.52984619140625
20220209-1353,2022-02-09 13:54:05Z,u01, 219,40,movements,el-ex, lt, d,15662.223039916667, 1.0731176074609174, -0.4156800763779831, 0.18850615629702755, -0.18936046957969666, 0.5407734513282776, 0.028326084837317467, 0.8038652539253235, 0.4038121998310089, -0.43673378229141235, 0.012708902359008789, -0.008762061595916748, -0.056247055530548096, -0.22363613988833603, 0.4812691467819745, 0.8471705393796278,-0.025865243752263845,0.81982421875,0.392547607421875,-0.4629058837890625
20220209-1353,2022-02-09 13:54:05Z,u01, 220,40,movements,el-ex, lt, d,15662.247986916667, 1.0896517437075142, -0.41857987776083444, 0.19634009303131636, -0.37632930278778076, 0.5385734438896179, 0.02985953353345394, 0.809934675693512, 0.4064633548259735, -0.4228397607803345, 0.03209120035171509, -0.0005947351455688477, -0.013958156108856201, -0.22651745113170887, 0.487103642658674, 0.8430815966287781,-0.025167083074476737,0.8470458984375,0.4136810302734375,-0.43927001953125
20220209-1353,2022-02-09 13:54:05Z,u01, 221,40,movements,el-ex, lt, d,15662.272933916667, 1.1074437898508573, -0.4220664144451804, 0.20482664506616563, -0.25033608078956604, 0.5876278281211853, 0.01776585355401039, 0.8160566091537476, 0.4096463918685913, -0.40772736072540283, 0.03616213798522949, 0.03656643629074097, -0.029177427291870117, -0.22980421137043275, 0.4932812017580448, 0.8386067942706587,-0.024545487654594245,0.8578033447265625,0.451934814453125,-0.4440765380859375
20220209-1353,2022-02-09 13:54:05Z,u01, 222,40,movements,el-ex, lt, d,15662.297879916667, 1.1230180376273688, -0.4233528468629499, 0.20725048535670307, 0.04894766956567764, 0.5565369129180908, -0.030090153217315674, 0.8218317627906799, 0.4108195900917053, -0.3947404623031616, 0.025275349617004395, 0.03864338994026184, -0.05093812942504883, -0.23073369817155306, 0.49939135255576494, 0.8346925159121549,-0.025667465588221527,0.842529296875,0.446014404296875,-0.4356689453125
20220209-1353,2022-02-09 13:54:05Z,u01, 223,40,movements,el-ex, lt, d,15662.322826916668, 1.1358492707252916, -0.42392331651316595, 0.20626670616924148, -0.08823379129171371, 0.5046214461326599, -0.03238373249769211, 0.8266162276268005, 0.4113396406173706, -0.38406428694725037, 0.008695721626281738, 0.007910877466201782, -0.011946886777877808, -0.23054650716170014, 0.5047931839211126, 0.8314230534169915,-0.02771063635123372,0.8424224853515625,0.399261474609375,-0.3766632080078125
20220209-1353,2022-02-09 13:54:05Z,u01, 224,40,movements,el-ex, lt, d,15662.347772916668, 1.151126971187186, -0.4269730686545997, 0.2122578156131527, -0.3427107632160187, 0.5093780159950256, -0.021260377019643784, 0.8312377333641052, 0.4141175150871277, -0.37087833881378174, 0.031875789165496826, -0.00612795352935791, 0.005216866731643677, -0.2330829382866581, 0.5101305499805192, 0.8274448365057424,-0.027827163495142804,0.862548828125,0.420745849609375,-0.37554931640625
20220209-1353,2022-02-09 13:54:05Z,u01, 225,40,movements,el-ex, lt, d,15662.372719916668, 1.1672997212927485, -0.43027557010849304, 0.21870486449009713, -0.13771860301494598, 0.5741638541221619, -0.03597307577729225, 0.8358644843101501, 0.4171212613582611, -0.3568480908870697, 0.007778823375701904, 0.028603285551071167, -0.04772329330444336, -0.23583223541398549, 0.5157122413201132, 0.8231899397451713,-0.02797279253375201,0.8298797607421875,0.443939208984375,-0.4083099365234375
20220209-1353,2022-02-09 13:54:05Z,u01, 226,40,movements,el-ex, lt, d,15662.397665916667, 1.1814045988858148, -0.43151543572223244, 0.21773186658461285, 0.16533413529396057, 0.5531638860702515, -0.06814712285995483, 0.8403353095054626, 0.418247789144516, -0.3448265790939331, -0.006518721580505371, 0.01855030655860901, -0.054831475019454956, -0.235867352132545, 0.5214914193831931, 0.8194451037711027,-0.03038123689223765,0.8348541259765625,0.43389892578125,-0.3950347900390625
20220209-1353,2022-02-09 13:54:05Z,u01, 227,40,movements,el-ex, lt, d,15662.422612916667, 1.192534930837269, -0.4310528278580181, 0.21321128092378624, 0.06541279703378677, 0.4841657876968384, -0.025421366095542908, 0.8443010449409485, 0.4178275465965271, -0.33552369475364685, -0.01028597354888916, -0.005779057741165161, -0.0352800190448761, -0.2343220498084963, 0.5266225751656551, 0.8164838824923047,-0.033408368130371235,0.8276824951171875,0.3954315185546875,-0.3471221923828125
20220209-1353,2022-02-09 13:54:05Z,u01, 228,40,movements,el-ex, lt, d,15662.447558916667, 1.2058263569826655, -0.4322039325573763, 0.21541648276566364, -0.2003019005060196, 0.5183859467506409, -0.011282776482403278, 0.848236083984375, 0.4188731014728546, -0.324100524187088, -0.004485964775085449, -0.011875301599502563, -0.005229771137237549, -0.23513421480819705, 0.5316593202867796, 0.8129375113351991,-0.03439631297004686,0.8643341064453125,0.4202117919921875,-0.3298492431640625
20220209-1353,2022-02-09 13:54:06Z,u01, 229,40,movements,el-ex, lt, d,15662.472505916669, 1.2210975641509563, -0.4336286409230025, 0.22081353343321766, -0.20787101984024048, 0.5068429708480835, 0.03428177908062935, 0.8525248765945435, 0.42016637325286865, -0.310904860496521, 0.061858177185058594, 0.014114141464233398, -0.020470082759857178, -0.23687217764470161, 0.5370652983752767, 0.8088683657654613,-0.03441810399314532,0.9128265380859375,0.428314208984375,-0.3223419189453125
20220209-1353,2022-02-09 13:54:06Z,u01, 230,40,movements,el-ex, lt, d,15662.497452666668, 1.2360329691405287, -0.43493412567627665, 0.2264920964858441, -0.16726575791835785, 0.48671093583106995, 0.005636085756123066, 0.8565543293952942, 0.4213506579399109, -0.2979574203491211, 0.013090014457702637, 0.013204514980316162, -0.017823129892349243, -0.23865655266268193, 0.5422769989595959, 0.8048625950059873,-0.03428063193755493,0.8614349365234375,0.4436187744140625,-0.31915283203125
20220209-1353,2022-02-09 13:54:06Z,u01, 231,40,movements,el-ex, lt, d,15662.522399666668, 1.249111174537221, -0.4358247140564028, 0.22874493771538063, -0.05415761098265648, 0.4727071225643158, -0.01345831248909235, 0.8600214123725891, 0.4221581518650055, -0.28661128878593445, -0.011037468910217285, 0.02854079008102417, -0.022180676460266113, -0.23938787005174553, 0.5471634106110166, 0.8012907665465592,-0.03519934438490635,0.8509063720703125,0.43988037109375,-0.2949066162109375
20220209-1353,2022-02-09 13:54:06Z,u01, 232,40,movements,el-ex, lt, d,15662.547345666668, 1.2625367920862978, -0.4373009944483239, 0.23247558820275407, -0.24707989394664764, 0.46429747343063354, -0.008587856777012348, 0.8631967902183533, 0.42349597811698914, -0.274850070476532, 0.0004812479019165039, -0.0035892724990844727, 0.012139678001403809, -0.2407433187945818, 0.55192174818646, 0.7975880521336284,-0.035755066357185006,0.868072509765625,0.420623779296875,-0.2629547119140625
20220209-1353,2022-02-09 13:54:06Z,u01, 233,40,movements,el-ex, lt, d,15662.572292666668, 1.2778937894777989, -0.4396600064222782, 0.2400945986691246, -0.2788667380809784, 0.4969872832298279, 3.1463801860809326e-05, 0.8663567900657654, 0.4256318211555481, -0.2612728774547577, 0.007559835910797119, 0.013653486967086792, -0.011538833379745483, -0.24348493368843507, 0.5568470564525716, 0.7933418879065766,-0.03528638277321405,0.8744049072265625,0.4532470703125,-0.2855224609375
20220209-1353,2022-02-09 13:54:06Z,u01, 234,40,movements,el-ex, lt, d,15662.597238666667, 1.2930262554640004, -0.44089093844911337, 0.24458599342416526, -0.0218624547123909, 0.5387341976165771, -0.01935921236872673, 0.8697067499160767, 0.42674538493156433, -0.24798953533172607, -0.01014852523803711, 0.037198156118392944, -0.047420501708984375, -0.24494025144699189, 0.5621472271855222, 0.7891251410083635,-0.035727609323462195,0.8560333251953125,0.46600341796875,-0.294464111328125
20220209-1353,2022-02-09 13:54:06Z,u01, 235,40,movements,el-ex, lt, d,15662.622185666667, 1.3051660924865864, -0.44095079459670555, 0.24107004124732398, 0.23822927474975586, 0.5347098708152771, -0.052712708711624146, 0.8726285099983215, 0.4267995059490204, -0.23740671575069427, -0.016762912273406982, 0.042896658182144165, -0.05247962474822998, -0.24374441396087457, 0.567349365983475, 0.7856287621875928,-0.03861312232711689,0.86187744140625,0.467498779296875,-0.2776947021484375
20220209-1353,2022-02-09 13:54:06Z,u01, 236,40,movements,el-ex, lt, d,15662.647131666668, 1.315912183957956, -0.4411846393657694, 0.23536117952812874, 0.10924256592988968, 0.5102522969245911, -0.07160484045743942, 0.8750325441360474, 0.42701098322868347, -0.22799064218997955, 0.008588731288909912, 0.012732118368148804, -0.020605310797691345, -0.24198877628629636, 0.5722290693080445, 0.7824399140391155,-0.04222750847234502,0.8924407958984375,0.433685302734375,-0.2430877685546875
20220209-1353,2022-02-09 13:54:06Z,u01, 237,40,movements,el-ex, lt, d,15662.672078666668, 1.3281559264202774, -0.44295987965246963, 0.23503714939497833, -0.09501513093709946, 0.4733833968639374, -0.07325446605682373, 0.8770211935043335, 0.428615540266037, -0.21707768738269806, 0.03916233777999878, 0.003894895315170288, -0.019479140639305115, -0.24229545384302756, 0.576848391960767, 0.778825505812144,-0.044382365726261086,0.9203338623046875,0.4431304931640625,-0.2366943359375
20220209-1353,2022-02-09 13:54:06Z,u01, 238,40,movements,el-ex, lt, d,15662.697025666668, 1.341404174730057, -0.4454517692393343, 0.23801483877392532, -0.13256840407848358, 0.4735569357872009, -0.07406146824359894, 0.8787772059440613, 0.430865615606308, -0.20519648492336273, 0.024680495262145996, 0.02442622184753418, -0.020236670970916748, -0.24378747030887896, 0.5813513795096019, 0.7749311302790157,-0.04560805231906612,0.898284912109375,0.45751953125,-0.2218780517578125
20220209-1353,2022-02-09 13:54:06Z,u01, 239,40,movements,el-ex, lt, d,15662.721971666668, 1.354739224493875, -0.4482099716245025, 0.2408525045228106, -0.10506322979927063, 0.47896191477775574, -0.09996917098760605, 0.8802711963653564, 0.4333530068397522, -0.19320455193519592, 0.012520670890808105, 0.020275622606277466, -0.01942652463912964, -0.24532719019507299, 0.5858432350009564, 0.770968899720951,-0.04700382386165719,0.8878326416015625,0.4505157470703125,-0.21270751953125
20220209-1353,2022-02-09 13:54:06Z,u01, 240,40,movements,el-ex, lt, d,15662.746918666668, 1.3675281812598046, -0.4516317001693655, 0.24237852029662565, -0.03803879767656326, 0.4610753059387207, -0.13069938123226166, 0.881212592124939, 0.43643420934677124, -0.1816309094429016, 0.01525658369064331, 0.025128990411758423, -0.03174781799316406, -0.24672650719837724, 0.5901784265672099, 0.7670775624947671,-0.049067770030599644,0.89923095703125,0.4663848876953125,-0.216583251953125
20220209-1353,2022-02-09 13:54:06Z,u01, 241,40,movements,el-ex, lt, d,15662.771864666667, 1.378690696017859, -0.4549015244829717, 0.24186082599123032, 3.3389776945114136e-05, 0.43954718112945557, -0.133419468998909, 0.881779670715332, 0.43937385082244873, -0.17150987684726715, 0.01858067512512207, 0.020419389009475708, -0.049910202622413635, -0.24748709219555215, 0.5941339898881077, 0.7635994925229079,-0.05168179231301939,0.9017791748046875,0.45416259765625,-0.2168121337890625
20220209-1353,2022-02-09 13:54:06Z,u01, 242,40,movements,el-ex, lt, d,15662.796811666667, 1.3898895502251862, -0.4585709967398568, 0.24230411463410323, -0.06859786808490753, 0.4198978543281555, -0.14627481997013092, 0.882053017616272, 0.4426671862602234, -0.16133321821689606, 0.017269611358642578, 0.004384875297546387, -0.038327813148498535, -0.24865691057394887, 0.5979156541503601, 0.7600939907363106,-0.05407279836671702,0.8965301513671875,0.4474639892578125,-0.1987457275390625
20220209-1353,2022-02-09 13:54:06Z,u01, 243,40,movements,el-ex, lt, d,15662.821757666668, 1.4010943721025821, -0.46259572558959405, 0.24333953819365595, -0.026767298579216003, 0.4346882998943329, -0.15781556069850922, 0.8820422291755676, 0.44627252221107483, -0.15113794803619385, 0.007057070732116699, 0.005631953477859497, -0.040878549218177795, -0.2501125825466931, 0.6015602398090094, 0.7565657038770528,-0.05636950925536566,0.8863067626953125,0.4498291015625,-0.1887359619140625
20220209-1353,2022-02-09 13:54:06Z,u01, 244,40,movements,el-ex, lt, d,15662.846704666668, 1.4116757674639147, -0.46652043061478193, 0.24185846560422367, 0.10525950789451599, 0.442259818315506, -0.15562976896762848, 0.881855845451355, 0.44978126883506775, -0.14151780307292938, 0.01735997200012207, 0.006807535886764526, -0.04349488019943237, -0.25076976455395916, 0.6052731820300512, 0.7531376380032608,-0.059521041163428545,0.9046478271484375,0.4574432373046875,-0.1844024658203125
20220209-1353,2022-02-09 13:54:06Z,u01, 245,40,movements,el-ex, lt, d,15662.871650666668, 1.4204010329533132, -0.4694033761255508, 0.23622720000709033, 0.24310578405857086, 0.456646203994751, -0.1334802508354187, 0.8817712068557739, 0.4523542821407318, -0.13362322747707367, 0.018161654472351074, 0.003196895122528076, -0.04562161862850189, -0.249823377946138, 0.6089143362395186, 0.7501722163659759,-0.06366507979638125,0.89276123046875,0.450897216796875,-0.17291259765625
20220209-1353,2022-02-09 13:54:06Z,u01, 246,40,movements,el-ex, lt, d,15662.896597666668, 1.428581227035914, -0.4716539070446211, 0.22823823660764683, 0.2941763997077942, 0.4665240943431854, -0.1311066448688507, 0.8818247318267822, 0.4543602466583252, -0.1262611597776413, 0.010249793529510498, -0.009551256895065308, -0.044377654790878296, -0.24791621270056197, 0.6127046360012423, 0.7472958189339174,-0.06840713538420506,0.8937225341796875,0.4417572021484375,-0.1735382080078125
20220209-1353,2022-02-09 13:54:06Z,u01, 247,40,movements,el-ex, lt, d,15662.921543666667, 1.436123299099045, -0.4740416186232674, 0.21954430647996528, 0.2863866686820984, 0.429537296295166, -0.14233294129371643, 0.881674587726593, 0.45648595690727234, -0.11946087330579758, 0.01744973659515381, -0.0185433030128479, -0.0633545070886612, -0.2458271380612998, 0.6163104572982394, 0.7445460371922781,-0.07336133248148674,0.9029388427734375,0.4391021728515625,-0.18170166015625
20220209-1353,2022-02-09 13:54:06Z,u01, 248,40,movements,el-ex, lt, d,15662.946490666667, 1.4426518639255086, -0.4765005818487518, 0.21220000385586169, 0.20025382936000824, 0.36365243792533875, -0.12039288878440857, 0.8813197016716003, 0.4586723744869232, -0.11355850100517273, 0.016248106956481934, -0.030403852462768555, -0.06220734119415283, -0.24418463720908895, 0.6193501522519693, 0.7421203193970265,-0.07769726545210198,0.8926849365234375,0.4275054931640625,-0.176177978515625
20220209-1353,2022-02-09 13:54:06Z,u01, 249,40,movements,el-ex, lt, d,15662.971436666669, 1.449124527532893, -0.4787364445737583, 0.20727531405927477, 0.14954128861427307, 0.33399632573127747, -0.09746193885803223, 0.8810160756111145, 0.4606580436229706, -0.10772693157196045, 0.008418798446655273, -0.024348139762878418, -0.06549072265625, -0.2431910530965079, 0.6220889360553372, 0.7397940117104158,-0.08104586382360146,0.89239501953125,0.4353790283203125,-0.1778106689453125
20220209-1353,2022-02-09 13:54:06Z,u01, 250,40,movements,el-ex, lt, d,15662.996383666668, 1.4548977846951467, -0.4805370508992494, 0.20302594578581917, 0.12564021348953247, 0.2710799276828766, -0.08735603839159012, 0.8807981610298157, 0.46225547790527344, -0.10254276543855667, 0.024185538291931152, -0.029378771781921387, -0.0790824294090271, -0.24226465406965544, 0.624528986261875, 0.7377199725816604,-0.08391005440536964,0.9052734375,0.4306488037109375,-0.181976318359375
