SessionID,LoggingTime,UID,RecNo,Hertz,Activity,MoveType,Wrist,Side,TimeStamp,DMRoll,DMPitch,DMYaw,DMRotX,DMRotY,DMRotZ,DMGrvX,DMGrvY,DMGrvZ,DMUAccelX,DMUAccelY,DMUAccelZ,DMQuatX,DMQuatY,DMQuatW,DMQuatZ,AccelroX,AceelroY,AceelroZ
20220209-1408,2022-02-09 14:09:00Z,u01, 1,40,movements,el-ex, lt, d,16555.058086, 1.217582215026, -0.385068803488524, 0.2701512578625821, -0.02445600926876068, -0.49318960309028625, 0.07263296097517014, 0.8695591688156128, 0.3756228983402252, -0.32058489322662354, 0.04577004909515381, 0.02209758758544922, -0.005861490964889526, -0.23112866058981305, 0.5350580361827788, 0.8125839994600814,-1.3877787807814457e-17,0.913299560546875,0.400665283203125,-0.3276824951171875
20220209-1408,2022-02-09 14:09:00Z,u01, 2,40,movements,el-ex, lt, d,16555.083032000002, 1.2059829904973187, -0.38396298525161393, 0.26929745166542773, 0.13500702381134033, -0.45114922523498535, 0.025339484214782715, 0.8661695718765259, 0.37459781765937805, -0.3307972252368927, 0.028331220149993896, 0.022741079330444336, -0.016675680875778198, -0.2304634641452512, 0.5305544102734664, 0.8157186597237102,0.0013088806826920124,0.892730712890625,0.39910888671875,-0.3437347412109375
20220209-1408,2022-02-09 14:09:00Z,u01, 3,40,movements,el-ex, lt, d,16555.107979, 1.1937517832229703, -0.3827444908164006, 0.26575446203636577, 0.1291755884885788, 0.07772386819124222, -0.4327453374862671, 0.8624826669692993, 0.3734677731990814, -0.3415343463420868, -0.10312885046005249, 0.03548312187194824, 0.016186654567718506, -0.22903807935869597, 0.5260935149482859, 0.819002282556824,0.0016134381789051633,0.817718505859375,0.39068603515625,-0.3447418212890625
20220209-1408,2022-02-09 14:09:00Z,u01, 4,40,movements,el-ex, lt, d,16555.132925, 1.1811740376185058, -0.38172963580021, 0.26339369201829615, 0.08196750283241272, -0.4752202033996582, 0.0040592290461063385, 0.8584688901901245, 0.3725261688232422, -0.3524988889694214, 0.054815471172332764, -0.013578355312347412, -0.0163210928440094, -0.22800518696528424, 0.5213100749561447, 0.8223404894514493,0.0023686754098807272,0.936553955078125,0.3496551513671875,-0.3660430908203125
20220209-1408,2022-02-09 14:09:00Z,u01, 5,40,movements,el-ex, lt, d,16555.157872, 1.1691215030326088, -0.3815087590889069, 0.26149986048788104, 0.11575213074684143, -0.4528868794441223, -0.009555850178003311, 0.8542338609695435, 0.3723211884498596, -0.36285191774368286, 0.015257775783538818, -0.0027379989624023438, -0.029878586530685425, -0.22740958720326426, 0.5165838990990063, 0.8254797708456058,0.0030225970582159756,0.8660125732421875,0.370086669921875,-0.3956298828125
20220209-1408,2022-02-09 14:09:00Z,u01, 6,40,movements,el-ex, lt, d,16555.182818, 1.157093859921469, -0.3807861394986073, 0.25709317228945777, 0.24327345192432404, -0.43206658959388733, -0.02669176086783409, 0.8500540256500244, 0.37165042757987976, -0.3732078969478607, 4.369020462036133e-05, -0.011222511529922485, -0.04428759217262268, -0.22596970802245148, 0.5121852618265373, 0.8286110940904151,0.0027642335020926223,0.8502960205078125,0.36083984375,-0.415771484375
20220209-1408,2022-02-09 14:09:00Z,u01, 7,40,movements,el-ex, lt, d,16555.207765, 1.1442870323676089, -0.3787071100752405, 0.24971157866151003, 0.3262646198272705, -0.41827401518821716, -0.0040630800649523735, 0.8459066152572632, 0.3697195053100586, -0.38438236713409424, 0.018000423908233643, -0.02003377676010132, -0.040483176708221436, -0.2232367197354494, 0.5079115919929649, 0.8319786593185957,0.0017098202046914035,0.8719024658203125,0.350494384765625,-0.4267578125
20220209-1408,2022-02-09 14:09:00Z,u01, 8,40,movements,el-ex, lt, d,16555.232711, 1.1307662177269833, -0.3755238034964511, 0.2433716876491779, 0.20591574907302856, -0.5087729692459106, 0.062018267810344696, 0.8416927456855774, 0.36675989627838135, -0.39628350734710693, 0.07099658250808716, -0.011840373277664185, -0.039766669273376465, -0.2203357887798256, 0.503299494821824, 0.8355476109717574,0.001432747206666446,0.9158782958984375,0.3534698486328125,-0.4379425048828125
20220209-1408,2022-02-09 14:09:00Z,u01, 9,40,movements,el-ex, lt, d,16555.257658000002, 1.1172403887147346, -0.37270066597694784, 0.24212354220954388, -0.004285025876015425, -0.5546799898147583, 0.11681600660085678, 0.8371833562850952, 0.36413201689720154, -0.40808361768722534, 0.03630620241165161, -0.0002098381519317627, -0.019040226936340332, -0.21885973539060327, 0.49805482467796136, 0.8390662181805194,0.003155883557904249,0.868011474609375,0.3646240234375,-0.42626953125
20220209-1408,2022-02-09 14:09:00Z,u01, 10,40,movements,el-ex, lt, d,16555.282605, 1.1045741806448424, -0.37115776338248757, 0.2453399702125529, -0.09429441392421722, -0.576737642288208, 0.10911041498184204, 0.8324482440948486, 0.3626945912837982, -0.4189065396785736, 0.006953120231628418, 0.015052050352096558, -0.019066274166107178, -0.21899608113772195, 0.492531666569452, 0.8422669735498687,0.006305918535199545,0.8415374755859375,0.3749847412109375,-0.436309814453125
20220209-1408,2022-02-09 14:09:00Z,u01, 11,40,movements,el-ex, lt, d,16555.307551, 1.0910029531437229, -0.368849448702629, 0.24702683893615537, 0.11082188785076141, -0.5791703462600708, 0.12681517004966736, 0.8274272084236145, 0.36054250597953796, -0.43055030703544617, 0.014003634452819824, 0.0266646146774292, -0.03296571969985962, -0.21840989379534473, 0.4868490189705314, 0.8456904683729829,0.009111478096274245,0.840484619140625,0.3888702392578125,-0.46533203125
20220209-1408,2022-02-09 14:09:00Z,u01, 12,40,movements,el-ex, lt, d,16555.332498, 1.0755015204491851, -0.3634297238412899, 0.24407841893811766, 0.24488471448421478, -0.6109619140625, 0.160934716463089, 0.8223611116409302, 0.3554820120334625, -0.4442465901374817, 0.02953726053237915, 0.02801722288131714, -0.026990413665771484, -0.21538371709799214, 0.4811305009577409, 0.8497078691855627,0.010957999828294457,0.851654052734375,0.386138916015625,-0.47174072265625
20220209-1408,2022-02-09 14:09:00Z,u01, 13,40,movements,el-ex, lt, d,16555.357444, 1.0590625960125295, -0.3579890233338001, 0.24219006417501956, 0.08190625160932541, -0.6630889177322388, 0.16048957407474518, 0.8166214823722839, 0.3503914475440979, -0.45864495635032654, 0.02516019344329834, 0.017955750226974487, -0.004825323820114136, -0.21257562935131502, 0.47485695810981426, 0.8539000059618672,0.013314753589189932,0.840057373046875,0.36767578125,-0.4644012451171875
20220209-1408,2022-02-09 14:09:00Z,u01, 14,40,movements,el-ex, lt, d,16555.382391, 1.042751461005624, -0.354432035577819, 0.24351787791203533, 0.024678748100996017, -0.7046508193016052, 0.1439954936504364, 0.8101036548614502, 0.3470577597618103, -0.472528338432312, 0.022522807121276855, 0.028766244649887085, -0.026250749826431274, -0.21128304670566272, 0.4680761668784332, 0.8578994555046089,0.016515968117630092,0.832275390625,0.375335693359375,-0.49481201171875
20220209-1408,2022-02-09 14:09:00Z,u01, 15,40,movements,el-ex, lt, d,16555.407337, 1.0253629229326537, -0.3513556177508372, 0.24429806986780297, 0.06539877504110336, -0.7266207337379456, 0.11609335243701935, 0.8026740550994873, 0.3441709280014038, -0.48709434270858765, 0.030562758445739746, 0.03407925367355347, -0.021053671836853027, -0.21001745772688363, 0.46080960267364557, 0.8620724265565554,0.01945445188379663,0.834808349609375,0.3785247802734375,-0.50848388671875
20220209-1408,2022-02-09 14:09:00Z,u01, 16,40,movements,el-ex, lt, d,16555.432284000002, 1.006793068742151, -0.3475291051375493, 0.24401674624754235, 0.1273854821920395, -0.763579249382019, 0.13469186425209045, 0.7945981621742249, 0.3405756652355194, -0.5026154518127441, 0.04207205772399902, 0.036835312843322754, -0.02503335475921631, -0.20814546381039728, 0.4531751850398172, 0.8664954213032879,0.022219344219714082,0.8390960693359375,0.3763275146484375,-0.528656005859375
20220209-1408,2022-02-09 14:09:00Z,u01, 17,40,movements,el-ex, lt, d,16555.457231, 0.9873900468013624, -0.3432397761359145, 0.24313116936720755, 0.1178998127579689, -0.7764801979064941, 0.11962924152612686, 0.7859088182449341, 0.3365396559238434, -0.5187373757362366, 0.041544973850250244, 0.02904576063156128, -0.009079217910766602, -0.2058976295553353, 0.4452386919857863, 0.8710622314366322,0.024885131271551536,0.828399658203125,0.3633880615234375,-0.5289306640625
20220209-1408,2022-02-09 14:09:00Z,u01, 18,40,movements,el-ex, lt, d,16555.482177, 0.9676644055441505, -0.33971911227970175, 0.24227368364399532, 0.10936044156551361, -0.7915782928466797, 0.09998002648353577, 0.7764952182769775, 0.33322227001190186, -0.5348067879676819, 0.06223481893539429, 0.03132551908493042, -0.001295328140258789, -0.20394738434715032, 0.43703783133652685, 0.8755880118546243,0.027372342931959115,0.839813232421875,0.3654937744140625,-0.5364227294921875
20220209-1408,2022-02-09 14:09:00Z,u01, 19,40,movements,el-ex, lt, d,16555.50712375, 0.9476726399140574, -0.3360401771315771, 0.24117893791938616, 0.1511792093515396, -0.7772120237350464, 0.10617601126432419, 0.7666392922401428, 0.3297513425350189, -0.5509340167045593, 0.05785423517227173, 0.021460235118865967, 0.011887013912200928, -0.20184435032742562, 0.4287095028784696, 0.8801023195538596,0.02978242353834132,0.8224945068359375,0.351104736328125,-0.538604736328125
20220209-1408,2022-02-09 14:09:00Z,u01, 20,40,movements,el-ex, lt, d,16555.53206975, 0.9281062322315278, -0.3304699881992884, 0.238983742383804, 0.26177793741226196, -0.7522722482681274, 0.16598613560199738, 0.7571720480918884, 0.3244876265525818, -0.5669201016426086, 0.0651395320892334, 0.02316868305206299, 0.007197380065917969, -0.19866820942746527, 0.4207979053966371, 0.8845522914895325,0.03205483929122099,0.824493408203125,0.3465728759765625,-0.558380126953125
20220209-1408,2022-02-09 14:09:00Z,u01, 21,40,movements,el-ex, lt, d,16555.55701675, 0.9088176106741447, -0.3222583126511642, 0.2358824266238077, 0.29637572169303894, -0.7295112013816833, 0.2160925269126892, 0.7481733560562134, 0.31670942902565, -0.5830368399620056, 0.04909849166870117, 0.02578940987586975, 0.016127169132232666, -0.1941299035930737, 0.4132737231024458, 0.8890069535521348,0.03442783774479788,0.7953643798828125,0.34173583984375,-0.56640625
20220209-1408,2022-02-09 14:09:00Z,u01, 22,40,movements,el-ex, lt, d,16555.581962750002, 0.8896626812339797, -0.3140431466278609, 0.23463607661739488, 0.16796892881393433, -0.7872077226638794, 0.2355768084526062, 0.7388651371002197, 0.30890655517578125, -0.5988783240318298, 0.0526236891746521, 0.017967253923416138, 0.01364290714263916, -0.18993592432821177, 0.40556773791057477, 0.8933256821176249,0.03753099501841811,0.7936553955078125,0.3249053955078125,-0.5842742919921875
20220209-1408,2022-02-09 14:09:00Z,u01, 23,40,movements,el-ex, lt, d,16555.60690975, 0.8703740983903335, -0.30837679150517744, 0.2369101214700431, 0.008761300705373287, -0.8176338076591492, 0.22450977563858032, 0.7285034656524658, 0.3035123944282532, -0.6141360402107239, 0.055050790309906006, 0.0341494083404541, 0.024673879146575928, -0.18751793866492236, 0.3972014753353876, 0.8974060696286537,0.04159988746230439,0.7837677001953125,0.336639404296875,-0.5913848876953125
20220209-1408,2022-02-09 14:09:00Z,u01, 24,40,movements,el-ex, lt, d,16555.63185575, 0.850950206373599, -0.3050698494766861, 0.24099986334283066, -0.035595111548900604, -0.8529209494590759, 0.18302758038043976, 0.7171886563301086, 0.3003597855567932, -0.6288279294967651, 0.054189085960388184, 0.03580665588378906, 0.021726608276367188, -0.18643401587953723, 0.3883663262683513, 0.9012778990804746,0.04595907741792574,0.7734527587890625,0.33599853515625,-0.605316162109375
20220209-1408,2022-02-09 14:09:00Z,u01, 25,40,movements,el-ex, lt, d,16555.65680275, 0.8296182179333551, -0.3025806849392533, 0.24380537703766292, 0.0417647585272789, -0.9581518173217773, 0.11709190160036087, 0.7041616439819336, 0.29798462986946106, -0.6444854736328125, 0.04817306995391846, 0.03215456008911133, 0.012817561626434326, -0.18535598926139651, 0.3786824685512078, 0.9054114491315526,0.0497279785446442,0.7539825439453125,0.3300933837890625,-0.6402740478515625
20220209-1408,2022-02-09 14:09:00Z,u01, 26,40,movements,el-ex, lt, d,16555.68174975, 0.8034066236385746, -0.2992422196108371, 0.24316362235739325, 0.13620737195014954, -1.1585760116577148, 0.04189702123403549, 0.6877409219741821, 0.2947961986064911, -0.6634061932563782, 0.0991855263710022, 0.062061190605163574, 0.025161683559417725, -0.18307471973366038, 0.36712470134570213, 0.9104636122517881,0.05252922850783323,0.785675048828125,0.356536865234375,-0.64080810546875
20220209-1408,2022-02-09 14:09:00Z,u01, 27,40,movements,el-ex, lt, d,16555.70669575, 0.7731381938693638, -0.29998399719759805, 0.24295523672628916, -0.1806282252073288, -1.2278051376342773, -0.06686541438102722, 0.6671957969665527, 0.29550492763519287, -0.6837592720985413, 0.08433026075363159, 0.043926894664764404, 0.08463829755783081, -0.18255662170089754, 0.35326114393637814, 0.915886907663733,0.05505490987555911,0.74591064453125,0.33563232421875,-0.5962677001953125
20220209-1408,2022-02-09 14:09:00Z,u01, 28,40,movements,el-ex, lt, d,16555.73164275, 0.7449725787255729, -0.3071745235322257, 0.24665116920086447, -0.3593175709247589, -1.1269992589950562, -0.10325491428375244, 0.646217942237854, 0.30236661434173584, -0.7006974816322327, 0.03258472681045532, -0.015837043523788452, 0.10490292310714722, -0.18565255705327738, 0.3393882686374243, 0.920319376592106,0.057975876795364145,0.6852264404296875,0.290985107421875,-0.592742919921875
20220209-1408,2022-02-09 14:09:00Z,u01, 29,40,movements,el-ex, lt, d,16555.756588750002, 0.7192563956652762, -0.31382988074972873, 0.24989912309623838, -0.1455480009317398, -1.0130153894424438, -0.06113668531179428, 0.6266472935676575, 0.3087037205696106, -0.7155524492263794, 0.016556620597839355, -0.04950258135795593, 0.07135701179504395, -0.18845419427187135, 0.32666310883649086, 0.9241741676796849,0.06065160246699433,0.64031982421875,0.2589874267578125,-0.6490325927734375
20220209-1408,2022-02-09 14:09:00Z,u01, 30,40,movements,el-ex, lt, d,16555.78153575, 0.6955922036492873, -0.3150982923862217, 0.2501398506751804, 0.024818629026412964, -0.900908887386322, 0.01994398608803749, 0.6092889904975891, 0.3099099397659302, -0.7298786044120789, 0.02526313066482544, -0.04152300953865051, 0.06703692674636841, -0.1883414599836485, 0.31557596295178164, 0.9279008124319021,0.06276533440731599,0.6333465576171875,0.2656097412109375,-0.66448974609375
20220209-1408,2022-02-09 14:09:00Z,u01, 31,40,movements,el-ex, lt, d,16555.80648175, 0.6746390234249896, -0.3145357589973317, 0.25093425534910896, -0.013343602418899536, -0.8073415160179138, 0.05931682139635086, 0.5939719080924988, 0.3093750476837158, -0.742620050907135, 0.03044837713241577, -0.023028582334518433, 0.07530754804611206, -0.18753678973754262, 0.3058103020167955, 0.9311599589131208,0.06520130191334605,0.6183013916015625,0.2881927490234375,-0.67425537109375
20220209-1408,2022-02-09 14:09:01Z,u01, 32,40,movements,el-ex, lt, d,16555.83142875, 0.6562404818643621, -0.3113299680213535, 0.251204594393819, 0.2910628318786621, -0.6827256679534912, 0.10904963314533234, 0.5808112025260925, 0.30632492899894714, -0.7542038559913635, -0.027695178985595703, -0.002598673105239868, -0.019599735736846924, -0.18549227033788457, 0.29747383647772024, 0.934095415403785,0.06758580794778452,0.5561981201171875,0.298065185546875,-0.766448974609375
20220209-1408,2022-02-09 14:09:01Z,u01, 33,40,movements,el-ex, lt, d,16555.85637475, 0.63893892023327, -0.2983083398976772, 0.2457683638200813, 0.7608293890953064, -0.606884241104126, 0.19393780827522278, 0.5700065493583679, 0.2939036786556244, -0.7672765254974365, -0.008849143981933594, 0.012721747159957886, -0.043682217597961426, -0.17808782664281414, 0.2909406713654241, 0.9375020185559795,0.06876266863246441,0.5658111572265625,0.301788330078125,-0.813873291015625
20220209-1408,2022-02-09 14:09:01Z,u01, 34,40,movements,el-ex, lt, d,16555.88132175, 0.6219488113409073, -0.278732741678861, 0.23836973169872985, 0.7818424105644226, -0.6058013439178467, 0.2771475613117218, 0.5601338744163513, 0.2751375138759613, -0.7813766598701477, 0.03796499967575073, 0.0036863982677459717, -0.036021292209625244, -0.16734435838166517, 0.28514476024071306, 0.9411710571448675,0.0698975002274331,0.5952911376953125,0.2815704345703125,-0.8169708251953125
20220209-1408,2022-02-09 14:09:01Z,u01, 35,40,movements,el-ex, lt, d,16555.90626875, 0.605820426717376, -0.26211710355558965, 0.23544664676239457, 0.4060669541358948, -0.6356787085533142, 0.2977285385131836, 0.5499867796897888, 0.2591259181499481, -0.7939574122428894, 0.05377316474914551, -0.005662113428115845, -0.035617053508758545, -0.15860587454305564, 0.2790438386298203, 0.9443160724054162,0.07242989368164329,0.6035308837890625,0.2505645751953125,-0.8320159912109375
20220209-1408,2022-02-09 14:09:01Z,u01, 36,40,movements,el-ex, lt, d,16555.931214750002, 0.5905130449771717, -0.25313255071057544, 0.23847038828439557, 0.13407683372497559, -0.6583642959594727, 0.2967942953109741, 0.5390439629554749, 0.2504379153251648, -0.8041843771934509, 0.04013407230377197, 0.0038498640060424805, -0.02445930242538452, -0.15424559882075403, 0.2722427097009162, 0.9467056629663614,0.0764252899801415,0.5809173583984375,0.2491912841796875,-0.8300018310546875
20220209-1408,2022-02-09 14:09:01Z,u01, 37,40,movements,el-ex, lt, d,16555.95616175, 0.5753345938334938, -0.24542325496710352, 0.242863473388968, 0.21552935242652893, -0.6724793314933777, 0.33196479082107544, 0.5278109312057495, 0.2429669201374054, -0.8138689994812012, 0.06287223100662231, 0.03019598126411438, -0.021427512168884277, -0.1506188863205864, 0.26529124754429, 0.9488963702124035,0.08081026218437248,0.5926055908203125,0.2701568603515625,-0.8383026123046875
20220209-1408,2022-02-09 14:09:01Z,u01, 38,40,movements,el-ex, lt, d,16555.98110775, 0.5592188900023063, -0.23592164137591348, 0.24659005968618813, 0.2549637258052826, -0.690073549747467, 0.3087047338485718, 0.5158283710479736, 0.2337391972541809, -0.824188768863678, 0.04346740245819092, 0.04201768338680267, -0.007369399070739746, -0.1459631259346694, 0.25807048850679287, 0.9512327098096552,0.08515232395313063,0.563079833984375,0.275299072265625,-0.83074951171875
20220209-1408,2022-02-09 14:09:01Z,u01, 39,40,movements,el-ex, lt, d,16556.00605475, 0.5428665183241475, -0.2274303277054686, 0.2497310014315678, 0.20281152427196503, -0.6728290915489197, 0.24278104305267334, 0.5032897591590881, 0.2254747748374939, -0.834182620048523, 0.04740011692047119, 0.05574476718902588, 0.02685546875, -0.14164013061301423, 0.25069257734084277, 0.9535024333000457,0.08902068186646608,0.549774169921875,0.28411865234375,-0.8024444580078125
20220209-1408,2022-02-09 14:09:01Z,u01, 40,40,movements,el-ex, lt, d,16556.03100075, 0.5268677510658318, -0.22007794489288854, 0.2513136549673592, 0.2943457365036011, -0.6648064851760864, 0.1742422729730606, 0.4907003343105316, 0.21830569207668304, -0.8435376882553101, 0.06734424829483032, 0.09146305918693542, 0.035279691219329834, -0.13762983069663587, 0.24349370755134944, 0.9556794887900278,0.09190037043434957,0.5577850341796875,0.3092803955078125,-0.8030242919921875
20220209-1408,2022-02-09 14:09:01Z,u01, 41,40,movements,el-ex, lt, d,16556.055947750003, 0.5094217156461756, -0.20961544200287233, 0.24891698075675917, 0.5530253648757935, -0.7123557329177856, 0.09366587549448013, 0.47699782252311707, 0.20808377861976624, -0.8539170026779175, 0.05205506086349487, 0.09466589987277985, 0.03011035919189453, -0.13156425462699128, 0.2360769711420959, 0.9582539339524333,0.09331734917402046,0.5277099609375,0.3029937744140625,-0.827423095703125
20220209-1408,2022-02-09 14:09:01Z,u01, 42,40,movements,el-ex, lt, d,16556.08089475, 0.49020569806551506, -0.19519458915707485, 0.24318432927723876, 0.6023308634757996, -0.7397691011428833, 0.058459021151065826, 0.46186670660972595, 0.19395743310451508, -0.8654823303222656, 0.040193378925323486, 0.056027352809906006, 0.0688057541847229, -0.12312452826361271, 0.228252456031578, 0.9612353104069677,0.09363723067814603,0.50299072265625,0.25579833984375,-0.800384521484375
20220209-1408,2022-02-09 14:09:01Z,u01, 43,40,movements,el-ex, lt, d,16556.105840750002, 0.47098730127506633, -0.18554997896624936, 0.23938982579270865, 0.19267664849758148, -0.7318931221961975, 0.031930141150951385, 0.4459773898124695, 0.18448710441589355, -0.8758245706558228, 0.036993950605392456, 0.031104370951652527, 0.0993049144744873, -0.11718155066066506, 0.2199004241478863, 0.9638710764749189,0.09415333092929493,0.4795074462890625,0.2137451171875,-0.7750396728515625
20220209-1408,2022-02-09 14:09:01Z,u01, 44,40,movements,el-ex, lt, d,16556.13078775, 0.4531106712202975, -0.18465380130672374, 0.2392631819090914, -0.059310294687747955, -0.7206343412399292, 0.002762734889984131, 0.4303223788738251, 0.18360623717308044, -0.8838050961494446, 0.034506261348724365, 0.02679726481437683, 0.09484946727752686, -0.11589136745454845, 0.21134485010010512, 0.965832290877904,0.09524012191012779,0.4667205810546875,0.212249755859375,-0.7877349853515625
20220209-1408,2022-02-09 14:09:01Z,u01, 45,40,movements,el-ex, lt, d,16556.15573375, 0.43563645368186144, -0.18668439157826158, 0.23959594884773855, -0.07359635084867477, -0.6999182105064392, -0.03444948047399521, 0.414655476808548, 0.18560191988945007, -0.8908494710922241, 0.036547064781188965, 0.035787880420684814, 0.1244310736656189, -0.11606612056640478, 0.2027410090225617, 0.967560786556216,0.09618215046885864,0.4496917724609375,0.222808837890625,-0.76458740234375
20220209-1408,2022-02-09 14:09:01Z,u01, 46,40,movements,el-ex, lt, d,16556.18068075, 0.41854136865905467, -0.1892810864338424, 0.23950044747518714, -0.13378696143627167, -0.6816036105155945, -0.05510089546442032, 0.39916926622390747, 0.18815286457538605, -0.8973641395568848, 0.03466877341270447, 0.028613537549972534, 0.14104706048965454, -0.1164828276268611, 0.1942927624334542, 0.9691766790562973,0.09684357141148334,0.436065673828125,0.219879150390625,-0.7576446533203125
20220209-1408,2022-02-09 14:09:01Z,u01, 47,40,movements,el-ex, lt, d,16556.20562675, 0.40226697763259156, -0.1940932215588033, 0.23981813486779383, -0.1964946836233139, -0.6243448257446289, -0.07228308171033859, 0.3841540515422821, 0.19287686049938202, -0.9028976559638977, 0.017167508602142334, 0.016168594360351562, 0.16998755931854248, -0.11804494295111997, 0.1860552683441956, 0.9705432598236994,0.09744036073752405,0.3970794677734375,0.2117919921875,-0.7312774658203125
20220209-1408,2022-02-09 14:09:01Z,u01, 48,40,movements,el-ex, lt, d,16556.230573750003, 0.3883682560236915, -0.19949427554593016, 0.23990798481167747, -0.18198297917842865, -0.4994897246360779, -0.0742383673787117, 0.3711683452129364, 0.1981736570596695, -0.9071721434593201, 0.007768601179122925, 0.022422701120376587, 0.21752071380615234, -0.11998487040296987, 0.17893450978577372, 0.971612076968747,0.09775597938149183,0.37713623046875,0.218475341796875,-0.6944427490234375
20220209-1408,2022-02-09 14:09:01Z,u01, 49,40,movements,el-ex, lt, d,16556.25551975, 0.37729280186373215, -0.2041065996390769, 0.24011724763756426, -0.15182024240493774, -0.4084615111351013, -0.05138625204563141, 0.36075785756111145, 0.20269238948822021, -0.9103678464889526, 0.03040134906768799, 0.00949639081954956, 0.2125071883201599, -0.12169214304384751, 0.1732256049327321, 0.9724026825862524,0.09806618184422569,0.3897857666015625,0.210601806640625,-0.697845458984375
20220209-1408,2022-02-09 14:09:01Z,u01, 50,40,movements,el-ex, lt, d,16556.280466750002, 0.3689678761598217, -0.20754358745802248, 0.23984216734473868, -0.054058972746133804, -0.27821940183639526, -0.05398263409733772, 0.35291337966918945, 0.20605683326721191, -0.9126843810081482, 0.007484138011932373, 0.019666507840156555, 0.23531627655029297, -0.1229240647029573, 0.16896001257419838, 0.9729941357859232,0.09810594164658062,0.3615875244140625,0.2254180908203125,-0.6786956787109375
20220209-1408,2022-02-09 14:09:01Z,u01, 51,40,movements,el-ex, lt, d,16556.30541375, 0.3635508592596255, -0.20876855454770987, 0.23873886580184817, -0.010235093533992767, -0.16792038083076477, -0.05718914791941643, 0.34787416458129883, 0.20725534856319427, -0.9143460988998413, 0.00486341118812561, 0.008656546473503113, 0.22779226303100586, -0.12315961884665119, 0.16630890107800075, 0.9734533453540328,0.09778471079636364,0.3501434326171875,0.2139892578125,-0.684417724609375
20220209-1408,2022-02-09 14:09:01Z,u01, 52,40,movements,el-ex, lt, d,16556.33035975, 0.36264096551790564, -0.21152725074863743, 0.23782947771244736, -0.04429742321372032, -0.06126018613576889, -0.065266452729702, 0.3468379080295563, 0.20995335280895233, -0.9141241908073425, 0.015970468521118164, -0.00557708740234375, 0.2321326732635498, -0.12437632700612568, 0.16573601301891752, 0.973461285589327,0.09713556874477713,0.3584747314453125,0.2058868408203125,-0.67877197265625
20220209-1408,2022-02-09 14:09:01Z,u01, 53,40,movements,el-ex, lt, d,16556.35530675, 0.36232919101566635, -0.21374279479588282, 0.236878283199296, -0.0797041803598404, 0.01648673787713051, -0.06668811291456223, 0.34638717770576477, 0.212118998169899, -0.9137951135635376, 0.020373225212097168, -0.012503474950790405, 0.22598999738693237, -0.12535580957490072, 0.165494324122999, 0.9734418718929758,0.09648121712691801,0.363739013671875,0.1994781494140625,-0.687469482421875
20220209-1408,2022-02-09 14:09:01Z,u01, 54,40,movements,el-ex, lt, d,16556.38025275, 0.364180522084557, -0.2175701898161414, 0.236616499074778, -0.18162812292575836, 0.11360802501440048, -0.06915546208620071, 0.3477866053581238, 0.21585772931575775, -0.912386953830719, 0.01140543818473816, -0.01448744535446167, 0.24365532398223877, -0.1272769348245029, 0.1661538684929724, 0.9731403742290687,0.09587171402734104,0.3572998046875,0.201019287109375,-0.6674346923828125
20220209-1408,2022-02-09 14:09:01Z,u01, 55,40,movements,el-ex, lt, d,16556.405199750003, 0.36847063604762453, -0.2223598127404837, 0.23688749605091994, -0.17396098375320435, 0.2096821665763855, -0.06255821138620377, 0.35132119059562683, 0.22053195536136627, -0.909911572933197, 0.02889743447303772, -0.020687535405158997, 0.21156269311904907, -0.12982305580951503, 0.16789931326837018, 0.9725637223181124,0.09526673942323066,0.3785247802734375,0.19940185546875,-0.701873779296875
20220209-1408,2022-02-09 14:09:01Z,u01, 56,40,movements,el-ex, lt, d,16556.43014575, 0.3750409011263247, -0.22594491196500502, 0.236932867305342, -0.08457686752080917, 0.30136528611183167, -0.04664602875709534, 0.3570000231266022, 0.2240273505449295, -0.9068421721458435, -0.0033926963806152344, -0.023465782403945923, 0.17629718780517578, -0.1318725973884993, 0.17084650055955575, 0.9718483794791822,0.09450876378805009,0.3546142578125,0.2021942138671875,-0.72802734375
20220209-1408,2022-02-09 14:09:01Z,u01, 57,40,movements,el-ex, lt, d,16556.455092750002, 0.38375959710982555, -0.22830269105543607, 0.23672616664422672, -0.09997756779193878, 0.3765734136104584, -0.027071591466665268, 0.3646940588951111, 0.22632458806037903, -0.9032028913497925, 0.0006778240203857422, -0.03630682826042175, 0.17175763845443726, -0.133403989262466, 0.17493408407834588, 0.9710002367694988,0.09359533115038324,0.3689117431640625,0.1861114501953125,-0.7337188720703125
20220209-1408,2022-02-09 14:09:01Z,u01, 58,40,movements,el-ex, lt, d,16556.48003975, 0.39478853124900026, -0.2320602932550306, 0.23796524586083206, -0.20770865678787231, 0.4890137314796448, 0.004586534574627876, 0.37430331110954285, 0.22998307645320892, -0.8983345031738281, 0.0075785815715789795, -0.03409069776535034, 0.1679115891456604, -0.13584191959970351, 0.17994368808869116, 0.9697964837537225,0.09307065933259606,0.3800506591796875,0.194000244140625,-0.72784423828125
20220209-1408,2022-02-09 14:09:01Z,u01, 59,40,movements,el-ex, lt, d,16556.504985791667, 0.4088075000275433, -0.23631602668307622, 0.24021676872954023, -0.11629938334226608, 0.583139181137085, 0.03446640074253082, 0.3864672780036926, 0.234122633934021, -0.8920928835868835, 0.0159987211227417, -0.0015634000301361084, 0.14119267463684082, -0.1387494384090401, 0.18628517204677733, 0.9682167642235664,0.09275141407217632,0.4009552001953125,0.233978271484375,-0.753173828125
20220209-1408,2022-02-09 14:09:01Z,u01, 60,40,movements,el-ex, lt, d,16556.52993279167, 0.42512663554022995, -0.23592692491762648, 0.24041584929794732, 0.15144415199756622, 0.7125096321105957, -0.005469094961881638, 0.4010109007358551, 0.23374433815479279, -0.8857504725456238, -0.027811259031295776, 0.011861175298690796, 0.09131693840026855, -0.1393340396456542, 0.1941926674905692, 0.9666728004763704,0.09175557435175008,0.3716583251953125,0.2435302734375,-0.7896270751953125
20220209-1408,2022-02-09 14:09:01Z,u01, 61,40,movements,el-ex, lt, d,16556.554878791667, 0.44328828781758384, -0.23072729864630975, 0.23726166140410448, 0.31170904636383057, 0.7770744562149048, -0.025546133518218994, 0.41754621267318726, 0.22868560254573822, -0.8794078230857849, -0.011524945497512817, 0.02819615602493286, 0.08384513854980469, -0.1373478352350444, 0.20354770455787288, 0.9652370181771036,0.0895633299377516,0.4138946533203125,0.2568817138671875,-0.7953033447265625
20220209-1408,2022-02-09 14:09:01Z,u01, 62,40,movements,el-ex, lt, d,16556.57982579167, 0.46139299936916905, -0.22383368689220354, 0.2335936222088931, 0.25036731362342834, 0.7338535785675049, -0.007591834291815758, 0.43408986926078796, 0.22196929156780243, -0.8730954527854919, 0.047279298305511475, 0.020477652549743652, 0.04861736297607422, -0.13446268961609736, 0.2130071940099421, 0.9638018959406617,0.08737145015870468,0.4801483154296875,0.2429962158203125,-0.828155517578125
20220209-1408,2022-02-09 14:09:01Z,u01, 63,40,movements,el-ex, lt, d,16556.604771791666, 0.4782566567021131, -0.22304327816655325, 0.2324338811830994, -0.17248228192329407, 0.6294892430305481, -0.05389821156859398, 0.4488316476345062, 0.22119852900505066, -0.8658068180084229, 0.04520231485366821, 0.011391237378120422, 0.05533629655838013, -0.1346885667492137, 0.2212590986650948, 0.9620532347918133,0.0857741163275898,0.4916534423828125,0.2332916259765625,-0.8092803955078125
20220209-1408,2022-02-09 14:09:01Z,u01, 64,40,movements,el-ex, lt, d,16556.629718791668, 0.49329913188440694, -0.23188714061022922, 0.23524901190537886, -0.4929139316082001, 0.5530858635902405, -0.07174558937549591, 0.46085986495018005, 0.2298145592212677, -0.8572009801864624, -0.017088323831558228, 0.009092345833778381, 0.05048412084579468, -0.13986793841225706, 0.22767623921762462, 0.9598842342297927,0.08498799908567745,0.4485931396484375,0.2335662841796875,-0.809173583984375
20220209-1408,2022-02-09 14:09:01Z,u01, 65,40,movements,el-ex, lt, d,16556.65466479167, 0.5092596637309126, -0.2435303542072161, 0.23997712434542076, -0.47480612993240356, 0.6365174651145935, -0.05816499888896942, 0.4731453061103821, 0.2411303073167801, -0.8473427891731262, -0.02069154381752014, 0.02464732527732849, 0.050193190574645996, -0.14663074430502543, 0.2341538769787196, 0.9573469158093246,0.08460820089260285,0.4596405029296875,0.2702789306640625,-0.795196533203125
20220209-1408,2022-02-09 14:09:01Z,u01, 66,40,movements,el-ex, lt, d,16556.679611791667, 0.5265439220440563, -0.2526537937592281, 0.24373710124881634, -0.2687776982784271, 0.65843665599823, -0.058267995715141296, 0.48659372329711914, 0.24997438490390778, -0.8371018171310425, 0.029901176691055298, 0.035960108041763306, 0.022114694118499756, -0.1521323647173491, 0.24146396839254625, 0.9547314791284904,0.08389810011994972,0.5156097412109375,0.28497314453125,-0.809112548828125
20220209-1408,2022-02-09 14:09:01Z,u01, 67,40,movements,el-ex, lt, d,16556.70455879167, 0.5428523424958575, -0.2561685439943305, 0.2434373994091939, -0.016301775351166725, 0.6471677422523499, -0.10714072734117508, 0.49972328543663025, 0.2533760070800781, -0.8282978534698486, 0.002443641424179077, 0.04137808084487915, 0.010625243186950684, -0.15443374438787133, 0.24900059348732728, 0.9525867491185565,0.08202206103082704,0.4984130859375,0.292572021484375,-0.8123626708984375
20220209-1408,2022-02-09 14:09:01Z,u01, 68,40,movements,el-ex, lt, d,16556.729504791667, 0.5595211968800254, -0.25943966220446224, 0.24247966665845605, -0.16647426784038544, 0.7690752148628235, -0.06056929752230644, 0.5130172967910767, 0.2565390169620514, -0.8191465139389038, -0.013764798641204834, -0.0016103684902191162, 0.09078359603881836, -0.15652940404586765, 0.2567592086473492, 0.9503704683623367,0.07980792501145836,0.49786376953125,0.2555084228515625,-0.73138427734375
20220209-1408,2022-02-09 14:09:01Z,u01, 69,40,movements,el-ex, lt, d,16556.75445179167, 0.5783248498685952, -0.2614360573059359, 0.24413482559525737, 0.0245177261531353, 0.728800892829895, 0.06582445651292801, 0.5280476808547974, 0.2584680914878845, -0.808925211429596, 0.05615049600601196, 0.019501328468322754, 0.04819834232330322, -0.15842972384585635, 0.26540049598967247, 0.9477604352632325,0.07882195205666062,0.5887603759765625,0.2782745361328125,-0.7642974853515625
20220209-1408,2022-02-09 14:09:01Z,u01, 70,40,movements,el-ex, lt, d,16556.779397791666, 0.5969763752612264, -0.25565200293014795, 0.24252019526843635, 0.429629921913147, 0.7937977910041809, 0.06565002351999283, 0.5438739657402039, 0.25287628173828125, -0.800159215927124, 0.004435539245605469, 0.046867430210113525, 0.021503329277038574, -0.156228763859501, 0.27479621561369216, 0.945558036391768,0.07745822116330614,0.5527191162109375,0.3008880615234375,-0.7808990478515625
20220209-1408,2022-02-09 14:09:01Z,u01, 71,40,movements,el-ex, lt, d,16556.804344791668, 0.615541209220449, -0.24661704501940404, 0.23622835898515007, 0.3090173006057739, 0.8333660364151001, -0.032723553478717804, 0.5599305629730225, 0.24412475526332855, -0.791758120059967, -0.01084291934967041, 0.044296905398368835, 0.06208294630050659, -0.15182684167906585, 0.2847271644440602, 0.9435763806370643,0.07444965934465606,0.551361083984375,0.2813720703125,-0.722747802734375
20220209-1408,2022-02-09 14:09:02Z,u01, 72,40,movements,el-ex, lt, d,16556.82929079167, 0.6358710834293689, -0.24565622904798043, 0.2349129585647147, -0.16455219686031342, 0.8069127798080444, 0.002261195331811905, 0.5760491490364075, 0.2431929111480713, -0.7804003357887268, 0.05981522798538208, -0.013059794902801514, 0.04147833585739136, -0.1519345578007451, 0.2944753409702335, 0.9407194045998679,0.07243844010012998,0.6298370361328125,0.232879638671875,-0.7349853515625
20220209-1408,2022-02-09 14:09:02Z,u01, 73,40,movements,el-ex, lt, d,16556.854237791667, 0.6565889592452079, -0.2510161345019623, 0.23897608645451007, -0.2704932987689972, 0.7754690051078796, -0.013147388584911823, 0.5912883877754211, 0.2483883798122406, -0.7672556638717651, 0.04210406541824341, 0.004953354597091675, -0.015306472778320312, -0.15578106790512566, 0.3034871009340915, 0.9372628696949663,0.0718766047441006,0.6294708251953125,0.2531585693359375,-0.78863525390625
20220209-1408,2022-02-09 14:09:02Z,u01, 74,40,movements,el-ex, lt, d,16556.87918479167, 0.6766087313379784, -0.25425717000614045, 0.24053469052787926, -0.0016181697137653828, 0.782321572303772, -0.029181215912103653, 0.6060219407081604, 0.25152653455734253, -0.7546336650848389, -0.01413339376449585, 0.017287611961364746, -0.05305969715118408, -0.15823387057720945, 0.31248235212812114, 0.9339959416224489,0.07048887050131708,0.590362548828125,0.269866943359375,-0.811737060546875
20220209-1408,2022-02-09 14:09:02Z,u01, 75,40,movements,el-ex, lt, d,16556.904130791667, 0.6955981692323836, -0.2540540907158944, 0.24001983482235237, -0.037334222346544266, 0.7545972466468811, 0.0033753952011466026, 0.6202746033668518, 0.2513299882411957, -0.7430294156074524, 0.01412498950958252, -0.0025964081287384033, -0.024121344089508057, -0.158719813212531, 0.3213927700618152, 0.9310124497075123,0.0687791918836701,0.6393585205078125,0.247100830078125,-0.7604217529296875
20220209-1408,2022-02-09 14:09:02Z,u01, 76,40,movements,el-ex, lt, d,16556.92907779167, 0.7150301923184174, -0.25643364859039763, 0.242148596715773, -0.18052536249160767, 0.7531386017799377, -0.015992775559425354, 0.6342012286186218, 0.25363242626190186, -0.7303830981254578, 0.051361024379730225, 0.00526350736618042, -0.02182936668395996, -0.16082315801762592, 0.33006722329302934, 0.9276829261056625,0.06779430737053557,0.6855010986328125,0.2550201416015625,-0.7533416748046875
20220209-1408,2022-02-09 14:09:02Z,u01, 77,40,movements,el-ex, lt, d,16556.954023791666, 0.7344098330853861, -0.2602910683610683, 0.24486026980807754, -0.18349605798721313, 0.7309953570365906, -0.0408356748521328, 0.6475753784179688, 0.25736182928085327, -0.7172245979309082, 0.035789668560028076, -0.001441359519958496, -0.040221571922302246, -0.16369291114989765, 0.3385148723536321, 0.924204250340096,0.06677630086233222,0.6825103759765625,0.25689697265625,-0.7581939697265625
20220209-1408,2022-02-09 14:09:02Z,u01, 78,40,movements,el-ex, lt, d,16556.978970791668, 0.7530909077588609, -0.2647828176150495, 0.24725773420194064, -0.20595835149288177, 0.7169790863990784, -0.04450657591223717, 0.660062849521637, 0.2616996467113495, -0.7041522860527039, 0.03714185953140259, 0.0067330002784729, -0.031122922897338867, -0.16676692515205854, 0.34657274025455326, 0.9207528242433277,0.06550222866876279,0.691070556640625,0.2702789306640625,-0.73516845703125
20220209-1408,2022-02-09 14:09:02Z,u01, 79,40,movements,el-ex, lt, d,16557.00391679167, 0.7715815263583345, -0.2695958017033546, 0.25069974003232687, -0.2538386285305023, 0.6893289685249329, -0.04263138025999069, 0.6720834374427795, 0.2663418650627136, -0.6909167170524597, 0.07257610559463501, -0.005065560340881348, -0.05337631702423096, -0.17015353943108177, 0.3543859522425516, 0.9172154705300589,0.06460901852558273,0.747161865234375,0.2636871337890625,-0.7439117431640625
20220209-1408,2022-02-09 14:09:02Z,u01, 80,40,movements,el-ex, lt, d,16557.028863791667, 0.7890412250469746, -0.2743209715174198, 0.253724825316705, -0.14994269609451294, 0.6437987685203552, -0.0651581883430481, 0.6831428408622742, 0.2708933651447296, -0.6781834363937378, 0.038857460021972656, 0.008205205202102661, -0.07082462310791016, -0.17338701256776826, 0.3617253541514574, 0.9138108436579051,0.06357379107864389,0.7272796630859375,0.27978515625,-0.7498931884765625
20220209-1408,2022-02-09 14:09:02Z,u01, 81,40,movements,el-ex, lt, d,16557.05381079167, 0.8050854844218611, -0.27803603729487514, 0.25446621178438233, -0.1348058432340622, 0.6233459115028381, -0.09282397478818893, 0.6932050585746765, 0.2744676470756531, -0.6664339900016785, 0.0027941465377807617, 0.0029829442501068115, -0.06012833118438721, -0.1756946244792907, 0.36866571668254305, 0.9107145734475455,0.06177367212564874,0.697662353515625,0.2750244140625,-0.72027587890625
20220209-1408,2022-02-09 14:09:02Z,u01, 82,40,movements,el-ex, lt, d,16557.078756791667, 0.8210738858649527, -0.2829859802292534, 0.25678621413861513, -0.2548443078994751, 0.6030290126800537, -0.07349168509244919, 0.7027683258056641, 0.27922409772872925, -0.6543322801589966, 0.04097568988800049, -0.009082436561584473, -0.03652453422546387, -0.17882963748814643, 0.3753049872206315, 0.9074783988316638,0.06040948414273256,0.74066162109375,0.268035888671875,-0.692352294921875
20220209-1408,2022-02-09 14:09:02Z,u01, 83,40,movements,el-ex, lt, d,16557.10370379167, 0.8374913589687601, -0.28966637792558475, 0.2611137168315591, -0.33212652802467346, 0.5991939902305603, -0.09980519115924835, 0.712013840675354, 0.28563252091407776, -0.6414440870285034, 0.05168867111206055, 0.015301406383514404, -0.03584766387939453, -0.18311668299064704, 0.38176727195705984, 0.9039807493154391,0.05950666551864997,0.76611328125,0.3025665283203125,-0.674530029296875
20220209-1408,2022-02-09 14:09:02Z,u01, 84,40,movements,el-ex, lt, d,16557.128649791666, 0.8530015383626159, -0.29726593032540566, 0.26566256891966306, -0.3125179708003998, 0.5261514186859131, -0.12260324507951736, 0.7202208042144775, 0.29290714859962463, -0.6288779973983765, 0.04487031698226929, 0.01672425866127014, -0.029996395111083984, -0.18781803204268735, 0.38766661213762627, 0.9005630807413952,0.05852557432648409,0.767578125,0.3080596923828125,-0.662872314453125
20220209-1408,2022-02-09 14:09:02Z,u01, 85,40,movements,el-ex, lt, d,16557.153596791668, 0.8669581479776067, -0.305053249046902, 0.2703580318979787, -0.3877892792224884, 0.48408064246177673, -0.10133417695760727, 0.7271664142608643, 0.30034396052360535, -0.6172703504562378, 0.02570241689682007, 0.007090151309967041, -0.002419412136077881, -0.19257481802405746, 0.39278462125559954, 0.8973918510749579,0.057647596365512255,0.754302978515625,0.30426025390625,-0.6179656982421875
20220209-1408,2022-02-09 14:09:02Z,u01, 86,40,movements,el-ex, lt, d,16557.17854279167, 0.8812128392501186, -0.31409775336814627, 0.27788206964488027, -0.49240702390670776, 0.4670907258987427, -0.09610479325056076, 0.7337653636932373, 0.308958500623703, -0.6050894260406494, 0.02926582098007202, -0.00298917293548584, -0.025952935218811035, -0.19844243500154202, 0.39758760012424527, 0.8939908869844978,0.05766397712076618,0.76507568359375,0.3005218505859375,-0.630889892578125
20220209-1408,2022-02-09 14:09:02Z,u01, 87,40,movements,el-ex, lt, d,16557.203489791667, 0.8956613833203032, -0.3233242880537249, 0.28533259698108093, -0.39151236414909363, 0.5016895532608032, -0.14386452734470367, 0.7401742935180664, 0.31772035360336304, -0.5926178693771362, 0.00425642728805542, 0.013807415962219238, -0.04283428192138672, -0.2043764606649, 0.4023944998123937, 0.8905069393910596,0.05750198414268601,0.743438720703125,0.3329010009765625,-0.63543701171875
20220209-1408,2022-02-09 14:09:02Z,u01, 88,40,movements,el-ex, lt, d,16557.22843679167, 0.9097471568156396, -0.3315615726429271, 0.28945058005949426, -0.2432274967432022, 0.496529221534729, -0.17311900854110718, 0.7463567852973938, 0.32551994919776917, -0.5805069208145142, 0.027538597583770752, 0.008113503456115723, -0.039259135723114014, -0.2091870398556948, 0.4074154131845904, 0.8871941984519255,0.05603507903567578,0.7724151611328125,0.3335418701171875,-0.6216583251953125
20220209-1408,2022-02-09 14:09:02Z,u01, 89,40,movements,el-ex, lt, d,16557.253382791667, 0.9220260108766567, -0.3372832033483639, 0.2898368715631281, -0.054085902869701385, 0.478143572807312, -0.17848068475723267, 0.7519319653511047, 0.3309246003627777, -0.5701643228530884, 0.01825559139251709, -0.002006053924560547, -0.0665695071220398, -0.21207618861612962, 0.41223964251506257, 0.8844249369506608,0.05361729330436463,0.76739501953125,0.327423095703125,-0.6364898681640625
20220209-1408,2022-02-09 14:09:02Z,u01, 90,40,movements,el-ex, lt, d,16557.27832979167, 0.9328559703099693, -0.341277851687102, 0.2872207419991762, 0.0013039177283644676, 0.44410428404808044, -0.17528901994228363, 0.7569946050643921, 0.33469152450561523, -0.5611959099769592, 0.013040304183959961, -0.01826995611190796, -0.061118364334106445, -0.21353629041768546, 0.4168984083974837, 0.8820762515904739,0.05039484468812194,0.76678466796875,0.3173980712890625,-0.6240997314453125
20220209-1408,2022-02-09 14:09:02Z,u01, 91,40,movements,el-ex, lt, d,16557.303275791666, 0.9431356658857949, -0.3450589728097701, 0.2857920866869729, -0.10086572915315628, 0.41857147216796875, -0.13614189624786377, 0.7616936564445496, 0.3382521867752075, -0.5526375770568848, 0.01661151647567749, -0.03707417845726013, -0.05324292182922363, -0.2151130982308374, 0.4211977597014129, 0.8797926340218408,0.047789504050825715,0.7758026123046875,0.2995147705078125,-0.6025238037109375
20220209-1408,2022-02-09 14:09:02Z,u01, 92,40,movements,el-ex, lt, d,16557.328222791668, 0.9541687102315177, -0.34912873955414025, 0.28597684741173457, -0.04542384296655655, 0.46340057253837585, -0.12038196623325348, 0.766615092754364, 0.3420792520046234, -0.5433998107910156, -0.0002574324607849121, -0.01451873779296875, -0.019496798515319824, -0.21715213059255878, 0.42561137400030113, 0.877273738179275,0.045727729532685,0.76507568359375,0.3265228271484375,-0.564788818359375
20220209-1408,2022-02-09 14:09:02Z,u01, 93,40,movements,el-ex, lt, d,16557.35316879167, 0.9652574643215371, -0.35068215161330135, 0.2827637411685381, 0.1902168095111847, 0.4861120879650116, -0.10936546325683594, 0.7721555233001709, 0.3435385227203369, -0.5345625877380371, 0.023071646690368652, -0.014131754636764526, -0.013990700244903564, -0.21737239985874596, 0.43065990265257903, 0.874902168937567,0.04274909939782309,0.7988128662109375,0.3334503173828125,-0.5452880859375
20220209-1408,2022-02-09 14:09:02Z,u01, 94,40,movements,el-ex, lt, d,16557.378115791667, 0.9742444817162373, -0.34740058427056636, 0.2738536356520413, 0.5162734985351562, 0.47775590419769287, -0.06553409993648529, 0.7778569459915161, 0.3404548168182373, -0.5282322764396667, 0.024358808994293213, -0.01109379529953003, -0.012416958808898926, -0.2142276645571621, 0.4358788494212375, 0.8732819306082821,0.03866609438203275,0.8046722412109375,0.3301849365234375,-0.5420379638671875
20220209-1408,2022-02-09 14:09:02Z,u01, 95,40,movements,el-ex, lt, d,16557.40306279167, 0.9817693035597436, -0.3397897443686537, 0.25841303343204375, 0.7941521406173706, 0.5549008250236511, -0.0610199049115181, 0.7839414477348328, 0.33328887820243835, -0.5237884521484375, -0.004125714302062988, -0.005285888910293579, -0.054794132709503174, -0.2077352620334512, 0.44153350358122356, 0.8722431784611799,0.032956123305971974,0.7789459228515625,0.3310699462890625,-0.57757568359375
20220209-1408,2022-02-09 14:09:02Z,u01, 96,40,movements,el-ex, lt, d,16557.428008791667, 0.9895523307518594, -0.3284056158220942, 0.2387890178079518, 0.9305300116539001, 0.5653969049453735, 0.010465728119015694, 0.7911143898963928, 0.3225342631340027, -0.5197209119796753, 0.009331285953521729, -0.00946962833404541, 0.01082521677017212, -0.19863537231823156, 0.4479771484113555, 0.871301522189732,0.02634994037711222,0.79522705078125,0.3221588134765625,-0.51080322265625
20220209-1408,2022-02-09 14:09:02Z,u01, 97,40,movements,el-ex, lt, d,16557.45295579167, 0.9982373137622056, -0.3187417660625092, 0.22150081332572671, 0.45906320214271545, 0.53280109167099, -0.053844351321458817, 0.7981809377670288, 0.3133719563484192, -0.514495313167572, 0.022589504718780518, 0.009610891342163086, 0.04762232303619385, -0.1907152939763248, 0.4542906629993845, 0.8699627543072861,0.020315686261646648,0.8233795166015625,0.31951904296875,-0.4701995849609375
20220209-1408,2022-02-09 14:09:02Z,u01, 98,40,movements,el-ex, lt, d,16557.477901791666, 1.0091195276799672, -0.31664872541291633, 0.21584025152029257, 0.15537413954734802, 0.5131375789642334, -0.03260171413421631, 0.8042857050895691, 0.3113836646080017, -0.5061272382736206, 0.02240508794784546, -0.016385406255722046, -0.05278676748275757, -0.18863242262207236, 0.4597327287059089, 0.8676192813899847,0.017334639613031055,0.82940673828125,0.296661376953125,-0.560211181640625
20220209-1408,2022-02-09 14:09:02Z,u01, 99,40,movements,el-ex, lt, d,16557.502849250002, 1.0204611881600174, -0.315550795536695, 0.2106450948935568, 0.2047976553440094, 0.5123680233955383, -0.07872067391872406, 0.8102651238441467, 0.31034010648727417, -0.4971514642238617, -0.005424857139587402, 0.0044182538986206055, -0.016825437545776367, -0.1870540852678857, 0.4652257937667627, 0.8650847648663023,0.014288932721588765,0.8047943115234375,0.3157501220703125,-0.5108642578125
20220209-1408,2022-02-09 14:09:02Z,u01, 100,40,movements,el-ex, lt, d,16557.52779525, 1.0317611980124135, -0.3149681257142683, 0.2060538842457896, 0.11487980931997299, 0.5072212815284729, -0.062477387487888336, 0.8159860968589783, 0.3097861707210541, -0.48805665969848633, 0.005119919776916504, 0.0033394694328308105, 0.009709030389785767, -0.1858055301326299, 0.4705825965854255, 0.8624955228980675,0.0113972666023483,0.8199920654296875,0.315643310546875,-0.480712890625
20220209-1408,2022-02-09 14:09:02Z,u01, 101,40,movements,el-ex, lt, d,16557.55274225, 1.0447002823551634, -0.31543810924075, 0.20292007261027745, 0.08409696817398071, 0.5934538245201111, -0.08574841916561127, 0.8221067190170288, 0.3102329969406128, -0.47738486528396606, 0.014380335807800293, 0.01261255145072937, -0.004136621952056885, -0.1853272806307435, 0.4764046309856128, 0.8594279865661206,0.008729878547139303,0.8380279541015625,0.324798583984375,-0.4803619384765625
20220209-1408,2022-02-09 14:09:02Z,u01, 102,40,movements,el-ex, lt, d,16557.57768925, 1.0588510813711063, -0.31670549719079183, 0.1996047192452287, 0.09352239221334457, 0.6127545237541199, -0.14306983351707458, 0.8284361362457275, 0.31143760681152344, -0.4655109941959381, 0.008157730102539062, 0.04705244302749634, 0.006862461566925049, -0.18511678896107783, 0.48267616450417544, 0.855992700458693,0.005676310701649312,0.837860107421875,0.3545379638671875,-0.4611358642578125
20220209-1408,2022-02-09 14:09:02Z,u01, 103,40,movements,el-ex, lt, d,16557.60263525, 1.0718709853929813, -0.3182226194039409, 0.1928582595997356, 0.35500311851501465, 0.5724526643753052, -0.1891033798456192, 0.834010660648346, 0.31287890672683716, -0.4544590413570404, 0.018070697784423828, 0.03656265139579773, -0.02427002787590027, -0.1841369647311905, 0.48873721355729294, 0.8527767035897799,0.0012036279740201827,0.8571014404296875,0.3498992919921875,-0.4798736572265625
20220209-1408,2022-02-09 14:09:02Z,u01, 104,40,movements,el-ex, lt, d,16557.62758225, 1.0819343507755534, -0.31750620305392085, 0.18159357885538163, 0.3396517038345337, 0.5141549110412598, -0.16787804663181305, 0.8387394547462463, 0.31219837069511414, -0.4461483359336853, 0.029699385166168213, 0.002743065357208252, 0.0023619234561920166, -0.1810616262109411, 0.4941077963676278, 0.8503266779234503,-0.004326305247394413,0.8689117431640625,0.3186187744140625,-0.4466094970703125
20220209-1408,2022-02-09 14:09:02Z,u01, 105,40,movements,el-ex, lt, d,16557.65252825, 1.0927837890401793, -0.319902089871592, 0.17627205751534977, -0.034447189420461655, 0.4781561493873596, -0.15744511783123016, 0.8428638577461243, 0.31447362899780273, -0.43667709827423096, 0.028336763381958008, -0.02274078130722046, 0.008698791265487671, -0.18070583820796635, 0.49900586986580786, 0.8475089985284914,-0.008190255771180419,0.8730316162109375,0.2853851318359375,-0.428924560546875
20220209-1408,2022-02-09 14:09:02Z,u01, 106,40,movements,el-ex, lt, d,16557.677475250002, 1.1052307450552903, -0.32484578259222824, 0.17647401587187542, -0.10391108691692352, 0.5091673135757446, -0.2067335695028305, 0.8468343019485474, 0.31916263699531555, -0.42544934153556824, 0.008604109287261963, 0.024465352296829224, -0.008952915668487549, -0.18275249464112303, 0.5038619386415885, 0.8441646064519882,-0.010534892173988883,0.857940673828125,0.3397369384765625,-0.4332122802734375
20220209-1408,2022-02-09 14:09:02Z,u01, 107,40,movements,el-ex, lt, d,16557.70242125, 1.117300492478958, -0.32963172527382717, 0.17451180548408637, 0.08533450216054916, 0.4973698854446411, -0.2048274725675583, 0.8505246639251709, 0.3236946165561676, -0.41452357172966003, -0.005447030067443848, 0.0026909708976745605, -0.03236043453216553, -0.18416262149087875, 0.5087458586953552, 0.8408764567456058,-0.013738271728384668,0.845855712890625,0.3238525390625,-0.4495391845703125
20220209-1408,2022-02-09 14:09:02Z,u01, 108,40,movements,el-ex, lt, d,16557.72736825, 1.12681022047624, -0.3326460892901846, 0.1690690299084553, 0.12208336591720581, 0.4082917273044586, -0.17364178597927094, 0.8535431027412415, 0.32654520869255066, -0.4059956669807434, 0.010440170764923096, -0.014365583658218384, -0.03965231776237488, -0.1839403069852474, 0.5129991450049668, 0.83826275403764,-0.017704305260591247,0.8639678955078125,0.31353759765625,-0.449981689453125
20220209-1408,2022-02-09 14:09:02Z,u01, 109,40,movements,el-ex, lt, d,16557.75231525, 1.1368044344243498, -0.3363491580836553, 0.16826422025165302, -0.1865597665309906, 0.39276909828186035, -0.12598440051078796, 0.8564550280570984, 0.3300430178642273, -0.3969338834285736, 0.019002854824066162, -0.02819359302520752, -0.008003711700439453, -0.18516064869978915, 0.5169609224418803, 0.835505012637527,-0.019960627499969325,0.8795623779296875,0.3015899658203125,-0.402984619140625
20220209-1408,2022-02-09 14:09:02Z,u01, 110,40,movements,el-ex, lt, d,16557.77726125, 1.1484860196499014, -0.34298819108251793, 0.17458967919709065, -0.41105538606643677, 0.3574320077896118, -0.15355996787548065, 0.8590156435966492, 0.3363027274608612, -0.38599565625190735, 0.031105875968933105, -0.01821798086166382, -0.039983779191970825, -0.18940034365342978, 0.5207011500529817, 0.8322193322783109,-0.02022030782334394,0.89105224609375,0.31573486328125,-0.4200439453125
20220209-1408,2022-02-09 14:09:02Z,u01, 111,40,movements,el-ex, lt, d,16557.80220825, 1.1588563701296053, -0.35038760843881994, 0.18238658548123637, -0.36749476194381714, 0.2402280867099762, -0.140573650598526, 0.860668420791626, 0.3432618975639343, -0.3760600984096527, 0.0284460186958313, -0.00851452350616455, -0.05886092782020569, -0.1943431701071765, 0.5236417465199881, 0.8292345766961451,-0.020003884165558594,0.888519287109375,0.3332061767578125,-0.43328857421875
20220209-1408,2022-02-09 14:09:03Z,u01, 112,40,movements,el-ex, lt, d,16557.82715425, 1.1669160323364045, -0.3575543098721047, 0.1919417825961156, -0.5446703433990479, 0.1573038399219513, -0.10930367559194565, 0.8613871932029724, 0.3499842584133148, -0.3681350648403168, 0.01518470048904419, -0.027977943420410156, -0.0254347026348114, -0.1996733937119222, 0.5254169782227878, 0.8268697619714304,-0.01881980041274431,0.8772430419921875,0.3216094970703125,-0.3961944580078125
20220209-1408,2022-02-09 14:09:03Z,u01, 113,40,movements,el-ex, lt, d,16557.852101250002, 1.1762826941063118, -0.3658254788423729, 0.20590571467792287, -0.6382863521575928, 0.192704975605011, -0.09933440387248993, 0.8620954751968384, 0.357720285654068, -0.3589257299900055, 0.022258222103118896, -0.015618175268173218, -0.034323543310165405, -0.20659788004727594, 0.5271190129041676, 0.8241340828199789,-0.016307098571194556,0.8845977783203125,0.343841552734375,-0.3955535888671875
20220209-1408,2022-02-09 14:09:03Z,u01, 114,40,movements,el-ex, lt, d,16557.87704725, 1.186300748064154, -0.37323338114970434, 0.21749784665049776, -0.3385421633720398, 0.2608519494533539, -0.11935006082057953, 0.8631677031517029, 0.3646281063556671, -0.34926775097846985, 0.00630873441696167, 0.01826074719429016, -0.09242817759513855, -0.21254908766337927, 0.5293288249130689, 0.8212301008969362,-0.014664503360653128,0.8701019287109375,0.3778533935546875,-0.4398956298828125
20220209-1408,2022-02-09 14:09:03Z,u01, 115,40,movements,el-ex, lt, d,16557.90199425, 1.1943340342148498, -0.3767163477844219, 0.2198534574754622, 0.06854693591594696, 0.27801820635795593, -0.08385058492422104, 0.8647593259811401, 0.3678690493106842, -0.3418535590171814, -0.009473562240600586, -0.018351197242736816, -0.04292711615562439, -0.21450192776946186, 0.5320358504025274, 0.8189538795582687,-0.015539076599663165,0.85406494140625,0.343017578125,-0.3770294189453125
20220209-1408,2022-02-09 14:09:03Z,u01, 116,40,movements,el-ex, lt, d,16557.92694125, 1.1990311902253417, -0.37772574922032637, 0.2145270399494428, 0.23598860204219818, 0.24351948499679565, -0.09170384705066681, 0.8660090565681458, 0.36880749464035034, -0.3376528024673462, 0.004764378070831299, 0.010007262229919434, -0.021172642707824707, -0.2134432744542989, 0.5344301277617457, 0.817608703251337,-0.018506945067129618,0.8658599853515625,0.37518310546875,-0.3573150634765625
20220209-1408,2022-02-09 14:09:03Z,u01, 117,40,movements,el-ex, lt, d,16557.95188725, 1.204234782793084, -0.37856116717172794, 0.21113334486350593, -0.09361956268548965, 0.27385151386260986, -0.07066920399665833, 0.8674665093421936, 0.3695839047431946, -0.33303138613700867, 0.012813150882720947, -0.027954816818237305, -0.003470480442047119, -0.2128151734262612, 0.5368370354916382, 0.8161421859174213,-0.020685058613215845,0.881805419921875,0.3369140625,-0.3278045654296875
20220209-1408,2022-02-09 14:09:03Z,u01, 118,40,movements,el-ex, lt, d,16557.97683425, 1.2139967949014698, -0.38198616020007314, 0.21797977872930108, -0.4208177924156189, 0.30848270654678345, -0.03351651132106781, 0.8694848418235779, 0.3727641999721527, -0.32410338521003723, 0.017035603523254395, -0.009589731693267822, 0.05893638730049133, -0.21591472620115187, 0.5397491502627862, 0.8134217112452468,-0.019921069981997747,0.888885498046875,0.3559417724609375,-0.266357421875
20220209-1408,2022-02-09 14:09:03Z,u01, 119,40,movements,el-ex, lt, d,16558.00178025, 1.225932448607599, -0.38623838145811457, 0.2269885589281111, -0.22334496676921844, 0.36168381571769714, -0.04511117935180664, 0.871791660785675, 0.3767065703868866, -0.31316399574279785, 0.0034984350204467773, 0.02847537398338318, 0.03315013647079468, -0.21991249120111475, 0.5431910314491738, 0.8100796963161343,-0.018790157710164013,0.8752593994140625,0.41156005859375,-0.2831878662109375
20220209-1408,2022-02-09 14:09:03Z,u01, 120,40,movements,el-ex, lt, d,16558.026727250002, 1.2347681090557507, -0.3875834950273193, 0.22621328371274171, 0.1933492124080658, 0.35816529393196106, -0.08002196252346039, 0.8740453720092773, 0.3779522478580475, -0.3052816390991211, 0.008248388767242432, 0.040977805852890015, 0.011931627988815308, -0.22014166850633554, 0.5467145808473673, 0.8076026208387075,-0.020466147971020393,0.882598876953125,0.419891357421875,-0.2955322265625
20220209-1408,2022-02-09 14:09:03Z,u01, 121,40,movements,el-ex, lt, d,16558.05167325, 1.2412797106103413, -0.3875999468306349, 0.2201456745906671, 0.17878925800323486, 0.3563995063304901, -0.07002485543489456, 0.8760088086128235, 0.3779674768447876, -0.29958173632621765, 5.942583084106445e-05, 0.01946297287940979, 0.003363102674484253, -0.21841269254228945, 0.5500045683095273, 0.8057495957907009,-0.023632179965400388,0.8741607666015625,0.3952789306640625,-0.2975006103515625
20220209-1408,2022-02-09 14:09:03Z,u01, 122,40,movements,el-ex, lt, d,16558.07662025, 1.2490097447256818, -0.38880895062902204, 0.21643018430254243, 0.10504952073097229, 0.3567153513431549, -0.10991314798593521, 0.8778643012046814, 0.37908652424812317, -0.2926565706729889, -0.0027878880500793457, 0.013415366411209106, -0.027548909187316895, -0.21776280442802803, 0.553399559956451, 0.8035144542631879,-0.02632402838104428,0.8742828369140625,0.3916168212890625,-0.317138671875
20220209-1408,2022-02-09 14:09:03Z,u01, 123,40,movements,el-ex, lt, d,16558.10156725, 1.256074549357204, -0.39068711288950553, 0.21250039031737583, 0.10658226907253265, 0.3140152096748352, -0.10874408483505249, 0.8792313933372498, 0.38082385063171387, -0.2862264811992645, -0.0023086071014404297, 0.005833953619003296, -0.033689022064208984, -0.2173050635172804, 0.5564757542160916, 0.8014109397493105,-0.029221876859868892,0.87689208984375,0.3836822509765625,-0.31976318359375
20220209-1408,2022-02-09 14:09:03Z,u01, 124,40,movements,el-ex, lt, d,16558.12651325, 1.262434431371667, -0.3930692344450244, 0.21031854457978186, -0.02297132834792137, 0.262775719165802, -0.10772755742073059, 0.8801670670509338, 0.3830253779888153, -0.28035280108451843, 0.006139814853668213, -0.0064078569412231445, -0.034451067447662354, -0.21752464671311333, 0.5590229200001379, 0.7994904075130761,-0.031490341932276095,0.885986328125,0.376373291015625,-0.316162109375
20220209-1408,2022-02-09 14:09:03Z,u01, 125,40,movements,el-ex, lt, d,16558.15146025, 1.269924166994014, -0.3963333329427433, 0.2120101482390086, -0.17035576701164246, 0.28370997309684753, -0.11004537343978882, 0.8810433745384216, 0.38603851199150085, -0.2733808159828186, 0.00515669584274292, -0.004080414772033691, -0.035090625286102295, -0.219141601315523, 0.5615038283444713, 0.7972626345042584,-0.032601458334478806,0.88726806640625,0.3814849853515625,-0.3076934814453125
20220209-1408,2022-02-09 14:09:03Z,u01, 126,40,movements,el-ex, lt, d,16558.17640625, 1.2787506317254618, -0.40064602337880706, 0.21713985471366756, -0.2870802879333496, 0.2423371821641922, -0.09839463979005814, 0.8818193674087524, 0.39001327753067017, -0.2651119530200958, 0.02725362777709961, -0.00866556167602539, -0.03785109519958496, -0.2221026470357087, 0.5640163485822018, 0.7946564216162306,-0.03282058985067711,0.90673828125,0.3814239501953125,-0.3019866943359375
20220209-1408,2022-02-09 14:09:03Z,u01, 127,40,movements,el-ex, lt, d,16558.201353250002, 1.2869509357609377, -0.40504428046389995, 0.22386045804542082, -0.24373020231723785, 0.20247618854045868, -0.10013008862733841, 0.8823084235191345, 0.3940594494342804, -0.25738903880119324, 0.02281254529953003, -0.00428888201713562, -0.04749658703804016, -0.22555464508101092, 0.5660658768759814, 0.7922407114863603,-0.03239226631299354,0.9033203125,0.3919677734375,-0.3050994873046875
20220209-1408,2022-02-09 14:09:03Z,u01, 128,40,movements,el-ex, lt, d,16558.22629925, 1.293469584202733, -0.40862692402500805, 0.2272504030550714, -0.06059260666370392, 0.20810744166374207, -0.11066901683807373, 0.8826041221618652, 0.39734968543052673, -0.25124406814575195, 0.00010180473327636719, 0.016163647174835205, -0.04099205136299133, -0.22777771178219647, 0.5678866796307234, 0.7902795795131028,-0.03287057859898426,0.8838348388671875,0.4128875732421875,-0.292388916015625
20220209-1408,2022-02-09 14:09:03Z,u01, 129,40,movements,el-ex, lt, d,16558.25124625, 1.2982237945096067, -0.41112067985153633, 0.22559254797471773, 0.11399850994348526, 0.2251727133989334, -0.11216092109680176, 0.8828315734863281, 0.3996368646621704, -0.24677763879299164, -0.00032407045364379883, 0.009848058223724365, -0.05119580030441284, -0.22817561695800687, 0.569690327806853, 0.7887816764441523,-0.0348218874476908,0.8827972412109375,0.40899658203125,-0.297149658203125
20220209-1408,2022-02-09 14:09:03Z,u01, 130,40,movements,el-ex, lt, d,16558.27619325, 1.3021126102553873, -0.4127820439668735, 0.22109778488648435, 0.13192243874073029, 0.2083621770143509, -0.11347799003124237, 0.8831430673599243, 0.40115925669670105, -0.2431659698486328, 0.010121762752532959, -0.008565813302993774, -0.04334805905818939, -0.22745465506484108, 0.5715604880926778, 0.7875111325041804,-0.03754030191137442,0.89166259765625,0.3949432373046875,-0.287322998046875
20220209-1408,2022-02-09 14:09:03Z,u01, 131,40,movements,el-ex, lt, d,16558.30113925, 1.3056871293296062, -0.4147579868568145, 0.2184261936504524, 0.010866896249353886, 0.1569400578737259, -0.09936316311359406, 0.8832398653030396, 0.4029684364795685, -0.23979943990707397, 0.01493823528289795, -0.03304961323738098, -0.040015965700149536, -0.22737169028675394, 0.5730640374792314, 0.7863406867351145,-0.0395987387678471,0.8971710205078125,0.3691253662109375,-0.2806396484375
20220209-1408,2022-02-09 14:09:03Z,u01, 132,40,movements,el-ex, lt, d,16558.32608625, 1.309193985958941, -0.41701121444257905, 0.2181585757936914, -0.017399929463863373, 0.1271573305130005, -0.0793202817440033, 0.8831961750984192, 0.4050295948982239, -0.236465185880661, 0.005063831806182861, -0.01261928677558899, -0.04342655837535858, -0.22807889244167295, 0.5742363840831544, 0.7852190603234589,-0.04078966689534526,0.889251708984375,0.39251708984375,-0.2809906005859375
20220209-1408,2022-02-09 14:09:03Z,u01, 133,40,movements,el-ex, lt, d,16558.35103225, 1.309255128655606, -0.4180675159667024, 0.21598696253694283, 0.07420462369918823, 0.15145987272262573, -0.08790352195501328, 0.8827968239784241, 0.4059951603412628, -0.23630042374134064, -0.0011133551597595215, -0.006520003080368042, -0.03065185248851776, -0.2278542799404667, 0.5743972640154247, 0.7851042924737632,-0.041971314551298725,0.8817901611328125,0.4005889892578125,-0.265106201171875
20220209-1408,2022-02-09 14:09:03Z,u01, 134,40,movements,el-ex, lt, d,16558.375979250002, 1.3073719093811418, -0.41323254113299585, 0.20923350399792376, 0.27438411116600037, 0.21934157609939575, -0.07763024419546127, 0.8842352032661438, 0.4015718698501587, -0.23847085237503052, -0.011752784252166748, -0.0022187530994415283, -0.02176755666732788, -0.2241194360060751, 0.5749217760450048, 0.7857429397888495,-0.04293744300779641,0.8719482421875,0.4036407470703125,-0.258575439453125
20220209-1408,2022-02-09 14:09:03Z,u01, 135,40,movements,el-ex, lt, d,16558.40092525, 1.3057174128729367, -0.40992838900949374, 0.19751526928723223, 0.44676676392555237, 0.20362213253974915, -0.058938443660736084, 0.8851151466369629, 0.39854365587234497, -0.24027979373931885, 0.00308382511138916, 0.007553815841674805, -0.020263850688934326, -0.21952816986310694, 0.5759057929448766, 0.7861242779377625,-0.04635376449124008,0.89178466796875,0.40350341796875,-0.2634735107421875
20220209-1408,2022-02-09 14:09:03Z,u01, 136,40,movements,el-ex, lt, d,16558.42587225, 1.3057155685124289, -0.4089650749858404, 0.18719745856940614, 0.25910139083862305, 0.08226276189088821, -0.027090968564152718, 0.8854847550392151, 0.39765995740890503, -0.2403818815946579, 0.03602415323257446, -0.034012436866760254, -0.027043402194976807, -0.2161868559470403, 0.577124162635038, 0.7859258299110092,-0.05011598785602682,0.9219512939453125,0.366119384765625,-0.26873779296875
20220209-1408,2022-02-09 14:09:03Z,u01, 137,40,movements,el-ex, lt, d,16558.45081925, 1.3066223839335793, -0.40911744619011897, 0.18541412681340722, -0.07735307514667511, 0.04452516511082649, -0.0017462624236941338, 0.8856440186500549, 0.3977997601032257, -0.23956303298473358, 0.015311360359191895, -0.043780505657196045, -0.019988715648651123, -0.21570720060961995, 0.5776581055575507, 0.7856110820748604,-0.05096079258959843,0.898193359375,0.3572235107421875,-0.259185791015625
20220209-1408,2022-02-09 14:09:03Z,u01, 138,40,movements,el-ex, lt, d,16558.47576525, 1.3074502402527495, -0.4107715022848882, 0.18822704100795762, -0.197189599275589, 0.09053366631269455, -0.021097857505083084, 0.8852053284645081, 0.3993167579174042, -0.2386581152677536, -0.0029726028442382812, -0.0111025869846344, -0.01659063994884491, -0.21712910977076866, 0.5775170087236232, 0.7853560074268705,-0.050448270547578444,0.8826141357421875,0.3897247314453125,-0.255859375
20220209-1408,2022-02-09 14:09:03Z,u01, 139,40,movements,el-ex, lt, d,16558.50071225, 1.3096206336234204, -0.4102963250683984, 0.19205472525110046, -0.10947375744581223, 0.05831654742360115, -0.022163188084959984, 0.8859045505523682, 0.39888107776641846, -0.23678530752658844, 0.016500353813171387, 0.0006551146507263184, -0.017898917198181152, -0.21799991551212133, 0.5779994648774933, 0.7848491664761833,-0.04903721876215311,0.9052276611328125,0.4036865234375,-0.2559051513671875
20220209-1408,2022-02-09 14:09:03Z,u01, 140,40,movements,el-ex, lt, d,16558.525657791666, 1.3086168406865395, -0.40441376078661445, 0.1912400117166647, 0.10007177293300629, 0.0038144877180457115, -0.015270859003067017, 0.8879173398017883, 0.3934798836708069, -0.23827849328517914, 0.012061476707458496, 0.0005631744861602783, -0.045580506324768066, -0.21554863064575117, 0.5782728933344825, 0.7854216726616285,-0.047457478482106755,0.9013519287109375,0.3974761962890625,-0.282470703125
20220209-1408,2022-02-09 14:09:03Z,u01, 141,40,movements,el-ex, lt, d,16558.550604791668, 1.3058995144552572, -0.40308708659180265, 0.18792691978569878, 0.08565498143434525, -0.061215709894895554, 0.003309682011604309, 0.8877696394920349, 0.3922598659992218, -0.2408268302679062, 0.021867990493774414, -0.0010091662406921387, -0.044939517974853516, -0.21415012009763976, 0.577690495101022, 0.7861955587964591,-0.04806391228348185,0.909393310546875,0.3880767822265625,-0.2856597900390625
20220209-1408,2022-02-09 14:09:03Z,u01, 142,40,movements,el-ex, lt, d,16558.575551791666, 1.3032655480077178, -0.4026488825652071, 0.18752235042955567, -0.06397472321987152, -0.09196962416172028, 0.007890584878623486, 0.8872979283332825, 0.39185675978660583, -0.24320976436138153, 0.010651469230651855, -0.019221782684326172, -0.02767932415008545, -0.21392913530069183, 0.5767403580385503, 0.7869685158266625,-0.047808139923452384,0.8985137939453125,0.3713836669921875,-0.2720184326171875
20220209-1408,2022-02-09 14:09:03Z,u01, 143,40,movements,el-ex, lt, d,16558.600497791667, 1.3010368787681856, -0.40331154187937446, 0.18924033506013632, -0.07181400060653687, -0.09573560208082199, 0.007001888006925583, 0.8865032196044922, 0.39246633648872375, -0.2451174110174179, 0.010225474834442139, -0.011484801769256592, -0.029998362064361572, -0.21473023708297725, 0.5756146480839445, 0.7876173326243792,-0.04709385054753541,0.8967132568359375,0.3824005126953125,-0.2750701904296875
20220209-1408,2022-02-09 14:09:03Z,u01, 144,40,movements,el-ex, lt, d,16558.62544479167, 1.2967795827598683, -0.40265184431206014, 0.1899651033226523, -0.04142959788441658, -0.15499041974544525, 0.02029532380402088, 0.8857007026672363, 0.3918594717979431, -0.24895928800106049, 0.027675271034240723, -0.010542243719100952, -0.050768911838531494, -0.21478531619994234, 0.5739230090188533, 0.7888915800400497,-0.04615150881776764,0.9136810302734375,0.382720947265625,-0.299072265625
20220209-1408,2022-02-09 14:09:03Z,u01, 145,40,movements,el-ex, lt, d,16558.650390791667, 1.2923783548479981, -0.4014339775581635, 0.19153863761468137, -0.07695330679416656, -0.20005761086940765, 0.04661814123392105, 0.8850545287132263, 0.39073872566223145, -0.25298598408699036, 0.024903476238250732, -0.014029651880264282, -0.04704737663269043, -0.21486928830251917, 0.572134768701673, 0.7902505414747233,-0.04469015187948065,0.9091796875,0.3756103515625,-0.3009490966796875
20220209-1408,2022-02-09 14:09:03Z,u01, 146,40,movements,el-ex, lt, d,16558.67533779167, 1.287359592662093, -0.39946421968504375, 0.19283570244986234, 0.0284750834107399, -0.19658012688159943, 0.059167422354221344, 0.8845110535621643, 0.38892480731010437, -0.25763943791389465, 0.017909228801727295, -0.0024653077125549316, -0.04935196042060852, -0.21459330755767214, 0.5702017182151844, 0.7918124791011901,-0.04304571593681655,0.9039764404296875,0.386322021484375,-0.3051605224609375
20220209-1408,2022-02-09 14:09:03Z,u01, 147,40,movements,el-ex, lt, d,16558.700283791666, 1.2812023752548793, -0.3965908882953659, 0.18882531050941673, 0.31709185242652893, -0.13678890466690063, 0.048575565218925476, 0.8839753270149231, 0.38627609610557556, -0.263398677110672, 0.011487007141113281, -0.002654731273651123, -0.07288959622383118, -0.21247784263366493, 0.5684662054350869, 0.7936249593861923,-0.04311658875190627,0.894866943359375,0.3820037841796875,-0.3393402099609375
20220209-1408,2022-02-09 14:09:03Z,u01, 148,40,movements,el-ex, lt, d,16558.725230791668, 1.2725452094667804, -0.39138216407639526, 0.17665762896779655, 0.6054878234863281, -0.1470039039850235, 0.04200108349323273, 0.8835729956626892, 0.38146641850471497, -0.2716289460659027, 0.024950683116912842, -0.00429961085319519, -0.08684554696083069, -0.20720157264240024, 0.56679188488607, 0.7960810989683934,-0.04549105033237709,0.9065704345703125,0.3815765380859375,-0.3576202392578125
20220209-1408,2022-02-09 14:09:03Z,u01, 149,40,movements,el-ex, lt, d,16558.750177791666, 1.2623514254427488, -0.3863790206754684, 0.16050095280230237, 0.6691641211509705, -0.23308834433555603, 0.0612015426158905, 0.8825656771659851, 0.3768368661403656, -0.28119751811027527, 0.030581414699554443, -0.03188133239746094, -0.06818276643753052, -0.20092581232347884, 0.5648274606572017, 0.7988475374540898,-0.04941214491146717,0.9127044677734375,0.3450469970703125,-0.34649658203125
20220209-1408,2022-02-09 14:09:03Z,u01, 150,40,movements,el-ex, lt, d,16558.775123791667, 1.2519245342773369, -0.382022332275916, 0.14592446705985387, 0.5264818668365479, -0.28586646914482117, 0.12797483801841736, 0.8811363577842712, 0.37279778718948364, -0.29089638590812683, 0.02251976728439331, -0.05030319094657898, -0.056637585163116455, -0.19537871022097347, 0.5624757422062248, 0.8016523809874073,-0.05293220413322351,0.905517578125,0.324432373046875,-0.34881591796875
20220209-1408,2022-02-09 14:09:03Z,u01, 151,40,movements,el-ex, lt, d,16558.80007079167, 1.2426960926506765, -0.37717521355008327, 0.1388661339513229, 0.21947604417800903, -0.3115254342556, 0.19582080841064453, 0.8801146745681763, 0.36829569935798645, -0.2995941936969757, 0.025464117527008057, -0.052194565534591675, -0.04653596878051758, -0.19173559506981674, 0.559857450290738, 0.8043253569427753,-0.05346013689854105,0.906280517578125,0.3182220458984375,-0.3450164794921875
20220209-1408,2022-02-09 14:09:04Z,u01, 152,40,movements,el-ex, lt, d,16558.825016791667, 1.2345746455346074, -0.37177837746142606, 0.13620182139295628, 0.19241522252559662, -0.33342891931533813, 0.2519018352031708, 0.8795160055160522, 0.36327287554740906, -0.30738329887390137, 0.02867192029953003, -0.020163685083389282, -0.036915749311447144, -0.18907230446818007, 0.5572791131960747, 0.8068253984273867,-0.05219665788307043,0.907958984375,0.343963623046875,-0.3427886962890625
20220209-1408,2022-02-09 14:09:04Z,u01, 153,40,movements,el-ex, lt, d,16558.84996379167, 1.2254151960710054, -0.3650883885716051, 0.13387180036953186, 0.17728489637374878, -0.37487083673477173, 0.2386620044708252, 0.878930926322937, 0.35703185200691223, -0.31624194979667664, 0.02187180519104004, -0.007681816816329956, -0.034099698066711426, -0.18600368230392925, 0.5543299222403281, 0.8096824997993518,-0.05035269050815666,0.9005889892578125,0.3538665771484375,-0.3500823974609375
20220209-1408,2022-02-09 14:09:04Z,u01, 154,40,movements,el-ex, lt, d,16558.874909791666, 1.2154322981425492, -0.3590220210827212, 0.1322255366424644, 0.147556334733963, -0.42594462633132935, 0.2262541502714157, 0.8777445554733276, 0.3513587713241577, -0.32574787735939026, 0.019426584243774414, 0.0074059367179870605, -0.03471025824546814, -0.18337622180115737, 0.5509076302091355, 0.8127331015435043,-0.04836285039820004,0.89788818359375,0.3600616455078125,-0.358062744140625
20220209-1408,2022-02-09 14:09:04Z,u01, 155,40,movements,el-ex, lt, d,16558.899856791668, 1.2042417092640976, -0.3534635341169322, 0.1310964703604292, 0.10213905572891235, -0.45878803730010986, 0.20380130410194397, 0.8758541345596313, 0.3461492955684662, -0.3362445533275604, 0.022186756134033203, 0.011043787002563477, -0.03361302614212036, -0.18110436381892914, 0.5468810966101826, 0.8160795026962185,-0.04622410215826482,0.89874267578125,0.3583984375,-0.366973876953125
20220209-1408,2022-02-09 14:09:04Z,u01, 156,40,movements,el-ex, lt, d,16558.924803791666, 1.1926088072881593, -0.34850104776396224, 0.13146530939012352, 0.04315133020281792, -0.5011752247810364, 0.19975882768630981, 0.8734691143035889, 0.34148934483528137, -0.3470402956008911, 0.03340667486190796, 0.005663424730300903, -0.02072685956954956, -0.1794689899762291, 0.542467266724419, 0.8195224602856586,-0.04362623739337358,0.9053192138671875,0.347686767578125,-0.3650360107421875
20220209-1408,2022-02-09 14:09:04Z,u01, 157,40,movements,el-ex, lt, d,16558.949749791667, 1.1805439851003534, -0.34415271025499605, 0.13279951363166387, 0.01753348484635353, -0.5165413022041321, 0.18767160177230835, 0.870583713054657, 0.3373991847038269, -0.3581145405769348, 0.03530019521713257, 0.013522505760192871, -0.01702260971069336, -0.17832592130296004, 0.5377198083642898, 0.8230395774672505,-0.04078388953103719,0.9066925048828125,0.3520965576171875,-0.376129150390625
20220209-1408,2022-02-09 14:09:04Z,u01, 158,40,movements,el-ex, lt, d,16558.97469679167, 1.1681474406988048, -0.3399980995235487, 0.13455978519571454, -0.014212258160114288, -0.546692430973053, 0.18967710435390472, 0.8673596382141113, 0.33348530530929565, -0.36942505836486816, 0.05176889896392822, 0.004207015037536621, -0.01492840051651001, -0.17735331156128908, 0.5327600533403359, 0.8266096004809826,-0.0378044489046232,0.9191741943359375,0.33978271484375,-0.3841705322265625
20220209-1408,2022-02-09 14:09:04Z,u01, 159,40,movements,el-ex, lt, d,16558.999642791667, 1.1551122718668214, -0.3360033500233609, 0.13708990624809925, -0.0053763557225465775, -0.5684900283813477, 0.18800635635852814, 0.8636824488639832, 0.32971659302711487, -0.38123443722724915, 0.049083173274993896, -0.0024307668209075928, -0.03394171595573425, -0.1766298192129307, 0.5274321636509631, 0.830317166992446,-0.03450589350756467,0.9116363525390625,0.3283843994140625,-0.4180908203125
20220209-1408,2022-02-09 14:09:04Z,u01, 160,40,movements,el-ex, lt, d,16559.02458979167, 1.140935150347225, -0.33119633274615445, 0.13830095088454952, 0.09478040039539337, -0.6102399826049805, 0.2191886454820633, 0.8596219420433044, 0.32517457008361816, -0.3940962553024292, 0.05048871040344238, 0.0022943615913391113, -0.0557020902633667, -0.1752105543762425, 0.5217788107040991, 0.8343017334400935,-0.03144784584306279,0.910186767578125,0.3293609619140625,-0.4466400146484375
20220209-1408,2022-02-09 14:09:04Z,u01, 161,40,movements,el-ex, lt, d,16559.049535791666, 1.1257207789455892, -0.32531589398437594, 0.13827313444852432, 0.09558457881212234, -0.6144751906394958, 0.21820200979709625, 0.8552378416061401, 0.3196081221103668, -0.4079449474811554, 0.038088083267211914, -0.004559844732284546, -0.05230569839477539, -0.1730078942662796, 0.5158447376398119, 0.8385447948905226,-0.02855354189993163,0.89105224609375,0.3133392333984375,-0.45849609375
20220209-1408,2022-02-09 14:09:04Z,u01, 162,40,movements,el-ex, lt, d,16559.074482791668, 1.1103482324900529, -0.3196590374354702, 0.1383797123792985, 0.11707502603530884, -0.6381028890609741, 0.20126576721668243, 0.8504720330238342, 0.3142428994178772, -0.42184004187583923, 0.025184273719787598, -0.0012545585632324219, -0.05237239599227905, -0.17089917407950272, 0.5097778377984532, 0.8427696194822483,-0.025683369142051785,0.8752899169921875,0.312530517578125,-0.47265625
20220209-1408,2022-02-09 14:09:04Z,u01, 163,40,movements,el-ex, lt, d,16559.099429791666, 1.0936480436510927, -0.3133754014182882, 0.1378574890081237, 0.13114051520824432, -0.698039174079895, 0.24187152087688446, 0.84504634141922, 0.3082714080810547, -0.4368818402290344, 0.040711283683776855, -0.008344560861587524, -0.04637908935546875, -0.16835028419460207, 0.503206982102644, 0.8473013562525492,-0.022838069796628543,0.8871917724609375,0.2978973388671875,-0.483245849609375
20220209-1408,2022-02-09 14:09:04Z,u01, 164,40,movements,el-ex, lt, d,16559.124375791667, 1.0763798688739412, -0.30719849822458734, 0.13993498761351872, -0.057978782802820206, -0.7396914958953857, 0.2709791660308838, 0.8390367031097412, 0.3023894727230072, -0.45230332016944885, 0.04272317886352539, -0.01912522315979004, -0.01585143804550171, -0.16645969102566271, 0.4961244930149397, 0.8519356284483078,-0.018910168645151673,0.8844757080078125,0.2816162109375,-0.4677276611328125
20220209-1408,2022-02-09 14:09:04Z,u01, 165,40,movements,el-ex, lt, d,16559.14932279167, 1.0600250347521847, -0.302861155565648, 0.1466395810887101, -0.16860103607177734, -0.7329922914505005, 0.2858893871307373, 0.8326637744903564, 0.2982523739337921, -0.46660128235816956, 0.039925456047058105, -0.002552211284637451, -0.01092231273651123, -0.16641533184362323, 0.48888168167926943, 0.8562222162264489,-0.013577263842606463,0.870513916015625,0.2957611083984375,-0.47882080078125
20220209-1408,2022-02-09 14:09:04Z,u01, 166,40,movements,el-ex, lt, d,16559.174268791667, 1.0436918203929861, -0.2984021847031787, 0.15316989976617773, -0.07003071904182434, -0.7390745282173157, 0.28504103422164917, 0.8260731101036072, 0.29399338364601135, -0.4808027148246765, 0.04758423566818237, 0.022473961114883423, -0.019868463277816772, -0.16620055479763415, 0.4816388948036365, 0.8604259012765187,-0.008291330495487678,0.871856689453125,0.315460205078125,-0.4976043701171875
20220209-1408,2022-02-09 14:09:04Z,u01, 167,40,movements,el-ex, lt, d,16559.19921579167, 1.0263842923263067, -0.29300466942933745, 0.15784086089480667, -0.042601458728313446, -0.761254072189331, 0.27567264437675476, 0.8189738988876343, 0.28883013129234314, -0.495841920375824, 0.05596524477005005, 0.024249762296676636, -0.0028303861618041992, -0.1650702107991225, 0.47416332537025074, 0.8648173229129387,-0.0034998283173644507,0.8734893798828125,0.3112335205078125,-0.497650146484375
20220209-1408,2022-02-09 14:09:04Z,u01, 168,40,movements,el-ex, lt, d,16559.224162791666, 1.0087249181925613, -0.2883398259373218, 0.1626942622973096, -0.05165673792362213, -0.7710063457489014, 0.24804820120334625, 0.8112215995788574, 0.28436097502708435, -0.5109389424324036, 0.044598281383514404, 0.024400681257247925, 0.007734775543212891, -0.16422575248448712, 0.46643375052864744, 0.8691767595780636,0.0012021370944390597,0.8572235107421875,0.307403564453125,-0.502593994140625
20220209-1408,2022-02-09 14:09:04Z,u01, 169,40,movements,el-ex, lt, d,16559.249108791668, 0.9908658670941622, -0.2835514404778255, 0.16678092969453717, 0.002654905430972576, -0.7525339722633362, 0.24829651415348053, 0.8030975461006165, 0.2797670364379883, -0.5260843634605408, 0.040911972522735596, 0.033831655979156494, 0.005454719066619873, -0.16308125130830525, 0.4586527291148109, 0.8735049114444706,0.00560066239862575,0.843353271484375,0.311126708984375,-0.5220947265625
20220209-1408,2022-02-09 14:09:04Z,u01, 170,40,movements,el-ex, lt, d,16559.274055791666, 0.973141790249174, -0.27792847672609644, 0.16904084136409628, 0.12737683951854706, -0.7284989953041077, 0.2401258945465088, 0.7949355244636536, 0.2743642032146454, -0.5411118865013123, 0.04834163188934326, 0.03891405463218689, -0.001582026481628418, -0.16109814795304456, 0.4511002650528143, 0.877763376940512,0.009363661536456208,0.8433074951171875,0.313385009765625,-0.5398101806640625
20220209-1408,2022-02-09 14:09:04Z,u01, 171,40,movements,el-ex, lt, d,16559.299001791667, 0.9546431218293989, -0.27062436335780415, 0.16827436783434307, 0.2551193833351135, -0.7435649633407593, 0.21135449409484863, 0.7864046692848206, 0.26733312010765076, -0.5568669438362122, 0.040515005588531494, 0.03559961915016174, -0.010164737701416016, -0.15765213457696664, 0.44352265317569206, 0.882204346291465,0.012208698565305709,0.823974609375,0.302581787109375,-0.5694427490234375
20220209-1408,2022-02-09 14:09:04Z,u01, 172,40,movements,el-ex, lt, d,16559.32394879167, 0.935535222896231, -0.2625565216387047, 0.165877657029519, 0.2534661293029785, -0.7491860389709473, 0.21062538027763367, 0.7773320078849792, 0.2595503032207489, -0.5730520486831665, 0.019283711910247803, 0.021486103534698486, 0.0037010908126831055, -0.15347046729205283, 0.43579901096023516, 0.8867447113035928,0.01448826652818802,0.7955169677734375,0.2859649658203125,-0.5689239501953125
20220209-1408,2022-02-09 14:09:04Z,u01, 173,40,movements,el-ex, lt, d,16559.348894791667, 0.9164902330022208, -0.25530533166525143, 0.165007229246794, 0.1549951732158661, -0.7594879865646362, 0.22498507797718048, 0.767751157283783, 0.25254085659980774, -0.5888815522193909, 0.026743650436401367, 0.016746312379837036, 0.0028526782989501953, -0.1499432358176099, 0.4278741018046013, 0.8911486136037261,0.01718093974029064,0.79400634765625,0.2695770263671875,-0.5897979736328125
20220209-1408,2022-02-09 14:09:04Z,u01, 174,40,movements,el-ex, lt, d,16559.37384179167, 0.8981451142504386, -0.24871130376970813, 0.16597117381871626, 0.13780805468559265, -0.7469029426574707, 0.2419653981924057, 0.758105456829071, 0.24615511298179626, -0.6038905382156372, 0.03750312328338623, 0.023620307445526123, -0.026617705821990967, -0.1470600972851846, 0.420033394288131, 0.8952808487464288,0.020432967096904675,0.7938232421875,0.27099609375,-0.6299591064453125
20220209-1408,2022-02-09 14:09:04Z,u01, 175,40,movements,el-ex, lt, d,16559.398788791666, 0.8790555238638118, -0.2419889637223511, 0.16682715188801828, 0.151852548122406, -0.8012884259223938, 0.22394731640815735, 0.7476975321769714, 0.23963411152362823, -0.6192931532859802, 0.04296731948852539, 0.026448726654052734, -0.022659242153167725, -0.14404069350304638, 0.41183213906336585, 0.8994924202926773,0.023666090156443637,0.7883148193359375,0.265960693359375,-0.642303466796875
20220209-1408,2022-02-09 14:09:04Z,u01, 176,40,movements,el-ex, lt, d,16559.423734791668, 0.8591317840992563, -0.2353538707913136, 0.16802756315796347, 0.12000073492527008, -0.8259662985801697, 0.24738845229148865, 0.736399233341217, 0.23318710923194885, -0.6350906491279602, 0.034536004066467285, 0.025388389825820923, -0.01754283905029297, -0.1410692329157225, 0.40318004430411714, 0.9037778690366164,0.027039267424678465,0.771697998046875,0.2610626220703125,-0.6517486572265625
20220209-1408,2022-02-09 14:09:04Z,u01, 177,40,movements,el-ex, lt, d,16559.448681791666, 0.838830492232272, -0.22946838681103798, 0.1704477006084207, 0.05564938113093376, -0.8424990773200989, 0.23171456158161163, 0.7243635058403015, 0.2274598777294159, -0.6508145332336426, 0.03198426961898804, 0.022952139377593994, -0.006213486194610596, -0.13861612547572763, 0.3941805532662665, 0.9079976977943474,0.030780777957603617,0.75506591796875,0.2523040771484375,-0.65777587890625
20220209-1408,2022-02-09 14:09:04Z,u01, 178,40,movements,el-ex, lt, d,16559.473627791667, 0.8186719228993835, -0.22458456601972887, 0.1734198713540151, 0.05201033875346184, -0.834661602973938, 0.21680864691734314, 0.7119004726409912, 0.22270138561725616, -0.666034460067749, 0.034498631954193115, 0.04194709658622742, -0.0008659958839416504, -0.13666297702787017, 0.38510518215800976, 0.9120449659697021,0.034515479668871724,0.7455596923828125,0.2634429931640625,-0.6677703857421875
20220209-1408,2022-02-09 14:09:04Z,u01, 179,40,movements,el-ex, lt, d,16559.49857479167, 0.7985640116731967, -0.21983265263881754, 0.1762067234321834, 0.04749571532011032, -0.8324000835418701, 0.2085178941488266, 0.6991150975227356, 0.21806630492210388, -0.6809443831443787, 0.04183661937713623, 0.0429048091173172, 0.02156651020050049, -0.13467461579849888, 0.3760193488230226, 0.9159807719189186,0.03809964965997692,0.7392425537109375,0.25958251953125,-0.65753173828125
20220209-1408,2022-02-09 14:09:04Z,u01, 180,40,movements,el-ex, lt, d,16559.523521000003, 0.7784007292935831, -0.2157529523398284, 0.17878649830002563, 0.048039764165878296, -0.8350196480751038, 0.17613112926483154, 0.6858627796173096, 0.2140829861164093, -0.6955291628837585, 0.03534400463104248, 0.039548665285110474, 0.024142563343048096, -0.13289553381788022, 0.3668435701376019, 0.9198089762085816,0.041426411508427546,0.722503662109375,0.252532958984375,-0.67095947265625
20220209-1408,2022-02-09 14:09:04Z,u01, 181,40,movements,el-ex, lt, d,16559.548468, 0.7581999334301078, -0.21209708648093376, 0.18106590249845791, 0.030889306217432022, -0.8258141279220581, 0.15980175137519836, 0.672207236289978, 0.2105104625225067, -0.7098048329353333, 0.03639578819274902, 0.04214461147785187, 0.0321163535118103, -0.13120273349843828, 0.35760793945884506, 0.9235376971882278,0.044505283349462854,0.7059326171875,0.2534027099609375,-0.678009033203125
20220209-1408,2022-02-09 14:09:04Z,u01, 182,40,movements,el-ex, lt, d,16559.573415000003, 0.738299045723404, -0.2088701892851387, 0.18354319278978584, 0.046688906848430634, -0.8177438974380493, 0.1541646420955658, 0.6584030985832214, 0.20735478401184082, -0.7235395312309265, 0.03422403335571289, 0.040127575397491455, 0.026609718799591064, -0.1297003137968747, 0.3484365923963055, 0.9270971620114112,0.047547831028065035,0.6937103271484375,0.24774169921875,-0.6960601806640625
20220209-1408,2022-02-09 14:09:04Z,u01, 183,40,movements,el-ex, lt, d,16559.598361, 0.7186855754369852, -0.20548367373958473, 0.18508994500474513, 0.0848953127861023, -0.7892070412635803, 0.11780190467834473, 0.6445448398590088, 0.20404067635536194, -0.7368373870849609, 0.03317439556121826, 0.04240407049655914, 0.036474406719207764, -0.12792602636928074, 0.3394351717765111, 0.9305398929092839,0.05014191578189586,0.6768035888671875,0.245452880859375,-0.7040863037109375
20220209-1408,2022-02-09 14:09:04Z,u01, 184,40,movements,el-ex, lt, d,16559.623308000002, 0.6992705037271573, -0.20172528419207475, 0.18550363815323873, 0.1383046805858612, -0.7833173274993896, 0.10931694507598877, 0.6306076645851135, 0.20035992562770844, -0.7497932314872742, 0.042518675327301025, 0.03683798015117645, 0.038398146629333496, -0.12575883268206156, 0.33058750635401374, 0.933899809358739,0.05222879180260784,0.673004150390625,0.2402496337890625,-0.710479736328125
20220209-1408,2022-02-09 14:09:04Z,u01, 185,40,movements,el-ex, lt, d,16559.648254, 0.6796166987940819, -0.19763740783225753, 0.18506603003862931, 0.14669349789619446, -0.781202495098114, 0.08173591643571854, 0.6162601709365845, 0.19635328650474548, -0.7626721858978271, 0.04089021682739258, 0.026287764310836792, 0.0318220853805542, -0.12326619898591937, 0.32166652183877, 0.9372436806836268,0.05394974121972493,0.6548614501953125,0.2216644287109375,-0.73223876953125
20220209-1408,2022-02-09 14:09:04Z,u01, 186,40,movements,el-ex, lt, d,16559.673201, 0.6598903723767181, -0.19306769438841095, 0.18389857419855307, 0.21503646671772003, -0.7857043147087097, 0.07961683720350266, 0.6016402840614319, 0.19187049567699432, -0.7753803730010986, 0.034163057804107666, 0.026635438203811646, 0.006459593772888184, -0.12041013153054728, 0.3127478569344622, 0.9405449397402675,0.05536694906018674,0.63726806640625,0.2170867919921875,-0.7665557861328125
20220209-1408,2022-02-09 14:09:04Z,u01, 187,40,movements,el-ex, lt, d,16559.698147000003, 0.6401858688891887, -0.18714814920644515, 0.18189433662179935, 0.23914340138435364, -0.7706180214881897, 0.07350088655948639, 0.5869141817092896, 0.18605759739875793, -0.7879811525344849, 0.044036865234375, 0.014183521270751953, 0.00032263994216918945, -0.11677747203097003, 0.30392833350486714, 0.9438180631532904,0.05655243348279754,0.6297454833984375,0.19989013671875,-0.7887725830078125
20220209-1408,2022-02-09 14:09:04Z,u01, 188,40,movements,el-ex, lt, d,16559.723094, 0.6204436645541437, -0.18165628596737082, 0.1802745853401196, 0.20747947692871094, -0.7863261699676514, 0.07948394119739532, 0.5718297958374023, 0.18065884709358215, -0.8002331256866455, 0.030327916145324707, 0.005361109972000122, 0.005021452903747559, -0.11338870059959219, 0.2950024190428796, 0.9469831953054303,0.05778856746735819,0.6073150634765625,0.187225341796875,-0.795135498046875
20220209-1408,2022-02-09 14:09:04Z,u01, 189,40,movements,el-ex, lt, d,16559.748041000003, 0.6009122336643986, -0.17618262141795832, 0.17858252090450655, 0.24166721105575562, -0.7614206671714783, 0.07907235622406006, 0.5566427707672119, 0.17527256906032562, -0.8120519518852234, 0.023313403129577637, 0.020802929997444153, 0.009592294692993164, -0.10999022664460693, 0.28614014253490355, 0.9500290551949173,0.05891387282534605,0.5803680419921875,0.1943206787109375,-0.8039398193359375
20220209-1408,2022-02-09 14:09:04Z,u01, 190,40,movements,el-ex, lt, d,16559.772987, 0.5816821428054026, -0.17084224509985138, 0.1773024569351631, 0.14977219700813293, -0.7779421210289001, 0.08222180604934692, 0.5414315462112427, 0.17001239955425262, -0.8233757615089417, 0.047603607177734375, 0.011246830224990845, 0.0206109881401062, -0.10670883807766715, 0.2773541672622222, 0.9529277917186636,0.06013834635957571,0.590576171875,0.1803131103515625,-0.8059234619140625
20220209-1408,2022-02-09 14:09:04Z,u01, 191,40,movements,el-ex, lt, d,16559.797934000002, 0.5625002773909048, -0.16813412226408977, 0.17809990731569453, 0.0269569493830204, -0.7615492939949036, 0.08598864823579788, 0.5257826447486877, 0.16734308004379272, -0.8339957594871521, 0.03821283578872681, 0.017868146300315857, 0.04752737283706665, -0.10494586829906963, 0.26830671832774033, 0.9555958556852954,0.06192278539706991,0.5617523193359375,0.1884307861328125,-0.785369873046875
20220209-1408,2022-02-09 14:09:05Z,u01, 192,40,movements,el-ex, lt, d,16559.82288, 0.544078136906257, -0.16608672656853607, 0.17935289496381562, 0.0806979387998581, -0.7449492812156677, 0.07269655168056488, 0.5105066299438477, 0.16532419621944427, -0.8438311219215393, 0.034247517585754395, 0.023991629481315613, 0.05486029386520386, -0.10355697335875963, 0.25953879530112256, 0.9580446621996811,0.06376736521490062,0.5480194091796875,0.188720703125,-0.7865142822265625
20220209-1408,2022-02-09 14:09:05Z,u01, 193,40,movements,el-ex, lt, d,16559.847827, 0.525812951605265, -0.1639039861759863, 0.1795232633237538, 0.05013294517993927, -0.722510814666748, 0.04687553644180298, 0.4951895475387573, 0.16317109763622284, -0.8533244132995605, 0.018436729907989502, 0.03520846366882324, 0.0769420862197876, -0.10194770316286131, 0.25088732045720535, 0.9604305701677228,0.06508156110283705,0.5137481689453125,0.19830322265625,-0.7749786376953125
20220209-1408,2022-02-09 14:09:05Z,u01, 194,40,movements,el-ex, lt, d,16559.872773000003, 0.5077507107178068, -0.1631198465631969, 0.18084776507497569, -0.05810577794909477, -0.7479349374771118, 0.0667877271771431, 0.47975870966911316, 0.16239742934703827, -0.8622404932975769, 0.05416172742843628, 0.013063445687294006, 0.08469849824905396, -0.10114022143311212, 0.2421784521561623, 0.9626351396256905,0.06673764359725953,0.5366973876953125,0.1760406494140625,-0.77825927734375
20220209-1408,2022-02-09 14:09:05Z,u01, 195,40,movements,el-ex, lt, d,16559.89772, 0.4901190606921029, -0.1653578293049451, 0.18361228175135055, -0.15977750718593597, -0.6888787746429443, 0.0521707646548748, 0.4643099308013916, 0.1646052896976471, -0.870242178440094, 0.03259268403053284, 0.02797594666481018, 0.11432182788848877, -0.10194616689169936, 0.23342215951043682, 0.964574454760394,0.06868252546020198,0.4947967529296875,0.1945648193359375,-0.7549285888671875
20220209-1408,2022-02-09 14:09:05Z,u01, 196,40,movements,el-ex, lt, d,16559.922667000003, 0.4740973431085087, -0.16823766441691101, 0.18573504225135565, -0.09262803941965103, -0.6328930258750916, -0.00025728950276970863, 0.4500899016857147, 0.16744515299797058, -0.8771438002586365, 0.020201385021209717, 0.034810155630111694, 0.11560821533203125, -0.10301833211294605, 0.22542253523722702, 0.9662543288749336,0.07017635247993992,0.4722900390625,0.203277587890625,-0.760589599609375
20220209-1408,2022-02-09 14:09:05Z,u01, 197,40,movements,el-ex, lt, d,16559.947613, 0.4588465454601036, -0.1690333252696429, 0.18602034603604556, 0.011803362518548965, -0.5970357656478882, -0.0027189822867512703, 0.43660178780555725, 0.16822953522205353, -0.8837860226631165, 0.0074901580810546875, 0.03188955783843994, 0.11625373363494873, -0.10289498700486967, 0.2179899320432179, 0.9679108333600551,0.07100514842872804,0.4396209716796875,0.1982269287109375,-0.7654876708984375
20220209-1408,2022-02-09 14:09:05Z,u01, 198,40,movements,el-ex, lt, d,16559.972560000002, 0.44472962255857623, -0.170513597358033, 0.18640319775675435, -0.1601044237613678, -0.5449314117431641, -0.008819885551929474, 0.42397475242614746, 0.16968852281570435, -0.889635443687439, -0.0057006776332855225, 0.012348860502243042, 0.18747180700302124, -0.10314655907511591, 0.21105226567466953, 0.9693658575703444,0.07174759490558749,0.41717529296875,0.181732177734375,-0.70977783203125
20220209-1408,2022-02-09 14:09:05Z,u01, 199,40,movements,el-ex, lt, d,16559.997506, 0.4326768872791207, -0.17613251126028817, 0.1892682463831112, -0.28682827949523926, -0.4624094069004059, 0.010596956126391888, 0.4128153622150421, 0.175223246216774, -0.8938010334968567, 0.026180148124694824, 0.015404865145683289, 0.20427167415618896, -0.10572266840177659, 0.20474908159317293, 0.9703358516802443,0.07313769405747769,0.4399261474609375,0.1920623779296875,-0.68994140625
20220209-1408,2022-02-09 14:09:05Z,u01, 200,40,movements,el-ex, lt, d,16560.022453, 0.4226480306312841, -0.1813826315529796, 0.19169024378102367, -0.12496790289878845, -0.38772591948509216, -0.0018430016934871674, 0.40344804525375366, 0.18038970232009888, -0.8970447182655334, 0.0025732219219207764, 0.0380551815032959, 0.18220102787017822, -0.108136568261983, 0.1994595657221907, 0.9710847624070249,0.07427533517019858,0.4135894775390625,0.2177886962890625,-0.715301513671875
20220209-1408,2022-02-09 14:09:05Z,u01, 201,40,movements,el-ex, lt, d,16560.047399000003, 0.4147470208045501, -0.18322227538670902, 0.1920451878594142, -0.052142828702926636, -0.2646969258785248, -0.025538478046655655, 0.3962135910987854, 0.18219885230064392, -0.8998991250991821, -0.03371039032936096, 0.02629728615283966, 0.1991850733757019, -0.10876760703840674, 0.19549949737613098, 0.9717884389585522,0.07467884234797378,0.3610992431640625,0.2071990966796875,-0.6966094970703125
20220209-1408,2022-02-09 14:09:05Z,u01, 202,40,movements,el-ex, lt, d,16560.072346, 0.4100248253938653, -0.18685663311584563, 0.19295173790004222, -0.18799930810928345, -0.17590759694576263, -0.015385109931230545, 0.391693115234375, 0.1857711672782898, -0.9011468291282654, 0.0024110078811645508, 0.013218745589256287, 0.23874759674072266, -0.11043852373903759, 0.19295055844079198, 0.9720851695470504,0.07499365367763189,0.38897705078125,0.19677734375,-0.6607818603515625
20220209-1408,2022-02-09 14:09:05Z,u01, 203,40,movements,el-ex, lt, d,16560.097293000003, 0.40819795186657726, -0.19253370459006933, 0.19462081638039913, -0.1723807454109192, -0.07246769964694977, -0.024798784404993057, 0.3896212577819824, 0.19134639203548431, -0.900878369808197, 0.022152572870254517, 0.022993862628936768, 0.2323451042175293, -0.11327896943999731, 0.19164730049217327, 0.9719915842732768,0.07531025774872754,0.4114837646484375,0.2171173095703125,-0.668853759765625
20220209-1408,2022-02-09 14:09:05Z,u01, 204,40,movements,el-ex, lt, d,16560.122239, 0.40853976037450673, -0.19574092316744074, 0.19508772338818078, -0.05307420343160629, 0.048496004194021225, -0.04279935732483864, 0.3896833658218384, 0.194493368268013, -0.9001773595809937, -0.0031475424766540527, 0.02163219451904297, 0.20689433813095093, -0.11488898676268514, 0.19160337154005425, 0.9718213248866252,0.07518075431737672,0.38861083984375,0.2171173095703125,-0.690643310546875
20220209-1408,2022-02-09 14:09:05Z,u01, 205,40,movements,el-ex, lt, d,16560.147186000002, 0.4108330000129237, -0.197548430424009, 0.19391303149804973, -0.057505570352077484, 0.14521296322345734, -0.08475346863269806, 0.3916056156158447, 0.1962660402059555, -0.8989575505256653, -0.025928616523742676, 0.012382671236991882, 0.20784133672714233, -0.11573648899635658, 0.19268179845434472, 0.9715762715126688,0.07428729222694283,0.36456298828125,0.2056732177734375,-0.6884918212890625
20220209-1408,2022-02-09 14:09:05Z,u01, 206,40,movements,el-ex, lt, d,16560.172132, 0.4157879937348703, -0.20077286031136282, 0.19298880269150645, -0.12119430303573608, 0.25610533356666565, -0.06115339696407318, 0.395797461271286, 0.19942672550678253, -0.8964225649833679, 0.004654347896575928, 0.00243183970451355, 0.2098534107208252, -0.11738921453372655, 0.19495767472872047, 0.9710057855621272,0.07320688206589449,0.3935699462890625,0.2056732177734375,-0.6815185546875
20220209-1408,2022-02-09 14:09:05Z,u01, 207,40,movements,el-ex, lt, d,16560.197079, 0.4230213814134258, -0.20316703618406273, 0.19240629192002007, -0.004097639117389917, 0.31929734349250793, -0.06747440993785858, 0.40207406878471375, 0.20177224278450012, -0.8930982351303101, 0.027796685695648193, 0.006266161799430847, 0.16620010137557983, -0.11875202797821643, 0.19836540606102027, 0.9702220958364467,0.07223902575878793,0.4280853271484375,0.210968017578125,-0.731964111328125
20220209-1408,2022-02-09 14:09:05Z,u01, 208,40,movements,el-ex, lt, d,16560.222025000003, 0.43153323266592225, -0.20331077025934297, 0.19027460425847326, 0.01923314854502678, 0.39562228322029114, -0.09534964710474014, 0.40964916348457336, 0.2019130140542984, -0.8896171450614929, -0.019588619470596313, 0.0043553560972213745, 0.14736872911453247, -0.11891189725821037, 0.20261140652718646, 0.9694392034432467,0.07068382547537211,0.3903350830078125,0.20843505859375,-0.7455596923828125
20220209-1408,2022-02-09 14:09:05Z,u01, 209,40,movements,el-ex, lt, d,16560.246972, 0.4417397027744525, -0.20562082275262925, 0.18887718828126498, -0.14608457684516907, 0.42818981409072876, -0.07599139958620071, 0.41850703954696655, 0.2041749507188797, -0.8849658370018005, 0.009517401456832886, -0.01965034008026123, 0.1438922882080078, -0.12023964528587437, 0.20750785964570365, 0.9683507222180228,0.06913798537800789,0.4318695068359375,0.1837615966796875,-0.7421112060546875
20220209-1408,2022-02-09 14:09:05Z,u01, 210,40,movements,el-ex, lt, d,16560.271919000003, 0.45316459352634725, -0.21044580565380408, 0.18952048192641732, -0.1822137087583542, 0.47765982151031494, -0.05319347605109215, 0.4281538426876068, 0.20889589190483093, -0.879230797290802, 0.015251457691192627, -0.004183918237686157, 0.10266530513763428, -0.12302346172648516, 0.21272004408723136, 0.9669354248181286,0.06820136708460756,0.444122314453125,0.2016754150390625,-0.7733917236328125
20220209-1408,2022-02-09 14:09:05Z,u01, 211,40,movements,el-ex, lt, d,16560.296865, 0.4657080369922183, -0.21479037158140726, 0.19005543349771956, -0.1623236984014511, 0.517439067363739, -0.06597544997930527, 0.43873676657676697, 0.21314261853694916, -0.8729721307754517, 0.004271805286407471, -0.004982173442840576, 0.09472823143005371, -0.12559447479073563, 0.21849475761145631, 0.9653883450201469,0.06716926082482352,0.44549560546875,0.2083740234375,-0.7769927978515625
20220209-1408,2022-02-09 14:09:05Z,u01, 212,40,movements,el-ex, lt, d,16560.321812000002, 0.4790402148901784, -0.22050484569722562, 0.1913359353075732, -0.2887219190597534, 0.5224496126174927, -0.0465392991900444, 0.44976726174354553, 0.21872226893901825, -0.865950345993042, 0.052659034729003906, -0.024355769157409668, 0.09857064485549927, -0.12892304130595442, 0.22450764896684008, 0.9636318582984327,0.06624813675838484,0.4970855712890625,0.1964263916015625,-0.7668914794921875
20220209-1408,2022-02-09 14:09:05Z,u01, 213,40,movements,el-ex, lt, d,16560.346758, 0.4926287779055053, -0.22783181788185236, 0.1941740604156798, -0.293256014585495, 0.5245630145072937, -0.031233182176947594, 0.4607221186161041, 0.22586590051651, -0.8583238124847412, 0.0452747642993927, -0.031285762786865234, 0.10544002056121826, -0.13320220618779582, 0.23042408996442065, 0.9616811449154141,0.0658138588038776,0.5015869140625,0.195953369140625,-0.7529296875
20220209-1408,2022-02-09 14:09:05Z,u01, 214,40,movements,el-ex, lt, d,16560.371705, 0.5077435831566572, -0.23260154530620533, 0.195655973080944, -0.06626114249229431, 0.6985825896263123, -0.055277399718761444, 0.47311320900917053, 0.23050978779792786, -0.8503112196922302, -0.0669088363647461, -0.02123543620109558, 0.086090087890625, -0.13614731819563622, 0.2372936814404794, 0.9596582637791071,0.06489850755998283,0.4102325439453125,0.2057342529296875,-0.759857177734375
20220209-1408,2022-02-09 14:09:05Z,u01, 215,40,movements,el-ex, lt, d,16560.396652, 0.5267611146455946, -0.23115113776607854, 0.1943916731561006, 0.18731626868247986, 0.8028320670127869, 0.039980679750442505, 0.4893650710582733, 0.22909820079803467, -0.8414486646652222, -0.01532009243965149, -0.017596065998077393, 0.04553508758544922, -0.13591237439678228, 0.24658361614356725, 0.9574609574640781,0.06319030504085199,0.4868927001953125,0.2076416015625,-0.798370361328125
20220209-1408,2022-02-09 14:09:05Z,u01, 216,40,movements,el-ex, lt, d,16560.421598, 0.5462859604209949, -0.22617635761682742, 0.19313971924322412, 0.1554034799337387, 0.7728701829910278, 0.07655253261327744, 0.5062857270240784, 0.22425290942192078, -0.8326976895332336, 0.05856424570083618, -0.022928401827812195, 0.021220147609710693, -0.1340014731360982, 0.25630988233878665, 0.9552544100262279,0.06195251245481756,0.5638580322265625,0.2000274658203125,-0.8098602294921875
20220209-1408,2022-02-09 14:09:05Z,u01, 217,40,movements,el-ex, lt, d,16560.446545000003, 0.5653419346946134, -0.22391973616895133, 0.1937720605620217, -0.016351908445358276, 0.7486559152603149, 0.05786806717514992, 0.5223304629325867, 0.22205320000648499, -0.8233245611190796, 0.01961606740951538, 0.00090828537940979, 0.011129796504974365, -0.13360136295626115, 0.26549652607477536, 0.9528405457911688,0.061297212313497884,0.539794921875,0.225341796875,-0.8130340576171875
20220209-1408,2022-02-09 14:09:05Z,u01, 218,40,movements,el-ex, lt, d,16560.471491, 0.5844095733806379, -0.22479319644582207, 0.19557492133175222, -0.08707235008478165, 0.7436577677726746, 0.028178745880723, 0.5378262400627136, 0.222904771566391, -0.8130537867546082, 0.0012822151184082031, 0.007853955030441284, -0.00815892219543457, -0.13483936317152184, 0.27439288239025056, 0.9501771675073373,0.060748299239465536,0.5378875732421875,0.228118896484375,-0.8196868896484375
20220209-1408,2022-02-09 14:09:05Z,u01, 219,40,movements,el-ex, lt, d,16560.496438000002, 0.6033908729319218, -0.22533236417766764, 0.1973031155420497, -0.0198344923555851, 0.7442518472671509, 0.05456554517149925, 0.5530929565429688, 0.223430335521698, -0.8026002049446106, 0.008217036724090576, 0.019184470176696777, -0.021725237369537354, -0.135908306884246, 0.28324693205473617, 0.947457577629482,0.06020254791181512,0.564361572265625,0.243133544921875,-0.822052001953125
20220209-1408,2022-02-09 14:09:05Z,u01, 220,40,movements,el-ex, lt, d,16560.521384291667, 0.6220478563441055, -0.2254667712835272, 0.19880375470422293, -0.07264024764299393, 0.705191969871521, 0.035479869693517685, 0.5679524540901184, 0.2235613465309143, -0.792117714881897, 0.023188471794128418, 0.028285011649131775, -0.0069696903228759766, -0.1367461123030807, 0.2919617307253431, 0.9447245859301224,0.05961994548500704,0.588958740234375,0.2522125244140625,-0.8013458251953125
20220209-1408,2022-02-09 14:09:05Z,u01, 221,40,movements,el-ex, lt, d,16560.54633129167, 0.6396300739883635, -0.22774096926652537, 0.20136893417793483, -0.19013838469982147, 0.654167115688324, 0.03571183234453201, 0.5814861059188843, 0.22577740252017975, -0.7815999388694763, 0.021144628524780273, 0.03580406308174133, -0.005402505397796631, -0.13871297748036754, 0.2999312156995999, 0.9419599365761461,0.059258142688534465,0.60321044921875,0.2608489990234375,-0.7875518798828125
20220209-1408,2022-02-09 14:09:05Z,u01, 222,40,movements,el-ex, lt, d,16560.571278291667, 0.6571167863937637, -0.23219561160560528, 0.20541919388703397, -0.24574798345565796, 0.6761946678161621, 0.013974044471979141, 0.5944438576698303, 0.23011477291584015, -0.7705087065696716, 0.012749254703521729, 0.03735657036304474, -0.001936793327331543, -0.14192431680183273, 0.3075762071995313, 0.9390147045600516,0.059210163892219836,0.60394287109375,0.2653656005859375,-0.7720947265625
20220209-1408,2022-02-09 14:09:05Z,u01, 223,40,movements,el-ex, lt, d,16560.59622429167, 0.6748720583211393, -0.23565466119231693, 0.20808193488361448, -0.07107377797365189, 0.6920327544212341, -0.02154426835477352, 0.6075291037559509, 0.2334796041250229, -0.7592073082923889, 0.014190435409545898, 0.05366033315658569, -0.026437103748321533, -0.14446994498949298, 0.3154754829242027, 0.9360389072887937,0.058608953659716995,0.6217041015625,0.289703369140625,-0.788848876953125
20220209-1408,2022-02-09 14:09:05Z,u01, 224,40,movements,el-ex, lt, d,16560.621171291667, 0.6920101502832517, -0.23620841293368325, 0.20696388139182748, 0.06465369462966919, 0.6854267716407776, -0.07256244122982025, 0.6203680038452148, 0.234018012881279, -0.7485847473144531, 0.014382481575012207, 0.043249502778053284, -0.04517728090286255, -0.14504214068043036, 0.32352805423331665, 0.9333122462637634,0.056751180667957174,0.6336822509765625,0.2795257568359375,-0.7963714599609375
20220209-1408,2022-02-09 14:09:05Z,u01, 225,40,movements,el-ex, lt, d,16560.646117291668, 0.7079311692090229, -0.23685897231806938, 0.2046033472983564, -0.026122279465198517, 0.6318112015724182, -0.10153017938137054, 0.6321080327033997, 0.23465046286582947, -0.7384976148605347, 0.024004817008972168, 0.03274461627006531, -0.02389240264892578, -0.14539862729600847, 0.3310746582835122, 0.9307479335719838,0.05438121510527655,0.6591796875,0.267059326171875,-0.7612152099609375
20220209-1408,2022-02-09 14:09:05Z,u01, 226,40,movements,el-ex, lt, d,16560.671064291666, 0.7233555569627936, -0.24130290885682873, 0.20432441552766104, -0.17075097560882568, 0.607527494430542, -0.13428840041160583, 0.6427266597747803, 0.23896798491477966, -0.7278714179992676, 0.022983908653259277, 0.025833070278167725, -0.005221664905548096, -0.1478095982259081, 0.33795948808834847, 0.9280073786461962,0.052326991344288226,0.6668701171875,0.2632293701171875,-0.7313690185546875
20220209-1408,2022-02-09 14:09:05Z,u01, 227,40,movements,el-ex, lt, d,16560.696010291667, 0.7390105852790804, -0.24526492641257186, 0.20280519816318326, 0.04986310005187988, 0.6619197130203247, -0.16035369038581848, 0.6533994674682617, 0.2428133338689804, -0.7170153260231018, 0.006863772869110107, 0.03369124233722687, -0.04752618074417114, -0.14976782274710584, 0.34505353856594445, 0.9252211362852932,0.04973630925509337,0.662200927734375,0.2792510986328125,-0.765594482421875
20220209-1408,2022-02-09 14:09:05Z,u01, 228,40,movements,el-ex, lt, d,16560.72095729167, 0.7540241964127806, -0.24605224873020323, 0.1979585342787996, 0.10387469828128815, 0.6142579913139343, -0.16033843159675598, 0.6639593243598938, 0.2435770183801651, -0.7069854140281677, 0.0036433935165405273, 0.020934149622917175, -0.036193788051605225, -0.14964326573688178, 0.3522984483119661, 0.9226894661756992,0.04622716056392545,0.6676177978515625,0.2670745849609375,-0.748138427734375
20220209-1408,2022-02-09 14:09:05Z,u01, 229,40,movements,el-ex, lt, d,16560.745904291667, 0.7677549436044206, -0.24862773386586887, 0.19449400097307368, -0.11972473561763763, 0.5585829615592957, -0.17763866484165192, 0.6731659173965454, 0.2460741251707077, -0.6973487138748169, 0.01782846450805664, 0.02905714511871338, 0.00899440050125122, -0.15050917255576762, 0.35870967542010657, 0.920225862477163,0.043113898714679466,0.6978302001953125,0.2759246826171875,-0.6798248291015625
20220209-1408,2022-02-09 14:09:05Z,u01, 230,40,movements,el-ex, lt, d,16560.77085029167, 0.7814316357125073, -0.2582893973431593, 0.19784872895191097, -0.6051250100135803, 0.4662409722805023, -0.17051318287849426, 0.6809338331222534, 0.2554270625114441, -0.6863572597503662, 0.10158282518386841, 0.023045897483825684, 0.09416377544403076, -0.15579879179367373, 0.3640715733780321, 0.9172980386478113,0.04175111048259267,0.77874755859375,0.27764892578125,-0.5938720703125
20220209-1408,2022-02-09 14:09:05Z,u01, 231,40,movements,el-ex, lt, d,16560.795797291667, 0.7959179469367362, -0.27375157782044746, 0.20724742899730522, -0.65125572681427, 0.5035412311553955, -0.21740931272506714, 0.6879004240036011, 0.27034521102905273, -0.6735774278640747, 0.04937392473220825, 0.013468325138092041, 0.05898404121398926, -0.16482243788248024, 0.3688425666099983, 0.9138030372698094,0.041867830337161765,0.727325439453125,0.2858734130859375,-0.621826171875
20220209-1408,2022-02-09 14:09:06Z,u01, 232,40,movements,el-ex, lt, d,16560.820743291668, 0.8103030840201585, -0.28384994877278896, 0.2091426303748195, 0.005496198311448097, 0.6015933156013489, -0.26911550760269165, 0.6955050230026245, 0.28005361557006836, -0.6616969704627991, -0.028558433055877686, 0.028860628604888916, -0.0177767276763916, -0.1700163964526929, 0.3744942264336214, 0.910652016952992,0.03951722223595877,0.6694183349609375,0.31207275390625,-0.6793060302734375
20220209-1408,2022-02-09 14:09:06Z,u01, 233,40,movements,el-ex, lt, d,16560.845690291666, 0.8236158150519478, -0.28591975098868666, 0.20130796679925575, 0.20381535589694977, 0.612972617149353, -0.22841723263263702, 0.7038253545761108, 0.28203997015953064, -0.6519842743873596, 0.002855062484741211, 0.00030872225761413574, -0.01238328218460083, -0.16971174370091302, 0.3810587716279774, 0.9081897916697129,0.03440540706619527,0.714752197265625,0.2767486572265625,-0.6606903076171875
20220209-1408,2022-02-09 14:09:06Z,u01, 234,40,movements,el-ex, lt, d,16560.870636291667, 0.8373519080967545, -0.2886190409788114, 0.19610837648817975, -0.0679977610707283, 0.6093595623970032, -0.20350514352321625, 0.7121462225914001, 0.28462865948677063, -0.6417432427406311, 0.047619521617889404, -0.03803133964538574, -0.0021469593048095703, -0.17014344070833637, 0.38753012185218744, 0.9055120024090504,0.030326930373818173,0.7599945068359375,0.2473297119140625,-0.64447021484375
20220209-1408,2022-02-09 14:09:06Z,u01, 235,40,movements,el-ex, lt, d,16560.89558329167, 0.8525849410659736, -0.29349643956774807, 0.19429861625865033, 0.0009013134986162186, 0.6440073847770691, -0.18470636010169983, 0.7207850217819214, 0.28930091857910156, -0.6299000382423401, 0.02337104082107544, -0.03186982870101929, -0.03857213258743286, -0.17218495329128392, 0.3942110214691493, 0.9023363280374855,0.02718920024900634,0.7400970458984375,0.259185791015625,-0.6717071533203125
20220209-1408,2022-02-09 14:09:06Z,u01, 236,40,movements,el-ex, lt, d,16560.920530291667, 0.8674682139972365, -0.29511220161505775, 0.18883660287982756, 0.23395663499832153, 0.6557515859603882, -0.1796131283044815, 0.7297223210334778, 0.29084721207618713, -0.6187998652458191, -0.011155247688293457, -0.02955561876296997, -0.06390869617462158, -0.17200420763819993, 0.4012662676357553, 0.8993698089684458,0.02310632762747078,0.717437744140625,0.2615966796875,-0.683380126953125
20220209-1408,2022-02-09 14:09:06Z,u01, 237,40,movements,el-ex, lt, d,16560.94547629167, 0.8812867290628974, -0.2928934997222982, 0.18041248869170814, 0.2935291826725006, 0.6441610455513, -0.10398434847593307, 0.7386993765830994, 0.2887237071990967, -0.6090664863586426, -0.0007689595222473145, -0.022228896617889404, -0.02652299404144287, -0.1694596370453766, 0.4083505630215374, 0.8967645984675462,0.01862015819288615,0.7409515380859375,0.2613677978515625,-0.630828857421875
20220209-1408,2022-02-09 14:09:06Z,u01, 238,40,movements,el-ex, lt, d,16560.970423291667, 0.8959735976389489, -0.29199495747755666, 0.1757793645924686, 0.02919160947203636, 0.637100100517273, -0.0705985575914383, 0.74776691198349, 0.2878633141517639, -0.5983138680458069, 0.04440850019454956, -0.030600041151046753, -0.033232033252716064, -0.1682335698605783, 0.4153799917428445, 0.8938214668755333,0.015501759881845767,0.78973388671875,0.255126953125,-0.6319427490234375
20220209-1408,2022-02-09 14:09:06Z,u01, 239,40,movements,el-ex, lt, d,16560.995369291668, 0.9114060857898946, -0.29349988650362224, 0.17455024178451997, 0.010866263881325722, 0.6298701167106628, -0.0864907056093216, 0.7565677762031555, 0.2893041968345642, -0.5864371061325073, 0.03550088405609131, -0.005200743675231934, -0.03638070821762085, -0.16875032670184392, 0.42226149165612725, 0.8905287089001962,0.013320903785588117,0.7893829345703125,0.2864532470703125,-0.6205902099609375
20220209-1408,2022-02-09 14:09:06Z,u01, 240,40,movements,el-ex, lt, d,16561.020316291666, 0.9264630667066379, -0.2957275926805902, 0.17246614291877307, -0.00915365107357502, 0.6031250357627869, -0.15238185226917267, 0.7647944688796997, 0.29143592715263367, -0.5745908617973328, 0.00824648141860962, -0.015129715204238892, -0.04194033145904541, -0.16937447342327655, 0.42897184325635335, 0.8872332433254093,0.010622365531442857,0.771697998046875,0.2754058837890625,-0.6158905029296875
20220209-1408,2022-02-09 14:09:06Z,u01, 241,40,movements,el-ex, lt, d,16561.045262291667, 0.9407472646690612, -0.2984611570407488, 0.17064197572225515, -0.02519070729613304, 0.5773887038230896, -0.11945138871669769, 0.7722770571708679, 0.2940497398376465, -0.563136637210846, 0.02284330129623413, -0.015241086483001709, -0.04079079627990723, -0.17024167383222416, 0.4352579195071831, 0.8840275161932847,0.00798021508570726,0.796661376953125,0.2773895263671875,-0.6030731201171875
20220209-1408,2022-02-09 14:09:06Z,u01, 242,40,movements,el-ex, lt, d,16561.07020929167, 0.9547549601024288, -0.3013325553457545, 0.16996396895447397, -0.06151232868432999, 0.5569647550582886, -0.09944112598896027, 0.7793970704078674, 0.29679298400878906, -0.5517738461494446, 0.037268757820129395, -0.0193118155002594, -0.05348116159439087, -0.17139168162716592, 0.44129126020913734, 0.8808253071060783,0.005823000612888485,0.8180694580078125,0.2765655517578125,-0.6060333251953125
20220209-1408,2022-02-09 14:09:06Z,u01, 243,40,movements,el-ex, lt, d,16561.095156291667, 0.9686376921009078, -0.3049212563313615, 0.1696086352667803, -0.07304001599550247, 0.557637631893158, -0.14134211838245392, 0.7860989570617676, 0.3002180755138397, -0.5402940511703491, 0.008624672889709473, -0.005204558372497559, -0.05437135696411133, -0.17290194191843392, 0.44716651286108167, 0.8775727840272917,0.003634006687347119,0.79248046875,0.2967681884765625,-0.5910797119140625
20220209-1408,2022-02-09 14:09:06Z,u01, 244,40,movements,el-ex, lt, d,16561.12010229167, 0.9821162536525326, -0.3089917072883343, 0.16899065994934212, -0.041970521211624146, 0.540985643863678, -0.1435708999633789, 0.7922868132591248, 0.3040982484817505, -0.5289668440818787, 0.017497241497039795, -0.0122128427028656, -0.031640827655792236, -0.17453744118947717, 0.4528280646279074, 0.8743465849314247,0.001230247020239078,0.804229736328125,0.291534423828125,-0.560150146484375
20220209-1408,2022-02-09 14:09:06Z,u01, 245,40,movements,el-ex, lt, d,16561.145049291667, 0.9948998081772719, -0.3118262556474015, 0.16707000621130694, 0.03214641660451889, 0.5246869921684265, -0.12268327176570892, 0.7982578277587891, 0.3067973256111145, -0.5183241963386536, 0.044302165508270264, -0.0077860355377197266, -0.05404806137084961, -0.17531895153406257, 0.45836795115166074, 0.8712980034909072,-0.0014041409581977138,0.8433837890625,0.300018310546875,-0.5687713623046875
20220209-1408,2022-02-09 14:09:06Z,u01, 246,40,movements,el-ex, lt, d,16561.169995291668, 1.0069205699993458, -0.313652977360364, 0.16407669614057743, 0.06094660609960556, 0.510077953338623, -0.14652208983898163, 0.803955614566803, 0.30853545665740967, -0.5083909034729004, 0.019530832767486572, -0.006563961505889893, -0.04919552803039551, -0.1753952926194106, 0.4637251743571891, 0.8684341617692908,-0.004201754247543765,0.826263427734375,0.301605224609375,-0.5576324462890625
20220209-1408,2022-02-09 14:09:06Z,u01, 247,40,movements,el-ex, lt, d,16561.194942291666, 1.0185807806274125, -0.3169581917583341, 0.16146584756120572, -0.030333206057548523, 0.4590159058570862, -0.1709032654762268, 0.8089561462402344, 0.3116777241230011, -0.4984445869922638, 0.012653470039367676, -0.024812430143356323, -0.04022100567817688, -0.17616585421635872, 0.4687678575480991, 0.8655466242398323,-0.007165803625658829,0.8228607177734375,0.2841796875,-0.53558349609375
20220209-1408,2022-02-09 14:09:06Z,u01, 248,40,movements,el-ex, lt, d,16561.219889291668, 1.0297467976028982, -0.32202903208582684, 0.16130743515096715, -0.1707981377840042, 0.437837690114975, -0.16767410933971405, 0.8131060600280762, 0.3164919316768646, -0.48856058716773987, 0.02768385410308838, -0.020700275897979736, -0.003016352653503418, -0.17824112678046444, 0.4732333554061472, 0.8626647895599863,-0.009474451168625261,0.8376312255859375,0.293182373046875,-0.4928436279296875
20220209-1408,2022-02-09 14:09:06Z,u01, 249,40,movements,el-ex, lt, d,16561.24483529167, 1.041059519875135, -0.32748861344340807, 0.16349878243261312, -0.14245352149009705, 0.4057808518409729, -0.1113625019788742, 0.81707763671875, 0.3216661214828491, -0.47845083475112915, 0.046066462993621826, 0.0026594996452331543, -0.022357702255249023, -0.18101977676159248, 0.47750017355376784, 0.859713102025555,-0.010906784909289577,0.8648223876953125,0.32611083984375,-0.5051727294921875
20220209-1408,2022-02-09 14:09:06Z,u01, 250,40,movements,el-ex, lt, d,16561.269782291667, 1.0509955657406245, -0.3303936663066877, 0.16339882325548677, 0.02247125469148159, 0.37981927394866943, -0.10653738677501678, 0.8209766745567322, 0.3244154155254364, -0.46984273195266724, 0.012565433979034424, -0.0011578798294067383, -0.05771452188491821, -0.18216498555787713, 0.4815543047909225, 0.8571833632007233,-0.012582006011810809,0.8356170654296875,0.3278961181640625,-0.5279541015625
20220209-1408,2022-02-09 14:09:06Z,u01, 251,40,movements,el-ex, lt, d,16561.29472829167, 1.059405983955033, -0.3336635833589951, 0.16294888940319943, -0.2010689675807953, 0.2923785150051117, -0.12423715740442276, 0.8239695429801941, 0.32750675082206726, -0.46239975094795227, 0.021001219749450684, -0.038657814264297485, -0.02809375524520874, -0.18337711227919534, 0.4849463434653851, 0.8549814989507563,-0.014371357297419687,0.8474884033203125,0.2880096435546875,-0.4789276123046875
