SessionID,LoggingTime,UID,RecNo,Hertz,Activity,MoveType,Wrist,Side,TimeStamp,DMRoll,DMPitch,DMYaw,DMRotX,DMRotY,DMRotZ,DMGrvX,DMGrvY,DMGrvZ,DMUAccelX,DMUAccelY,DMUAccelZ,DMQuatX,DMQuatY,DMQuatW,DMQuatZ,AccelroX,AceelroY,AceelroZ
20220209-1356,2022-02-09 13:56:30Z,u01, 1,40,movements,el-ex, lt, d,15807.427990875001, 1.4678082675398745, -0.504769624291842, 0.45708072988094056, -0.19284965097904205, -0.00660020112991333, -0.04470424726605415, 0.8706480860710144, 0.4836058020591736, -0.0899847224354744, 0.00729680061340332, -0.03254076838493347, -0.05636239051818848, -0.3275414864827838, 0.5896814493332205, 0.7382359617112304,-5.551115123125783e-17,0.876190185546875,0.4496612548828125,-0.1441802978515625
20220209-1356,2022-02-09 13:56:30Z,u01, 2,40,movements,el-ex, lt, d,15807.452936875, 1.469152297210993, -0.5058343120180318, 0.4607627306597477, -0.06261690706014633, -0.024568218737840652, -0.015794768929481506, 0.8702555298805237, 0.4845374524593353, -0.08876217156648636, 0.002241969108581543, -0.02262336015701294, -0.05363285541534424, -0.32897941519167806, 0.5893992340924155, 0.7378214360533467,0.0007793432758686214,0.87249755859375,0.4619140625,-0.14239501953125
20220209-1356,2022-02-09 13:56:31Z,u01, 3,40,movements,el-ex, lt, d,15807.477883875, 1.4689244679825768, -0.5060720138267526, 0.4615163397638585, -0.031143637374043465, 0.6683242917060852, -0.509419858455658, 0.8701207041740417, 0.4847453534603119, -0.08894872665405273, -0.12181442975997925, -0.009815573692321777, -0.031183719635009766, -0.3292799372482248, 0.5891522382892866, 0.737884355195925,0.0010147352334226034,1.1048736572265625,0.4211578369140625,-0.186981201171875
20220209-1356,2022-02-09 13:56:31Z,u01, 4,40,movements,el-ex, lt, d,15807.502829875, 1.4682143036784427, -0.5056188606183624, 0.4624176566781707, -0.047194041311740875, -0.07610870897769928, 0.04236540198326111, 0.8702757954597473, 0.48434895277023315, -0.08958911895751953, 0.042581260204315186, -0.034107863903045654, -0.05529308319091797, -0.32939507503367715, 0.5888160351805389, 0.7381002542311864,0.0016169894130486917,0.9128570556640625,0.4502410888671875,-0.1448822021484375
20220209-1356,2022-02-09 13:56:31Z,u01, 5,40,movements,el-ex, lt, d,15807.527776875, 1.4667759296762122, -0.5042486067628938, 0.46494349597571893, -0.1260358691215515, -0.13271073997020721, 0.08386144787073135, 0.8708052039146423, 0.4831497073173523, -0.09090963006019592, 0.02587747573852539, -0.04032444953918457, -0.05851971358060837, -0.32968333415611784, 0.5880936023604618, 0.7385419490177927,0.0032479869613743217,0.8968505859375,0.441650390625,-0.15155029296875
20220209-1356,2022-02-09 13:56:31Z,u01, 6,40,movements,el-ex, lt, d,15807.552722875002, 1.4645720216558726, -0.502336725605926, 0.46900420507243823, -0.13482323288917542, -0.16658560931682587, 0.11977523565292358, 0.8715196847915649, 0.481474906206131, -0.09292635321617126, 0.024339020252227783, -0.03756621479988098, -0.06437652558088303, -0.3302385834264384, 0.5869235916323713, 0.7392090539634032,0.005755267200191316,0.8958587646484375,0.44390869140625,-0.1573028564453125
20220209-1356,2022-02-09 13:56:31Z,u01, 7,40,movements,el-ex, lt, d,15807.577668875001, 1.4617502474238109, -0.5007511264440296, 0.47222331817089197, -0.07009030878543854, -0.17920953035354614, 0.14695067703723907, 0.8720118999481201, 0.4800845682621002, -0.0954681858420372, 0.019345641136169434, -0.04253879189491272, -0.060934439301490784, -0.33064743697090393, 0.5856092387177935, 0.7400479938926308,0.007945030106577322,0.8917236328125,0.4376220703125,-0.1563720703125
20220209-1356,2022-02-09 13:56:31Z,u01, 8,40,movements,el-ex, lt, d,15807.602615875001, 1.4573086781554823, -0.49614306326848306, 0.47451097743786913, -0.09018382430076599, -0.2471213936805725, 0.18938235938549042, 0.8737677335739136, 0.4760372042655945, -0.0995897725224495, 0.038738131523132324, -0.052483826875686646, -0.07526068389415741, -0.3297665060280313, 0.5843450748842938, 0.7413987423209578,0.01107200658375973,0.912506103515625,0.423553466796875,-0.1748504638671875
20220209-1356,2022-02-09 13:56:31Z,u01, 9,40,movements,el-ex, lt, d,15807.627561875, 1.4517751267776215, -0.49099452036759644, 0.4787839507185633, -0.17626896500587463, -0.3564818203449249, 0.24614937603473663, 0.8756254315376282, 0.4715031385421753, -0.10471291095018387, 0.03833019733428955, -0.05490770936012268, -0.07700400799512863, -0.3292631158049964, 0.5824339820037011, 0.7430494870905013,0.01529308548232347,0.9091949462890625,0.417266845703125,-0.179840087890625
20220209-1356,2022-02-09 13:56:31Z,u01, 10,40,movements,el-ex, lt, d,15807.652507875, 1.446484902329415, -0.48548172678659024, 0.48760972911849343, -0.3924471139907837, -0.39431583881378174, 0.26085153222084045, 0.8776251673698425, 0.46663448214530945, -0.10966431349515915, 0.008727312088012695, -0.05911800265312195, -0.051880478858947754, -0.3299404605505222, 0.5799199393941936, 0.7445662892433691,0.02128794867288958,0.8863525390625,0.4075164794921875,-0.1615447998046875
20220209-1356,2022-02-09 13:56:31Z,u01, 11,40,movements,el-ex, lt, d,15807.677454875002, 1.4426181351994536, -0.4802532850814293, 0.5005456111053445, -0.41221868991851807, -0.3991968631744385, 0.2728149890899658, 0.8796023726463318, 0.46200382709503174, -0.11336738616228104, 0.013647139072418213, -0.029524028301239014, -0.053380727767944336, -0.33188875145958824, 0.5772054791440242, 0.7455683007394639,0.028488677603440593,0.89703369140625,0.43792724609375,-0.1689453125
20220209-1356,2022-02-09 13:56:31Z,u01, 12,40,movements,el-ex, lt, d,15807.702400875001, 1.437179297269255, -0.47412485006577526, 0.5108195422948578, -0.25360047817230225, -0.41941386461257935, 0.29287242889404297, 0.8817623853683472, 0.45656001567840576, -0.11852467060089111, 0.030591130256652832, -0.02044856548309326, -0.06690013408660889, -0.3327122677155226, 0.5744912629467402, 0.7470066119995448,0.035262955844879124,0.912353515625,0.4361114501953125,-0.1854248046875
20220209-1356,2022-02-09 13:56:31Z,u01, 13,40,movements,el-ex, lt, d,15807.727346875, 1.4294776499629356, -0.46702634263848214, 0.518294485297673, -0.21983270347118378, -0.46972131729125977, 0.33163735270500183, 0.8840096592903137, 0.4502330720424652, -0.12576541304588318, 0.02851158380508423, -0.029426246881484985, -0.06454220414161682, -0.3323273316420593, 0.571555632337329, 0.7490957750281888,0.041690545148195784,0.91131591796875,0.4143524169921875,-0.19378662109375
20220209-1356,2022-02-09 13:56:31Z,u01, 14,40,movements,el-ex, lt, d,15807.752293875, 1.4205918176829444, -0.4591993551515595, 0.5256340091131717, -0.21426931023597717, -0.49611157178878784, 0.3564857840538025, 0.8863145709037781, 0.443230539560318, -0.13413874804973602, 0.015418827533721924, -0.01842588186264038, -0.05232369899749756, -0.3315852115060371, 0.5683149413671987, 0.7514766385008133,0.048499987675907325,0.9017333984375,0.4248046875,-0.18646240234375
20220209-1356,2022-02-09 13:56:31Z,u01, 15,40,movements,el-ex, lt, d,15807.777239875, 1.41170708660636, -0.4512056896649214, 0.5332930965669126, -0.23140692710876465, -0.4845452606678009, 0.3569070100784302, 0.8885577321052551, 0.4360508918762207, -0.14256474375724792, 0.022925972938537598, -0.011948078870773315, -0.04018980264663696, -0.330823147912772, 0.5650430692358535, 0.7537934865364294,0.05547700178650264,0.9183197021484375,0.427337646484375,-0.1827545166015625
20220209-1356,2022-02-09 13:56:31Z,u01, 16,40,movements,el-ex, lt, d,15807.802186875, 1.4028223605652645, -0.4433734766902247, 0.5409467629652677, -0.1901480257511139, -0.49287137389183044, 0.33576712012290955, 0.8905959725379944, 0.4289892017841339, -0.15101997554302216, 0.04127347469329834, 0.012630671262741089, -0.04909907281398773, -0.3300591626888326, 0.5617392301663167, 0.7560537249724566,0.0623916942271629,0.9318695068359375,0.441619873046875,-0.2001190185546875
20220209-1356,2022-02-09 13:56:31Z,u01, 17,40,movements,el-ex, lt, d,15807.827132875002, 1.3927884812013747, -0.43585713589572267, 0.5458274312075974, -0.04782994091510773, -0.47124841809272766, 0.29492294788360596, 0.8921841382980347, 0.42218756675720215, -0.16051477193832397, 0.021771490573883057, 0.015922755002975464, -0.05301676690578461, -0.3285346444911729, 0.5583973507976071, 0.7586750657305054,0.06833353396375261,0.910919189453125,0.43914794921875,-0.214508056640625
20220209-1356,2022-02-09 13:56:31Z,u01, 18,40,movements,el-ex, lt, d,15807.852078875001, 1.38146558492007, -0.42886899334858675, 0.5469363926795485, 0.07949409633874893, -0.479491651058197, 0.2840895354747772, 0.8931853771209717, 0.4158425033092499, -0.17115746438503265, 0.026263415813446045, 0.04955056309700012, -0.03138774633407593, -0.3260459234375878, 0.5550813647284356, 0.7617542457201809,0.07286431177724792,0.9194488525390625,0.46539306640625,-0.202545166015625
20220209-1356,2022-02-09 13:56:31Z,u01, 19,40,movements,el-ex, lt, d,15807.877025875001, 1.368960213273705, -0.4220432905086627, 0.5459276391483322, 0.037148602306842804, -0.48016655445098877, 0.21778850257396698, 0.8937351703643799, 0.4096252918243408, -0.18287815153598785, 0.029741942882537842, 0.030010849237442017, -0.020231589674949646, -0.322940380983025, 0.5516071369981635, 0.765216651918704,0.07669716544205119,0.9230804443359375,0.4320068359375,-0.20172119140625
20220209-1356,2022-02-09 13:56:31Z,u01, 20,40,movements,el-ex, lt, d,15807.901971875, 1.3576751166278067, -0.41757103797846, 0.5481632890667628, -0.07682393491268158, -0.5003501772880554, 0.1633206605911255, 0.8933961987495422, 0.40554139018058777, -0.19333776831626892, 0.03526902198791504, 0.03275209665298462, -0.031073302030563354, -0.32155453930348454, 0.5476621200616613, 0.7682062123454103,0.08079707555182686,0.9286651611328125,0.43829345703125,-0.2244110107421875
20220209-1356,2022-02-09 13:56:31Z,u01, 21,40,movements,el-ex, lt, d,15807.926917875, 1.345491311122158, -0.41368191004340904, 0.5497231138010511, 0.030333803966641426, -0.5270494818687439, 0.14996038377285004, 0.892504870891571, 0.401983380317688, -0.20455889403820038, 0.03127741813659668, 0.047021716833114624, -0.0451512336730957, -0.32011532674351895, 0.5433661095923481, 0.7714436062657456,0.0845824460568061,0.9199371337890625,0.4443511962890625,-0.2511444091796875
20220209-1356,2022-02-09 13:56:31Z,u01, 22,40,movements,el-ex, lt, d,15807.951864875002, 1.3315495551149081, -0.40972170935244256, 0.548814591078523, 0.12160663306713104, -0.5611157417297363, 0.14703842997550964, 0.8911058902740479, 0.39835408329963684, -0.21735723316669464, 0.026664435863494873, 0.02654212713241577, -0.04422420263290405, -0.3178739576946401, 0.538774100726893, 0.7752338661473985,0.08769837656461682,0.9177703857421875,0.424896240234375,-0.2615814208984375
20220209-1356,2022-02-09 13:56:31Z,u01, 23,40,movements,el-ex, lt, d,15807.976810875001, 1.315806096113488, -0.40497233304596925, 0.5452266739076581, 0.18411947786808014, -0.5688087344169617, 0.13695955276489258, 0.8893944025039673, 0.3939933180809021, -0.23183341324329376, 0.017267465591430664, 0.023471832275390625, -0.04876045882701874, -0.3145245462042071, 0.5340015026386112, 0.7795946115487662,0.09027123604395437,0.902435302734375,0.4164581298828125,-0.2791900634765625
20220209-1356,2022-02-09 13:56:31Z,u01, 24,40,movements,el-ex, lt, d,15808.001756875, 1.300956232440918, -0.4008763320298072, 0.5435450452991452, 0.008576611056923866, -0.5688540935516357, 0.13577377796173096, 0.887401819229126, 0.390225350856781, -0.24544289708137512, 0.026675939559936523, 0.009951651096343994, -0.034006595611572266, -0.3119297923971835, 0.5291298077411306, 0.7836035892665085,0.09320327495523162,0.9140777587890625,0.400177001953125,-0.279449462890625
20220209-1356,2022-02-09 13:56:31Z,u01, 25,40,movements,el-ex, lt, d,15808.026703875, 1.2868386676354528, -0.397830405998486, 0.5452240680450808, -0.02686300501227379, -0.6028158068656921, 0.12973639369010925, 0.8849852681159973, 0.38741910457611084, -0.2582777440547943, 0.04238283634185791, 0.013322442770004272, -0.05130782723426819, -0.3106022501916254, 0.5238199722839266, 0.7872302591445546,0.096991224322037,0.925018310546875,0.404693603515625,-0.3207244873046875
20220209-1356,2022-02-09 13:56:31Z,u01, 26,40,movements,el-ex, lt, d,15808.051649875, 1.2709594201028174, -0.39449888557704016, 0.5445314980256278, 0.16177162528038025, -0.639736533164978, 0.11318697780370712, 0.8820008039474487, 0.3843456208705902, -0.2726772129535675, 0.026476919651031494, 0.0405963659286499, -0.0774814784526825, -0.30842952591712036, 0.5182013293098723, 0.7913921394690596,0.10018479815466583,0.908477783203125,0.4249420166015625,-0.35015869140625
20220209-1356,2022-02-09 13:56:31Z,u01, 27,40,movements,el-ex, lt, d,15808.076596875, 1.2522665362992171, -0.3894156953308459, 0.5385882931851043, 0.339423805475235, -0.6696219444274902, 0.1321900337934494, 0.8785941004753113, 0.3796479105949402, -0.2897239029407501, 0.03020411729812622, 0.029745370149612427, -0.08675622940063477, -0.30409040664227505, 0.5125105597058544, 0.7965015957587067,0.102211617629731,0.90936279296875,0.4044647216796875,-0.3796234130859375
20220209-1356,2022-02-09 13:56:31Z,u01, 28,40,movements,el-ex, lt, d,15808.101542875002, 1.2329947479115124, -0.3839735336011769, 0.5320253924214038, 0.2403390258550644, -0.6861864924430847, 0.13024619221687317, 0.8747841119766235, 0.3746076226234436, -0.3072812855243683, 0.050997018814086914, 0.011073499917984009, -0.07167074084281921, -0.29941060196757197, 0.5066681778834112, 0.8017493523415892,0.10410847317268493,0.92578125,0.38568115234375,-0.3789520263671875
20220209-1356,2022-02-09 13:56:31Z,u01, 29,40,movements,el-ex, lt, d,15808.126488875001, 1.213822281435849, -0.37971335222885894, 0.5291688786190721, 0.06478844583034515, -0.7630060315132141, 0.11665540933609009, 0.8702197670936584, 0.37065425515174866, -0.3245503008365631, 0.06743276119232178, 0.0014922916889190674, -0.06088671088218689, -0.29608808498233496, 0.5000566979434156, 0.8067299763533158,0.10705987291336039,0.9317474365234375,0.37164306640625,-0.3878173828125
20220209-1356,2022-02-09 13:56:31Z,u01, 30,40,movements,el-ex, lt, d,15808.151435875001, 1.1944099154236572, -0.3769702769319656, 0.5298093058534901, 0.018526211380958557, -0.7971261143684387, 0.09618090093135834, 0.8646982312202454, 0.3681051731109619, -0.3417535424232483, 0.03685200214385986, 0.006314963102340698, -0.06858587265014648, -0.29415552654033816, 0.49254010978835977, 0.811517805169335,0.11097544921839927,0.90155029296875,0.374420166015625,-0.41033935546875
20220209-1356,2022-02-09 13:56:31Z,u01, 31,40,movements,el-ex, lt, d,15808.176381875, 1.1739535692160739, -0.37431131894614855, 0.5289319476178271, 0.11923322081565857, -0.8204455971717834, 0.08505813777446747, 0.8584264516830444, 0.3656316101551056, -0.35974639654159546, 0.05491882562637329, 0.02537482976913452, -0.07953885197639465, -0.2917789033033356, 0.4847596011548162, 0.8165734009827219,0.11437232314511947,0.9176177978515625,0.39105224609375,-0.4440155029296875
20220209-1356,2022-02-09 13:56:31Z,u01, 32,40,movements,el-ex, lt, d,15808.201327875, 1.151865583177967, -0.3707502129986138, 0.5261546464184766, 0.17479607462882996, -0.8615620732307434, 0.09566684812307358, 0.851455807685852, 0.36231476068496704, -0.3791453242301941, 0.06065356731414795, 0.009221494197845459, -0.07468163967132568, -0.2884668009378168, 0.4766699580789928, 0.8220589898873178,0.11743836365339441,0.912109375,0.3715362548828125,-0.453826904296875
20220209-1356,2022-02-09 13:56:31Z,u01, 33,40,movements,el-ex, lt, d,15808.226274875002, 1.128523557882887, -0.3664169633413146, 0.5228917397226455, 0.19256062805652618, -0.90786212682724, 0.10760992020368576, 0.8437856435775757, 0.3582725524902344, -0.3995831310749054, 0.055536866188049316, -0.0008812248706817627, -0.05879092216491699, -0.28463050919796157, 0.4681814959111593, 0.8277917119371859,0.12063377036730641,0.8968048095703125,0.3531951904296875,-0.4653778076171875
20220209-1356,2022-02-09 13:56:31Z,u01, 34,40,movements,el-ex, lt, d,15808.251220875001, 1.10466622667827, -0.3624492526301032, 0.5202669362345141, 0.12105172127485275, -0.9324150681495667, 0.09621937572956085, 0.8352766633033752, 0.35456541180610657, -0.42023351788520813, 0.05084693431854248, -0.0009430348873138428, -0.06482812762260437, -0.28101313141380996, 0.45925468699610816, 0.8335118625644093,0.12399452661211774,0.8861236572265625,0.3536224365234375,-0.4850616455078125
20220209-1356,2022-02-09 13:56:31Z,u01, 35,40,movements,el-ex, lt, d,15808.276166875, 1.0805401372132453, -0.3591196201096214, 0.5195706708923449, 0.047647345811128616, -0.9828509092330933, 0.10167260468006134, 0.8259329795837402, 0.3514501452445984, -0.44081470370292664, 0.07085651159286499, -0.005182445049285889, -0.06223714351654053, -0.27802261825408486, 0.44977336263319617, 0.8390666514451353,0.12796318334071607,0.8970794677734375,0.3456268310546875,-0.504425048828125
20220209-1356,2022-02-09 13:56:31Z,u01, 36,40,movements,el-ex, lt, d,15808.301113875, 1.0555106284841984, -0.3567252993078876, 0.520364298029746, 0.007614044472575188, -1.0387946367263794, 0.09391641616821289, 0.8153718709945679, 0.3492075800895691, -0.4617604613304138, 0.06750160455703735, -0.010203063488006592, -0.05194193124771118, -0.2756178599252551, 0.43949352395331065, 0.8446026078931097,0.1323882517767868,0.88287353515625,0.3390045166015625,-0.513702392578125
20220209-1356,2022-02-09 13:56:31Z,u01, 37,40,movements,el-ex, lt, d,15808.326059875, 1.0297419250377144, -0.35477957765411716, 0.5212173768771582, 0.022644825279712677, -1.042574405670166, 0.08327821642160416, 0.8037843704223633, 0.34738367795944214, -0.4829649329185486, 0.06407445669174194, -0.003664255142211914, -0.03566601872444153, -0.2732886922844432, 0.4287549656762653, 0.8501601045559427,0.13678513049198518,0.86590576171875,0.34332275390625,-0.52093505859375
20220209-1356,2022-02-09 13:56:31Z,u01, 38,40,movements,el-ex, lt, d,15808.351006875, 1.003531684707239, -0.35205348242235696, 0.5207263289581844, 0.1317022144794464, -1.0450551509857178, 0.08191041648387909, 0.7916468977928162, 0.3448260724544525, -0.5043710470199585, 0.06269264221191406, -0.014366507530212402, -0.056145310401916504, -0.27026303176748245, 0.41805786132066153, 0.8557771869618294,0.14082237955014998,0.854339599609375,0.3304595947265625,-0.560516357421875
20220209-1356,2022-02-09 13:56:31Z,u01, 39,40,movements,el-ex, lt, d,15808.375952875002, 0.9766950392957641, -0.34736214937501075, 0.5181595617446968, 0.23070888221263885, -1.0417343378067017, 0.1311555951833725, 0.7791597843170166, 0.3404186964035034, -0.5263317823410034, 0.05299347639083862, -0.015223413705825806, -0.03189575672149658, -0.26590442462841435, 0.4075891981897521, 0.8615649735740737,0.14447044381044657,0.8275604248046875,0.32305908203125,-0.5619964599609375
20220209-1356,2022-02-09 13:56:31Z,u01, 40,40,movements,el-ex, lt, d,15808.400898875001, 0.9500551796560593, -0.34125891635387007, 0.5156341929022018, 0.19246794283390045, -1.00657320022583, 0.16005343198776245, 0.7665393948554993, 0.334673672914505, -0.548097550868988, 0.022370457649230957, -0.022860348224639893, 0.009782671928405762, -0.26093192338712984, 0.39732325706609617, 0.8672025604822355,0.14835273951705058,0.788909912109375,0.3118133544921875,-0.5383148193359375
20220209-1356,2022-02-09 13:56:31Z,u01, 41,40,movements,el-ex, lt, d,15808.425845875001, 0.92564188176865, -0.3339700012924018, 0.5132739240612714, 0.33490678668022156, -0.9035252928733826, 0.1965031772851944, 0.754860520362854, 0.32779625058174133, -0.5680978894233704, 0.00995570421218872, 0.00885838270187378, 0.01620274782180786, -0.2556050792235448, 0.38809419239862886, 0.8722887927398171,0.1521881027975122,0.762939453125,0.3407440185546875,-0.56103515625
20220209-1356,2022-02-09 13:56:31Z,u01, 42,40,movements,el-ex, lt, d,15808.450791875, 0.9020940389078619, -0.3238691450680476, 0.5075047570407561, 0.4738631546497345, -0.8469186425209045, 0.18749862909317017, 0.7438350915908813, 0.31823691725730896, -0.5877369046211243, 0.022583365440368652, 0.026306509971618652, 0.011778652667999268, -0.24845476299567518, 0.3800023321932617, 0.8774167947189765,0.15494620317797592,0.76641845703125,0.34454345703125,-0.575958251953125
20220209-1356,2022-02-09 13:56:32Z,u01, 43,40,movements,el-ex, lt, d,15808.475737875, 0.8779815196868858, -0.312557661060469, 0.5020007418099421, 0.38193410634994507, -0.9782031774520874, 0.25275319814682007, 0.7321714758872986, 0.3074933886528015, -0.6077604293823242, 0.09844064712524414, 0.026689350605010986, 0.02861309051513672, -0.24074937779114441, 0.37169817221873547, 0.8825617061865619,0.1580031723939063,0.836334228515625,0.3303375244140625,-0.5784149169921875
20220209-1356,2022-02-09 13:56:32Z,u01, 44,40,movements,el-ex, lt, d,15808.500684875002, 0.852479004402149, -0.3033585863802858, 0.5011920880427916, 0.14732465147972107, -1.009688138961792, 0.25908398628234863, 0.7185350060462952, 0.2987271249294281, -0.6280680298805237, 0.04110848903656006, 0.02684962749481201, 0.06167703866958618, -0.23463253075579132, 0.3618197923965918, 0.8874507095001608,0.16268111951497408,0.7596435546875,0.3255767822265625,-0.5663909912109375
20220209-1356,2022-02-09 13:56:32Z,u01, 45,40,movements,el-ex, lt, d,15808.525630875001, 0.8286480710300843, -0.29728648856635514, 0.5035035017807747, 0.056889183819293976, -0.9781309962272644, 0.21853557229042053, 0.7046889066696167, 0.2929268181324005, -0.6462255716323853, 0.0390397310256958, 0.032924652099609375, 0.06395012140274048, -0.2304674950378764, 0.35181239358496075, 0.8916087744163335,0.1677696385366958,0.747528076171875,0.3305511474609375,-0.587188720703125
20220209-1356,2022-02-09 13:56:32Z,u01, 46,40,movements,el-ex, lt, d,15808.550576875, 0.8047639328950845, -0.29270049006505533, 0.5065554689731164, 0.037294041365385056, -0.9994539022445679, 0.21035754680633545, 0.6900157332420349, 0.2885389029979706, -0.6637948751449585, 0.05580329895019531, 0.05424979329109192, 0.073783278465271, -0.22698060677773718, 0.3414416074601228, 0.8955628118852261,0.17281413712980392,0.745819091796875,0.3427886962890625,-0.5900115966796875
20220209-1356,2022-02-09 13:56:32Z,u01, 47,40,movements,el-ex, lt, d,15808.575523875, 0.7801845592818841, -0.2888442130624399, 0.5095391572094752, -0.010527408681809902, -1.0329934358596802, 0.16009463369846344, 0.6742709279060364, 0.2848445177078247, -0.6813386082649231, 0.06555140018463135, 0.05066573619842529, 0.0845215916633606, -0.2236516083048492, 0.33062160139650487, 0.8994955197371615,0.1776997180533699,0.735870361328125,0.3340606689453125,-0.5950469970703125
20220209-1356,2022-02-09 13:56:32Z,u01, 48,40,movements,el-ex, lt, d,15808.600469875, 0.7553183168852908, -0.2878577612544785, 0.5133234183174934, -0.12564457952976227, -1.0370641946792603, 0.10839249193668365, 0.6573142409324646, 0.2838987708091736, -0.6980970501899719, 0.0460854172706604, 0.04476025700569153, 0.08354932069778442, -0.22159677828322433, 0.31913371534825613, 0.9032114776459317,0.18236669793601046,0.703399658203125,0.3286590576171875,-0.6145477294921875
20220209-1356,2022-02-09 13:56:32Z,u01, 49,40,movements,el-ex, lt, d,15808.625416875, 0.7308146648209677, -0.2891218810960075, 0.5169018645575254, -0.11837664246559143, -1.001096487045288, 0.03411353379487991, 0.6397725939750671, 0.2851106524467468, -0.713724672794342, 0.019651174545288086, 0.036285191774368286, 0.08292639255523682, -0.22045318076253495, 0.30747039904003803, 0.9066960836635847,0.1864527588862366,0.6499481201171875,0.327606201171875,-0.63116455078125
20220209-1356,2022-02-09 13:56:32Z,u01, 50,40,movements,el-ex, lt, d,15808.650363291668, 0.7076542028934086, -0.28948745749973226, 0.5186456963899063, 0.012768393382430077, -0.8971441388130188, 0.03603220731019974, 0.6230044960975647, 0.28546103835105896, -0.7282701134681702, 0.017544150352478027, 0.039383262395858765, 0.06837326288223267, -0.2186998064484228, 0.29670751304479703, 0.9100227171106294,0.18971972799321535,0.6405487060546875,0.3248443603515625,-0.6598968505859375
20220209-1356,2022-02-09 13:56:32Z,u01, 51,40,movements,el-ex, lt, d,15808.675309291668, 0.6854404452025241, -0.2875314309087756, 0.5181524143386244, 0.15426450967788696, -0.8722470998764038, 0.03414635732769966, 0.6070268154144287, 0.28358587622642517, -0.7423593997955322, 0.03594803810119629, 0.03507864475250244, 0.06590676307678223, -0.2156394344905941, 0.2869145181020817, 0.9133540459287819,0.1922601122019425,0.634552001953125,0.321014404296875,-0.6812744140625
20220209-1356,2022-02-09 13:56:32Z,u01, 52,40,movements,el-ex, lt, d,15808.700256291668, 0.6635382038310763, -0.2817053846458303, 0.5143837777163532, 0.38131183385849, -0.8029459714889526, 0.0347779281437397, 0.591630756855011, 0.27799421548843384, -0.7567643523216248, 0.010725200176239014, 0.03847306966781616, 0.03923499584197998, -0.2103965019506, 0.2781207328899047, 0.9169452758509152,0.19389051083547137,0.60235595703125,0.31646728515625,-0.717529296875
20220209-1356,2022-02-09 13:56:32Z,u01, 53,40,movements,el-ex, lt, d,15808.725202291667, 0.6424194762780896, -0.2730486850471023, 0.5086880716145634, 0.41201460361480713, -0.7710120677947998, 0.051174938678741455, 0.5769383311271667, 0.26966843008995056, -0.7709870934486389, 0.016155481338500977, 0.01959240436553955, 0.050940096378326416, -0.2036830420592932, 0.27022154903734935, 0.9205945507558188,0.19493369622790482,0.5883026123046875,0.28662109375,-0.723602294921875
20220209-1356,2022-02-09 13:56:32Z,u01, 54,40,movements,el-ex, lt, d,15808.750148291667, 0.622262169258235, -0.2637322804357922, 0.5038023765368648, 0.4101986289024353, -0.7365418672561646, 0.08711789548397064, 0.5627211332321167, 0.26068559288978577, -0.7844666242599487, 0.008750975131988525, 0.027797013521194458, 0.021069467067718506, -0.19686163085234398, 0.2627017226866304, 0.9239719464496262,0.19623711647491404,0.57147216796875,0.288482666015625,-0.763397216796875
20220209-1356,2022-02-09 13:56:32Z,u01, 55,40,movements,el-ex, lt, d,15808.775095291667, 0.6031018402654045, -0.25558925813586936, 0.500311539595143, 0.2589867413043976, -0.7384623289108276, 0.07758823782205582, 0.5487740635871887, 0.2528155744075775, -0.7968257665634155, 0.01789158582687378, 0.0317608118057251, 0.05398213863372803, -0.1908329546186402, 0.2552839380732733, 0.9269815163143579,0.1977830562985029,0.5686798095703125,0.278564453125,-0.7383575439453125
20220209-1356,2022-02-09 13:56:32Z,u01, 56,40,movements,el-ex, lt, d,15808.800041291668, 0.5842209212610139, -0.2509813299979237, 0.49881160405459163, 0.1454523354768753, -0.7372081279754639, 0.02825617790222168, 0.5342691540718079, 0.24835465848445892, -0.8080076575279236, 0.029237866401672363, 0.03905987739562988, 0.07047408819198608, -0.18667209599121182, 0.24728464526302438, 0.9296071546498448,0.1995853181830009,0.563507080078125,0.28741455078125,-0.7375335693359375
20220209-1356,2022-02-09 13:56:32Z,u01, 57,40,movements,el-ex, lt, d,15808.824987291668, 0.5661242465012385, -0.24713936062924624, 0.49657964665867976, 0.24288971722126007, -0.6539086699485779, -0.021306781098246574, 0.5200681686401367, 0.24463124573230743, -0.8183425664901733, 0.013272225856781006, 0.06844857335090637, 0.10046237707138062, -0.1828341458324038, 0.23958376959040847, 0.9321218038814649,0.20079854758815446,0.5212860107421875,0.320892333984375,-0.717010498046875
20220209-1356,2022-02-09 13:56:32Z,u01, 58,40,movements,el-ex, lt, d,15808.849934291668, 0.5499423374352324, -0.24016538656759848, 0.49058552499146807, 0.5028998851776123, -0.5432308316230774, -0.07172009348869324, 0.507637619972229, 0.23786327242851257, -0.82808518409729, -0.006157517433166504, 0.08026720583438873, 0.09125351905822754, -0.17730382696270697, 0.23349683081177902, 0.9347991872234986,0.20048168730616212,0.5014801025390625,0.3181304931640625,-0.7368316650390625
20220209-1356,2022-02-09 13:56:32Z,u01, 59,40,movements,el-ex, lt, d,15808.874880291667, 0.5346627465392505, -0.2292231004041424, 0.48078886116851277, 0.5790574550628662, -0.5383227467536926, -0.09249500930309296, 0.4962226450443268, 0.22722101211547852, -0.837934136390686, 0.03719404339790344, 0.08778141438961029, 0.11581200361251831, -0.16960666689542067, 0.2286186881010867, 0.9377914580733034,0.1987815472711076,0.5440216064453125,0.3035430908203125,-0.7186279296875
20220209-1356,2022-02-09 13:56:32Z,u01, 60,40,movements,el-ex, lt, d,15808.899827291667, 0.5189805894034167, -0.2222117047485848, 0.47404947070202635, 0.09935718029737473, -0.5838704705238342, -0.08877690136432648, 0.48379990458488464, 0.22038748860359192, -0.8469752073287964, 0.015208244323730469, 0.002238243818283081, 0.1651667356491089, -0.1640473964291118, 0.22271244724669803, 0.9403853765491406,0.19789657430794097,0.4990081787109375,0.222625732421875,-0.6818084716796875
20220209-1356,2022-02-09 13:56:32Z,u01, 61,40,movements,el-ex, lt, d,15808.924773291668, 0.5053556716546335, -0.22663888314772176, 0.47341608238374844, -0.28019067645072937, -0.4768039286136627, -0.10984090715646744, 0.47173836827278137, 0.22470363974571228, -0.8526260256767273, -0.03100353479385376, 0.0026218146085739136, 0.1870071291923523, -0.164682857793235, 0.21579283086470213, 0.9418392462727333,0.19812039525852768,0.442352294921875,0.2418365478515625,-0.663818359375
20220209-1356,2022-02-09 13:56:32Z,u01, 62,40,movements,el-ex, lt, d,15808.949719291668, 0.49467786376373474, -0.23404261054505351, 0.4742937248185988, -0.22097761929035187, -0.4165646731853485, -0.11012333631515503, 0.4618050158023834, 0.2319118082523346, -0.8561267852783203, -0.0073677897453308105, 0.008322566747665405, 0.1888904571533203, -0.16715638228175678, 0.20975069386426975, 0.9427012290641148,0.19843855708896294,0.454437255859375,0.240234375,-0.667236328125
20220209-1356,2022-02-09 13:56:32Z,u01, 63,40,movements,el-ex, lt, d,15808.974666291668, 0.48504273804418263, -0.23772295862625456, 0.4729802169254925, -0.0006704842671751976, -0.31430956721305847, -0.12934723496437073, 0.45313379168510437, 0.23549023270606995, -0.8597756028175354, -0.030373811721801758, 0.00630052387714386, 0.1804695725440979, -0.16777601399882597, 0.20484970081983817, 0.9437298547127158,0.1981458380413656,0.4141693115234375,0.248870849609375,-0.666839599609375
20220209-1356,2022-02-09 13:56:32Z,u01, 64,40,movements,el-ex, lt, d,15808.999612291667, 0.47804387396278825, -0.2389819662484873, 0.47032584504317165, -0.020165689289569855, -0.22850343585014343, -0.08912990242242813, 0.44696855545043945, 0.23671364784240723, -0.8626620173454285, -0.010826587677001953, -0.01602579653263092, 0.24031704664230347, -0.16740037509199054, 0.20160877698536153, 0.9446676421302002,0.19731726929405768,0.4361419677734375,0.2206878662109375,-0.622344970703125
20220209-1356,2022-02-09 13:56:32Z,u01, 65,40,movements,el-ex, lt, d,15809.024558291667, 0.4730569718520342, -0.24302441831742855, 0.46956494573899094, -0.19860830903053284, -0.13674695789813995, -0.10189050436019897, 0.44222140312194824, 0.24063926935195923, -0.864021360874176, -0.01474645733833313, -0.03421838581562042, 0.2433243989944458, -0.16871598929846834, 0.1988069944859146, 0.9451221536474727,0.19686221643296545,0.4157867431640625,0.2127838134765625,-0.6235198974609375
20220209-1356,2022-02-09 13:56:32Z,u01, 66,40,movements,el-ex, lt, d,15809.049505291667, 0.4714861499289623, -0.24749005738854446, 0.4692405526552847, -0.10742995887994766, 0.006234104745090008, -0.08004359900951385, 0.4403711259365082, 0.24497127532958984, -0.8637489676475525, -0.026690125465393066, -0.008505836129188538, 0.224970281124115, -0.170610095989744, 0.197528996879368, 0.9451719340554737,0.19627619762643456,0.4136810302734375,0.2364654541015625,-0.6387786865234375
20220209-1356,2022-02-09 13:56:32Z,u01, 67,40,movements,el-ex, lt, d,15809.074451291668, 0.4726636740489487, -0.2518695609140234, 0.46979628317015387, -0.2657158374786377, 0.05946490168571472, -0.040813837200403214, 0.4408952593803406, 0.24921496212482452, -0.8622663617134094, 0.013328343629837036, -0.037453532218933105, 0.22245007753372192, -0.17282009691266353, 0.197484276935792, 0.9448615863472609,0.19588186062659063,0.4602813720703125,0.2095947265625,-0.6423492431640625
20220209-1356,2022-02-09 13:56:32Z,u01, 68,40,movements,el-ex, lt, d,15809.099397291668, 0.4755881619787309, -0.2593680161239594, 0.4730303767005128, -0.32227715849876404, 0.12874823808670044, -0.014905408024787903, 0.4425469934940338, 0.2564697563648224, -0.8592877388000488, 0.0065802037715911865, -0.030075132846832275, 0.19121217727661133, -0.17691469718277453, 0.1976292459002404, 0.9440079925681486,0.1961957053070932,0.449127197265625,0.2263946533203125,-0.6680755615234375
20220209-1356,2022-02-09 13:56:32Z,u01, 69,40,movements,el-ex, lt, d,15809.124344291668, 0.48095143489190134, -0.26477270208090653, 0.4753201024180297, -0.12598642706871033, 0.26187631487846375, -0.01865580305457115, 0.44650140404701233, 0.2616899013519287, -0.8556604981422424, -0.028425872325897217, -0.014909505844116211, 0.16620737314224243, -0.18017837034251405, 0.19926240803434983, 0.9430668631981782,0.1960997158785007,0.417694091796875,0.2420806884765625,-0.690521240234375
20220209-1356,2022-02-09 13:56:32Z,u01, 70,40,movements,el-ex, lt, d,15809.149290291667, 0.4893855379325498, -0.2668430929115565, 0.4755157754703971, -0.05911468341946602, 0.3986206650733948, -0.027701962739229202, 0.45344650745391846, 0.2636875808238983, -0.8513842821121216, 0.004347681999206543, -0.030457019805908203, 0.16852295398712158, -0.1819832590350779, 0.20295310593217253, 0.9421283604299471,0.19515740130907636,0.457794189453125,0.2332305908203125,-0.682861328125
20220209-1356,2022-02-09 13:56:32Z,u01, 71,40,movements,el-ex, lt, d,15809.174237291667, 0.5000415391468367, -0.26907115368016904, 0.4765507527323014, -0.1343562752008438, 0.436620831489563, -0.002780301496386528, 0.462210088968277, 0.26583611965179443, -0.8459863662719727, 0.03136596083641052, -0.04006710648536682, 0.15345096588134766, -0.18415890617044578, 0.20758687389456992, 0.9408572636866891,0.19437250743945647,0.4881591796875,0.2263031005859375,-0.690216064453125
20220209-1356,2022-02-09 13:56:32Z,u01, 72,40,movements,el-ex, lt, d,15809.199183291668, 0.5121579164517427, -0.2725515198034167, 0.4785469417032663, -0.1678479164838791, 0.49419301748275757, 0.0033902423456311226, 0.47196996212005615, 0.26918965578079224, -0.8395125269889832, -0.014328360557556152, -0.039621174335479736, 0.13098591566085815, -0.18715222560023775, 0.21264470156306012, 0.93927190106573,0.19371281425387904,0.4576416015625,0.2295684814453125,-0.708526611328125
20220209-1356,2022-02-09 13:56:32Z,u01, 73,40,movements,el-ex, lt, d,15809.224129291668, 0.5257616921072316, -0.27592693649263605, 0.4809452287430897, -0.1606198400259018, 0.5397099852561951, 0.047124139964580536, 0.4828876852989197, 0.2724389135837555, -0.8322238326072693, -0.021324604749679565, -0.02156919240951538, 0.10679048299789429, -0.19028172842588498, 0.2183596885738373, 0.9374593966914861,0.1930847722087271,0.46807861328125,0.253936767578125,-0.7211761474609375
20220209-1356,2022-02-09 13:56:32Z,u01, 74,40,movements,el-ex, lt, d,15809.249076291668, 0.5410249160155193, -0.2794144200063565, 0.4850746825876317, -0.26121094822883606, 0.5834724307060242, 0.06370537728071213, 0.49504104256629944, 0.27579283714294434, -0.8239372968673706, 0.015365451574325562, -0.010885000228881836, 0.1207970380783081, -0.19381489057848267, 0.22464892227565408, 0.9352531212721386,0.19305486861306392,0.510406494140625,0.2649078369140625,-0.7031402587890625
20220209-1356,2022-02-09 13:56:32Z,u01, 75,40,movements,el-ex, lt, d,15809.274022291667, 0.5573361687473601, -0.2844845451809357, 0.49022713947822455, -0.23435108363628387, 0.6243802905082703, 0.049666594713926315, 0.5076678991317749, 0.28066274523735046, -0.8145561218261719, 0.007041513919830322, -0.014793634414672852, 0.09580618143081665, -0.19829782116550693, 0.23108419245893194, 0.9327288496015269,0.19311888999386811,0.509368896484375,0.274200439453125,-0.7287139892578125
20220209-1356,2022-02-09 13:56:32Z,u01, 76,40,movements,el-ex, lt, d,15809.298968291667, 0.5745536169827195, -0.2867930719751332, 0.49257711329486914, -0.03428390249609947, 0.6888533234596252, 0.02393513172864914, 0.5212630033493042, 0.28287774324417114, -0.8051490783691406, -0.0019454360008239746, 0.024800479412078857, 0.058658599853515625, -0.20128505292227677, 0.2385577502616378, 0.9304055194453101,0.192145733115413,0.519317626953125,0.30767822265625,-0.746490478515625
20220209-1356,2022-02-09 13:56:32Z,u01, 77,40,movements,el-ex, lt, d,15809.323915291669, 0.5916222433775127, -0.289336496835254, 0.4944792052019248, -0.2904951572418213, 0.6427255272865295, -0.004526536446064711, 0.5345262289047241, 0.2853163778781891, -0.7955352067947388, 0.013355791568756104, -0.002128511667251587, 0.07670891284942627, -0.2043060827193217, 0.24595001380921228, 0.9280748371395926,0.19090526378538716,0.5501861572265625,0.2804718017578125,-0.7056121826171875
20220209-1356,2022-02-09 13:56:32Z,u01, 78,40,movements,el-ex, lt, d,15809.348861291668, 0.6092773161652743, -0.29723908052494136, 0.5010316684184118, -0.452075719833374, 0.6362435221672058, 0.05438618361949921, 0.5471799969673157, 0.29288148880004883, -0.7841010689735413, 0.02586376667022705, 1.093745231628418e-05, 0.06777721643447876, -0.2103844100757724, 0.25236455739668995, 0.9250000559959506,0.1908542677857564,0.5730438232421875,0.2928924560546875,-0.7163238525390625
20220209-1356,2022-02-09 13:56:32Z,u01, 79,40,movements,el-ex, lt, d,15809.373807291668, 0.6281934455886817, -0.3047676579046159, 0.5084076159881226, -0.3433014452457428, 0.7153593897819519, 0.05140424147248268, 0.5606015920639038, 0.3000715374946594, -0.771804928779602, -0.000924527645111084, 0.025505244731903076, 0.05311596393585205, -0.21652363363284155, 0.2592586597615943, 0.9216386760377231,0.19100916792768646,0.5541229248046875,0.3308258056640625,-0.718658447265625
20220209-1356,2022-02-09 13:56:32Z,u01, 80,40,movements,el-ex, lt, d,15809.398754291668, 0.6488200848724511, -0.3099386546880112, 0.5132048319883905, -0.2167767733335495, 0.8076006770133972, -0.013124952092766762, 0.5754556655883789, 0.3050002157688141, -0.7588317394256592, -0.014130651950836182, 0.04352578520774841, 0.06153559684753418, -0.221436455692806, 0.2674883790057474, 0.9183043545453808,0.19008659132047853,0.5613250732421875,0.3485260009765625,-0.697296142578125
20220209-1356,2022-02-09 13:56:32Z,u01, 81,40,movements,el-ex, lt, d,15809.423700291667, 0.6697000354389311, -0.31370808489939656, 0.5153637218086293, -0.1269167959690094, 0.801870584487915, -0.03481932729482651, 0.5904555916786194, 0.3085878789424896, -0.745745062828064, 0.02918851375579834, 0.042303264141082764, 0.028520941734313965, -0.22538366812543092, 0.276278260505763, 0.9151472328355412,0.18809046975196103,0.6296539306640625,0.35296630859375,-0.724456787109375
20220209-1356,2022-02-09 13:56:32Z,u01, 82,40,movements,el-ex, lt, d,15809.448647291667, 0.6890490712598071, -0.31631432670202003, 0.5170522179402954, -0.14411510527133942, 0.7133513689041138, -0.00040915654972195625, 0.604260265827179, 0.3110658526420593, -0.733558177947998, 0.018527209758758545, 0.035003453493118286, -0.014397144317626953, -0.22858684886380648, 0.2845504544086339, 0.9121995006461203,0.18620205449330265,0.6227874755859375,0.3460693359375,-0.747955322265625
20220209-1356,2022-02-09 13:56:33Z,u01, 83,40,movements,el-ex, lt, d,15809.473593291668, 0.7082226602767787, -0.3212340859437939, 0.5215205807430774, -0.38177919387817383, 0.7314744591712952, 0.015157019719481468, 0.6172102689743042, 0.3157377541065216, -0.7206671237945557, -0.045448243618011475, 0.013409525156021118, 0.01465827226638794, -0.2331821926946987, 0.29204881294266516, 0.9088795511186051,0.18512537902946014,0.5738983154296875,0.329620361328125,-0.70281982421875
20220209-1356,2022-02-09 13:56:33Z,u01, 84,40,movements,el-ex, lt, d,15809.498539291668, 0.729089270097605, -0.32904384666381986, 0.5304062600794021, -0.5019908547401428, 0.7007254958152771, 0.07602183520793915, 0.6304507255554199, 0.3231383264064789, -0.7057715654373169, 0.0319637656211853, 0.01525580883026123, -0.034462809562683105, -0.23985340716664474, 0.2993067886619311, 0.9047529003040113,0.18522435323694203,0.66241455078125,0.3383941650390625,-0.740234375
20220209-1356,2022-02-09 13:56:33Z,u01, 85,40,movements,el-ex, lt, d,15809.523486291668, 0.7493332234452772, -0.33647014297651956, 0.5405453148018696, -0.436455100774765, 0.6737493872642517, 0.05590391531586647, 0.6429558396339417, 0.33015722036361694, -0.6910889744758606, 0.021961092948913574, 0.03320032358169556, -0.041424453258514404, -0.24650056337990234, 0.3060930955533816, 0.9005450562704309,0.18591156877255935,0.6547393798828125,0.373931884765625,-0.7306365966796875
20220209-1356,2022-02-09 13:56:33Z,u01, 86,40,movements,el-ex, lt, d,15809.548432291667, 0.7690622736410441, -0.34316360932572026, 0.5475204635710537, -0.32864296436309814, 0.7170058488845825, -0.02758212201297283, 0.6549127697944641, 0.3364679217338562, -0.6766672134399414, 0.004953503608703613, 0.05818536877632141, -0.01696676015853882, -0.25230583652160166, 0.313062527541092, 0.8966659071788373,0.1852667559969855,0.6598663330078125,0.3946533203125,-0.693634033203125
20220209-1356,2022-02-09 13:56:33Z,u01, 87,40,movements,el-ex, lt, d,15809.573378291667, 0.7887807099275804, -0.34918593053790625, 0.5525982506496057, -0.2539597749710083, 0.725713849067688, -0.03770259767770767, 0.6666776537895203, 0.3421329855918884, -0.6621826887130737, 0.043222248554229736, 0.04437214136123657, -0.03947746753692627, -0.2575167723123224, 0.3203026189180711, 0.8929192307020405,0.18381113705782756,0.7185821533203125,0.3848114013671875,-0.70965576171875
20220209-1356,2022-02-09 13:56:33Z,u01, 88,40,movements,el-ex, lt, d,15809.598325291669, 0.8076755531038337, -0.35266337290831584, 0.5542775824767859, -0.028888540342450142, 0.7522925734519958, -0.07803530991077423, 0.6782057881355286, 0.345398485660553, -0.6486422419548035, 0.025025904178619385, 0.059600263833999634, -0.06546908617019653, -0.26099932512637053, 0.32796073676485105, 0.8896164101426662,0.18139378262260503,0.7032318115234375,0.404998779296875,-0.714111328125
20220209-1356,2022-02-09 13:56:33Z,u01, 89,40,movements,el-ex, lt, d,15809.623271291668, 0.8256730928685749, -0.3542738966067183, 0.5517884257006809, 0.04112646356225014, 0.7530379295349121, -0.14619897305965424, 0.6893595457077026, 0.34690943360328674, -0.6359537243843079, 0.0014820694923400879, 0.03381258249282837, -0.06520283222198486, -0.2628859386909911, 0.33602694642481734, 0.8868131209082154,0.17759283201499265,0.6955413818359375,0.3770294189453125,-0.6935882568359375
20220209-1356,2022-02-09 13:56:33Z,u01, 90,40,movements,el-ex, lt, d,15809.648217625001, 0.8430004620495598, -0.3571270892894724, 0.5492887827169469, -0.06369009613990784, 0.7004918456077576, -0.1478714495897293, 0.6995331048965454, 0.34958404302597046, -0.6232531666755676, 0.04187619686126709, 0.01612335443496704, -0.05419129133224487, -0.2651900400454857, 0.3435806466835501, 0.884021308596198,0.17358844045618219,0.7414093017578125,0.3657073974609375,-0.6774444580078125
20220209-1356,2022-02-09 13:56:33Z,u01, 91,40,movements,el-ex, lt, d,15809.673164625001, 0.8595288028856122, -0.3612892322712802, 0.5482884666415901, -0.06698139756917953, 0.6535416841506958, -0.1676633208990097, 0.7086300253868103, 0.3534805178642273, -0.6106513142585754, 0.04599332809448242, -0.0007736682891845703, -0.08559197187423706, -0.2681899723030115, 0.35035480691054754, 0.8811429393721635,0.1700374450311052,0.750823974609375,0.3568878173828125,-0.6946258544921875
20220209-1356,2022-02-09 13:56:33Z,u01, 92,40,movements,el-ex, lt, d,15809.698110625, 0.8748972387076536, -0.36501851103620897, 0.5460900267223147, -0.010606405325233936, 0.6443444490432739, -0.1766485720872879, 0.7169140577316284, 0.3569665849208832, -0.5988398790359497, 0.011601567268371582, -0.005144655704498291, -0.06287282705307007, -0.2706571956707825, 0.35682594751153923, 0.8785247161470208,0.16617553573691482,0.728515625,0.3518218994140625,-0.661712646484375
20220209-1356,2022-02-09 13:56:33Z,u01, 93,40,movements,el-ex, lt, d,15809.723057625, 0.8901936018517561, -0.36870280836869995, 0.5434444092555739, -0.012435897253453732, 0.6491798758506775, -0.1637946218252182, 0.7249628305435181, 0.36040571331977844, -0.5869724750518799, 0.017148375511169434, -0.015785962343215942, -0.05139422416687012, -0.27297505331185906, 0.36331582406216206, 0.87590341928594,0.16210943278857026,0.7490234375,0.3451690673828125,-0.63494873046875
20220209-1356,2022-02-09 13:56:33Z,u01, 94,40,movements,el-ex, lt, d,15809.748003625002, 0.9051388039864472, -0.37137405899246556, 0.5405460121222275, 0.04610747471451759, 0.6327891945838928, -0.14905768632888794, 0.7328940629959106, 0.3628961741924286, -0.5754759311676025, 0.03860551118850708, -0.013179957866668701, -0.05864882469177246, -0.2747516606765223, 0.36982907901637724, 0.8733353790778571,0.15818730209967122,0.7714996337890625,0.3497161865234375,-0.634124755859375
20220209-1356,2022-02-09 13:56:33Z,u01, 95,40,movements,el-ex, lt, d,15809.772949625001, 0.9193616472786047, -0.3730762743834126, 0.5366735026627997, 0.08499451726675034, 0.6192166209220886, -0.1330880969762802, 0.7405123710632324, 0.3644818067550659, -0.5646189451217651, 0.019787311553955078, -0.020899653434753418, -0.05101215839385986, -0.2758452339825776, 0.37629766426058653, 0.8709465861003537,0.15414807155496374,0.7578277587890625,0.3424835205078125,-0.6072998046875
20220209-1356,2022-02-09 13:56:33Z,u01, 96,40,movements,el-ex, lt, d,15809.797896625001, 0.9334001432810184, -0.3750700958894085, 0.533753307338091, -0.025858227163553238, 0.5813550353050232, -0.11487395316362381, 0.7477800250053406, 0.36633774638175964, -0.5537344217300415, 0.016929447650909424, -0.042729347944259644, -0.02829688787460327, -0.27718360965285954, 0.38249450913538585, 0.8684616547524294,0.15047133608979313,0.76470947265625,0.3236083984375,-0.58203125
20220209-1356,2022-02-09 13:56:33Z,u01, 97,40,movements,el-ex, lt, d,15809.822842625, 0.9477428223807651, -0.37799873939173917, 0.5340356767940894, -0.09205262362957001, 0.5695890188217163, -0.060222819447517395, 0.7547703385353088, 0.3690612316131592, -0.5423242449760437, 0.014699876308441162, -0.03831174969673157, -0.0342901349067688, -0.27951201916034013, 0.388215013975596, 0.8656133498867091,0.14790443236342068,0.77508544921875,0.337432861328125,-0.576690673828125
20220209-1356,2022-02-09 13:56:33Z,u01, 98,40,movements,el-ex, lt, d,15809.847788625, 0.9623315365737859, -0.37992385500435666, 0.5347979543233019, -0.04017997533082962, 0.5751947164535522, -0.042054470628499985, 0.7620171904563904, 0.37084975838661194, -0.5308487415313721, 0.03198915719985962, -0.009979397058486938, -0.02429652214050293, -0.28151982573854606, 0.39410940965227204, 0.8626635249984188,0.14572605026779778,0.79400634765625,0.360870361328125,-0.555145263671875
20220209-1356,2022-02-09 13:56:33Z,u01, 99,40,movements,el-ex, lt, d,15809.872735625, 0.97662750958751, -0.3812467668699567, 0.5341065474078808, 0.04319144785404205, 0.5869942903518677, -0.05645184963941574, 0.7691207528114319, 0.372078001499176, -0.5196259021759033, 0.026502907276153564, -0.0009079873561859131, -0.013607680797576904, -0.28295369716093316, 0.4001552764604017, 0.8598477809149215,0.1430897139411455,0.794921875,0.3690643310546875,-0.5305938720703125
20220209-1356,2022-02-09 13:56:33Z,u01, 100,40,movements,el-ex, lt, d,15809.897681625001, 0.9902884265046592, -0.38151514566676803, 0.5317009798678975, 0.06827513128519058, 0.5802895426750183, -0.060354117304086685, 0.776063859462738, 0.37232711911201477, -0.5090160965919495, -0.0028400421142578125, -0.01482895016670227, -0.013872087001800537, -0.28354458056712195, 0.4063181366091436, 0.8572585243744124,0.14005640148644893,0.773223876953125,0.3574981689453125,-0.52288818359375
20220209-1356,2022-02-09 13:56:33Z,u01, 101,40,movements,el-ex, lt, d,15809.922627625001, 1.0045717288306362, -0.3822010133368293, 0.5308383067588218, -0.06464450806379318, 0.5740041136741638, -0.02027314156293869, 0.7830391526222229, 0.3729635775089264, -0.4977426528930664, 0.0027273893356323242, -0.023201584815979004, -0.0028371810913085938, -0.28463622881173495, 0.4124450142871804, 0.8543817900717439,0.13748796190709348,0.7966156005859375,0.3480377197265625,-0.4937896728515625
20220209-1356,2022-02-09 13:56:33Z,u01, 102,40,movements,el-ex, lt, d,15809.947574625001, 1.0197965886728804, -0.38402398830004747, 0.5340435434216586, -0.18445782363414764, 0.5542739033699036, 0.01944051682949066, 0.7899456024169922, 0.3746543824672699, -0.4854070246219635, 0.04532045125961304, -0.014562278985977173, 0.007532268762588501, -0.28707656743773385, 0.41819078437727236, 0.8509685956391123,0.13621999721691827,0.83526611328125,0.3600921630859375,-0.477874755859375
20220209-1356,2022-02-09 13:56:33Z,u01, 103,40,movements,el-ex, lt, d,15809.972520625, 1.0352515666163187, -0.3856966612495855, 0.5379323699751037, -0.1102486103773117, 0.5706237554550171, 0.015058482997119427, 0.7968128323554993, 0.3762046992778778, -0.4728204905986786, 0.02771097421646118, 0.009323835372924805, -0.006488591432571411, -0.2896126538882633, 0.4239271925385129, 0.8474234611144118,0.13521709268211773,0.8217010498046875,0.3889007568359375,-0.4796295166015625
20220209-1356,2022-02-09 13:56:33Z,u01, 104,40,movements,el-ex, lt, d,15809.997467625, 1.0501400005934374, -0.38637598234592363, 0.5393079115145758, -0.02150356024503708, 0.5717582702636719, -0.013336939737200737, 0.8035419583320618, 0.37683403491973877, -0.46077799797058105, 0.00018417835235595703, 0.010296672582626343, -0.005789995193481445, -0.29117635370625583, 0.42991549514866506, 0.8441426689512928,0.13346196043480574,0.8037261962890625,0.3871307373046875,-0.4665679931640625
20220209-1356,2022-02-09 13:56:33Z,u01, 105,40,movements,el-ex, lt, d,15810.022413625002, 1.0647297158958855, -0.3874111246648488, 0.5401287346131187, -0.09050340205430984, 0.5786923170089722, -0.027948372066020966, 0.8098372220993042, 0.3777926564216614, -0.44881659746170044, 0.007896482944488525, 0.00042685866355895996, -0.0023247897624969482, -0.29272941704750577, 0.43577653943751615, 0.8409162394680771,0.13140814303109888,0.8226470947265625,0.375213623046875,-0.4483795166015625
20220209-1356,2022-02-09 13:56:33Z,u01, 106,40,movements,el-ex, lt, d,15810.047359625001, 1.0798593981977689, -0.3886671980324033, 0.5412870288033331, 0.01709982380270958, 0.588150143623352, -0.01441032625734806, 0.81611567735672, 0.3789553642272949, -0.43628910183906555, 0.05223149061203003, 0.01438567042350769, -0.028661489486694336, -0.29446379186286326, 0.4417539229302678, 0.8375053930700216,0.12934199830370152,0.86834716796875,0.393341064453125,-0.4649505615234375
20220209-1356,2022-02-09 13:56:33Z,u01, 107,40,movements,el-ex, lt, d,15810.072306625001, 1.0938193577990254, -0.38806692603786475, 0.5386102032904535, 0.17077749967575073, 0.6075506806373596, -0.043478794395923615, 0.8223284482955933, 0.3783997893333435, -0.42495834827423096, 0.02747929096221924, 0.019381582736968994, -0.03307998180389404, -0.29452564050417085, 0.4480797559059152, 0.8345781090462325,0.12632741656633611,0.8407745361328125,0.3929290771484375,-0.454010009765625
20220209-1356,2022-02-09 13:56:33Z,u01, 108,40,movements,el-ex, lt, d,15810.097252625, 1.1072263624603609, -0.38789043375555565, 0.5342967083457622, 0.07416734099388123, 0.5885125398635864, -0.07639253884553909, 0.8280113935470581, 0.37823641300201416, -0.4139253497123718, -0.012475013732910156, -0.012941062450408936, -0.010421574115753174, -0.2943180815586728, 0.4543282928061654, 0.8318237456740297,0.12260421168913882,0.8155364990234375,0.36529541015625,-0.424346923828125
20220209-1356,2022-02-09 13:56:33Z,u01, 109,40,movements,el-ex, lt, d,15810.122198625, 1.1218350044782868, -0.38962939239833916, 0.5348462457668179, -0.16924531757831573, 0.5636668801307678, -0.02503693848848343, 0.833375871181488, 0.37984561920166016, -0.4014993906021118, 0.003217637538909912, -0.027474433183670044, 0.013895660638809204, -0.29600535000441486, 0.4600338431650858, 0.8284326583913272,0.12020353388608793,0.846160888671875,0.34906005859375,-0.388031005859375
20220209-1356,2022-02-09 13:56:33Z,u01, 110,40,movements,el-ex, lt, d,15810.147145625, 1.1380141656358507, -0.3921086504144401, 0.5405529727652738, -0.2584654688835144, 0.5609847903251648, 0.015059349127113819, 0.8389051556587219, 0.38213786482810974, -0.38756802678108215, 0.03159356117248535, 0.0004762411117553711, -0.013860225677490234, -0.2992511188990237, 0.4654726137367404, 0.8243242922079911,0.11947217941618951,0.8704986572265625,0.3826141357421875,-0.40142822265625
20220209-1356,2022-02-09 13:56:33Z,u01, 111,40,movements,el-ex, lt, d,15810.172091625001, 1.1547567509957946, -0.39401060011739336, 0.5462767861188198, -0.1776740550994873, 0.5993029475212097, 0.0007537137717008591, 0.8446097373962402, 0.38389480113983154, -0.3731744885444641, 0.009180545806884766, 0.024018406867980957, -0.017114877700805664, -0.30231656634190734, 0.4711872837736145, 0.8200481484931395,0.11877813441865293,0.8491058349609375,0.409027099609375,-0.38482666015625
20220209-1356,2022-02-09 13:56:33Z,u01, 112,40,movements,el-ex, lt, d,15810.197037625001, 1.1705386107192408, -0.39595523650153047, 0.5488193295987893, -0.06027572602033615, 0.5774542689323425, -0.05996755510568619, 0.8497045636177063, 0.38568970561027527, -0.3595074713230133, 0.0014154314994812012, 0.021750450134277344, -0.028401494026184082, -0.30458781674736146, 0.47694079332167805, 0.8161456029025886,0.11687647933896833,0.8511199951171875,0.407440185546875,-0.387908935546875
20220209-1356,2022-02-09 13:56:33Z,u01, 113,40,movements,el-ex, lt, d,15810.221984625001, 1.1847988209364662, -0.3978533227809219, 0.5490930998584069, -0.054640308022499084, 0.5468618273735046, -0.06843847036361694, 0.85406494140625, 0.3874402344226837, -0.3470781445503235, 0.020721435546875, 0.025920361280441284, -0.02769303321838379, -0.30619412455008804, 0.482396190701077, 0.8126999971413295,0.11427090896157593,0.881378173828125,0.410919189453125,-0.3675384521484375
20220209-1356,2022-02-09 13:56:33Z,u01, 114,40,movements,el-ex, lt, d,15810.246930625, 1.1986007118486295, -0.39984201610660436, 0.5511539176301075, -0.1600281149148941, 0.502470850944519, -0.047086045145988464, 0.8580543398857117, 0.3892728388309479, -0.3349768817424774, 0.038338541984558105, -2.1070241928100586e-05, -0.04345634579658508, -0.3082222628003739, 0.48735058400511566, 0.8092287617976448,0.1124158040611273,0.896392822265625,0.389251708984375,-0.3784332275390625
20220209-1356,2022-02-09 13:56:33Z,u01, 115,40,movements,el-ex, lt, d,15810.271877625, 1.2128589502206848, -0.4028890878030294, 0.5550503076380385, -0.15498541295528412, 0.522866427898407, -0.0685199648141861, 0.8616280555725098, 0.3920777440071106, -0.3222918212413788, 0.004247128963470459, 0.008877426385879517, -0.045444995164871216, -0.3111083418833167, 0.49200171463828213, 0.8055106348472705,0.11089841073636394,0.8612518310546875,0.4048614501953125,-0.3609619140625
20220209-1356,2022-02-09 13:56:33Z,u01, 116,40,movements,el-ex, lt, d,15810.296823625002, 1.2268953999176249, -0.4057088756814879, 0.5571034779970493, -0.05737334489822388, 0.5390414595603943, -0.07997655123472214, 0.8650226593017578, 0.39467018842697144, -0.30979230999946594, 0.0019969940185546875, 0.011152535676956177, -0.032630205154418945, -0.3134306849491577, 0.4968551630966098, 0.8019219781031145,0.10870745351202088,0.8670196533203125,0.40582275390625,-0.3424224853515625
20220209-1356,2022-02-09 13:56:33Z,u01, 117,40,movements,el-ex, lt, d,15810.321769625001, 1.2398173245073927, -0.4073504107412302, 0.5557733426262017, 0.12307446449995041, 0.5280975103378296, -0.06819605827331543, 0.8683395385742188, 0.3961779475212097, -0.298378050327301, 0.031974732875823975, 0.009492188692092896, -0.07257840037345886, -0.3143953368355248, 0.5019626949608182, 0.7987642837252511,0.10566282611109565,0.904937744140625,0.4074249267578125,-0.3730010986328125
20220209-1356,2022-02-09 13:56:33Z,u01, 118,40,movements,el-ex, lt, d,15810.346716625001, 1.2507395126428156, -0.4075404620572657, 0.5509627484539723, 0.16789719462394714, 0.4966093599796295, -0.057048600167036057, 0.871475100517273, 0.3963524401187897, -0.2888525724411011, 0.019577085971832275, 0.0031684041023254395, -0.06785210967063904, -0.3138184845224593, 0.5070420875125852, 0.7962586012896415,0.10197270256031266,0.89105224609375,0.3995208740234375,-0.3567047119140625
20220209-1356,2022-02-09 13:56:33Z,u01, 119,40,movements,el-ex, lt, d,15810.371662625, 1.2616648750717814, -0.40801199889360557, 0.5476554360330255, 0.03632205352187157, 0.4821370542049408, -0.06196173280477524, 0.8744007349014282, 0.39678531885147095, -0.2792574465274811, 0.007328331470489502, -0.012187540531158447, -0.06620156764984131, -0.31369663486386223, 0.511825843135777, 0.7936413885642768,0.09880310150946744,0.8827056884765625,0.3868255615234375,-0.339813232421875
20220209-1356,2022-02-09 13:56:33Z,u01, 120,40,movements,el-ex, lt, d,15810.396608625, 1.2737917619765984, -0.4098112010086732, 0.5483013748077011, -0.11907202750444412, 0.4754810929298401, -0.06091344729065895, 0.8770387768745422, 0.39843615889549255, -0.26842403411865234, 0.024816572666168213, -0.0003801882266998291, -0.03034302592277527, -0.3151091207527213, 0.5162307835646168, 0.7904924599477502,0.09661047133597064,0.90185546875,0.3980560302734375,-0.29876708984375
20220209-1356,2022-02-09 13:56:33Z,u01, 121,40,movements,el-ex, lt, d,15810.421555625, 1.2870110397156012, -0.41265952239436904, 0.5519731841974649, -0.1680869460105896, 0.4558731019496918, -0.07719461619853973, 0.8794175386428833, 0.401047021150589, -0.2564883530139923, 0.04747772216796875, -0.0019380748271942139, -0.037395983934402466, -0.3177231179832178, 0.5203920081274725, 0.7868925253605199,0.09510222392133907,0.9279022216796875,0.400726318359375,-0.3063507080078125
20220209-1356,2022-02-09 13:56:33Z,u01, 122,40,movements,el-ex, lt, d,15810.446501625001, 1.29886809146522, -0.41556088914022565, 0.552796485642182, 0.08696948736906052, 0.465552419424057, -0.12406618148088455, 0.8812720775604248, 0.40370315313339233, -0.24572965502738953, 0.008086323738098145, 0.0330033004283905, -0.08808687329292297, -0.31953606112223437, 0.524434819079581, 0.7837607213100916,0.09264876989500725,0.8893585205078125,0.43670654296875,-0.3338165283203125
20220209-1356,2022-02-09 13:56:34Z,u01, 123,40,movements,el-ex, lt, d,15810.471447625001, 1.3075656195343892, -0.4179315774842422, 0.5457985292081912, 0.3109321594238281, 0.44347429275512695, -0.1928657591342926, 0.8824495077133179, 0.4058709144592285, -0.23780590295791626, -0.013476729393005371, 0.02280944585800171, -0.08374261856079102, -0.31893336709292014, 0.5285627278811088, 0.7817899563055973,0.08779173496757889,0.8683929443359375,0.425384521484375,-0.316375732421875
20220209-1356,2022-02-09 13:56:34Z,u01, 124,40,movements,el-ex, lt, d,15810.496394625, 1.3144910015511693, -0.4206063553422104, 0.5370468223039241, 0.21625126898288727, 0.3959037661552429, -0.17901073396205902, 0.883021891117096, 0.408314049243927, -0.23141290247440338, 0.009052634239196777, -0.002094566822052002, -0.04957771301269531, -0.31786103581188785, 0.5322197946786579, 0.7803264676815485,0.08244406261499182,0.8920745849609375,0.406219482421875,-0.2809906005859375
20220209-1356,2022-02-09 13:56:34Z,u01, 125,40,movements,el-ex, lt, d,15810.521340625, 1.3228395842780067, -0.4245882262650864, 0.5336385312081194, -0.04797408729791641, 0.3817339539527893, -0.18772505223751068, 0.8833398222923279, 0.4119456112384796, -0.2236321121454239, 0.025717616081237793, -0.016102135181427002, -0.021515578031539917, -0.3187036176256596, 0.5353615094663755, 0.7782324643333335,0.07855009840090968,0.91162109375,0.39599609375,-0.2392425537109375
20220209-1356,2022-02-09 13:56:34Z,u01, 126,40,movements,el-ex, lt, d,15810.546287625, 1.3327994535219279, -0.42969734018740635, 0.5347989426095379, -0.08947701752185822, 0.38671013712882996, -0.1925346553325653, 0.8834665417671204, 0.4165956676006317, -0.21432426571846008, 0.011629223823547363, 0.008956700563430786, -0.013535261154174805, -0.32120783284779375, 0.5382038614599063, 0.7755093837774302,0.07581114419593546,0.8950958251953125,0.4255523681640625,-0.2278594970703125
20220209-1356,2022-02-09 13:56:34Z,u01, 127,40,movements,el-ex, lt, d,15810.571233625002, 1.342334213283075, -0.4348287342988722, 0.5339176415056675, 0.07614799588918686, 0.39180922508239746, -0.22593235969543457, 0.8833761215209961, 0.42125508189201355, -0.2054041624069214, -0.0027608871459960938, 0.013757705688476562, -0.03614246845245361, -0.32312943911362135, 0.5411887730365346, 0.7729629495546191,0.0723214275102079,0.8803863525390625,0.4384918212890625,-0.24188232421875
20220209-1356,2022-02-09 13:56:34Z,u01, 128,40,movements,el-ex, lt, d,15810.596179625001, 1.3493256657016588, -0.4395360380397755, 0.5288956666631002, 0.15763650834560394, 0.34102070331573486, -0.21735771000385284, 0.8828462958335876, 0.4255196452140808, -0.19878531992435455, 0.007504105567932129, 0.006426215171813965, -0.03169873356819153, -0.323662117647218, 0.5439211078552483, 0.7712331691541242,0.06776559275775848,0.890350341796875,0.43194580078125,-0.2304840087890625
20220209-1356,2022-02-09 13:56:34Z,u01, 129,40,movements,el-ex, lt, d,15810.621126625001, 1.355715182755601, -0.44384444667562684, 0.5256019201748594, -0.020077871158719063, 0.2809642255306244, -0.16630339622497559, 0.8822991251945496, 0.4294145703315735, -0.19274726510047913, 0.020197272300720215, -0.008622974157333374, -0.01619136333465576, -0.3244808151471983, 0.5462037798319823, 0.7695878476402574,0.06409549737903525,0.9048004150390625,0.417144775390625,-0.2056427001953125
20220209-1356,2022-02-09 13:56:34Z,u01, 130,40,movements,el-ex, lt, d,15810.646072166668, 1.3635477406549954, -0.4483493508707858, 0.5278904156425055, -0.19691084325313568, 0.2763795852661133, -0.16456595063209534, 0.8818796277046204, 0.43347862362861633, -0.18543080985546112, 0.009142041206359863, -0.01431971788406372, -0.001397848129272461, -0.32692219784065185, 0.548093485769179, 0.7673581070828907,0.062265087590727325,0.891021728515625,0.419158935546875,-0.18682861328125
20220209-1356,2022-02-09 13:56:34Z,u01, 131,40,movements,el-ex, lt, d,15810.671018166668, 1.3725659926332783, -0.45296665434742023, 0.5317592040270083, -0.10576261579990387, 0.306923508644104, -0.14257049560546875, 0.8815443515777588, 0.4376349449157715, -0.17707432806491852, 0.001893758773803711, 9.390711784362793e-05, -0.015827298164367676, -0.3298597054584906, 0.5501412650662811, 0.764749575431188,0.060789121102792026,0.88262939453125,0.43927001953125,-0.197723388671875
20220209-1356,2022-02-09 13:56:34Z,u01, 132,40,movements,el-ex, lt, d,15810.695965166668, 1.379883802784572, -0.4563182332676972, 0.5301595741177352, 0.17477387189865112, 0.3277260661125183, -0.1431981325149536, 0.8813713192939758, 0.44064605236053467, -0.17033934593200684, -0.007881999015808105, 0.0006533265113830566, -0.02970336377620697, -0.33078989629928823, 0.5526376463405978, 0.7627699663351964,0.057892497330008424,0.8734893798828125,0.4412994384765625,-0.200042724609375
20220209-1356,2022-02-09 13:56:34Z,u01, 133,40,movements,el-ex, lt, d,15810.720911166667, 1.3844303538855132, -0.45900519978997306, 0.5222242690914389, 0.2939835786819458, 0.31711089611053467, -0.17199894785881042, 0.8809700012207031, 0.44305649399757385, -0.16611042618751526, -0.0094643235206604, -0.007692784070968628, -0.031002625823020935, -0.329641436479005, 0.5552308615197806, 0.7617213657471862,0.05325114314902568,0.872039794921875,0.434295654296875,-0.1949310302734375
20220209-1356,2022-02-09 13:56:34Z,u01, 134,40,movements,el-ex, lt, d,15810.745858166667, 1.3885048344173325, -0.46214258952759674, 0.5143052172735875, 0.2142825424671173, 0.2977769374847412, -0.1774679571390152, 0.8802683353424072, 0.44586697220802307, -0.162266805768013, 0.006740450859069824, 0.013331055641174316, -0.04185004532337189, -0.3286189352911792, 0.5575627247898466, 0.7607734014746129,0.0485525025197473,0.8870086669921875,0.459197998046875,-0.2041168212890625
20220209-1356,2022-02-09 13:56:34Z,u01, 135,40,movements,el-ex, lt, d,15810.770804166668, 1.3933100101416263, -0.4656522148023936, 0.5087983491983, 0.1375216394662857, 0.28718301653862, -0.1633290946483612, 0.8794921636581421, 0.449005663394928, -0.15775784850120544, 0.0070587992668151855, 0.013946056365966797, -0.03193946182727814, -0.3283957485304635, 0.5597118091709945, 0.7595365591605768,0.04453317159173242,0.885498046875,0.4571380615234375,-0.1911468505859375
20220209-1356,2022-02-09 13:56:34Z,u01, 136,40,movements,el-ex, lt, d,15810.795750166668, 1.3985808402117086, -0.4690138296169371, 0.5046793747364708, 0.10706969350576401, 0.28375759720802307, -0.1473296880722046, 0.8788194060325623, 0.45200681686401367, -0.15286049246788025, 0.0019025802612304688, -0.00623658299446106, -0.03412073850631714, -0.32850363379735464, 0.5618319275911503, 0.7581215155705441,0.04101272651881285,0.8807220458984375,0.445770263671875,-0.186981201171875
20220209-1356,2022-02-09 13:56:34Z,u01, 137,40,movements,el-ex, lt, d,15810.820697166668, 1.4041111924420546, -0.47185272694971925, 0.5012239034250345, 0.09593065828084946, 0.27363842725753784, -0.12303786724805832, 0.8783823847770691, 0.4545373320579529, -0.1477845013141632, 0.012852907180786133, -0.02016541361808777, -0.04487299919128418, -0.32860900175535407, 0.5640247071662131, 0.7566096120291238,0.03787078683856002,0.896453857421875,0.4337310791015625,-0.1918792724609375
20220209-1356,2022-02-09 13:56:34Z,u01, 138,40,movements,el-ex, lt, d,15810.845643166667, 1.4092814681945842, -0.47456605406024766, 0.498941194980347, 0.02254672162234783, 0.22926220297813416, -0.12034860998392105, 0.8779141902923584, 0.4569525122642517, -0.1430422067642212, 0.0207827091217041, -0.01963561773300171, -0.03875100612640381, -0.3289824260109365, 0.5659058758897912, 0.7551668821764556,0.03527156053602104,0.8986968994140625,0.43731689453125,-0.181793212890625
20220209-1356,2022-02-09 13:56:34Z,u01, 139,40,movements,el-ex, lt, d,15810.870589166667, 1.4143778243836773, -0.47734053341004473, 0.49834745462133534, -0.012334397062659264, 0.20309244096279144, -0.10312428325414658, 0.877376139163971, 0.4594186246395111, -0.1383681744337082, 0.010059833526611328, -0.014579087495803833, -0.055342212319374084, -0.3298434401964865, 0.5674673692619796, 0.7537077074235361,0.033299248866240805,0.889984130859375,0.44482421875,-0.1953582763671875
20220209-1356,2022-02-09 13:56:34Z,u01, 140,40,movements,el-ex, lt, d,15810.895536166667, 1.418842499366943, -0.4795877529665954, 0.49804031517941266, 0.01624971069395542, 0.1707044094800949, -0.07579998672008514, 0.876962423324585, 0.4614134728908539, -0.13429300487041473, 0.01869797706604004, -0.01895439624786377, -0.05345118045806885, -0.3305894993676494, 0.5688269356622352, 0.7524235173542396,0.031708372336505364,0.895660400390625,0.4424591064453125,-0.187744140625
20220209-1356,2022-02-09 13:56:34Z,u01, 141,40,movements,el-ex, lt, d,15810.920482166668, 1.4223385514450015, -0.4811216816130416, 0.4969376349388684, 0.04078637808561325, 0.15605175495147705, -0.052580349147319794, 0.876725435256958, 0.46277379989624023, -0.131121426820755, 0.013319671154022217, -0.02426677942276001, -0.04108928143978119, -0.33084780203805253, 0.5700693120311363, 0.7514306324620752,0.030210831219104284,0.8871612548828125,0.4357757568359375,-0.1700439453125
20220209-1356,2022-02-09 13:56:34Z,u01, 142,40,movements,el-ex, lt, d,15810.945428166668, 1.4205019833879742, -0.47910048326711246, 0.4929171614213332, 0.0677524134516716, 0.15863782167434692, -0.058455150574445724, 0.8774062395095825, 0.4609811305999756, -0.13287115097045898, 0.01121985912322998, -0.019696950912475586, -0.027880191802978516, -0.3289911092018668, 0.5703764324598142, 0.7520341683317372,0.029668116014256757,0.8886260986328125,0.4412841796875,-0.1607513427734375
20220209-1356,2022-02-09 13:56:34Z,u01, 143,40,movements,el-ex, lt, d,15810.970375166668, 1.418287359440512, -0.47707147971143926, 0.4882439751315257, 0.08613894879817963, 0.14151568710803986, -0.060167692601680756, 0.8780325055122375, 0.4591796100139618, -0.1349557638168335, 0.014698266983032227, -0.013607680797576904, -0.0350576788187027, -0.32693831550111646, 0.5706430171163662, 0.7527551905618967,0.028940520182674706,0.8907470703125,0.4489898681640625,-0.1695098876953125
20220209-1356,2022-02-09 13:56:34Z,u01, 144,40,movements,el-ex, lt, d,15810.995321166667, 1.4156976536232346, -0.4742022366004376, 0.4837758803638506, 0.07105404138565063, 0.10802438110113144, -0.05385487154126167, 0.8789781332015991, 0.45662885904312134, -0.13743212819099426, 0.010182082653045654, -0.0052280426025390625, -0.02170182764530182, -0.3246512694293996, 0.5708638127201282, 0.753589341433937,0.028622077090513093,0.88916015625,0.4514007568359375,-0.1591339111328125
20220209-1356,2022-02-09 13:56:34Z,u01, 145,40,movements,el-ex, lt, d,15811.020268166667, 1.415534456510045, -0.4725285940753444, 0.480834066900237, 0.06531855463981628, 0.11049558967351913, -0.058525457978248596, 0.8797094225883484, 0.45513924956321716, -0.13769353926181793, 0.004293203353881836, -0.010223537683486938, -0.017747744917869568, -0.3232390535223158, 0.5715503003538809, 0.7536960362371935,0.0280891614740372,0.8831787109375,0.44317626953125,-0.15472412109375
20220209-1356,2022-02-09 13:56:34Z,u01, 146,40,movements,el-ex, lt, d,15811.045214166668, 1.4142688464150666, -0.4711271084490352, 0.477422098456444, 0.08199892938137054, 0.08834940940141678, -0.046925127506256104, 0.8801636099815369, 0.4538908898830414, -0.1389060914516449, 0.014748990535736084, 0.0006073415279388428, -0.017237111926078796, -0.3217683901875791, 0.5718496818469689, 0.7541210247181008,0.027466767585975105,0.8949127197265625,0.454498291015625,-0.1561431884765625
20220209-1356,2022-02-09 13:56:34Z,u01, 147,40,movements,el-ex, lt, d,15811.070160166668, 1.4134975661929376, -0.4708001803479644, 0.47423053659717995, 0.07010608166456223, 0.07939939200878143, -0.02572416514158249, 0.8802027702331543, 0.4535995423793793, -0.13960814476013184, 0.011124074459075928, -0.01104891300201416, -0.01716063916683197, -0.3207335937258318, 0.5721240156778965, 0.7543885429751889,0.02649420435101507,0.890380859375,0.440948486328125,-0.1553802490234375
20220209-1356,2022-02-09 13:56:34Z,u01, 148,40,movements,el-ex, lt, d,15811.095107166668, 1.4127289589574343, -0.4698932348667794, 0.4717345701199016, 0.0401865690946579, 0.04862263798713684, -0.013549726456403732, 0.8805012702941895, 0.45279109477996826, -0.1403493583202362, 0.018226265907287598, -0.014177143573760986, -0.028626516461372375, -0.31969931663924167, 0.5723789560877492, 0.7546523563051947,0.025972819680642023,0.8987274169921875,0.4386138916015625,-0.168975830078125
20220209-1356,2022-02-09 13:56:34Z,u01, 149,40,movements,el-ex, lt, d,15811.120053166667, 1.412177034331225, -0.46920505140484237, 0.4712832424389217, -0.032835643738508224, -0.01513410173356533, 0.013947280123829842, 0.8807310461997986, 0.45217740535736084, -0.14088447391986847, 0.02040719985961914, -0.020033270120620728, -0.023834213614463806, -0.31932755017707715, 0.5723527562184878, 0.7548246076996903,0.02611605680160506,0.89849853515625,0.4310150146484375,-0.163543701171875
20220209-1356,2022-02-09 13:56:34Z,u01, 150,40,movements,el-ex, lt, d,15811.144999166667, 1.4109342316535423, -0.4678510787492186, 0.47270957492721283, -0.09347309172153473, -0.049312714487314224, 0.036078281700611115, 0.8811587691307068, 0.4509693384170532, -0.1420762538909912, 0.011464953422546387, -0.019313514232635498, -0.032789453864097595, -0.31925552942225205, 0.5718721735218205, 0.7551774021377506,0.027296127500352624,0.8926239013671875,0.4316558837890625,-0.17486572265625
20220209-1356,2022-02-09 13:56:34Z,u01, 151,40,movements,el-ex, lt, d,15811.169946166669, 1.4100894138596456, -0.4660017733158024, 0.4753727377252857, -0.08598588407039642, -0.062244758009910583, 0.05868665128946304, 0.8818602561950684, 0.449317991733551, -0.14295384287834167, 0.01245737075805664, -0.009834378957748413, -0.03194242715835571, -0.3193715490931989, 0.5714235694620682, 0.7554028355158375,0.02904182328821281,0.8927154541015625,0.4396820068359375,-0.1784210205078125
20220209-1356,2022-02-09 13:56:34Z,u01, 152,40,movements,el-ex, lt, d,15811.194892166668, 1.407821442959909, -0.462431449174698, 0.4767772363157051, -0.04517696425318718, -0.07147747278213501, 0.06576687097549438, 0.8831110000610352, 0.44612550735473633, -0.14521284401416779, 0.009222865104675293, -0.0074353814125061035, -0.036824509501457214, -0.31851487498704634, 0.5709131715522049, 0.7560681062151696,0.031101382669513095,0.892333984375,0.438690185546875,-0.182037353515625
20220209-1356,2022-02-09 13:56:34Z,u01, 153,40,movements,el-ex, lt, d,15811.219838166668, 1.4049193972649148, -0.4597347760125633, 0.4773801057113197, -0.019466109573841095, -0.1222524344921112, 0.055517226457595825, 0.8838692307472229, 0.44371044635772705, -0.1479731798171997, 0.01575833559036255, -0.011047512292861938, -0.0396946519613266, -0.3177147173501284, 0.5701497756773191, 0.7569141997775581,0.03267134964626067,0.89739990234375,0.43255615234375,-0.1916351318359375
20220209-1356,2022-02-09 13:56:34Z,u01, 154,40,movements,el-ex, lt, d,15811.244785166667, 1.400508514793202, -0.4573079511051895, 0.4781548808331971, -0.06423328071832657, -0.16158299148082733, 0.06859234720468521, 0.8842665553092957, 0.44153428077697754, -0.1520524024963379, 0.015940845012664795, -0.0006163716316223145, -0.043992504477500916, -0.31702628802314475, 0.5687425891348105, 0.7581813078393929,0.03445541799067936,0.90020751953125,0.44091796875,-0.196044921875
20220209-1356,2022-02-09 13:56:34Z,u01, 155,40,movements,el-ex, lt, d,15811.269731166667, 1.396025411483459, -0.45525515769973984, 0.4801422245939639, -0.08512131869792938, -0.19172370433807373, 0.09780948609113693, 0.8844667077064514, 0.4396914839744568, -0.15617239475250244, 0.012124359607696533, -0.0026493072509765625, -0.037354812026023865, -0.316803026011487, 0.5670534773763098, 0.7594389149182438,0.03658702095484859,0.8973846435546875,0.43621826171875,-0.193572998046875
20220209-1356,2022-02-09 13:56:34Z,u01, 156,40,movements,el-ex, lt, d,15811.294678166667, 1.3907593583622966, -0.4521218853965335, 0.48189134904379, -0.03625970333814621, -0.2038457691669464, 0.12091200798749924, 0.8849831223487854, 0.43687519431114197, -0.16107375919818878, 0.016322970390319824, 0.005080312490463257, -0.03661911189556122, -0.316115303460323, 0.5652735923160069, 0.7609256857314769,0.03910080859218801,0.90130615234375,0.44195556640625,-0.19769287109375
20220209-1356,2022-02-09 13:56:34Z,u01, 157,40,movements,el-ex, lt, d,15811.319624166668, 1.3846333632783263, -0.44874780178650403, 0.4822688350690088, 0.01647188514471054, -0.24383404850959778, 0.1326122134923935, 0.8854234218597412, 0.4338376522064209, -0.1667640060186386, 0.025190532207489014, 0.0051271915435791016, -0.038573503494262695, -0.3149285000390276, 0.5634163968652022, 0.7626769841526914,0.041301409034214864,0.910614013671875,0.44000244140625,-0.2060394287109375
20220209-1356,2022-02-09 13:56:34Z,u01, 158,40,movements,el-ex, lt, d,15811.344570166668, 1.377225920166019, -0.4453938122036973, 0.48227943421643316, -0.013979664072394371, -0.290117472410202, 0.13418874144554138, 0.8855867385864258, 0.4308133125305176, -0.17359702289104462, 0.014895379543304443, 0.003406018018722534, -0.03196941316127777, -0.31360666111142826, 0.5611170585359552, 0.7647887997994861,0.043549217734600826,0.900482177734375,0.4342193603515625,-0.20556640625
20220209-1356,2022-02-09 13:56:34Z,u01, 159,40,movements,el-ex, lt, d,15811.369517166668, 1.3699609230570957, -0.44240273302298294, 0.48406198299419295, -0.05591263622045517, -0.32497644424438477, 0.1457047164440155, 0.8855609893798828, 0.42811211943626404, -0.18028242886066437, 0.014234542846679688, 0.005725741386413574, -0.027496516704559326, -0.31289696042651255, 0.5585286715454787, 0.7668082322444945,0.04632870491932242,0.9023590087890625,0.4330596923828125,-0.2097320556640625
20220209-1356,2022-02-09 13:56:34Z,u01, 160,40,movements,el-ex, lt, d,15811.394463166667, 1.363329457778416, -0.4404424826308942, 0.48676100477378703, -0.05840841680765152, -0.34546706080436707, 0.1573573797941208, 0.8851654529571533, 0.4263397455215454, -0.18632347881793976, 0.023129165172576904, 0.006094306707382202, -0.021898016333580017, -0.31280349485011927, 0.555870696794905, 0.7686077850056187,0.0490281667122949,0.908294677734375,0.43243408203125,-0.208221435546875
20220209-1356,2022-02-09 13:56:34Z,u01, 161,40,movements,el-ex, lt, d,15811.419409166667, 1.3572920346307902, -0.4391341395889395, 0.4897324050431881, -0.0333685427904129, -0.358975887298584, 0.1590440273284912, 0.8845686316490173, 0.425155907869339, -0.1917821764945984, 0.016218483448028564, 0.00546225905418396, -0.0183161199092865, -0.3130157348216119, 0.5532902167811381, 0.7702177010091855,0.0515322707035443,0.8981781005859375,0.4315948486328125,-0.2123565673828125
20220209-1356,2022-02-09 13:56:34Z,u01, 162,40,movements,el-ex, lt, d,15811.444356166669, 1.3513720874882758, -0.438236340579333, 0.49220346985026153, -0.012927516363561153, -0.3685660660266876, 0.15050899982452393, 0.8837900757789612, 0.42434313893318176, -0.19709840416908264, 0.017256498336791992, 0.01102060079574585, -0.02625975012779236, -0.31322567491602893, 0.5507635395817194, 0.7717938547009731,0.05369652142953521,0.9010467529296875,0.43536376953125,-0.223358154296875
20220209-1356,2022-02-09 13:56:35Z,u01, 163,40,movements,el-ex, lt, d,15811.469302166668, 1.343521772148318, -0.43625025923300337, 0.4940757406523466, -0.02689995802938938, -0.4217042028903961, 0.14611577987670898, 0.8830350041389465, 0.42254388332366943, -0.204219788312912, 0.02268087863922119, 0.004824280738830566, -0.0341530442237854, -0.31282213101882006, 0.5477521494516331, 0.7739139539454142,0.05627630152355809,0.903289794921875,0.427215576171875,-0.2392730712890625
20220209-1356,2022-02-09 13:56:35Z,u01, 164,40,movements,el-ex, lt, d,15811.494249166668, 1.3355607351729764, -0.43485294794120255, 0.49696960662059, -0.0589466392993927, -0.44688475131988525, 0.15383747220039368, 0.881954550743103, 0.4212770462036133, -0.21138052642345428, 0.013873636722564697, 0.0014371871948242188, -0.026076793670654297, -0.3128872239124917, 0.5444366983573131, 0.7760151273044217,0.059082532719482495,0.8958282470703125,0.4227142333984375,-0.237457275390625
20220209-1356,2022-02-09 13:56:35Z,u01, 165,40,movements,el-ex, lt, d,15811.519195166667, 1.3266331752929956, -0.43268837145832356, 0.5001887419463471, -0.05143159627914429, -0.4512747526168823, 0.15782049298286438, 0.8809150457382202, 0.4193129241466522, -0.21946562826633453, 0.01691192388534546, 0.009306401014328003, -0.02403409779071808, -0.3127192914559325, 0.5408084988717652, 0.7783559749339002,0.06240742099427546,0.900634765625,0.4324493408203125,-0.2454833984375
20220209-1356,2022-02-09 13:56:35Z,u01, 166,40,movements,el-ex, lt, d,15811.544141166667, 1.3171564687492467, -0.4301539414507339, 0.5023089946688662, -0.008052101358771324, -0.46028777956962585, 0.15520939230918884, 0.87982177734375, 0.41701072454452515, -0.22806979715824127, 0.02093505859375, 0.011532366275787354, -0.021365642547607422, -0.31208227484947193, 0.5371868932224637, 0.780861234177929,0.06550343697938082,0.9007568359375,0.4285430908203125,-0.2494354248046875
20220209-1356,2022-02-09 13:56:35Z,u01, 167,40,movements,el-ex, lt, d,15811.569088166667, 1.3065246775927495, -0.42698669785640453, 0.5039046334074738, -0.0037361825816333294, -0.482237845659256, 0.16474325954914093, 0.8786177039146423, 0.41412991285324097, -0.23775458335876465, 0.02039957046508789, 0.012185335159301758, -0.01728081703186035, -0.3110158642574736, 0.5332840167751358, 0.7836764087403828,0.06876417000673199,0.902252197265625,0.4259033203125,-0.2569732666015625
20220209-1356,2022-02-09 13:56:35Z,u01, 168,40,movements,el-ex, lt, d,15811.594034166668, 1.2953255825492258, -0.4235578342478625, 0.5052048402908934, 0.013195529580116272, -0.502959132194519, 0.17164963483810425, 0.8772613406181335, 0.41100648045539856, -0.24796396493911743, 0.02566218376159668, 0.014316946268081665, -0.029273003339767456, -0.30973022005084827, 0.5292307699912712, 0.7866309370383892,0.07206710779337155,0.902923583984375,0.425323486328125,-0.2772369384765625
20220209-1356,2022-02-09 13:56:35Z,u01, 169,40,movements,el-ex, lt, d,15811.618980166668, 1.2830212519341417, -0.4198305818064285, 0.5061531824384871, 0.023475565016269684, -0.5333375930786133, 0.16297271847724915, 0.8756067752838135, 0.40760576725006104, -0.2591720223426819, 0.024829506874084473, 0.02118140459060669, -0.032957524061203, -0.30817449732295693, 0.524826129824961, 0.7898662649924219,0.07547978320899415,0.895751953125,0.4297943115234375,-0.2948455810546875
20220209-1356,2022-02-09 13:56:35Z,u01, 170,40,movements,el-ex, lt, d,15811.643927166668, 1.2701877195667446, -0.41610661565809975, 0.5069407436155996, 0.030315861105918884, -0.5494319200515747, 0.1604919135570526, 0.873652458190918, 0.4042023718357086, -0.2708350718021393, 0.0015763044357299805, 0.016390830278396606, -0.03511890769004822, -0.30652647139158196, 0.5202153226221801, 0.7932171657912443,0.0788920941287671,0.8752288818359375,0.42059326171875,-0.3059539794921875
20220209-1356,2022-02-09 13:56:35Z,u01, 171,40,movements,el-ex, lt, d,15811.668873041668, 1.2564824048207235, -0.4117278189461113, 0.5066206446006005, 0.10921839624643326, -0.5547295212745667, 0.17768287658691406, 0.8715335726737976, 0.40019336342811584, -0.28332746028900146, 0.007555723190307617, 0.014754176139831543, -0.034513115882873535, -0.30428427968836497, 0.5155068884192804, 0.7968131428454525,0.08217356295650954,0.8800201416015625,0.414764404296875,-0.3184051513671875
20220209-1356,2022-02-09 13:56:35Z,u01, 172,40,movements,el-ex, lt, d,15811.693819041668, 1.241883056364682, -0.40684338041209694, 0.5051449838704115, 0.10943984240293503, -0.5915654897689819, 0.17967385053634644, 0.8691439628601074, 0.39571234583854675, -0.29664847254753113, 0.03324544429779053, 0.015115201473236084, -0.028623133897781372, -0.3014891904710199, 0.5106662585833731, 0.8006601041259517,0.08524979523141551,0.9023895263671875,0.41082763671875,-0.3252716064453125
20220209-1356,2022-02-09 13:56:35Z,u01, 173,40,movements,el-ex, lt, d,15811.718766041668, 1.2269284960993945, -0.4022630727956372, 0.5056571057586522, -0.04255734756588936, -0.6322252154350281, 0.18687757849693298, 0.8663080334663391, 0.391501784324646, -0.31022030115127563, 0.04923444986343384, 0.016960710287094116, -0.003500431776046753, -0.2992627287032106, 0.5053035428574197, 0.8044748376520872,0.08905231325213106,0.916900634765625,0.4082183837890625,-0.30804443359375
20220209-1356,2022-02-09 13:56:35Z,u01, 174,40,movements,el-ex, lt, d,15811.743712041667, 1.2128688642441385, -0.39945310823676433, 0.5107695689498468, -0.1840885877609253, -0.6636071801185608, 0.17555475234985352, 0.8628879189491272, 0.388914555311203, -0.32275334000587463, 0.05477553606033325, 0.02009725570678711, 0.032439619302749634, -0.29885116004708456, 0.4993108463930246, 0.8077955841515454,0.09403634235121869,0.91766357421875,0.4090118408203125,-0.290313720703125
20220209-1356,2022-02-09 13:56:35Z,u01, 175,40,movements,el-ex, lt, d,15811.768659041667, 1.1989008938046406, -0.39712151271605495, 0.5170020887457585, -0.15040412545204163, -0.6495377421379089, 0.17600509524345398, 0.8591381907463074, 0.3867654800415039, -0.3351028561592102, 0.042305171489715576, 0.02340596914291382, 0.04208829998970032, -0.2988451311199891, 0.4930924445965843, 0.8109788704764037,0.09932083174977535,0.8961334228515625,0.406707763671875,-0.2985076904296875
20220209-1356,2022-02-09 13:56:35Z,u01, 176,40,movements,el-ex, lt, d,15811.793605041668, 1.185447023771246, -0.39421159762205854, 0.5218426133334058, -0.09733946621417999, -0.5995633602142334, 0.19322209060192108, 0.8555915951728821, 0.3840803802013397, -0.34705254435539246, 0.03869551420211792, 0.015120059251785278, 0.02379506826400757, -0.2982475474049344, 0.48736242548908243, 0.8140535675505548,0.10413049718725575,0.894287109375,0.399200439453125,-0.3232574462890625
20220209-1356,2022-02-09 13:56:35Z,u01, 177,40,movements,el-ex, lt, d,15811.818551041668, 1.172275808308752, -0.39027128576655207, 0.5263148743577518, -0.06520220637321472, -0.606223464012146, 0.21990478038787842, 0.8523344397544861, 0.38043931126594543, -0.35887572169303894, 0.05954599380493164, 0.01319161057472229, 0.014576464891433716, -0.29713323679915304, 0.48194810581931724, 0.817036814817977,0.10903484180106077,0.9075469970703125,0.3963623046875,-0.349700927734375
20220209-1356,2022-02-09 13:56:35Z,u01, 178,40,movements,el-ex, lt, d,15811.843498041668, 1.1589085722129746, -0.38565758057420685, 0.5289329410427203, 0.05543086677789688, -0.5558958053588867, 0.1963437795639038, 0.8490607738494873, 0.37616848945617676, -0.37093546986579895, 0.03004390001296997, 0.019476652145385742, -0.007055312395095825, -0.29525670968199297, 0.4768183449522696, 0.8201289762128906,0.11338559753069902,0.8791046142578125,0.3956451416015625,-0.37799072265625
20220209-1356,2022-02-09 13:56:35Z,u01, 179,40,movements,el-ex, lt, d,15811.868444041667, 1.1448241187954917, -0.38065800826777685, 0.5275514172686803, 0.21025337278842926, -0.5383239388465881, 0.1379934549331665, 0.8454542756080627, 0.3715314567089081, -0.38362911343574524, 0.024586498737335205, 0.02646350860595703, -0.01694461703300476, -0.2922012062110754, 0.47202107326267273, 0.8235856026557177,0.11628077766942954,0.865447998046875,0.3942718505859375,-0.4075775146484375
20220209-1356,2022-02-09 13:56:35Z,u01, 180,40,movements,el-ex, lt, d,15811.893390041667, 1.1295900654896196, -0.3747620444229086, 0.5223129056024923, 0.34899836778640747, -0.5429365038871765, 0.13790802657604218, 0.8414784669876099, 0.3660511076450348, -0.3973923921585083, 0.015272021293640137, 0.009482979774475098, -0.0401076078414917, -0.2877996570425583, 0.46741327133589994, 0.8275162127273064,0.11795414461031717,0.85675048828125,0.3755340576171875,-0.4375
20220209-1356,2022-02-09 13:56:35Z,u01, 181,40,movements,el-ex, lt, d,15811.918337041667, 1.1131231369296777, -0.3673985908517711, 0.5149672189881743, 0.3714447021484375, -0.5790387392044067, 0.1614224910736084, 0.8372160196304321, 0.35918885469436646, -0.41237419843673706, 0.03296208381652832, 0.009493976831436157, -0.040796518325805664, -0.28224544440159294, 0.4627638739257803, 0.8318435952583775,0.1192609129862138,0.872161865234375,0.3655853271484375,-0.4548187255859375
20220209-1356,2022-02-09 13:56:35Z,u01, 182,40,movements,el-ex, lt, d,15811.943283041668, 1.0965889349929918, -0.3607634121644152, 0.5101206276602291, 0.18647147715091705, -0.6286588907241821, 0.1634594053030014, 0.8323856592178345, 0.352988600730896, -0.4272388219833374, 0.03149062395095825, -0.015571027994155884, -0.02802237868309021, -0.2775289002835463, 0.457556880076622, 0.8359999579250115,0.12133976908870633,0.8638763427734375,0.3374176025390625,-0.45526123046875
20220209-1356,2022-02-09 13:56:35Z,u01, 183,40,movements,el-ex, lt, d,15811.968229041668, 1.0802753433991288, -0.35601961764503837, 0.5097352638807711, 0.042440999299287796, -0.6757162809371948, 0.17542272806167603, 0.8267732262611389, 0.34854623675346375, -0.44154447317123413, 0.03688943386077881, 0.0014141201972961426, -0.02436739206314087, -0.2745608805552974, 0.45149095881752677, 0.8397764440152367,0.12469053076693193,0.864715576171875,0.3486175537109375,-0.4718170166015625
20220209-1356,2022-02-09 13:56:35Z,u01, 184,40,movements,el-ex, lt, d,15811.993176041668, 1.0634708824607277, -0.3522128335014347, 0.5113314562255702, 0.022672291845083237, -0.7197775840759277, 0.15858235955238342, 0.8203907012939453, 0.34497565031051636, -0.45601627230644226, 0.03646653890609741, 0.013346493244171143, -0.03960445523262024, -0.2723386776447786, 0.44477354769959854, 0.8434779547795883,0.12865839324284314,0.8568572998046875,0.3583221435546875,-0.4956207275390625
20220209-1356,2022-02-09 13:56:35Z,u01, 185,40,movements,el-ex, lt, d,15812.018122041667, 1.0454004012182876, -0.34836741926829307, 0.5120317527590988, 0.08830173313617706, -0.7482141256332397, 0.1443900465965271, 0.8131585121154785, 0.3413637578487396, -0.4714277982711792, 0.035855770111083984, 0.02844822406768799, -0.0420762300491333, -0.26977345659231977, 0.4376167080262452, 0.847457783173364,0.1323983744911982,0.8445892333984375,0.3690185546875,-0.51885986328125
20220209-1356,2022-02-09 13:56:35Z,u01, 186,40,movements,el-ex, lt, d,15812.043069041667, 1.0263062875242228, -0.34428218247778825, 0.5116341029825842, 0.09699129313230515, -0.7830718159675598, 0.1304517239332199, 0.8051954507827759, 0.3375210762023926, -0.48758572340011597, 0.04210984706878662, 0.020236492156982422, -0.03968173265457153, -0.266759627322558, 0.4301702449407867, 0.8516705007566872,0.13583173454590228,0.8473052978515625,0.357757568359375,-0.5272674560546875
20220209-1356,2022-02-09 13:56:35Z,u01, 187,40,movements,el-ex, lt, d,15812.068015041668, 1.006388306663214, -0.34088480702264357, 0.5118442649356278, 0.03560173511505127, -0.817209005355835, 0.12002817541360855, 0.7962889075279236, 0.33432111144065857, -0.5041362643241882, 0.051626741886138916, 0.021513819694519043, -0.025740444660186768, -0.2640547427307794, 0.4221456566633584, 0.8559387445868076,0.13941663344449934,0.843902587890625,0.35711669921875,-0.52886962890625
20220209-1356,2022-02-09 13:56:35Z,u01, 188,40,movements,el-ex, lt, d,15812.092961041668, 0.9862832442572005, -0.3381592895871619, 0.5127640275917962, 0.0544031523168087, -0.8256101012229919, 0.10151554644107819, 0.7867499589920044, 0.3317511975765228, -0.52054363489151, 0.05030137300491333, 0.01828545331954956, -0.031214237213134766, -0.26171324801633705, 0.41380474197974626, 0.8601085981504772,0.1431260059302294,0.8370513916015625,0.35003662109375,-0.5517578125
20220209-1356,2022-02-09 13:56:35Z,u01, 189,40,movements,el-ex, lt, d,15812.117908041668, 0.9651154320849616, -0.3344457133679144, 0.5115032475932597, 0.20405691862106323, -0.8444530963897705, 0.10376504808664322, 0.7765631675720215, 0.3282456398010254, -0.5377771854400635, 0.056307196617126465, 0.02798601984977722, -0.04123276472091675, -0.25839632434313525, 0.40539209917209257, 0.8645830939489888,0.14623440119702513,0.829437255859375,0.3553619384765625,-0.5853271484375
20220209-1356,2022-02-09 13:56:35Z,u01, 190,40,movements,el-ex, lt, d,15812.142854041667, 0.9426246141184589, -0.3285914037653382, 0.5072807311972346, 0.30672165751457214, -0.8458640575408936, 0.09955672919750214, 0.7658145427703857, 0.3227101266384125, -0.556225061416626, 0.04648709297180176, 0.014905840158462524, -0.03836417198181152, -0.2534647078236874, 0.3970429674016775, 0.869487770349919,0.1486725888004767,0.8123016357421875,0.337615966796875,-0.5945892333984375
20220209-1356,2022-02-09 13:56:35Z,u01, 191,40,movements,el-ex, lt, d,15812.167800041667, 0.9199640648373884, -0.32265041169915804, 0.5031726080645791, 0.2071651667356491, -0.8831220269203186, 0.09888680279254913, 0.7545266151428223, 0.3170813322067261, -0.5745859742164612, 0.06375646591186523, 0.0022546052932739258, -0.025099754333496094, -0.24847753693284994, 0.3885433550888731, 0.87433380889792,0.15110708185159924,0.819976806640625,0.3131103515625,-0.6012420654296875
20220209-1356,2022-02-09 13:56:35Z,u01, 192,40,movements,el-ex, lt, d,15812.192747041667, 0.8970373871495777, -0.3183706304195966, 0.5019951600239937, 0.08430179953575134, -0.928261935710907, 0.12844756245613098, 0.7422098517417908, 0.3130194842815399, -0.5925735235214233, 0.06069231033325195, -0.00791996717453003, -0.00966036319732666, -0.24469906801385588, 0.37925665544015197, 0.8788913258872597,0.15439186967108542,0.8029022216796875,0.3050994873046875,-0.60223388671875
20220209-1356,2022-02-09 13:56:35Z,u01, 193,40,movements,el-ex, lt, d,15812.217693041668, 0.8741868850543949, -0.3152125246124972, 0.5036009770067482, -0.009925400838255882, -0.9344083070755005, 0.14694182574748993, 0.7292312383651733, 0.31001853942871094, -0.6100084185600281, 0.047380030155181885, -0.011861830949783325, 0.004600703716278076, -0.24187366675778715, 0.36944949236553176, 0.8830944918350417,0.1585819932460217,0.7726898193359375,0.299530029296875,-0.6040191650390625
20220209-1356,2022-02-09 13:56:35Z,u01, 194,40,movements,el-ex, lt, d,15812.242639041668, 0.8518828486274128, -0.31288381547346245, 0.5065766101911687, -0.015477992594242096, -0.9454711079597473, 0.1417882740497589, 0.7159867286682129, 0.3078037202358246, -0.6265939474105835, 0.06532430648803711, 0.007107198238372803, 0.009009718894958496, -0.23962983074201644, 0.35955608236612896, 0.8869602608063926,0.16309076896042943,0.78131103515625,0.314910888671875,-0.617584228515625
20220209-1356,2022-02-09 13:56:35Z,u01, 195,40,movements,el-ex, lt, d,15812.267586041668, 0.8289473865779069, -0.31078735423170006, 0.5090693282443578, -0.02418879233300686, -0.9580881595611572, 0.10118357837200165, 0.7019026279449463, 0.3058083653450012, -0.6432837247848511, 0.06006026268005371, 0.01465672254562378, 0.034046053886413574, -0.23727831567240704, 0.34936676726143767, 0.8908568569407692,0.16737949101710253,0.754241943359375,0.321044921875,-0.6068572998046875
20220209-1356,2022-02-09 13:56:35Z,u01, 196,40,movements,el-ex, lt, d,15812.292532041667, 0.8061211739609574, -0.3099412829216435, 0.5115117367913816, -0.033172234892845154, -0.9351658821105957, 0.09129353612661362, 0.6872237920761108, 0.30500271916389465, -0.6593154668807983, 0.04091036319732666, 0.018636196851730347, 0.044447243213653564, -0.23540113066111, 0.3390111891485922, 0.8945945167128337,0.17134302270947108,0.7281341552734375,0.323638916015625,-0.6148681640625
20220209-1356,2022-02-09 13:56:35Z,u01, 197,40,movements,el-ex, lt, d,15812.317479041667, 0.7834696546143274, -0.3087244142689433, 0.5130695308903929, 0.007900133728981018, -0.9163961410522461, 0.07104159146547318, 0.6723756790161133, 0.30384361743927, -0.6749740839004517, 0.04045385122299194, 0.018360942602157593, 0.06125032901763916, -0.2331732074680873, 0.32885137175825546, 0.8982663186241752,0.17494175447178892,0.7054595947265625,0.32269287109375,-0.614227294921875
20220209-1356,2022-02-09 13:56:35Z,u01, 198,40,movements,el-ex, lt, d,15812.342425041668, 0.7614077473444348, -0.30707530406071476, 0.5141353539669774, 0.03007115051150322, -0.8835477828979492, 0.06831810623407364, 0.6576668620109558, 0.3022720515727997, -0.6900042295455933, 0.037462472915649414, 0.016026288270950317, 0.05647462606430054, -0.2306795635844533, 0.31903733275103413, 0.9017809115702594,0.17830641276434864,0.69512939453125,0.31829833984375,-0.6335296630859375
20220209-1356,2022-02-09 13:56:35Z,u01, 199,40,movements,el-ex, lt, d,15812.367371041668, 0.7396123314627912, -0.30524333545576915, 0.5143554902164111, 0.06230232119560242, -0.8690053224563599, 0.031480997800827026, 0.642845094203949, 0.3005252778530121, -0.7045812606811523, 0.04361724853515625, 0.033153921365737915, 0.060019493103027344, -0.2279533073467439, 0.3094295658079372, 0.9052269707806958,0.18125884704257272,0.6795196533203125,0.3362274169921875,-0.6403961181640625
20220209-1356,2022-02-09 13:56:35Z,u01, 200,40,movements,el-ex, lt, d,15812.392318041668, 0.7181012133958775, -0.30412046656045827, 0.5131163772520574, 0.08299514651298523, -0.8299326300621033, -0.03655783832073212, 0.6277627944946289, 0.29945412278175354, -0.7184991836547852, 0.02444356679916382, 0.04531818628311157, 0.06975650787353516, -0.2253099751509926, 0.299976386787087, 0.9086439212503643,0.18334603089596893,0.6522064208984375,0.3447723388671875,-0.64874267578125
20220209-1356,2022-02-09 13:56:35Z,u01, 201,40,movements,el-ex, lt, d,15812.417264041667, 0.6969664771561653, -0.3020714760480372, 0.5100193073224122, 0.20952148735523224, -0.8037335872650146, -0.027761749923229218, 0.6128310561180115, 0.29749852418899536, -0.7320742607116699, 0.041572630405426025, 0.04649558663368225, 0.06584501266479492, -0.22200227269354772, 0.2909945946701764, 0.9121030322331042,0.18467587762906795,0.654541015625,0.3418426513671875,-0.672576904296875
20220209-1356,2022-02-09 13:56:35Z,u01, 202,40,movements,el-ex, lt, d,15812.442210041667, 0.6758367905828531, -0.29725550853852095, 0.5054220798316386, 0.3041568398475647, -0.7871236801147461, -0.001721295528113842, 0.5981162190437317, 0.29289719462394714, -0.7459679841995239, 0.03686302900314331, 0.025126487016677856, 0.059978604316711426, -0.2172463568921012, 0.2825243815877929, 0.9156848323798418,0.1857560098869692,0.634979248046875,0.318023681640625,-0.6859893798828125
20220209-1356,2022-02-09 13:56:36Z,u01, 203,40,movements,el-ex, lt, d,15812.467157041667, 0.6553027534314483, -0.2913345944880602, 0.5005439205783254, 0.3024556040763855, -0.7595756649971008, -0.002870183903723955, 0.5837200880050659, 0.28723084926605225, -0.759453296661377, 0.021672368049621582, 0.013428330421447754, 0.04883623123168945, -0.2120093204302711, 0.27445472990760256, 0.9191576835050114,0.1867505702524121,0.5986785888671875,0.29632568359375,-0.717864990234375
20220209-1356,2022-02-09 13:56:36Z,u01, 204,40,movements,el-ex, lt, d,15812.492103041668, 0.6356494406423614, -0.2851492631189242, 0.4958635732615551, 0.3232433795928955, -0.727362871170044, 0.016251511871814728, 0.5697264075279236, 0.28130069375038147, -0.7721927762031555, 0.01877450942993164, 0.014994442462921143, 0.027045071125030518, -0.20675796677516328, 0.26674849465421446, 0.922423827719813,0.18769789146195837,0.5885009765625,0.296295166015625,-0.745147705078125
20220209-1356,2022-02-09 13:56:36Z,u01, 205,40,movements,el-ex, lt, d,15812.517050041668, 0.616331256279416, -0.2784747518064099, 0.4906784533841876, 0.3498469591140747, -0.7096544504165649, -0.019532252103090286, 0.5557766556739807, 0.2748894691467285, -0.784568727016449, 0.018533647060394287, 0.023496121168136597, 0.014213502407073975, -0.20124650428860968, 0.2592594742865056, 0.9256358702717057,0.18836821091023764,0.5697174072265625,0.30230712890625,-0.778411865234375
20220209-1356,2022-02-09 13:56:36Z,u01, 206,40,movements,el-ex, lt, d,15812.541996041668, 0.5972390478210057, -0.2714168077399857, 0.484720912917462, 0.36072245240211487, -0.7008399963378906, -0.040067486464977264, 0.5417746901512146, 0.2680966556072235, -0.7966205477714539, 0.0146980881690979, 0.03407317399978638, -0.008219480514526367, -0.19548320875811487, 0.2519444919573603, 0.9288330895030557,0.1886246810724783,0.5564727783203125,0.3021697998046875,-0.804840087890625
20220209-1356,2022-02-09 13:56:36Z,u01, 207,40,movements,el-ex, lt, d,15812.566942041667, 0.5778741828061869, -0.26447148658507574, 0.47902914929996543, 0.33582884073257446, -0.7459036111831665, -0.02067800983786583, 0.5272520184516907, 0.26139917969703674, -0.8085021376609802, 0.04351818561553955, 0.015456318855285645, 0.0019072890281677246, -0.1897822162464164, 0.24440056316471853, 0.9319666311289168,0.18891572300438317,0.5687103271484375,0.276947021484375,-0.8019561767578125
20220209-1356,2022-02-09 13:56:36Z,u01, 208,40,movements,el-ex, lt, d,15812.591889041667, 0.5580382582620247, -0.2585504439927175, 0.4746850359059307, 0.2278129607439041, -0.755408525466919, 2.5538727641105652e-05, 0.5119225978851318, 0.2556794583797455, -0.8200995326042175, 0.026026010513305664, 0.010815322399139404, 0.03265446424484253, -0.18467041351078428, 0.2363198255536379, 0.9349275800779975,0.18963174064461322,0.5379486083984375,0.2664947509765625,-0.787445068359375
20220209-1356,2022-02-09 13:56:36Z,u01, 209,40,movements,el-ex, lt, d,15812.616835041668, 0.5391780976677124, -0.2560323521902944, 0.47335169890565326, 0.006755374372005463, -0.7405188679695129, 0.017480362206697464, 0.4966942369937897, 0.2532442510128021, -0.8301579356193542, 0.02305060625076294, 0.008230328559875488, 0.07298630475997925, -0.18156239203195776, 0.22793889508752332, 0.9373151851713086,0.19109974806492205,0.5225982666015625,0.2627105712890625,-0.757720947265625
20220209-1356,2022-02-09 13:56:36Z,u01, 210,40,movements,el-ex, lt, d,15812.641781041668, 0.5208966325504718, -0.2567261405046611, 0.47471486092014475, -0.08791707456111908, -0.7588560581207275, 0.03904451057314873, 0.48134803771972656, 0.25391536951065063, -0.8389464020729065, 0.04662132263183594, 0.031912267208099365, 0.080050528049469, -0.1802779338898572, 0.2191498636618979, 0.939207183437218,0.193295366032235,0.5279693603515625,0.28582763671875,-0.7588958740234375
20220209-1356,2022-02-09 13:56:36Z,u01, 211,40,movements,el-ex, lt, d,15812.666727125, 0.5026514148055444, -0.2586514972898267, 0.4770777872845786, -0.14335235953330994, -0.7533294558525085, 0.03279939666390419, 0.4657256007194519, 0.25577715039253235, -0.8471586108207703, 0.03288581967353821, 0.033834636211395264, 0.09236735105514526, -0.17964703518513292, 0.21011342458905222, 0.9408759129730317,0.19578472343943207,0.48773193359375,0.2929229736328125,-0.7515411376953125
20220209-1356,2022-02-09 13:56:36Z,u01, 212,40,movements,el-ex, lt, d,15812.691673125, 0.48539439202894236, -0.2622827792664958, 0.47960608338239924, -0.1966513842344284, -0.6993116736412048, 0.012275280430912971, 0.4506012499332428, 0.25928592681884766, -0.8542419075965881, 0.016042977571487427, 0.041678398847579956, 0.11492311954498291, -0.1798902846998276, 0.20129213226228612, 0.9422840304026393,0.1980443769717118,0.466644287109375,0.30096435546875,-0.73931884765625
20220209-1356,2022-02-09 13:56:36Z,u01, 213,40,movements,el-ex, lt, d,15812.716619125002, 0.4694138781996905, -0.2673361409526857, 0.4823008901910447, -0.2578514814376831, -0.6210799813270569, -0.009037732146680355, 0.4362947940826416, 0.26416313648223877, -0.86015385389328, 0.008025884628295898, 0.04487308859825134, 0.1563270092010498, -0.18090989712536396, 0.1928591936460501, 0.9434168681825278,0.20010390004702622,0.435028076171875,0.307159423828125,-0.698486328125
20220209-1356,2022-02-09 13:56:36Z,u01, 214,40,movements,el-ex, lt, d,15812.741566125002, 0.45599301151638466, -0.2745099440090065, 0.48465299111320137, -0.2864789664745331, -0.5349482893943787, -0.07148746401071548, 0.4238663911819458, 0.2710752487182617, -0.8642079830169678, 0.03621658682823181, 0.046200722455978394, 0.13651633262634277, -0.183116942241017, 0.18537581142266496, 0.9441869966092667,0.2015311726429242,0.4600830078125,0.3172760009765625,-0.727691650390625
20220209-1356,2022-02-09 13:56:36Z,u01, 215,40,movements,el-ex, lt, d,15812.766512125001, 0.44208935799524907, -0.2809072796387766, 0.485787898326379, -0.22840529680252075, -0.6022844910621643, -0.07296744734048843, 0.41105982661247253, 0.2772274911403656, -0.868432343006134, 0.09032866358757019, 0.04140651226043701, 0.11220675706863403, -0.18478969051643424, 0.17786682599519288, 0.9450853878700736,0.20255770443870846,0.487213134765625,0.313140869140625,-0.757415771484375
20220209-1356,2022-02-09 13:56:36Z,u01, 216,40,movements,el-ex, lt, d,15812.791459125001, 0.4280866940640809, -0.2876350706505039, 0.48620170255524936, -0.25161927938461304, -0.5086544156074524, -0.13086722791194916, 0.39807626605033875, 0.28368523716926575, -0.8723863363265991, -0.022694826126098633, 0.012747228145599365, 0.12455308437347412, -0.18653634856115947, 0.17032619611320166, 0.9459836996360522,0.2032436681328131,0.3753814697265625,0.2964324951171875,-0.747833251953125
20220209-1356,2022-02-09 13:56:36Z,u01, 217,40,movements,el-ex, lt, d,15812.816405125, 0.4169936572122193, -0.29367073499190643, 0.48509991500182803, -0.12907150387763977, -0.3782305419445038, -0.12714353203773499, 0.3876740336418152, 0.2894677519798279, -0.8751670122146606, -0.035028159618377686, 0.002204000949859619, 0.13832008838653564, -0.18812933726255796, 0.16438934254001467, 0.9467596430655993,0.20305081014434667,0.353118896484375,0.2890777587890625,-0.742828369140625
20220209-1356,2022-02-09 13:56:36Z,u01, 218,40,movements,el-ex, lt, d,15812.841351125, 0.40819085837645575, -0.29668987027851396, 0.48333622271511334, -0.0317351259291172, -0.31018152832984924, -0.08190528303384781, 0.37960654497146606, 0.29235631227493286, -0.8777394890785217, -0.023756325244903564, -0.010953724384307861, 0.15393882989883423, -0.1885013665049557, 0.159992133418781, 0.9475147417535152,0.20269540787003454,0.3558502197265625,0.281402587890625,-0.7238006591796875
20220209-1356,2022-02-09 13:56:36Z,u01, 219,40,movements,el-ex, lt, d,15812.866298125002, 0.4016352838794793, -0.29898460407174665, 0.48296029297182574, -0.15371154248714447, -0.24708785116672516, -0.026323843747377396, 0.37358108162879944, 0.29455000162124634, -0.8795893788337708, -0.0005189776420593262, -0.03432661294937134, 0.16849929094314575, -0.18887794675010466, 0.15662196638192194, 0.9479644577557746,0.20287432380037887,0.383087158203125,0.2556610107421875,-0.7111968994140625
20220209-1356,2022-02-09 13:56:36Z,u01, 220,40,movements,el-ex, lt, d,15812.891244125001, 0.39699098232106256, -0.305495336012713, 0.4851255066270811, -0.2833748757839203, -0.21983285248279572, -0.023239171132445335, 0.3687427043914795, 0.30076560378074646, -0.8795276284217834, 0.013398408889770508, -0.02258262038230896, 0.17017704248428345, -0.19161287646632333, 0.1533645329801236, 0.9477910578474399,0.20360746861197465,0.38214111328125,0.2781829833984375,-0.7093505859375
20220209-1356,2022-02-09 13:56:36Z,u01, 221,40,movements,el-ex, lt, d,15812.916190125, 0.3944906006455201, -0.3120825870485247, 0.4869601285448761, -0.18316958844661713, -0.0982036218047142, -0.040261030197143555, 0.3657729923725128, 0.3070412874221802, -0.8785987496376038, -0.019703656435012817, -0.0026131868362426758, 0.18639904260635376, -0.1945709807217706, 0.15113819134916545, 0.9474663764770549,0.2039776729182428,0.346832275390625,0.30389404296875,-0.689208984375
20220209-1356,2022-02-09 13:56:36Z,u01, 222,40,movements,el-ex, lt, d,15812.941137125, 0.394376667210782, -0.31652572703300264, 0.48811707207581423, -0.16445712745189667, 0.010637174360454082, -0.021464906632900238, 0.36514508724212646, 0.31126677989959717, -0.8773722648620605, 0.021985650062561035, -0.011874079704284668, 0.20653486251831055, -0.19671817643445166, 0.15038561068443834, 0.9471298426239895,0.20403729085176778,0.3871307373046875,0.2993927001953125,-0.67083740234375
20220209-1356,2022-02-09 13:56:36Z,u01, 223,40,movements,el-ex, lt, d,15812.966083125, 0.39623586489268336, -0.3208913744240551, 0.4897909578077992, -0.19315151870250702, 0.07516682893037796, -0.01616181991994381, 0.3662477135658264, 0.3154125511646271, -0.8754299283027649, 0.045358091592788696, -0.02314576506614685, 0.2043483853340149, -0.19906774735130325, 0.15052269629711146, 0.9465919958431976,0.20415297609423497,0.409027099609375,0.292724609375,-0.680023193359375
20220209-1356,2022-02-09 13:56:36Z,u01, 224,40,movements,el-ex, lt, d,15812.991030125, 0.39952657569255423, -0.32520844750340366, 0.4908246478550939, -0.12846390902996063, 0.1570696085691452, -0.03721018135547638, 0.36859339475631714, 0.31950631737709045, -0.8729574084281921, -0.021654337644577026, -0.016985595226287842, 0.15638941526412964, -0.2014907295122881, 0.15140275892443184, 0.9460102411539921,0.2038214934930037,0.3469390869140625,0.302520751953125,-0.7165679931640625
20220209-1356,2022-02-09 13:56:36Z,u01, 225,40,movements,el-ex, lt, d,15813.015976125002, 0.40482601900577403, -0.3282235448655212, 0.4908710102150298, -0.13703377544879913, 0.2549906373023987, -0.04915572330355644, 0.3728332817554474, 0.32236191630363464, -0.8701024055480957, -0.026992857456207275, -0.02727222442626953, 0.1572728157043457, -0.20343510427376998, 0.15350234282395403, 0.9454408114242472,0.20296036781337262,0.3564605712890625,0.29522705078125,-0.708587646484375
20220209-1356,2022-02-09 13:56:36Z,u01, 226,40,movements,el-ex, lt, d,15813.040922125001, 0.4120920717515115, -0.33228722774547614, 0.4921591857894217, -0.1743454486131668, 0.2836441993713379, 0.0027429619804024696, 0.3786177933216095, 0.3262059986591339, -0.8661629557609558, 0.046217381954193115, -0.02893427014350891, 0.13148272037506104, -0.20615822120403873, 0.15626042010773752, 0.9445292657997496,0.2023511564132461,0.424835205078125,0.297271728515625,-0.73468017578125
20220209-1356,2022-02-09 13:56:36Z,u01, 227,40,movements,el-ex, lt, d,15813.065869125001, 0.42058600980874683, -0.3344751306177359, 0.4933646062418837, -0.0043527367524802685, 0.3858602046966553, -0.005625889636576176, 0.3856688439846039, 0.3282734453678131, -0.8622621893882751, 0.0037964582443237305, -0.00753369927406311, 0.11856406927108765, -0.2081261290839218, 0.15985121933957785, 0.9436183724982112,0.20178090011663005,0.37701416015625,0.323577880859375,-0.745697021484375
20220209-1356,2022-02-09 13:56:36Z,u01, 228,40,movements,el-ex, lt, d,15813.090815125, 0.43093727187874975, -0.3337730479905443, 0.49195653284938556, 0.0572366937994957, 0.4436477720737457, -0.04654090106487274, 0.39466971158981323, 0.32761016488075256, -0.8584330677986145, -0.00427362322807312, -0.02096959948539734, 0.10480153560638428, -0.20872673646260256, 0.16497454717788926, 0.9429566859613151,0.20012289147332255,0.3903961181640625,0.306640625,-0.753631591796875
20220209-1356,2022-02-09 13:56:36Z,u01, 229,40,movements,el-ex, lt, d,15813.115761125, 0.4411612189268068, -0.3339257585616789, 0.491305368051089, -0.06352964043617249, 0.3958449363708496, 0.006284832954406738, 0.4034041464328766, 0.3277544677257538, -0.854308009147644, 0.027412503957748413, -0.037501782178878784, 0.08982741832733154, -0.20976229868500101, 0.16984045685938648, 0.9421578830798369,0.1987275356106756,0.4340362548828125,0.2875213623046875,-0.768218994140625
20220209-1356,2022-02-09 13:56:36Z,u01, 230,40,movements,el-ex, lt, d,15813.140708125002, 0.45219403184010754, -0.33764758916581733, 0.4940559114540314, -0.27864935994148254, 0.4379940330982208, 0.04636280983686447, 0.4122689664363861, 0.33126842975616455, -0.8487022519111633, 0.005333572626113892, -0.03601086139678955, 0.07621079683303833, -0.21281262499353948, 0.17424020980366245, 0.9407407093446216,0.19838869139268672,0.4176025390625,0.295257568359375,-0.772491455078125
20220209-1356,2022-02-09 13:56:36Z,u01, 231,40,movements,el-ex, lt, d,15813.165654125001, 0.4653395409567729, -0.34295101036709275, 0.4983887031432303, -0.20890244841575623, 0.48544183373451233, 0.04119854047894478, 0.4225953221321106, 0.33626770973205566, -0.8416277170181274, 0.013668686151504517, -0.012750864028930664, 0.07154715061187744, -0.21694125589977506, 0.17922788982524923, 0.9388713800268802,0.1983289483473351,0.438446044921875,0.3299407958984375,-0.7750396728515625
20220209-1356,2022-02-09 13:56:36Z,u01, 232,40,movements,el-ex, lt, d,15813.190600125, 0.47875435668105554, -0.3460381488175508, 0.5005724304450977, -0.11000289767980576, 0.5266236662864685, 0.002680176869034767, 0.43336695432662964, 0.33917346596717834, -0.8349577188491821, -0.004762858152389526, -0.0011913180351257324, 0.06089460849761963, -0.21988486323486084, 0.18485608670345194, 0.9372729182835486,0.19748006410989202,0.4286041259765625,0.337982177734375,-0.7740631103515625
20220209-1356,2022-02-09 13:56:36Z,u01, 233,40,movements,el-ex, lt, d,15813.215547125, 0.49319048564275275, -0.3500743847054553, 0.5034527437732833, -0.3214619755744934, 0.5496578812599182, 0.03651810064911842, 0.4447231888771057, 0.342967689037323, -0.8274022340774536, 0.019586503505706787, -0.017314612865447998, 0.09559071063995361, -0.22342578662915438, 0.19073488921853443, 0.9354237971451049,0.196681147994598,0.4757080078125,0.322479248046875,-0.7269287109375
20220209-1356,2022-02-09 13:56:36Z,u01, 234,40,movements,el-ex, lt, d,15813.240493125, 0.5092734915003877, -0.3572796722503263, 0.5097464516312501, -0.31060051918029785, 0.5841272473335266, 0.0839511975646019, 0.45675551891326904, 0.34972697496414185, -0.8179641962051392, 0.04953110218048096, -0.0038712918758392334, 0.06024324893951416, -0.2289039020262253, 0.19652203739982482, 0.9328735536953727,0.19679677462771206,0.50628662109375,0.345855712890625,-0.757720947265625
20220209-1356,2022-02-09 13:56:36Z,u01, 235,40,movements,el-ex, lt, d,15813.265440125, 0.5260081164897656, -0.35999741691742293, 0.5133037964024995, -0.027588017284870148, 0.6329711675643921, 0.03776419535279274, 0.46990031003952026, 0.35227182507514954, -0.8093814253807068, 0.01810625195503235, 0.025291621685028076, 0.028604447841644287, -0.23213840229724256, 0.20352164224839497, 0.9307103482296643,0.19613494128186024,0.4878692626953125,0.3740081787109375,-0.786468505859375
20220209-1356,2022-02-09 13:56:36Z,u01, 236,40,movements,el-ex, lt, d,15813.290386125002, 0.5414187624704533, -0.3591520152922515, 0.5140498502689544, 0.038804784417152405, 0.5807909369468689, 0.07629866898059845, 0.48247039318084717, 0.35148048400878906, -0.8022990226745605, 0.010159581899642944, -0.03328895568847656, 0.005027294158935547, -0.2333389239732626, 0.21072120522357396, 0.9290841167545559,0.19481308386082835,0.4926300048828125,0.3181915283203125,-0.797271728515625
20220209-1356,2022-02-09 13:56:36Z,u01, 237,40,movements,el-ex, lt, d,15813.315332125001, 0.5572361948654755, -0.35665768089915245, 0.5163917899871502, 0.03559258207678795, 0.6360453367233276, 0.17920687794685364, 0.49556195735931396, 0.34914422035217285, -0.7953091859817505, -0.003359198570251465, -0.03577446937561035, -0.02108180522918701, -0.23400227004109994, 0.2181475270699419, 0.9272822154953964,0.194428243819226,0.496490478515625,0.31451416015625,-0.8190460205078125
20220209-1356,2022-02-09 13:56:36Z,u01, 238,40,movements,el-ex, lt, d,15813.340279125001, 0.5753936544759044, -0.3541688907611123, 0.5211533707166993, -0.04404089227318764, 0.657848060131073, 0.2131488025188446, 0.5103915333747864, 0.3468109667301178, -0.7869070172309875, 0.03309601545333862, -0.028833061456680298, -0.010425746440887451, -0.2351777556301941, 0.2263579301279247, 0.9249173435858048,0.1948882713053893,0.543487548828125,0.3179779052734375,-0.797332763671875
20220209-1356,2022-02-09 13:56:36Z,u01, 239,40,movements,el-ex, lt, d,15813.365225125, 0.5930135448915589, -0.35198180702073867, 0.5259657238994432, 0.019812386482954025, 0.6198503375053406, 0.1805724799633026, 0.5245994329452515, 0.3447587788105011, -0.7784194350242615, 0.027021050453186035, -0.009553730487823486, -0.005531370639801025, -0.23646953966144457, 0.23424867864281038, 0.9225162383942351,0.19538038096556423,0.550994873046875,0.338897705078125,-0.7894439697265625
20220209-1356,2022-02-09 13:56:36Z,u01, 240,40,movements,el-ex, lt, d,15813.390171125, 0.6097726426017679, -0.34889016373224196, 0.5283684626443965, 0.07286891341209412, 0.6525115370750427, 0.1283683329820633, 0.538178563117981, 0.3418550491333008, -0.7703887820243835, -0.0015422701835632324, 0.001788109540939331, 0.02044987678527832, -0.23700849812087166, 0.2421416398922158, 0.9204167458395441,0.1950059779299843,0.5366363525390625,0.3436431884765625,-0.74993896484375
20220209-1356,2022-02-09 13:56:36Z,u01, 241,40,movements,el-ex, lt, d,15813.415118125002, 0.6267146338566325, -0.34501480668047624, 0.5296498942820124, 0.12252765148878098, 0.6773023009300232, 0.1148359403014183, 0.5519254803657532, 0.3382106125354767, -0.7622281908988953, 0.01013195514678955, 0.0012974143028259277, -0.007119953632354736, -0.23708657282342835, 0.2503514777257785, 0.9183618467527868,0.19423075746551235,0.5634002685546875,0.3423309326171875,-0.7668304443359375
20220209-1356,2022-02-09 13:56:36Z,u01, 242,40,movements,el-ex, lt, d,15813.440064125001, 0.6438685836605118, -0.3403664140343895, 0.5295408687237572, 0.18705306947231293, 0.6947440505027771, 0.10278294235467911, 0.5658565163612366, 0.3338325023651123, -0.753898024559021, 0.016281545162200928, 0.010329484939575195, -0.003136277198791504, -0.23666568592073697, 0.2589214912188166, 0.9163645094518771,0.19293794734598158,0.5821380615234375,0.3441619873046875,-0.7570343017578125
20220209-1356,2022-02-09 13:56:37Z,u01, 243,40,movements,el-ex, lt, d,15813.465010125, 0.6605341568444469, -0.3355619627311172, 0.5280636333734797, 0.16764448583126068, 0.6733018755912781, 0.04736468940973282, 0.5793188810348511, 0.32929983735084534, -0.745621383190155, 0.023845791816711426, 0.019805967807769775, -0.00965815782546997, -0.2359400083195905, 0.2674352667627241, 0.9144844877713534,0.19112496869504098,0.6062469482421875,0.349395751953125,-0.7508697509765625
20220209-1356,2022-02-09 13:56:37Z,u01, 244,40,movements,el-ex, lt, d,15813.489957125, 0.6765749257520853, -0.3333704264914227, 0.5271489408644806, -0.0018122810870409012, 0.6397887468338013, 0.01104696374386549, 0.5916545987129211, 0.32722973823547363, -0.7367940545082092, 0.016881108283996582, 0.005701780319213867, 0.03261619806289673, -0.2363713306315392, 0.2751936652065326, 0.9124693362529864,0.18920027511278645,0.6085357666015625,0.3329315185546875,-0.7041778564453125
20220209-1356,2022-02-09 13:56:37Z,u01, 245,40,movements,el-ex, lt, d,15813.514903125, 0.6929098528233961, -0.3338165601907299, 0.5280821094734796, -0.019549166783690453, 0.6571946740150452, 0.014412999153137207, 0.6035172939300537, 0.3276512920856476, -0.7269191741943359, 0.012724161148071289, 0.004044264554977417, 0.015645980834960938, -0.23823701652179885, 0.28245979215888184, 0.9100896722821619,0.18760689551769927,0.616607666015625,0.335235595703125,-0.7132568359375
20220209-1356,2022-02-09 13:56:37Z,u01, 246,40,movements,el-ex, lt, d,15813.539850125, 0.7098542646536254, -0.3333198938052902, 0.5276734572956906, 0.05910229682922363, 0.691156268119812, -0.01773521676659584, 0.6158532500267029, 0.32718199491500854, -0.7167124152183533, 0.008139550685882568, 0.018948346376419067, 0.01773780584335327, -0.23954067361669734, 0.2902827439480762, 0.9077169501339715,0.18548857042086142,0.623992919921875,0.34613037109375,-0.698974609375
20220209-1356,2022-02-09 13:56:37Z,u01, 247,40,movements,el-ex, lt, d,15813.564796125002, 0.7268054926206877, -0.3337268154143321, 0.5265145018512754, -0.044703755527734756, 0.6922457218170166, -0.07086588442325592, 0.6278248429298401, 0.3275665044784546, -0.7060708999633789, 0.020826220512390137, 0.013116508722305298, 0.039795875549316406, -0.2411094100651086, 0.2980449516011539, 0.9053183413460085,0.18285001429784675,0.6571502685546875,0.3387603759765625,-0.657470703125
20220209-1356,2022-02-09 13:56:37Z,u01, 248,40,movements,el-ex, lt, d,15813.589742125001, 0.7439862383532455, -0.3367400856586209, 0.5264902995452774, -0.11287448555231094, 0.6858193278312683, -0.09850829094648361, 0.6391910314559937, 0.33041203022003174, -0.6944513320922852, 0.06019550561904907, 0.013414233922958374, 0.04561716318130493, -0.24398002397333035, 0.3053654911267545, 0.9026412027565985,0.18017887029265015,0.6993865966796875,0.3438262939453125,-0.648834228515625
20220209-1356,2022-02-09 13:56:37Z,u01, 249,40,movements,el-ex, lt, d,15813.614689125001, 0.7609493969269793, -0.3398072928892769, 0.5255645466394716, 0.011309080757200718, 0.6928947567939758, -0.12134470045566559, 0.6501767039299011, 0.3333054184913635, -0.6827720999717712, 0.04473906755447388, 0.003150850534439087, 0.005159854888916016, -0.24668503301623743, 0.3126666458720967, 0.9000155426415317,0.1770820756598614,0.68988037109375,0.3314971923828125,-0.680267333984375
20220209-1356,2022-02-09 13:56:37Z,u01, 250,40,movements,el-ex, lt, d,15813.639635125, 0.7766752090935524, -0.34135821518562703, 0.522417171170551, 0.042069386690855026, 0.6500215530395508, -0.11593368649482727, 0.6604698300361633, 0.33476725220680237, -0.6720940470695496, 0.01302248239517212, -0.028935343027114868, -0.0037634968757629395, -0.24823681561527694, 0.3198928967976671, 0.8977609451611467,0.17341333565307931,0.673492431640625,0.3058319091796875,-0.6758575439453125
20220209-1356,2022-02-09 13:56:37Z,u01, 251,40,movements,el-ex, lt, d,15813.664582375, 0.7927191002957629, -0.3440914512359426, 0.5219113674376675, -0.2011600136756897, 0.6502467393875122, -0.058396290987730026, 0.6705131530761719, 0.3373415172100067, -0.6607667803764343, 0.01057809591293335, -0.0448763370513916, 0.006408870220184326, -0.25071414262965813, 0.32674002262340085, 0.8951356418142122,0.17063230303423368,0.688690185546875,0.29010009765625,-0.6490936279296875
