SessionID,LoggingTime,UID,RecNo,Hertz,Activity,MoveType,Wrist,Side,TimeStamp,DMRoll,DMPitch,DMYaw,DMRotX,DMRotY,DMRotZ,DMGrvX,DMGrvY,DMGrvZ,DMUAccelX,DMUAccelY,DMUAccelZ,DMQuatX,DMQuatY,DMQuatW,DMQuatZ,AccelroX,AceelroY,AceelroZ
20220209-1406,2022-02-09 14:06:30Z,u01, 1,40,movements,el-ex, lt, d,16405.09773225, 1.396612089642667, -0.4312995349529848, 0.36368743262448344, 0.11549773812294006, 0.23980118334293365, -0.0357377864420414, 0.8946772813796997, 0.41805168986320496, -0.1574341058731079, 0.015723228454589844, -0.004675745964050293, -0.04236437380313873, -0.2747684186090541, 0.5880350896271354, 0.760734594193876,-2.7755575615628914e-17,0.912933349609375,0.4105987548828125,-0.1941986083984375
20220209-1406,2022-02-09 14:06:30Z,u01, 2,40,movements,el-ex, lt, d,16405.12267825, 1.4010248970915422, -0.43176205030504594, 0.3611774730977345, 0.06611457467079163, 0.20732466876506805, -0.030313260853290558, 0.8951725363731384, 0.4184717833995819, -0.1534518450498581, 0.004348278045654297, -0.00886484980583191, -0.038320526480674744, -0.2741916236509127, 0.589994093341735, 0.7594228200970138,-0.001709377843990667,0.8949432373046875,0.410919189453125,-0.188690185546875
20220209-1406,2022-02-09 14:06:30Z,u01, 3,40,movements,el-ex, lt, d,16405.14762525, 1.4055443591561327, -0.4321917095992382, 0.3593774027193897, 0.08366823196411133, 0.4560857117176056, -0.23168878257274628, 0.8956795930862427, 0.418861985206604, -0.14937502145767212, -0.000888824462890625, -0.0008016228675842285, -0.0405663400888443, -0.27380660067240903, 0.5918973196445955, 0.7580749850167767,-0.003150984999371831,1.005218505859375,0.4120941162109375,-0.191925048828125
20220209-1406,2022-02-09 14:06:30Z,u01, 4,40,movements,el-ex, lt, d,16405.17257125, 1.4090044492483915, -0.4321596567775473, 0.3571979366917426, 0.10378475487232208, 0.18455256521701813, -0.025184476748108864, 0.8962042927742004, 0.4188328683376312, -0.14627715945243835, 0.03490227460861206, -0.005716383457183838, -0.05788528919219971, -0.27314279669389263, 0.5935102633848466, 0.7570462192170541,-0.004439215306274696,0.907440185546875,0.424163818359375,-0.2006378173828125
20220209-1406,2022-02-09 14:06:30Z,u01, 5,40,movements,el-ex, lt, d,16405.197518250003, 1.4116858912649315, -0.4324325513584712, 0.35416845956543885, 0.08318376541137695, 0.13862323760986328, -0.03533291816711426, 0.8964802622795105, 0.4190806746482849, -0.14385537803173065, 0.005893886089324951, -0.011365830898284912, -0.054554566740989685, -0.2723322646948552, 0.5949012121606502, 0.7562348165674597,-0.006039987918632583,0.894622802734375,0.4044952392578125,-0.1956634521484375
20220209-1406,2022-02-09 14:06:30Z,u01, 6,40,movements,el-ex, lt, d,16405.22246425, 1.4124809565179755, -0.4327895979436012, 0.35191590347588225, 0.02752193808555603, 0.10970017313957214, -0.02672005631029606, 0.8964466452598572, 0.4194048345088959, -0.1431189775466919, 0.0016704201698303223, -0.009660571813583374, -0.06057046353816986, -0.2717855470348189, 0.5954604312356294, 0.7559820480280814,-0.007116205145695692,0.90167236328125,0.409759521484375,-0.2062530517578125
20220209-1406,2022-02-09 14:06:30Z,u01, 7,40,movements,el-ex, lt, d,16405.247410250002, 1.4137213700913878, -0.4317622343175185, 0.350920116944891, 0.03573159873485565, 0.05904964730143547, -0.015548228286206722, 0.8970487117767334, 0.41847196221351624, -0.14207425713539124, 0.028625905513763428, -0.00376853346824646, -0.0756228119134903, -0.2711211506022276, 0.5962014714530564, 0.7556345643819743,-0.007325493399575028,0.9420928955078125,0.413787841796875,-0.231536865234375
20220209-1406,2022-02-09 14:06:30Z,u01, 8,40,movements,el-ex, lt, d,16405.27235725, 1.41145684671144, -0.43101593104389513, 0.3481505095700225, 0.08402559161186218, 0.0031186705455183983, -0.011959685012698174, 0.8970327973365784, 0.41779401898384094, -0.14415480196475983, 0.02174478769302368, -0.00803440809249878, -0.09690345823764801, -0.27004029329106205, 0.5958194709937109, 0.756317650781267,-0.00782246438834458,0.9105682373046875,0.4052581787109375,-0.2415008544921875
20220209-1406,2022-02-09 14:06:30Z,u01, 9,40,movements,el-ex, lt, d,16405.29730325, 1.409350272057061, -0.43092576406083083, 0.3460589539653172, 0.02953951433300972, -0.035288240760564804, -0.020606037229299545, 0.8967641592025757, 0.41771212220191956, -0.14605017006397247, 0.006662964820861816, -0.021548151969909668, -0.09711378812789917, -0.2693940226108853, 0.5953165341459651, 0.7569387001823081,-0.008300280862815729,0.905303955078125,0.3955230712890625,-0.2388458251953125
20220209-1406,2022-02-09 14:06:30Z,u01, 10,40,movements,el-ex, lt, d,16405.32225025, 1.4054386382423192, -0.43028849778339195, 0.34490115860653764, -0.012196645140647888, -0.09273641556501389, 0.00916430912911892, 0.8964483737945557, 0.41713303327560425, -0.14960063993930817, 0.013799428939819336, -0.026080816984176636, -0.08881781995296478, -0.26883946942952397, 0.5940749271779296, 0.7581136022834947,-0.008005137092752912,0.9120330810546875,0.3936004638671875,-0.2362213134765625
20220209-1406,2022-02-09 14:06:30Z,u01, 11,40,movements,el-ex, lt, d,16405.347195541668, 1.4006910047406087, -0.4287930594861752, 0.34491342035966877, -0.04209302365779877, -0.14367523789405823, 0.04074753448367119, 0.8963416814804077, 0.4157734215259552, -0.15396036207675934, 0.023152828216552734, -0.018892347812652588, -0.07914803922176361, -0.26832868564236856, 0.5924690183163529, 0.7595608991750664,-0.006877554558766291,0.9207305908203125,0.398834228515625,-0.233734130859375
20220209-1406,2022-02-09 14:06:30Z,u01, 12,40,movements,el-ex, lt, d,16405.37214154167, 1.3942645249598251, -0.4267411789425624, 0.34531887471461203, -0.04931531846523285, -0.188130721449852, 0.04763220623135567, 0.8961718082427979, 0.41390642523765564, -0.15986695885658264, 0.018409371376037598, -0.004513144493103027, -0.064650759100914, -0.26773579737080977, 0.5902406843088809, 0.7615158525855853,-0.005198158599141495,0.9125518798828125,0.413848876953125,-0.2215728759765625
20220209-1406,2022-02-09 14:06:30Z,u01, 13,40,movements,el-ex, lt, d,16405.397088541667, 1.3881177424852749, -0.42508429052743096, 0.34546052734012, -0.000386090949177742, -0.20910757780075073, 0.027433261275291443, 0.8958455920219421, 0.412397563457489, -0.16549687087535858, 0.015897750854492188, 0.0003833174705505371, -0.05024708807468414, -0.26719822546915617, 0.5880958043091841, 0.7633703143591134,-0.0037878058609484566,0.9142608642578125,0.411041259765625,-0.2172698974609375
20220209-1406,2022-02-09 14:06:30Z,u01, 14,40,movements,el-ex, lt, d,16405.42203454167, 1.3804691677118532, -0.4231351132174768, 0.34447098260177994, 0.020473551005125046, -0.23170308768749237, 0.020649990066885948, 0.8953409790992737, 0.4106210768222809, -0.17249560356140137, 0.028075098991394043, -0.0019449591636657715, -0.04234801232814789, -0.26621981477465706, 0.5855588861953802, 0.765664002192873,-0.0025200061296641596,0.923248291015625,0.4083251953125,-0.211517333984375
20220209-1406,2022-02-09 14:06:30Z,u01, 15,40,movements,el-ex, lt, d,16405.446981541667, 1.3728598465747985, -0.42146817145338955, 0.3434203094546997, 0.03650408238172531, -0.2585793733596802, 0.03526228666305542, 0.8946725726127625, 0.40910059213638306, -0.17943787574768066, 0.022441744804382324, -0.008404731750488281, -0.033940911293029785, -0.265319130808302, 0.5829981335385166, 0.7679304454867764,-0.001378484335682384,0.9104461669921875,0.399688720703125,-0.2126007080078125
20220209-1406,2022-02-09 14:06:30Z,u01, 16,40,movements,el-ex, lt, d,16405.47192754167, 1.364948893306513, -0.4200103003556364, 0.3423051048859153, 0.011747635900974274, -0.25504928827285767, 0.044259846210479736, 0.8938078284263611, 0.4077698588371277, -0.18663159012794495, 0.011160433292388916, -0.0007263720035552979, -0.025709614157676697, -0.26447033461472363, 0.5802927275968127, 0.7702699193287813,-0.0002953436648201191,0.9080047607421875,0.403594970703125,-0.21258544921875
20220209-1406,2022-02-09 14:06:30Z,u01, 17,40,movements,el-ex, lt, d,16405.496873541666, 1.3581029365291883, -0.4190286280714424, 0.3434638771447869, -0.10515188425779343, -0.3060804009437561, 0.03361106291413307, 0.8929000496864319, 0.40687331557273865, -0.19283053278923035, 0.037535130977630615, -0.0061469972133636475, -0.014521107077598572, -0.2644473257190715, 0.5776264763977942, 0.7722780516627001,0.0013680286065492486,0.941253662109375,0.402099609375,-0.204620361328125
20220209-1406,2022-02-09 14:06:30Z,u01, 18,40,movements,el-ex, lt, d,16405.521820541668, 1.3507924944191014, -0.41781991266485213, 0.34684705113017084, -0.10806845128536224, -0.3516620099544525, 0.05592355504631996, 0.8919458389282227, 0.40576887130737305, -0.1994599997997284, 0.037787437438964844, 0.010246753692626953, -0.015749871730804443, -0.26497157235758023, 0.5745085438859764, 0.7744119082021035,0.004025536245369221,0.92236328125,0.4173736572265625,-0.2172393798828125
20220209-1406,2022-02-09 14:06:30Z,u01, 19,40,movements,el-ex, lt, d,16405.54676654167, 1.3432847127821765, -0.41708171142721734, 0.3486675385992656, 0.01832640916109085, -0.31711965799331665, 0.04098382219672203, 0.8907148838043213, 0.40509405732154846, -0.20621837675571442, 0.012849628925323486, 0.017284512519836426, -0.012256860733032227, -0.2652046408176406, 0.5714519325540136, 0.7765782614808809,0.005958728916947598,0.89984130859375,0.415374755859375,-0.2252044677734375
20220209-1406,2022-02-09 14:06:30Z,u01, 20,40,movements,el-ex, lt, d,16405.571713541667, 1.335019986884613, -0.4159656657088405, 0.34650093603384363, 0.14960676431655884, -0.30333706736564636, 0.029584094882011414, 0.8894191384315491, 0.40407344698905945, -0.213678240776062, 0.009094774723052979, 0.007028937339782715, -0.027547866106033325, -0.2641519740346401, 0.5686691615703715, 0.7789712492870726,0.006559303920219528,0.89727783203125,0.4091949462890625,-0.2447509765625
20220209-1406,2022-02-09 14:06:30Z,u01, 21,40,movements,el-ex, lt, d,16405.59665954167, 1.3256054847470025, -0.41415297806370793, 0.3425379515449144, 0.15558446943759918, -0.3390357494354248, 0.04865679144859314, 0.8880770802497864, 0.4024146497249603, -0.22221948206424713, 0.004394233226776123, -0.0016120374202728271, -0.03278528153896332, -0.2623288358518694, 0.5657506848179156, 0.7817053499490407,0.006816648059413205,0.894287109375,0.3972930908203125,-0.2625579833984375
20220209-1406,2022-02-09 14:06:30Z,u01, 22,40,movements,el-ex, lt, d,16405.621605541666, 1.3157792474010532, -0.41211204954899, 0.34000620876459803, 0.060194231569767, -0.38456419110298157, 0.0720117837190628, 0.8866435885429382, 0.4005454480648041, -0.23114179074764252, 0.013624966144561768, -0.01179724931716919, -0.044126614928245544, -0.2608233991738341, 0.562494676442586, 0.7845450704183738,0.007742279520175338,0.903167724609375,0.3907623291015625,-0.2759552001953125
20220209-1406,2022-02-09 14:06:30Z,u01, 23,40,movements,el-ex, lt, d,16405.646552541668, 1.3058051799868204, -0.4101963657963771, 0.34005540426596254, -0.007100087124854326, -0.4212755262851715, 0.08050733059644699, 0.8850329518318176, 0.3987894058227539, -0.2401740998029709, 0.023658394813537598, -0.005127906799316406, -0.03144749999046326, -0.2600813136878591, 0.5588118302056595, 0.7873969143426667,0.009649971341092578,0.9078369140625,0.3986663818359375,-0.2686614990234375
20220209-1406,2022-02-09 14:06:30Z,u01, 24,40,movements,el-ex, lt, d,16405.67149854167, 1.2954485588151607, -0.40812637024602433, 0.340473565702152, 0.04660608619451523, -0.4264121353626251, 0.09098619967699051, 0.8832906484603882, 0.3968902826309204, -0.24955089390277863, 0.01734405755996704, 0.00972592830657959, -0.02361181378364563, -0.2593688608290128, 0.5549345431056437, 0.7903393527144447,0.011792877966168375,0.901275634765625,0.408416748046875,-0.277984619140625
20220209-1406,2022-02-09 14:06:30Z,u01, 25,40,movements,el-ex, lt, d,16405.696445541667, 1.2843552049314946, -0.4056239912303506, 0.3390444473157443, 0.09070027619600296, -0.42592695355415344, 0.07768391072750092, 0.8814180493354797, 0.39459219574928284, -0.25961384177207947, 0.02490830421447754, 0.01866164803504944, -0.030013203620910645, -0.25796430419890576, 0.551042197629521, 0.7934902919933021,0.013421972698540813,0.9130401611328125,0.40814208984375,-0.29229736328125
20220209-1406,2022-02-09 14:06:30Z,u01, 26,40,movements,el-ex, lt, d,16405.72139154167, 1.272717432091544, -0.40315231346785096, 0.33746222334486004, 0.1008349061012268, -0.4660688638687134, 0.08959483355283737, 0.879266619682312, 0.3923198878765106, -0.27013933658599854, 0.03835111856460571, 0.007826626300811768, -0.029314249753952026, -0.2565143996712139, 0.5469284183157365, 0.7967707057254936,0.015035279135043184,0.9144134521484375,0.400787353515625,-0.3052215576171875
20220209-1406,2022-02-09 14:06:30Z,u01, 27,40,movements,el-ex, lt, d,16405.746338541667, 1.2601261898113978, -0.4002898241436594, 0.3351113229205828, 0.14852115511894226, -0.4735659956932068, 0.09328430891036987, 0.8768612146377563, 0.3896852731704712, -0.28153082728385925, 0.0316011905670166, 0.01676309108734131, -0.03389871120452881, -0.25468825882748225, 0.5425573499922566, 0.8003068129122517,0.0165625124730793,0.9081878662109375,0.406982421875,-0.3249664306640625
20220209-1406,2022-02-09 14:06:30Z,u01, 28,40,movements,el-ex, lt, d,16405.771284541668, 1.2468070005533023, -0.39689702971126734, 0.3312044872236229, 0.21653327345848083, -0.48689529299736023, 0.0791909322142601, 0.8742822408676147, 0.3865584433078766, -0.2936038374900818, 0.03126591444015503, 0.0134202241897583, -0.04466819763183594, -0.25222315584255056, 0.5381278305970616, 0.8040454041363725,0.0176903053567872,0.9048004150390625,0.3974456787109375,-0.344268798828125
20220209-1406,2022-02-09 14:06:30Z,u01, 29,40,movements,el-ex, lt, d,16405.796230541666, 1.2324000795780605, -0.3931645037026446, 0.3256826539560534, 0.2716291546821594, -0.5088205933570862, 0.07645560055971146, 0.8713167309761047, 0.38311338424682617, -0.3066455125808716, 0.02498459815979004, 0.013340532779693604, -0.05169177055358887, -0.24917917357738986, 0.5334669414964051, 0.8080751942564044,0.0183681798223983,0.894195556640625,0.3946075439453125,-0.36639404296875
20220209-1406,2022-02-09 14:06:31Z,u01, 30,40,movements,el-ex, lt, d,16405.821177541668, 1.2169383103032394, -0.3889991322158457, 0.3195077473489989, 0.26585230231285095, -0.5536805987358093, 0.09731094539165497, 0.8679608702659607, 0.3792625069618225, -0.32063060998916626, 0.027348697185516357, 0.010538578033447266, -0.06221237778663635, -0.24578264339102585, 0.5284653065729255, 0.8123759789532721,0.01899208675306907,0.89544677734375,0.386932373046875,-0.386505126953125
20220209-1406,2022-02-09 14:06:31Z,u01, 31,40,movements,el-ex, lt, d,16405.84612354167, 1.2006801624019987, -0.38472705706523297, 0.3145792492002976, 0.2000935673713684, -0.5977088809013367, 0.09897208958864212, 0.8641361594200134, 0.3753061592578888, -0.3352820873260498, 0.029021799564361572, 0.012480735778808594, -0.06172102689743042, -0.24266146163303653, 0.5229477750571678, 0.8168433812411174,0.02019958680850628,0.895172119140625,0.3865966796875,-0.406402587890625
20220209-1406,2022-02-09 14:06:31Z,u01, 32,40,movements,el-ex, lt, d,16405.871070541667, 1.1841796495979717, -0.3808731473350752, 0.31121248578257005, 0.1652395874261856, -0.6275506615638733, 0.10865827649831772, 0.8598196506500244, 0.3717311918735504, -0.35003721714019775, 0.03400975465774536, 0.012179940938949585, -0.07064744830131531, -0.24009821523746255, 0.517043750880166, 0.8213029547809478,0.021908743908419126,0.894439697265625,0.3792877197265625,-0.422088623046875
20220209-1406,2022-02-09 14:06:31Z,u01, 33,40,movements,el-ex, lt, d,16405.89601654167, 1.1669346153048048, -0.37696511426576623, 0.3081391033805906, 0.18230579793453217, -0.6698680520057678, 0.09027793258428574, 0.8549851179122925, 0.3681003749370575, -0.365380197763443, 0.035700976848602295, 0.004275143146514893, -0.06313228607177734, -0.23756498128680487, 0.5107570717163014, 0.8259077872542451,0.023801101242326705,0.8895416259765625,0.3722686767578125,-0.4338226318359375
20220209-1406,2022-02-09 14:06:31Z,u01, 34,40,movements,el-ex, lt, d,16405.920962541666, 1.1483783673527082, -0.3732980872188749, 0.30429548516879573, 0.18060776591300964, -0.7027897834777832, 0.0800042599439621, 0.8492836356163025, 0.36468836665153503, -0.3817324936389923, 0.03854900598526001, 0.018658190965652466, -0.05401262640953064, -0.2348998377533546, 0.503940300277291, 0.8307948618351264,0.025418486979674138,0.893218994140625,0.381988525390625,-0.437957763671875
20220209-1406,2022-02-09 14:06:31Z,u01, 35,40,movements,el-ex, lt, d,16405.945909541668, 1.1295339088538707, -0.36979656089191176, 0.30212943446607504, 0.0898071825504303, -0.7532411813735962, 0.0965537428855896, 0.8430891633033752, 0.3614257574081421, -0.39821097254753113, 0.056523263454437256, 0.00846254825592041, -0.04255428910255432, -0.23270165929926886, 0.4967337889092888, 0.8356670167556149,0.02767724968168453,0.8987274169921875,0.3739776611328125,-0.441925048828125
20220209-1406,2022-02-09 14:06:31Z,u01, 36,40,movements,el-ex, lt, d,16405.97085554167, 1.110072752897642, -0.36674343417489014, 0.30112544947003445, 0.10745279490947723, -0.7795278429985046, 0.09657032042741776, 0.8361649513244629, 0.35857734084129333, -0.41503071784973145, 0.058000147342681885, 0.03329890966415405, -0.05526036024093628, -0.2309370777394104, 0.4890324181651986, 0.8405921436027527,0.030335874341468172,0.891571044921875,0.392120361328125,-0.4759521484375
20220209-1406,2022-02-09 14:06:31Z,u01, 37,40,movements,el-ex, lt, d,16405.995802541667, 1.0899589457788936, -0.36366277822192594, 0.29965017434367325, 0.09028768539428711, -0.7968940138816833, 0.07681452482938766, 0.8286240696907043, 0.3556998372077942, -0.4322730004787445, 0.04848170280456543, 0.034757375717163086, -0.039269328117370605, -0.2290066340728233, 0.4810607720554645, 0.8456109042126394,0.032845297915490984,0.871551513671875,0.385986328125,-0.4696197509765625
20220209-1406,2022-02-09 14:06:31Z,u01, 38,40,movements,el-ex, lt, d,16406.02074854167, 1.069714959544788, -0.3612280915818642, 0.29870188422689387, 0.08542601764202118, -0.8090759515762329, 0.06721289455890656, 0.8204610347747803, 0.3534233272075653, -0.4493725895881653, 0.038868248462677, 0.02853471040725708, -0.02807486057281494, -0.2274363388269668, 0.47284925643647535, 0.8505491702129904,0.03538997231173813,0.8560791015625,0.3783416748046875,-0.4794769287109375
20220209-1406,2022-02-09 14:06:31Z,u01, 39,40,movements,el-ex, lt, d,16406.045695541667, 1.048913970637941, -0.3588002531848616, 0.297456121536088, 0.09086758643388748, -0.8316892385482788, 0.060030750930309296, 0.8116782903671265, 0.35115113854408264, -0.46676695346832275, 0.03817528486251831, 0.027587294578552246, -0.010985612869262695, -0.22576066040789688, 0.4643798524731922, 0.8555418125848171,0.03783995824077241,0.846466064453125,0.3750762939453125,-0.4796905517578125
20220209-1406,2022-02-09 14:06:31Z,u01, 40,40,movements,el-ex, lt, d,16406.070641541668, 1.027684952727209, -0.35639613888957, 0.29619293612765063, 0.10383934527635574, -0.8435844779014587, 0.05849231034517288, 0.8023074269294739, 0.34889909625053406, -0.48432642221450806, 0.03588831424713135, 0.026619702577590942, 0.0027286410331726074, -0.22405538145293497, 0.4556708983645237, 0.8605461149284078,0.04029318685043151,0.8349761962890625,0.3771514892578125,-0.4850616455078125
20220209-1406,2022-02-09 14:06:31Z,u01, 41,40,movements,el-ex, lt, d,16406.09558754167, 1.006075168362977, -0.35351592471860926, 0.29407247020632504, 0.1667095571756363, -0.8330337405204773, 0.061865802854299545, 0.7925004363059998, 0.3461984395980835, -0.5020854473114014, 0.03184044361114502, 0.03505769371986389, -0.000859379768371582, -0.22192303486134435, 0.44688637389539065, 0.8655844066631343,0.042502741345573164,0.8188323974609375,0.374267578125,-0.5137786865234375
20220209-1406,2022-02-09 14:06:31Z,u01, 42,40,movements,el-ex, lt, d,16406.120534541667, 0.9841869047010667, -0.35002529575368097, 0.2907330960509528, 0.1926392912864685, -0.8261273503303528, 0.04690442979335785, 0.7823232412338257, 0.34292155504226685, -0.5199759602546692, 0.01996856927871704, 0.03226152062416077, -0.0017524361610412598, -0.21923640432963185, 0.4381180385416938, 0.8706456145814054,0.044317803730629046,0.8015899658203125,0.3721466064453125,-0.5221405029296875
20220209-1406,2022-02-09 14:06:31Z,u01, 43,40,movements,el-ex, lt, d,16406.14548054167, 0.9622958363151035, -0.3465649768267059, 0.28733715770385043, 0.1737689971923828, -0.838768482208252, 0.04592904821038246, 0.7717229723930359, 0.33966901898384094, -0.5376510620117188, 0.03789317607879639, 0.028693437576293945, 0.010200560092926025, -0.21653506985997606, 0.4292866523431328, 0.8756171036373441,0.046046851705046826,0.817596435546875,0.3626861572265625,-0.527801513671875
20220209-1406,2022-02-09 14:06:31Z,u01, 44,40,movements,el-ex, lt, d,16406.170427541667, 0.9400219541067908, -0.34355838989935583, 0.2846175542038888, 0.14755623042583466, -0.868705689907074, 0.039062488824129105, 0.7603782415390015, 0.3368396759033203, -0.5553053617477417, 0.055036187171936035, 0.027830183506011963, 0.008872926235198975, -0.21414772431042267, 0.42010484661891834, 0.8805413644154592,0.04795492912408478,0.810699462890625,0.365325927734375,-0.5528564453125
20220209-1406,2022-02-09 14:06:31Z,u01, 45,40,movements,el-ex, lt, d,16406.19537354167, 0.9173513058914262, -0.3407392278293763, 0.281580428994222, 0.17887111008167267, -0.8633065223693848, 0.009838488884270191, 0.7483457922935486, 0.3341839015483856, -0.572974443435669, 0.04347860813140869, 0.03732186555862427, -0.0006491541862487793, -0.2117491968409435, 0.4107006999745017, 0.8854488830719401,0.049673969665561896,0.779876708984375,0.3699188232421875,-0.5764312744140625
20220209-1406,2022-02-09 14:06:31Z,u01, 46,40,movements,el-ex, lt, d,16406.220319541666, 0.8947241527858878, -0.3372959310860027, 0.27705070601905435, 0.26773393154144287, -0.838091254234314, -0.002329628448933363, 0.7360837459564209, 0.33093661069869995, -0.5904757380485535, 0.0369112491607666, 0.039119571447372437, -0.0023738741874694824, -0.20876772822146306, 0.4014699924260938, 0.8903122046949443,0.05081364871218941,0.7747802734375,0.36822509765625,-0.5938873291015625
20220209-1406,2022-02-09 14:06:31Z,u01, 47,40,movements,el-ex, lt, d,16406.245266541668, 0.8717470343445832, -0.3323046597904895, 0.2707950410019211, 0.34686267375946045, -0.8446428179740906, 0.0004255445674061775, 0.7235786318778992, 0.3262224793434143, -0.6082868576049805, 0.055550456047058105, 0.02909371256828308, -0.002949655055999756, -0.20475895393056942, 0.3923395828420628, 0.8952609767537154,0.051489745507083545,0.7700653076171875,0.3543243408203125,-0.6185302734375
20220209-1406,2022-02-09 14:06:31Z,u01, 48,40,movements,el-ex, lt, d,16406.27021254167, 0.848137444722468, -0.3264911503629185, 0.26353493942731, 0.3664112389087677, -0.8706276416778564, -0.0006361240521073341, 0.7104274034500122, 0.32072150707244873, -0.6264429092407227, 0.03902333974838257, 0.03372493386268616, -0.006705224514007568, -0.2001847572888693, 0.38302038396520294, 0.9002953840327041,0.05186317423721429,0.743072509765625,0.3523101806640625,-0.6362152099609375
20220209-1406,2022-02-09 14:06:31Z,u01, 49,40,movements,el-ex, lt, d,16406.295159541667, 0.8241892569780809, -0.321692739063895, 0.25746857000263257, 0.20626485347747803, -0.902706503868103, -0.021480686962604523, 0.6963444948196411, 0.31617292761802673, -0.6443127989768982, 0.027746081352233887, 0.029774367809295654, 0.009669303894042969, -0.19628782023453484, 0.3732488147304587, 0.9052073684284229,0.05249774925421166,0.7111053466796875,0.3407440185546875,-0.63031005859375
20220209-1406,2022-02-09 14:06:31Z,u01, 50,40,movements,el-ex, lt, d,16406.32010554167, 0.8007882580575062, -0.3209411096028229, 0.2550795305730935, 0.004617288708686829, -0.9061239957809448, -0.04243030771613121, 0.6812480688095093, 0.3154597580432892, -0.6605953574180603, 0.012248754501342773, 0.028900623321533203, 0.05366182327270508, -0.19489095893239175, 0.3629322862935461, 0.9096138286350898,0.05385476626119415,0.701751708984375,0.3502197265625,-0.6112213134765625
20220209-1406,2022-02-09 14:06:31Z,u01, 51,40,movements,el-ex, lt, d,16406.345051666667, 0.7777105811343376, -0.3211977995524299, 0.2538112963777283, 0.06603613495826721, -0.9119353890419006, -0.05102945864200592, 0.665766179561615, 0.3157033324241638, -0.6760819554328918, 0.060582756996154785, 0.05662643909454346, 0.04655015468597412, -0.19414836046012227, 0.35251301408956603, 0.9137637170599163,0.05547047204218644,0.724151611328125,0.3812713623046875,-0.642669677734375
20220209-1406,2022-02-09 14:06:31Z,u01, 52,40,movements,el-ex, lt, d,16406.36999866667, 0.7539847398702363, -0.3202760726527119, 0.250430514532704, 0.15792638063430786, -0.9039062261581421, -0.08810517936944962, 0.6497386693954468, 0.3148286044597626, -0.6918979287147522, 0.04587912559509277, 0.056814491748809814, 0.028232216835021973, -0.19248257264148222, 0.34205482981562707, 0.9180244626361191,0.0563927340064693,0.689178466796875,0.3669891357421875,-0.6707611083984375
20220209-1406,2022-02-09 14:06:31Z,u01, 53,40,movements,el-ex, lt, d,16406.394944666667, 0.7298029671003059, -0.3187924729975327, 0.24536284226171917, 0.18882198631763458, -0.9133926630020142, -0.09308582544326782, 0.6331296563148499, 0.3134201169013977, -0.7077532410621643, 0.03564786911010742, 0.04145359992980957, 0.027394413948059082, -0.19027372637385623, 0.331540798215916, 0.9223161468583899,0.05665208680145384,0.6633758544921875,0.346710205078125,-0.693328857421875
20220209-1406,2022-02-09 14:06:31Z,u01, 54,40,movements,el-ex, lt, d,16406.41989166667, 0.7058913915816956, -0.3168090935964736, 0.2408437615773951, 0.1198572963476181, -0.9026308059692383, -0.07270518690347672, 0.6164288520812988, 0.31153604388237, -0.7231602668762207, 0.04352909326553345, 0.010332882404327393, 0.014389574527740479, -0.18795249843501585, 0.3210821170147435, 0.9264503285860897,0.05718360347407725,0.6624755859375,0.3187255859375,-0.712890625
20220209-1406,2022-02-09 14:06:31Z,u01, 55,40,movements,el-ex, lt, d,16406.444837666666, 0.6827666793026473, -0.3172096458915512, 0.238592346367914, -0.018852118402719498, -0.90422523021698, -0.07929172366857529, 0.5994638800621033, 0.31191664934158325, -0.7371234893798828, 0.06826072931289673, 0.015536993741989136, 0.030168652534484863, -0.1871130593385527, 0.3105268816404266, 0.9301453209196446,0.05823656325114093,0.664764404296875,0.3288726806640625,-0.70843505859375
20220209-1406,2022-02-09 14:06:31Z,u01, 56,40,movements,el-ex, lt, d,16406.469784666668, 0.6597031212091939, -0.3192135786281569, 0.23704211104530404, -0.006396147422492504, -0.9113886952400208, -0.10726243257522583, 0.5819210410118103, 0.3138199746608734, -0.7502565979957581, 0.06538736820220947, 0.021629273891448975, 0.023800969123840332, -0.18711996533393452, 0.29976291947689027, 0.933599642763188,0.05933072249418009,0.6442108154296875,0.3359375,-0.732818603515625
20220209-1406,2022-02-09 14:06:31Z,u01, 57,40,movements,el-ex, lt, d,16406.49473066667, 0.636115046997731, -0.3202467248355258, 0.23417998076711175, 0.07080026715993881, -0.9118818044662476, -0.1135580837726593, 0.5638707876205444, 0.3148007392883301, -0.7635118365287781, 0.06709545850753784, 0.020221233367919922, 0.02483391761779785, -0.18647191620202722, 0.2889157503777379, 0.9370982297604988,0.06002485864611512,0.6175537109375,0.3334503173828125,-0.739013671875
20220209-1406,2022-02-09 14:06:31Z,u01, 58,40,movements,el-ex, lt, d,16406.519676666667, 0.61242740515972, -0.31987161527684527, 0.2304439791478141, 0.1253681182861328, -0.8960968255996704, -0.0983816608786583, 0.5456963181495667, 0.3144446909427643, -0.7767497301101685, 0.050022125244140625, 0.0008019208908081055, 0.028443455696105957, -0.18505435283651736, 0.27817267095502624, 0.9405907350307849,0.06053098008698107,0.589599609375,0.313140869140625,-0.7494354248046875
20220209-1406,2022-02-09 14:06:31Z,u01, 59,40,movements,el-ex, lt, d,16406.54462366667, 0.588971868739374, -0.3184386449627442, 0.22646171516505853, 0.13721045851707458, -0.8779286742210388, -0.08391869813203812, 0.5275785326957703, 0.31308409571647644, -0.7897083163261414, 0.04438197612762451, -0.008594900369644165, 0.03387951850891113, -0.1831306526071525, 0.26759858773413475, 0.9439963099397203,0.06103402223758961,0.5668487548828125,0.300506591796875,-0.756103515625
20220209-1406,2022-02-09 14:06:31Z,u01, 60,40,movements,el-ex, lt, d,16406.569569666666, 0.5664399405163577, -0.31729857291091856, 0.22342867157050397, 0.054480720311403275, -0.8618286848068237, -0.049258917570114136, 0.5098437070846558, 0.31200113892555237, -0.8016948699951172, 0.05552494525909424, -0.01801002025604248, 0.05476200580596924, -0.18150731752478627, 0.2573084723385531, 0.9471142243298946,0.06182306892254105,0.563507080078125,0.286773681640625,-0.7440338134765625
20220209-1406,2022-02-09 14:06:31Z,u01, 61,40,movements,el-ex, lt, d,16406.594516666668, 0.5445359678916074, -0.317853829467516, 0.22231477041116066, -0.02781621739268303, -0.8644930720329285, -0.04482116177678108, 0.4920727014541626, 0.3125286102294922, -0.8125209808349609, 0.06224864721298218, -0.0167216956615448, 0.06033903360366821, -0.1809428939350039, 0.24698010226274003, 0.9498770257838106,0.06320019087787751,0.5457000732421875,0.303863525390625,-0.764556884765625
20220209-1406,2022-02-09 14:06:31Z,u01, 62,40,movements,el-ex, lt, d,16406.61946266667, 0.5232602439438169, -0.319117057888751, 0.22186195126448374, -0.02920995093882084, -0.8386094570159912, -0.0314650759100914, 0.47447800636291504, 0.31372833251953125, -0.8224629163742065, 0.050042927265167236, -0.005729615688323975, 0.06399428844451904, -0.18080255550508118, 0.23681003415818389, 0.9523869742350284,0.06473475557514871,0.5197906494140625,0.304718017578125,-0.7636566162109375
20220209-1406,2022-02-09 14:06:31Z,u01, 63,40,movements,el-ex, lt, d,16406.644408666667, 0.5026331979813126, -0.3200762422579642, 0.22147424968404722, -0.014241253957152367, -0.808887779712677, -0.03418789058923721, 0.457268089056015, 0.3146389424800873, -0.8318101763725281, 0.04622620344161987, -0.007876217365264893, 0.06331658363342285, -0.1805350215364603, 0.22694053164753047, 0.9547309924613522,0.06628571106109718,0.49432373046875,0.3098907470703125,-0.7794952392578125
20220209-1406,2022-02-09 14:06:31Z,u01, 64,40,movements,el-ex, lt, d,16406.66935566667, 0.4825949203622474, -0.3203834609547197, 0.22063379444608225, 0.031605064868927, -0.7906714677810669, -0.027577660977840424, 0.44046449661254883, 0.3149305284023285, -0.8407198190689087, 0.04633671045303345, 0.0021318793296813965, 0.06038540601730347, -0.179916182004117, 0.21741724148182953, 0.9569657557705459,0.06765037991875841,0.4892730712890625,0.316619873046875,-0.778717041015625
20220209-1406,2022-02-09 14:06:31Z,u01, 65,40,movements,el-ex, lt, d,16406.694301666666, 0.4626796287415575, -0.32006564017151184, 0.2198694136667854, 0.002970956265926361, -0.8183152675628662, -0.017732620239257812, 0.42367973923683167, 0.31462886929512024, -0.8494139909744263, 0.07839551568031311, -0.0026934146881103516, 0.06791990995407104, -0.179003047701555, 0.20796851820733092, 0.9591302012819333,0.06911043718992407,0.5037841796875,0.3155517578125,-0.79400634765625
20220209-1406,2022-02-09 14:06:31Z,u01, 66,40,movements,el-ex, lt, d,16406.719248666668, 0.4419346546706942, -0.3218787024753576, 0.22009773788161135, -0.14921805262565613, -0.8309072256088257, -0.026654209941625595, 0.40572410821914673, 0.3163493275642395, -0.857502818107605, 0.04732465744018555, 0.010326147079467773, 0.08154761791229248, -0.17916354186041109, 0.1978611386884616, 0.9611086729724755,0.07086265840015402,0.4388275146484375,0.3247222900390625,-0.7649688720703125
20220209-1406,2022-02-09 14:06:31Z,u01, 67,40,movements,el-ex, lt, d,16406.744194666666, 0.4222764788591035, -0.3269409658838927, 0.22150824978833236, -0.21988768875598907, -0.7660719752311707, -0.0502583384513855, 0.3881285488605499, 0.32114753127098083, -0.8638405203819275, 0.01828935742378235, -8.732080459594727e-05, 0.10799646377563477, -0.18100922595352248, 0.18792391484163426, 0.9626161205259804,0.07273490656651016,0.3939666748046875,0.3220367431640625,-0.76104736328125
20220209-1406,2022-02-09 14:06:31Z,u01, 68,40,movements,el-ex, lt, d,16406.769140666667, 0.4047880237578681, -0.3309481415309726, 0.22156637172015645, -0.03499966114759445, -0.6430362462997437, -0.0587313175201416, 0.3724529445171356, 0.32493987679481506, -0.8693059682846069, 0.009077906608581543, 0.009364962577819824, 0.10470336675643921, -0.18228856432971335, 0.1792146617193922, 0.9639449268597671,0.07391250448653505,0.3789825439453125,0.334625244140625,-0.759063720703125
20220209-1406,2022-02-09 14:06:31Z,u01, 69,40,movements,el-ex, lt, d,16406.79408766667, 0.3892036176979501, -0.3297575964201256, 0.2192390022982307, 0.1630442887544632, -0.5518398284912109, -0.06071517616510391, 0.35900717973709106, 0.32381370663642883, -0.8753619194030762, 0.005449056625366211, -0.0004799067974090576, 0.14355045557022095, -0.1809366050137269, 0.1719912097959901, 0.9654821924392966,0.07433067482533792,0.3605194091796875,0.3124237060546875,-0.73114013671875
20220209-1406,2022-02-09 14:06:32Z,u01, 70,40,movements,el-ex, lt, d,16406.819033666667, 0.3757049031371747, -0.32702309285015974, 0.2163743667817598, 0.1055431067943573, -0.47070541977882385, -0.05038756877183914, 0.34748217463493347, 0.3212253153324127, -0.8809486031532288, 0.008688509464263916, -0.015088200569152832, 0.14988481998443604, -0.17888071554147886, 0.16591378717107524, 0.9669194053554055,0.07443972594062301,0.356964111328125,0.3012237548828125,-0.7275543212890625
20220209-1406,2022-02-09 14:06:32Z,u01, 71,40,movements,el-ex, lt, d,16406.84398066667, 0.3642956261423107, -0.3264354136627926, 0.21497012794538406, -0.01243729516863823, -0.4088992476463318, -0.03136081248521805, 0.33747598528862, 0.3206687271595001, -0.8850319385528564, 0.011065304279327393, -0.021825283765792847, 0.18634730577468872, -0.1780579389041177, 0.16055964376673038, 0.9679439777462987,0.07483665105451984,0.3477020263671875,0.298187255859375,-0.68865966796875
20220209-1406,2022-02-09 14:06:32Z,u01, 72,40,movements,el-ex, lt, d,16406.868926666666, 0.354921860294812, -0.32803701173142125, 0.21470124363545484, -0.07293129712343216, -0.35490959882736206, -0.027171194553375244, 0.3289863169193268, 0.32218533754348755, -0.8876737356185913, 0.032082438468933105, -0.005092412233352661, 0.18291610479354858, -0.17845500102697076, 0.15593892306696666, 0.9685833574763723,0.0753876979502881,0.359832763671875,0.3182373046875,-0.705780029296875
20220209-1406,2022-02-09 14:06:32Z,u01, 73,40,movements,el-ex, lt, d,16406.893872666667, 0.34674175292320053, -0.3311041206626961, 0.21504276326762253, -0.18217378854751587, -0.31090065836906433, -0.033975373953580856, 0.3213768005371094, 0.32508736848831177, -0.8894016146659851, 0.0192604660987854, -0.01762273907661438, 0.2068149447441101, -0.17964796030990365, 0.15174259690535044, 0.9689816710261697,0.07599641254690978,0.3206939697265625,0.29998779296875,-0.6646575927734375
20220209-1406,2022-02-09 14:06:32Z,u01, 74,40,movements,el-ex, lt, d,16406.91881966667, 0.340566376649675, -0.3378674811209426, 0.2162921435687926, -0.3186030387878418, -0.22169733047485352, -0.03984930366277695, 0.3151366710662842, 0.3314758837223053, -0.8892764449119568, -0.008740127086639404, -0.02639162540435791, 0.24453163146972656, -0.1827621301428389, 0.14818832643814786, 0.968906926682638,0.0765346871555142,0.3096923828125,0.30670166015625,-0.645538330078125
20220209-1406,2022-02-09 14:06:32Z,u01, 75,40,movements,el-ex, lt, d,16406.943765666667, 0.33746807539732915, -0.34576502141160403, 0.21838434965339326, -0.28212931752204895, -0.09412632137537003, -0.024923354387283325, 0.31150344014167786, 0.33891651034355164, -0.8877506256103516, 0.0038805603981018066, -0.015872657299041748, 0.24268537759780884, -0.18659752830516446, 0.14596588019236928, 0.9684675723803977,0.07710976492406474,0.3092193603515625,0.329681396484375,-0.6483154296875
20220209-1406,2022-02-09 14:06:32Z,u01, 76,40,movements,el-ex, lt, d,16406.96871266667, 0.33832736815786857, -0.3505234604090139, 0.21972854402325395, -0.05644074082374573, 0.07075144350528717, -0.003016057889908552, 0.3117273449897766, 0.34338948130607605, -0.8859513401985168, -0.001271963119506836, 0.005716383457183838, 0.22358256578445435, -0.18901726138742375, 0.14593428419106252, 0.967992314304099,0.07724376706273164,0.3123931884765625,0.3418731689453125,-0.6666107177734375
20220209-1406,2022-02-09 14:06:32Z,u01, 77,40,movements,el-ex, lt, d,16406.993658666666, 0.34178680781985654, -0.3513205206167252, 0.2195962374884154, 0.024913638830184937, 0.13011384010314941, -0.02896030619740486, 0.3146985173225403, 0.344137966632843, -0.8846094608306885, -0.012391358613967896, -0.014838039875030518, 0.21508437395095825, -0.18952390392220242, 0.14756680508631947, 0.9676826463866052,0.07677884137911575,0.2958984375,0.3265380859375,-0.6782684326171875
20220209-1406,2022-02-09 14:06:32Z,u01, 78,40,movements,el-ex, lt, d,16407.018605666668, 0.34731464618691044, -0.3525244136385217, 0.21986595641649911, -0.06202968209981918, 0.2472025603055954, 0.010828584432601929, 0.31944242119789124, 0.3452680706977844, -0.8824661374092102, -0.01710471510887146, -0.025687962770462036, 0.20955359935760498, -0.19033385740589503, 0.15013310147619943, 0.9671689123326196,0.07627199408533003,0.3161468505859375,0.32025146484375,-0.675872802734375
20220209-1406,2022-02-09 14:06:32Z,u01, 79,40,movements,el-ex, lt, d,16407.04355166667, 0.35500477825994425, -0.35464466479653967, 0.22168116446190608, -0.12121943384408951, 0.27992871403694153, 0.0479731559753418, 0.3259640038013458, 0.34725716710090637, -0.8792951107025146, 0.03946882486343384, -0.027387142181396484, 0.18337231874465942, -0.19178253745170976, 0.1535313929193184, 0.9663535211920663,0.0762133912851245,0.36419677734375,0.32403564453125,-0.7149810791015625
20220209-1406,2022-02-09 14:06:32Z,u01, 80,40,movements,el-ex, lt, d,16407.068497666667, 0.3639016667340736, -0.35707685275669654, 0.22378046087852582, -0.08576017618179321, 0.37883222103118896, 0.030911482870578766, 0.3334724009037018, 0.3495369553565979, -0.8755684494972229, -0.03650575876235962, -0.0028724968433380127, 0.15471279621124268, -0.19345064631032746, 0.15745674054355555, 0.9653952162389046,0.0761342101722782,0.2899932861328125,0.349822998046875,-0.7172393798828125
20220209-1406,2022-02-09 14:06:32Z,u01, 81,40,movements,el-ex, lt, d,16407.09344466667, 0.3754339016028449, -0.35898325554402777, 0.22530161200922083, -0.12315285950899124, 0.4957982003688812, 0.010868997313082218, 0.34330227971076965, 0.3513224720954895, -0.8710430860519409, -0.041376590728759766, -0.0007517635822296143, 0.1712293028831482, -0.1949224552466843, 0.1627381033456491, 0.9642678865180566,0.07555834791791391,0.332000732421875,0.3600921630859375,-0.6920166015625
20220209-1406,2022-02-09 14:06:32Z,u01, 82,40,movements,el-ex, lt, d,16407.118390666667, 0.3894530877126155, -0.362177873112976, 0.2270105976677259, -0.0916527584195137, 0.5403328537940979, 0.022618796676397324, 0.35505151748657227, 0.35431167483329773, -0.8651021122932434, 0.06072002649307251, 0.019101470708847046, 0.12390649318695068, -0.197117581218923, 0.1690964236718985, 0.9627949509801901,0.07467917592258669,0.421417236328125,0.377197265625,-0.7571868896484375
20220209-1406,2022-02-09 14:06:32Z,u01, 83,40,movements,el-ex, lt, d,16407.14333766667, 0.4031480476048571, -0.36124644205333095, 0.2268502837726829, 0.16116665303707123, 0.5819782018661499, -0.016215549781918526, 0.366994708776474, 0.3534404933452606, -0.8604618906974792, 0.014322489500045776, 0.03303414583206177, 0.08053946495056152, -0.19716617739769088, 0.17576843302419518, 0.9616915342305187,0.07335101745612113,0.3441314697265625,0.3801727294921875,-0.7877655029296875
20220209-1406,2022-02-09 14:06:32Z,u01, 84,40,movements,el-ex, lt, d,16407.168283666666, 0.4173805823195002, -0.35821615958068287, 0.22372678749144706, 0.08026641607284546, 0.6020345687866211, -0.08060666173696518, 0.37963607907295227, 0.35060417652130127, -0.8561268448829651, -0.019559144973754883, 0.00043955445289611816, 0.06595045328140259, -0.1959547744624645, 0.18313469365775262, 0.9607565743630118,0.07078258104120433,0.3779144287109375,0.3434906005859375,-0.7894744873046875
20220209-1406,2022-02-09 14:06:32Z,u01, 85,40,movements,el-ex, lt, d,16407.193229666667, 0.4310908692263001, -0.36121089589723393, 0.2231896209088664, -0.25832420587539673, 0.49347978830337524, -0.027726199477910995, 0.390897274017334, 0.35340723395347595, -0.8498838543891907, 0.03114563226699829, -0.028379738330841064, 0.05235278606414795, -0.19780823016074783, 0.18955202099435092, 0.9592722245506689,0.06883765592879604,0.429046630859375,0.3239898681640625,-0.8244476318359375
20220209-1406,2022-02-09 14:06:32Z,u01, 86,40,movements,el-ex, lt, d,16407.21817666667, 0.44483879103052737, -0.36825792211225394, 0.22608730723928233, -0.2694166898727417, 0.544553816318512, -0.009701724164187908, 0.40146246552467346, 0.3599906861782074, -0.8421606421470642, 0.0010339319705963135, 0.0030769407749176025, 0.02500683069229126, -0.2019029529265912, 0.19533270325021382, 0.9573148019623798,0.06803436684890601,0.4048004150390625,0.3668975830078125,-0.815826416015625
20220209-1406,2022-02-09 14:06:32Z,u01, 87,40,movements,el-ex, lt, d,16407.243122666667, 0.45989828049236253, -0.37312116739663675, 0.22838476857450224, -0.1710231751203537, 0.5803530812263489, -0.01864095777273178, 0.4133169949054718, 0.36452361941337585, -0.8344408869743347, 0.0033701062202453613, -0.004919707775115967, 0.030531644821166992, -0.2049423011374148, 0.2019361569200014, 0.9553684414723134,0.06701919677923235,0.4180450439453125,0.356964111328125,-0.8005218505859375
20220209-1406,2022-02-09 14:06:32Z,u01, 88,40,movements,el-ex, lt, d,16407.26806966667, 0.47557484623204216, -0.37605925467396495, 0.22965355789453012, -0.07248255610466003, 0.6318075656890869, -0.0029231137596070766, 0.4258546531200409, 0.3672579824924469, -0.8269035220146179, -0.0058716535568237305, 0.003698498010635376, 0.020415544509887695, -0.20698023287967038, 0.2090632044500837, 0.9534895134029097,0.06564759965852213,0.4220123291015625,0.374237060546875,-0.801544189453125
20220209-1406,2022-02-09 14:06:32Z,u01, 89,40,movements,el-ex, lt, d,16407.293015666666, 0.49242991441725087, -0.37785167375138756, 0.2311996229693169, -0.1315423846244812, 0.673019289970398, 0.04949888214468956, 0.43941909074783325, 0.3689245283603668, -0.8190271854400635, -0.0006067752838134766, -0.0001348257064819336, 0.03434401750564575, -0.20853726409454534, 0.21679163702817422, 0.9515070235382487,0.06440470424528855,0.4641265869140625,0.3631134033203125,-0.7822723388671875
20220209-1406,2022-02-09 14:06:32Z,u01, 90,40,movements,el-ex, lt, d,16407.317962666668, 0.5101851467445739, -0.3809895014288596, 0.2348589144544937, -0.18069897592067719, 0.6278542876243591, 0.061736173927783966, 0.4533235430717468, 0.3718391954898834, -0.8100823163986206, 0.04949939250946045, 0.009981513023376465, -0.00945192575454712, -0.21098442499721654, 0.22459832054776036, 0.9491901981005353,0.0638684509932326,0.4976043701171875,0.392059326171875,-0.8210601806640625
20220209-1406,2022-02-09 14:06:32Z,u01, 91,40,movements,el-ex, lt, d,16407.34290866667, 0.5269569815939975, -0.3827978393173881, 0.2375712571388837, -0.04036353528499603, 0.6501675844192505, 0.027191579341888428, 0.46650680899620056, 0.3735172748565674, -0.8017832040786743, -0.002807408571243286, 0.038592129945755005, -0.019872009754180908, -0.21267354350576112, 0.23211715097239374, 0.9470511808472031,0.06313232824948747,0.4479217529296875,0.4094390869140625,-0.8057861328125
20220209-1406,2022-02-09 14:06:32Z,u01, 92,40,movements,el-ex, lt, d,16407.367854625, 0.544216189327864, -0.3833437925347073, 0.2384015603663944, -0.06463911384344101, 0.6778222322463989, 0.010197548195719719, 0.4801690876483917, 0.3740236461162567, -0.7934380173683167, 0.014169901609420776, 0.012801915407180786, 0.0247156023979187, -0.21356481339648448, 0.2401479985467253, 0.9449461046304536,0.06160956016020533,0.5088348388671875,0.384429931640625,-0.7635955810546875
20220209-1406,2022-02-09 14:06:32Z,u01, 93,40,movements,el-ex, lt, d,16407.392801625, 0.5614847050190006, -0.38554928571986247, 0.24049493287044268, -0.13600797951221466, 0.6418866515159607, 0.029691621661186218, 0.49335792660713196, 0.3760681450366974, -0.7843281626701355, 0.04527738690376282, 0.0050048828125, 0.0036733150482177734, -0.2153740984511517, 0.24789091008723774, 0.9426094413128638,0.0604281133337527,0.5340118408203125,0.389068603515625,-0.79248046875
20220209-1406,2022-02-09 14:06:32Z,u01, 94,40,movements,el-ex, lt, d,16407.417747625, 0.578394948395855, -0.38743856601395893, 0.24252843890382442, -0.061332132667303085, 0.6626055240631104, 0.015091639943420887, 0.5061606168746948, 0.3778180778026581, -0.7752773761749268, -0.0016592741012573242, 0.023243963718414307, -0.018591642379760742, -0.21701310916423724, 0.25547335380416325, 0.9402791893462398,0.05927769619974557,0.50103759765625,0.399566650390625,-0.7947998046875
20220209-1406,2022-02-09 14:06:32Z,u01, 95,40,movements,el-ex, lt, d,16407.442694625002, 0.5954822961589117, -0.38795794565525765, 0.2427860522469338, 0.02604970708489418, 0.6824949383735657, -0.011559811420738697, 0.5192233920097351, 0.37829890847206116, -0.7663530707359314, 0.00023162364959716797, 0.020947366952896118, -0.03535890579223633, -0.21778563004929166, 0.2634252933798026, 0.9380163232137589,0.05746229286697005,0.5411376953125,0.4039306640625,-0.806671142578125
20220209-1406,2022-02-09 14:06:32Z,u01, 96,40,movements,el-ex, lt, d,16407.467640625, 0.6118437688108085, -0.3863270459871522, 0.24105687695907474, 0.13544051349163055, 0.6599834561347961, -0.01882251724600792, 0.5320456624031067, 0.3767887055873871, -0.758259654045105, 0.038419485092163086, 0.01945158839225769, -0.052165091037750244, -0.21726210264701587, 0.271417295148397, 0.9359972823893224,0.055126858133890344,0.5698089599609375,0.39111328125,-0.81109619140625
20220209-1406,2022-02-09 14:06:32Z,u01, 97,40,movements,el-ex, lt, d,16407.492586625, 0.6270086030673004, -0.3846467091462669, 0.23817735773148097, 0.0970422625541687, 0.6387341022491455, -0.052848927676677704, 0.5438536405563354, 0.37523168325424194, -0.7506160140037537, 0.011932551860809326, 0.005993902683258057, -0.03351777791976929, -0.2164996784027259, 0.2789621332783806, 0.9341102005393177,0.052403944162851296,0.556243896484375,0.3733062744140625,-0.783843994140625
20220209-1406,2022-02-09 14:06:32Z,u01, 98,40,movements,el-ex, lt, d,16407.517533625, 0.6420419131748328, -0.38406711537362237, 0.23579354412846054, 0.058932021260261536, 0.6245586276054382, -0.046176113188266754, 0.5552061200141907, 0.3746943771839142, -0.7425296306610107, 0.0161135196685791, -0.005446910858154297, -0.030907809734344482, -0.21628044871076918, 0.2862829706832639, 0.9320884291931119,0.04975956113684321,0.576934814453125,0.3674468994140625,-0.7732391357421875
20220209-1406,2022-02-09 14:06:32Z,u01, 99,40,movements,el-ex, lt, d,16407.542479625, 0.656990995666658, -0.38350858926571224, 0.23451656803550008, 0.05232448875904083, 0.6136232614517212, -0.006405197083950043, 0.566371500492096, 0.3741764724254608, -0.7343127727508545, 0.015568196773529053, -0.015716969966888428, -0.04011648893356323, -0.2162033800562576, 0.2934275361896032, 0.9299928056494743,0.047641564135615544,0.578521728515625,0.3634796142578125,-0.772430419921875
20220209-1406,2022-02-09 14:06:32Z,u01, 100,40,movements,el-ex, lt, d,16407.567426625003, 0.6720894428348894, -0.38244710836531737, 0.2334633478456805, 0.05665605515241623, 0.6095162034034729, 0.004584204405546188, 0.5776405334472656, 0.3731918931007385, -0.7259884476661682, 0.00753408670425415, 0.0002059340476989746, -0.018304646015167236, -0.21591395954659662, 0.30064420360306976, 0.9278499748324056,0.045701237523186444,0.592010498046875,0.3722686767578125,-0.7353363037109375
20220209-1406,2022-02-09 14:06:32Z,u01, 101,40,movements,el-ex, lt, d,16407.592372625, 0.6869481088716077, -0.38313804677948976, 0.23362864818883308, -0.13147877156734467, 0.5653274059295654, -0.029235411435365677, 0.5881999135017395, 0.3738328218460083, -0.7171261310577393, 0.025203406810760498, -0.005958676338195801, 0.004266083240509033, -0.21658754505323644, 0.30745208031751925, 0.9255389800655179,0.04405174238528453,0.6297760009765625,0.3687286376953125,-0.6979522705078125
20220209-1406,2022-02-09 14:06:32Z,u01, 102,40,movements,el-ex, lt, d,16407.617319625002, 0.7017749896686103, -0.3871107247382485, 0.23643256927996373, -0.18154016137123108, 0.5412558913230896, -0.008229661732912064, 0.5978041291236877, 0.377514511346817, -0.7071866989135742, 0.04288196563720703, 0.002917647361755371, 0.008303701877593994, -0.21915121736969026, 0.3136548938708841, 0.9228985272285328,0.04303162001053115,0.63720703125,0.384552001953125,-0.7028350830078125
20220209-1406,2022-02-09 14:06:32Z,u01, 103,40,movements,el-ex, lt, d,16407.642265625, 0.7162493254386849, -0.3896012819701839, 0.23801266214814615, -0.04266440495848656, 0.5657716989517212, -0.03312935307621956, 0.6073580384254456, 0.3798196017742157, -0.6977487802505493, 0.006396293640136719, 0.014849036931991577, -0.008992552757263184, -0.2208361698828179, 0.3199328195643467, 0.9203987587366717,0.041719799691956105,0.6009521484375,0.3938446044921875,-0.7020721435546875
20220209-1406,2022-02-09 14:06:32Z,u01, 104,40,movements,el-ex, lt, d,16407.667211625, 0.7306544714215911, -0.3920596650783062, 0.23859557225349035, -0.2009640634059906, 0.5582333207130432, -0.056497059762477875, 0.6167207956314087, 0.3820926249027252, -0.6882300972938538, -0.0031801462173461914, -0.005520910024642944, 0.037961602210998535, -0.2223341663470176, 0.3262705406852831, 0.9178887505440361,0.039941470048203226,0.625885009765625,0.3713531494140625,-0.64141845703125
20220209-1406,2022-02-09 14:06:32Z,u01, 105,40,movements,el-ex, lt, d,16407.692158625003, 0.7461867448570599, -0.399022081375766, 0.243976471987001, -0.4358826279640198, 0.4961410164833069, -0.02814997360110283, 0.6255146265029907, 0.38851743936538696, -0.6765985488891602, 0.0691569447517395, -0.029157668352127075, 0.029549717903137207, -0.22665838758565193, 0.3321546431419272, 0.9147402325287923,0.03936368092753853,0.73785400390625,0.3763885498046875,-0.6624603271484375
20220209-1406,2022-02-09 14:06:32Z,u01, 106,40,movements,el-ex, lt, d,16407.717104625, 0.7602717453481889, -0.40833943815382473, 0.2512377315075448, -0.47771742939949036, 0.40101850032806396, -0.11930385231971741, 0.6324601173400879, 0.39708584547042847, -0.6650692224502563, 0.11068874597549438, 0.03739291429519653, -0.001694023609161377, -0.23231922737871596, 0.3368874536106505, 0.9115870800550707,0.03928993007592407,0.7326812744140625,0.441497802734375,-0.6633453369140625
20220209-1406,2022-02-09 14:06:32Z,u01, 107,40,movements,el-ex, lt, d,16407.742051625002, 0.7713767374347312, -0.4216886233497486, 0.25767070659416347, -0.635675311088562, 0.268758624792099, -0.2853345274925232, 0.6360543966293335, 0.4093017280101776, -0.6541460156440735, 0.05777806043624878, 0.021728575229644775, -0.004087567329406738, -0.23956742820002586, 0.3399035777742849, 0.9086277189660333,0.03832480602376756,0.6637420654296875,0.4383544921875,-0.6428680419921875
20220209-1406,2022-02-09 14:06:32Z,u01, 108,40,movements,el-ex, lt, d,16407.766997625, 0.7807258959121872, -0.4405178744534322, 0.2658507519873813, -0.8465652465820312, 0.2571297883987427, -0.3246125280857086, 0.6366046071052551, 0.42640796303749084, -0.6425813436508179, -0.02483391761779785, 0.012526392936706543, 0.07950162887573242, -0.24947782506964736, 0.3412772095085922, 0.9054871325261643,0.03719844820281401,0.6143035888671875,0.4368438720703125,-0.564453125
20220209-1406,2022-02-09 14:06:32Z,u01, 109,40,movements,el-ex, lt, d,16407.791943625, 0.793450753836316, -0.45976090270013803, 0.27662016275098716, -0.7429640889167786, 0.36141344904899597, -0.2293977290391922, 0.6387619972229004, 0.4437338411808014, -0.6285565495491028, 0.03317403793334961, -0.01410740613937378, 0.007630765438079834, -0.260027860702607, 0.34366732815552226, 0.9016306335430455,0.036611450902482356,0.699371337890625,0.432220458984375,-0.635406494140625
20220209-1406,2022-02-09 14:06:32Z,u01, 110,40,movements,el-ex, lt, d,16407.816890625, 0.8068334991728255, -0.47386122801099867, 0.28497455944476124, -0.44717317819595337, 0.41817811131477356, -0.1812843382358551, 0.6425341367721558, 0.4563254415988922, -0.6155623197555542, 0.02273380756378174, -0.005947023630142212, -0.004295408725738525, -0.2678790153134576, 0.3470730294373198, 0.8980551976761504,0.03574872257235781,0.6429290771484375,0.4500885009765625,-0.61151123046875
20220209-1406,2022-02-09 14:06:33Z,u01, 111,40,movements,el-ex, lt, d,16407.841836625, 0.819950828734102, -0.48263054053674287, 0.28796096288196477, -0.23856854438781738, 0.5207242965698242, -0.15292179584503174, 0.6476026177406311, 0.4641108512878418, -0.6043278574943542, -0.05546998977661133, -0.0518031120300293, 0.010181188583374023, -0.27244147343816116, 0.351584587591649, 0.8950089875363608,0.033511542010463274,0.5842132568359375,0.395172119140625,-0.5913543701171875
20220209-1406,2022-02-09 14:06:33Z,u01, 112,40,movements,el-ex, lt, d,16407.866783625002, 0.835412038666099, -0.48766786191361466, 0.2906032476033477, -0.17454370856285095, 0.613875150680542, -0.012712161056697369, 0.6551263332366943, 0.46856689453125, -0.5926672220230103, -0.035161733627319336, -0.0423583984375, -0.02284163236618042, -0.2753414526369506, 0.35756602003606425, 0.8918183077636803,0.03152174325311288,0.6293182373046875,0.4319305419921875,-0.6156005859375
20220209-1406,2022-02-09 14:06:33Z,u01, 113,40,movements,el-ex, lt, d,16407.891729625, 0.8534254028022451, -0.48964944614269884, 0.29495284320873166, -0.1604994684457779, 0.6263601779937744, 0.08899223059415817, 0.6649944186210632, 0.4703165590763092, -0.5801591873168945, 0.013579189777374268, -0.032938629388809204, -0.03353393077850342, -0.2772596862228526, 0.3647567420448491, 0.8883391021110841,0.030547327546771225,0.7132568359375,0.441925048828125,-0.618865966796875
20220209-1406,2022-02-09 14:06:33Z,u01, 114,40,movements,el-ex, lt, d,16407.916675625, 0.8709941218743261, -0.4904237315421585, 0.3008650255769816, -0.19364146888256073, 0.5666368007659912, 0.12509530782699585, 0.6748051643371582, 0.47099971771240234, -0.5681524276733398, 0.0330653190612793, -0.015509545803070068, -0.062416911125183105, -0.2789481230151909, 0.3716338591375797, 0.8849533417882605,0.03055753474083256,0.7000579833984375,0.455230712890625,-0.6260986328125
20220209-1406,2022-02-09 14:06:33Z,u01, 115,40,movements,el-ex, lt, d,16407.941622625, 0.8881043072622536, -0.49070796163871183, 0.3069031835429829, -0.09790479391813278, 0.5720928907394409, 0.12528419494628906, 0.6843231916427612, 0.47125041484832764, -0.5564392805099487, -0.00011909008026123047, -0.016385912895202637, -0.07974529266357422, -0.28046363591515394, 0.3783126964858182, 0.8816308015813864,0.03076863731318097,0.6839141845703125,0.469329833984375,-0.650238037109375
20220209-1406,2022-02-09 14:06:33Z,u01, 116,40,movements,el-ex, lt, d,16407.966568625, 0.9038391143896796, -0.4878925705024451, 0.30945923750714477, 0.07515693455934525, 0.5797602534294128, 0.14902961254119873, 0.6940333247184753, 0.46876537799835205, -0.5464217662811279, -0.003756225109100342, 0.012695223093032837, -0.09756004810333252, -0.279998092141255, 0.3852144811418838, 0.878801157867633,0.030320647487599744,0.690582275390625,0.47802734375,-0.6369781494140625
20220209-1406,2022-02-09 14:06:33Z,u01, 117,40,movements,el-ex, lt, d,16407.991515625003, 0.9185465239238052, -0.48412670585504, 0.31071890192921037, 0.013539377599954605, 0.5238701105117798, 0.14623993635177612, 0.7033923864364624, 0.46543559432029724, -0.5372232794761658, 0.008262276649475098, 0.0012544691562652588, -0.07936900854110718, -0.27887269955308014, 0.39194180267965, 0.8762025721408163,0.029675774335678834,0.7279205322265625,0.46099853515625,-0.600982666015625
20220209-1406,2022-02-09 14:06:33Z,u01, 118,40,movements,el-ex, lt, d,16408.016461625, 0.9326001728974029, -0.48179800007799434, 0.314340924705303, -0.07614946365356445, 0.47908008098602295, 0.16555804014205933, 0.7117412090301514, 0.46337324380874634, -0.5279296040534973, 0.018941223621368408, -0.0009861290454864502, -0.061563074588775635, -0.27881700620130656, 0.397864651369255, 0.8735412993164762,0.029838155329508342,0.728118896484375,0.4617462158203125,-0.5861358642578125
20220209-1406,2022-02-09 14:06:33Z,u01, 119,40,movements,el-ex, lt, d,16408.041408625002, 0.9466432729126258, -0.47944717983442664, 0.318254564927963, -0.017261579632759094, 0.49019065499305725, 0.1575268805027008, 0.719966471195221, 0.4612887501716614, -0.5185179710388184, 0.011722981929779053, 0.00804111361503601, -0.05867612361907959, -0.2788265582835353, 0.4037285647927773, 0.8708333480372406,0.030136800243258682,0.7378692626953125,0.47064208984375,-0.577117919921875
20220209-1406,2022-02-09 14:06:33Z,u01, 120,40,movements,el-ex, lt, d,16408.066354625, 0.9601925037958007, -0.47604274383450035, 0.32103288700639815, -0.009682954289019108, 0.48355230689048767, 0.17415979504585266, 0.7282081842422485, 0.4582655131816864, -0.5096132159233093, 0.0014671087265014648, 0.006624042987823486, -0.0466001033782959, -0.27817473718077834, 0.4096488836752664, 0.868268824185303,0.030264211682331565,0.728973388671875,0.462005615234375,-0.5496978759765625
20220209-1406,2022-02-09 14:06:33Z,u01, 121,40,movements,el-ex, lt, d,16408.091300625, 0.9736361266125668, -0.47335191797148496, 0.32464469933039497, -0.05304737389087677, 0.4581563472747803, 0.1611030399799347, 0.7360101938247681, 0.45587220788002014, -0.5004692077636719, 0.0020726919174194336, 0.009047895669937134, -0.0359380841255188, -0.2780050938769971, 0.4153053732585723, 0.8656199267985168,0.030605549885959066,0.748443603515625,0.4634552001953125,-0.5380401611328125
20220209-1406,2022-02-09 14:06:33Z,u01, 122,40,movements,el-ex, lt, d,16408.116247625, 0.9867528577447945, -0.4703783869481145, 0.327645089917376, 0.03479313477873802, 0.4745968282222748, 0.1547418087720871, 0.743638813495636, 0.4532236158847809, -0.49151769280433655, 0.016386210918426514, 0.015572160482406616, -0.0402357280254364, -0.2776017769043556, 0.42092565547152566, 0.8630237950564149,0.030801481148147986,0.7601165771484375,0.472564697265625,-0.52703857421875
20220209-1406,2022-02-09 14:06:33Z,u01, 123,40,movements,el-ex, lt, d,16408.141193625, 0.9988612728255442, -0.46603934040685957, 0.32755999850579554, 0.1399409919977188, 0.48654887080192566, 0.133357435464859, 0.7511821389198303, 0.44935154914855957, -0.4835374355316162, 0.012047171592712402, 0.02576136589050293, -0.03204166889190674, -0.2759765634961434, 0.42669452264945823, 0.8607318965290012,0.030152856993436394,0.7575225830078125,0.4657440185546875,-0.503692626953125
20220209-1406,2022-02-09 14:06:33Z,u01, 124,40,movements,el-ex, lt, d,16408.166140625002, 1.0106524030030402, -0.4620199010834219, 0.32689851618963983, 0.05325836315751076, 0.4586044251918793, 0.11033479869365692, 0.7583553194999695, 0.4457571506500244, -0.47560256719589233, -0.0008785128593444824, 0.004941731691360474, -0.011717289686203003, -0.27435448440467336, 0.432352085825142, 0.8584557479071336,0.029241481121713625,0.7646331787109375,0.45074462890625,-0.478668212890625
20220209-1406,2022-02-09 14:06:33Z,u01, 125,40,movements,el-ex, lt, d,16408.191086625, 1.022835985583062, -0.4604533408169454, 0.3296401055453528, -0.15451547503471375, 0.4304247498512268, 0.09823046624660492, 0.7646885514259338, 0.44435426592826843, -0.4666912257671356, 0.013967454433441162, 0.0030486881732940674, 0.026414185762405396, -0.27448551557167, 0.4373923824620532, 0.8558601742577332,0.029136497222579827,0.7944183349609375,0.4461822509765625,-0.4293670654296875
20220209-1406,2022-02-09 14:06:33Z,u01, 126,40,movements,el-ex, lt, d,16408.216032625, 1.036626137925337, -0.460401014554653, 0.3351284484348284, -0.11967912316322327, 0.4798528552055359, 0.09751154482364655, 0.7710713744163513, 0.4443073868751526, -0.4561138153076172, 0.04255777597427368, 0.022397905588150024, -0.0014208853244781494, -0.2758739809478361, 0.4425343332595833, 0.8527490030853027,0.029596712773726136,0.8072967529296875,0.47430419921875,-0.4580841064453125
20220209-1406,2022-02-09 14:06:33Z,u01, 127,40,movements,el-ex, lt, d,16408.240979625, 1.04983011674846, -0.45805486471374685, 0.3354494377602196, 0.23379677534103394, 0.544766902923584, 0.05626291036605835, 0.7779284715652466, 0.4422043263912201, -0.44641074538230896, 0.000788569450378418, 0.034571826457977295, -0.021652519702911377, -0.27518299199021756, 0.4484071152708304, 0.8499366352650882,0.028514141317608183,0.76409912109375,0.4723663330078125,-0.4801025390625
20220209-1406,2022-02-09 14:06:33Z,u01, 128,40,movements,el-ex, lt, d,16408.265925625, 1.0598925230754677, -0.4534768170990193, 0.32780100319181404, 0.34386146068573, 0.5009863376617432, 0.011582459323108196, 0.7841387391090393, 0.4380936026573181, -0.43954575061798096, -0.02531909942626953, 0.00863802433013916, -0.03468203544616699, -0.27173426474766516, 0.4542990342423877, 0.8480237423224618,0.02507228257049149,0.763397216796875,0.4356536865234375,-0.4681549072265625
20220209-1406,2022-02-09 14:06:33Z,u01, 129,40,movements,el-ex, lt, d,16408.290872625003, 1.0699586990167562, -0.4511467136277752, 0.32370910963740607, -0.022442124783992767, 0.43990159034729004, 0.024964775890111923, 0.7894168496131897, 0.4359978139400482, -0.43211936950683594, -0.006488323211669922, -0.00974351167678833, 0.0031033754348754883, -0.269975714311151, 0.45940552387116396, 0.8459018247437033,0.02258146103778405,0.808868408203125,0.419891357421875,-0.421630859375
20220209-1406,2022-02-09 14:06:33Z,u01, 130,40,movements,el-ex, lt, d,16408.315818625, 1.0823851021443824, -0.45152009132320536, 0.32780000421690597, -0.1808212697505951, 0.4283229112625122, 0.05444377288222313, 0.7945815324783325, 0.4363338053226471, -0.42220017313957214, 0.02873694896697998, -0.008599340915679932, -0.015772759914398193, -0.27121103301550914, 0.4640522435024692, 0.8429665002213599,0.022529616071094022,0.813995361328125,0.43756103515625,-0.4394073486328125
20220209-1406,2022-02-09 14:06:33Z,u01, 131,40,movements,el-ex, lt, d,16408.340764625, 1.0951214876251674, -0.45168363737606804, 0.330746032052685, 0.0435621552169323, 0.48370280861854553, 0.025053925812244415, 0.7998307347297668, 0.43648093938827515, -0.4120134115219116, -0.010020613670349121, 0.021328479051589966, -0.014652758836746216, -0.2721057244020725, 0.4689901656034523, 0.8399540391388484,0.021995835706366457,0.7843017578125,0.4568328857421875,-0.423919677734375
20220209-1406,2022-02-09 14:06:33Z,u01, 132,40,movements,el-ex, lt, d,16408.365712125, 1.1058858447400595, -0.4496136086505492, 0.32705088956345946, 0.22096620500087738, 0.4845227301120758, 0.008288195356726646, 0.8050252795219421, 0.4346175789833069, -0.40378427505493164, -0.012514352798461914, 0.010328710079193115, -0.005792021751403809, -0.27051757814036725, 0.47426586275730304, 0.8375621178607052,0.0195385922831795,0.7980804443359375,0.4430694580078125,-0.405364990234375
20220209-1406,2022-02-09 14:06:33Z,u01, 133,40,movements,el-ex, lt, d,16408.390658125, 1.1159676635301516, -0.44757654913389155, 0.3233809291690458, 0.038378648459911346, 0.44002336263656616, 0.01807897351682186, 0.8098488450050354, 0.4327820837497711, -0.3960358798503876, 0.010387301445007324, -0.010830730199813843, 0.006921619176864624, -0.2689220701075712, 0.47923165656085315, 0.8352977362137208,0.01719202278817164,0.8311920166015625,0.4202117919921875,-0.36785888671875
20220209-1406,2022-02-09 14:06:33Z,u01, 134,40,movements,el-ex, lt, d,16408.415605125, 1.1274239708540674, -0.4473651236774633, 0.32523308807384216, -0.08289508521556854, 0.4219377636909485, 0.04251713678240776, 0.814415454864502, 0.4325914680957794, -0.3867715001106262, 0.015067636966705322, 0.00048348307609558105, 0.002768903970718384, -0.2693802849587281, 0.4837856109699067, 0.8325348006942694,0.016479886047589182,0.823333740234375,0.44293212890625,-0.3897247314453125
20220209-1406,2022-02-09 14:06:33Z,u01, 135,40,movements,el-ex, lt, d,16408.440551125, 1.1389483534675462, -0.44654099534108194, 0.3256270852799202, 0.10078882426023483, 0.4799796938896179, 0.030578652396798134, 0.8191421031951904, 0.43184828758239746, -0.3775095045566559, -0.009678483009338379, 0.01918637752532959, -0.02866417169570923, -0.26924104960972733, 0.48862511689234733, 0.8297712339431209,0.0153171295584357,0.81195068359375,0.45306396484375,-0.4051513671875
20220209-1406,2022-02-09 14:06:33Z,u01, 136,40,movements,el-ex, lt, d,16408.465497125002, 1.1496207441815738, -0.44458786070630496, 0.32227748669386946, 0.15861274302005768, 0.4719924330711365, 0.009763719514012337, 0.8238925337791443, 0.43008583784103394, -0.36909011006355286, 0.007726907730102539, 0.012480169534683228, -0.018498331308364868, -0.26772262117683393, 0.4937403623891192, 0.8272698048659972,0.013035027828459445,0.83807373046875,0.437591552734375,-0.3875732421875
20220209-1406,2022-02-09 14:06:33Z,u01, 137,40,movements,el-ex, lt, d,16408.490444125, 1.1596032937316298, -0.44328033553059937, 0.31937767904864467, 0.07011177390813828, 0.42489519715309143, 0.00520918145775795, 0.8280506134033203, 0.42890506982803345, -0.36107176542282104, 0.01933109760284424, 0.0073285698890686035, -0.025769025087356567, -0.2665480388772639, 0.49841374409650097, 0.8248745202943244,0.010866789335806981,0.8488616943359375,0.4330902099609375,-0.38385009765625
20220209-1406,2022-02-09 14:06:33Z,u01, 138,40,movements,el-ex, lt, d,16408.515390125, 1.1700641984228795, -0.44276426226596255, 0.31874321951194257, 0.013542840257287025, 0.42171525955200195, 0.00779391173273325, 0.8319860100746155, 0.42843881249427795, -0.3524762690067291, 0.01959174871444702, 0.0037817060947418213, -0.014116019010543823, -0.2662395141495452, 0.5028701434465265, 0.8222838176212932,0.009356374487314328,0.8524169921875,0.43304443359375,-0.3701629638671875
20220209-1406,2022-02-09 14:06:33Z,u01, 139,40,movements,el-ex, lt, d,16408.540337125, 1.1804419553023702, -0.4420364315572357, 0.3175810708260861, 0.09940285235643387, 0.44116640090942383, 0.011475665494799614, 0.8358871936798096, 0.42778104543685913, -0.3439418375492096, 0.01189112663269043, 0.010665059089660645, -0.03510165214538574, -0.2657055243140969, 0.5073752572804187, 0.8197021123652759,0.007704074595863697,0.8404541015625,0.440093994140625,-0.374176025390625
20220209-1406,2022-02-09 14:06:33Z,u01, 140,40,movements,el-ex, lt, d,16408.565283125, 1.1902454147949992, -0.44074414225944697, 0.31476185346574387, 0.1037067249417305, 0.42317715287208557, 0.0011552516371011734, 0.8397314548492432, 0.42661261558532715, -0.33593595027923584, -0.005289256572723389, 0.002312004566192627, -0.03254842758178711, -0.26451575196061233, 0.5119213189711768, 0.8172738664126858,0.005617085508472036,0.837615966796875,0.425872802734375,-0.362762451171875
20220209-1406,2022-02-09 14:06:33Z,u01, 141,40,movements,el-ex, lt, d,16408.590230125003, 1.2001590983808978, -0.44036655877343917, 0.31432900969956207, -0.07252845913171768, 0.37832531332969666, 0.018838440999388695, 0.8431704640388489, 0.42627108097076416, -0.32765302062034607, 0.007461249828338623, -0.00570833683013916, -0.01284673810005188, -0.2642821742858453, 0.5160701661255137, 0.814744455063775,0.004237593381203997,0.8597259521484375,0.42022705078125,-0.3243408203125
20220209-1406,2022-02-09 14:06:33Z,u01, 142,40,movements,el-ex, lt, d,16408.615176125, 1.2111435679966485, -0.4408527065260482, 0.31785780005006276, -0.13402071595191956, 0.38284310698509216, 0.027150964364409447, 0.8465245962142944, 0.4267107844352722, -0.31829869747161865, 0.013827025890350342, 0.002595245838165283, -0.004943370819091797, -0.2654072532728039, 0.5200092637340025, 0.811869902032781,0.004078315478644845,0.8571319580078125,0.4344024658203125,-0.3211517333984375
20220209-1406,2022-02-09 14:06:33Z,u01, 143,40,movements,el-ex, lt, d,16408.640122125, 1.2224207329728338, -0.4410894441006654, 0.32005975052128555, 0.005080712027847767, 0.4340634047985077, 0.00743478536605835, 0.8499652147293091, 0.4269248843193054, -0.30869778990745544, 0.002161860466003418, 0.02165299654006958, -0.017901241779327393, -0.2660944299153736, 0.5242564827982317, 0.8089112116665254,0.0034035315693936863,0.8562164306640625,0.4503021240234375,-0.3286895751953125
20220209-1406,2022-02-09 14:06:33Z,u01, 144,40,movements,el-ex, lt, d,16408.665069125, 1.2322442734587973, -0.44063167489997135, 0.3178848457136128, 0.14286985993385315, 0.40660354495048523, -0.019417602568864822, 0.8531407713890076, 0.42651090025901794, -0.30039820075035095, 0.0017327666282653809, 0.018465876579284668, -0.023667901754379272, -0.2653579799374295, 0.5285698094151723, 0.8063480345019326,0.001353541322056534,0.851043701171875,0.4435272216796875,-0.320556640625
20220209-1406,2022-02-09 14:06:33Z,u01, 145,40,movements,el-ex, lt, d,16408.690015125, 1.2408462130808504, -0.4401643314801542, 0.3143517075741875, 0.07656834274530411, 0.4051039218902588, -0.02631412446498871, 0.8558818101882935, 0.4260881245136261, -0.2931130826473236, -0.01648050546646118, 0.008833169937133789, -0.007759571075439453, -0.26424244281932585, 0.5325592799511852, 0.8040866917722129,-0.0010707494848382348,0.83392333984375,0.42681884765625,-0.282073974609375
20220209-1406,2022-02-09 14:06:33Z,u01, 146,40,movements,el-ex, lt, d,16408.714962125003, 1.2516740261782164, -0.440786802097713, 0.3145294458628079, -0.10371517390012741, 0.46062543988227844, -0.02077055349946022, 0.8587533831596375, 0.4266511797904968, -0.28374552726745605, -0.005756497383117676, 0.00015246868133544922, 0.030236124992370605, -0.2645173531747319, 0.5368033261723018, 0.8011654175240508,-0.0026144419422696186,0.8626251220703125,0.4283294677734375,-0.24237060546875
20220209-1406,2022-02-09 14:06:33Z,u01, 147,40,movements,el-ex, lt, d,16408.739908125, 1.266085122732799, -0.44272349927257454, 0.31944518333746486, -0.25268688797950745, 0.5111108422279358, -0.021571233868598938, 0.8619632720947266, 0.42840197682380676, -0.2710924744606018, 0.03169822692871094, 0.005832672119140625, 0.05627936124801636, -0.26655648629208384, 0.5416653912610782, 0.7972054075717087,-0.00313978730188319,0.908203125,0.43841552734375,-0.2175140380859375
20220209-1406,2022-02-09 14:06:33Z,u01, 148,40,movements,el-ex, lt, d,16408.764854125002, 1.2807384374075972, -0.44503180658764474, 0.3241809777317153, -0.05490865558385849, 0.48846927285194397, -0.07073525339365005, 0.8648931980133057, 0.4304865896701813, -0.2581497132778168, 0.02829533815383911, 0.023248791694641113, -0.015638649463653564, -0.26868842990242037, 0.5465635088807432, 0.7931328461160384,-0.003911119865325496,0.88330078125,0.4644622802734375,-0.27880859375
20220209-1406,2022-02-09 14:06:33Z,u01, 149,40,movements,el-ex, lt, d,16408.789801125, 1.290774794703256, -0.44582210997883887, 0.31965887987605096, 0.3067750930786133, 0.4711360037326813, -0.07101920992136002, 0.8671131730079651, 0.4311997890472412, -0.24936234951019287, -0.0054035186767578125, 0.050260841846466064, -0.03648042678833008, -0.2677155589616695, 0.5510419260226895, 0.7903341753413201,-0.007286440987011533,0.8548431396484375,0.469757080078125,-0.2811126708984375
20220209-1406,2022-02-09 14:06:33Z,u01, 150,40,movements,el-ex, lt, d,16408.814747125, 1.29920123551026, -0.4458535681388927, 0.31238271405505524, 0.13646483421325684, 0.4625326097011566, -0.06900939345359802, 0.8691704869270325, 0.4312281608581543, -0.24204327166080475, -0.01029902696609497, -0.00801035761833191, -0.0165015310049057, -0.2656756236635053, 0.5553330796742789, 0.7879683870413186,-0.011290681441735811,0.862823486328125,0.411956787109375,-0.2576751708984375
20220209-1406,2022-02-09 14:06:34Z,u01, 151,40,movements,el-ex, lt, d,16408.839694125, 1.3109762595156418, -0.4476943844013777, 0.31191773947661416, -0.0940166711807251, 0.4916873574256897, -0.08168597519397736, 0.8711915612220764, 0.43288829922676086, -0.23158788681030273, 0.006081998348236084, -0.019375085830688477, -0.021265387535095215, -0.2661579396403092, 0.5597910386102838, 0.784607493754475,-0.013602635607799146,0.88525390625,0.426177978515625,-0.2598419189453125
20220209-1406,2022-02-09 14:06:34Z,u01, 152,40,movements,el-ex, lt, d,16408.864640125, 1.3235629567096359, -0.45004770713361053, 0.31296743610867883, 0.021438347175717354, 0.46486279368400574, -0.08978451043367386, 0.8730471730232239, 0.4350084960460663, -0.22035448253154755, 0.026565194129943848, -0.008235394954681396, -0.06313847005367279, -0.26723227537924343, 0.5642780094302408, 0.780982675731626,-0.015595979408410815,0.9005889892578125,0.4348297119140625,-0.281036376953125
20220209-1406,2022-02-09 14:06:34Z,u01, 153,40,movements,el-ex, lt, d,16408.889586125002, 1.3325611209398325, -0.451340015154713, 0.3090330588956007, 0.19252027571201324, 0.3977573812007904, -0.06762953847646713, 0.8744476437568665, 0.4361717700958252, -0.21235701441764832, 0.031237781047821045, 0.00253373384475708, -0.05818122625350952, -0.2665174199423318, 0.5681460715521315, 0.7783493010992831,-0.01873150407299154,0.904052734375,0.4321746826171875,-0.2631988525390625
20220209-1406,2022-02-09 14:06:34Z,u01, 154,40,movements,el-ex, lt, d,16408.914533125, 1.340502780759361, -0.45239150476314904, 0.30548543685096674, 0.0022901520133018494, 0.3774348199367523, -0.06916005909442902, 0.8756595849990845, 0.43711772561073303, -0.20530104637145996, 0.020443320274353027, -0.01119905710220337, -0.03092014789581299, -0.26581298136255904, 0.5715705895440174, 0.7760081078950535,-0.02149485536219997,0.894805908203125,0.4264984130859375,-0.2313995361328125
20220209-1406,2022-02-09 14:06:34Z,u01, 155,40,movements,el-ex, lt, d,16408.939479125, 1.3508874989230568, -0.4545809659401456, 0.3071304912042621, -0.12311942875385284, 0.40433168411254883, -0.08975428342819214, 0.8768081665039062, 0.43908587098121643, -0.19598738849163055, 0.01470184326171875, -0.007552027702331543, -0.030864939093589783, -0.26697031042820607, 0.5750940409697994, 0.7729605596822969,-0.02292740861144521,0.8921661376953125,0.4380645751953125,-0.216522216796875
20220209-1406,2022-02-09 14:06:34Z,u01, 156,40,movements,el-ex, lt, d,16408.964426125, 1.361845837257414, -0.4571458518614807, 0.3092325345655563, -0.036915574222803116, 0.39247262477874756, -0.08717606961727142, 0.8777986168861389, 0.4413888454437256, -0.1861332505941391, 0.021127164363861084, 0.0010855495929718018, -0.04714304208755493, -0.268380407440268, 0.5787100611090205, 0.769721819494688,-0.02439246046393498,0.8975982666015625,0.4443206787109375,-0.24053955078125
20220209-1406,2022-02-09 14:06:34Z,u01, 157,40,movements,el-ex, lt, d,16408.989372125, 1.3704154665876072, -0.45952785945591573, 0.3077505162828315, 0.079117551445961, 0.3413127660751343, -0.12339533865451813, 0.8783286213874817, 0.4435249865055084, -0.17839431762695312, 0.01308983564376831, 0.007143378257751465, -0.057735368609428406, -0.268703299334141, 0.581894645988801, 0.7671214474718835,-0.026868151434284393,0.886077880859375,0.451416015625,-0.234283447265625
20220209-1406,2022-02-09 14:06:34Z,u01, 158,40,movements,el-ex, lt, d,16409.014319125003, 1.377423649956867, -0.46208688591599056, 0.3053791283194475, 0.0338965468108654, 0.30351027846336365, -0.11299915611743927, 0.8784404993057251, 0.44581711292266846, -0.17201581597328186, -0.0012279748916625977, -0.0034037232398986816, -0.05288338661193848, -0.26883650852884294, 0.584567378953551, 0.7649416569235554,-0.029533472889512413,0.874969482421875,0.4368438720703125,-0.2215118408203125
20220209-1406,2022-02-09 14:06:34Z,u01, 159,40,movements,el-ex, lt, d,16409.039265125, 1.3847460931680604, -0.4648310292812767, 0.3045872194978169, 0.010024971328675747, 0.3167133033275604, -0.11151963472366333, 0.8784710168838501, 0.4482717514038086, -0.1653520166873932, -0.008536875247955322, -0.010863244533538818, -0.04947638511657715, -0.2694794696251617, 0.5871156663811367, 0.7626737645034746,-0.03169896869819877,0.872955322265625,0.444366455078125,-0.2108306884765625
20220209-1406,2022-02-09 14:06:34Z,u01, 160,40,movements,el-ex, lt, d,16409.064211125, 1.391578711297019, -0.4670166885496468, 0.3023196244734149, 0.11265051364898682, 0.3168186545372009, -0.0923294946551323, 0.8786139488220215, 0.45022445917129517, -0.15917089581489563, 0.00982898473739624, -0.004881411790847778, -0.05046950280666351, -0.26948330727245284, 0.5897400267108802, 0.7605371881690628,-0.03418480406330873,0.891387939453125,0.446014404296875,-0.2072906494140625
20220209-1406,2022-02-09 14:06:34Z,u01, 161,40,movements,el-ex, lt, d,16409.089158125, 1.3971664093930751, -0.46839230036885804, 0.298043851685242, 0.15874850749969482, 0.29045817255973816, -0.07853218913078308, 0.8788788318634033, 0.4514523148536682, -0.15415187180042267, 0.01731562614440918, -0.0111447274684906, -0.049247726798057556, -0.26861225457692905, 0.592259675448752, 0.7587533499046052,-0.0370035581916652,0.8911285400390625,0.441162109375,-0.1994476318359375
20220209-1406,2022-02-09 14:06:34Z,u01, 162,40,movements,el-ex, lt, d,16409.114104125, 1.4019733659675255, -0.4696503198514434, 0.29266633675463377, 0.20202943682670593, 0.2946905195713043, -0.09315074980258942, 0.8790491819381714, 0.4525744915008545, -0.14982984960079193, 0.007379651069641113, -0.0061480700969696045, -0.048931002616882324, -0.2673730106277623, 0.5946400180787563, 0.7571708255264029,-0.040091825436166045,0.88525390625,0.4460906982421875,-0.1978912353515625
20220209-1406,2022-02-09 14:06:34Z,u01, 163,40,movements,el-ex, lt, d,16409.139051125, 1.406221022666593, -0.4711503143932769, 0.2862564719136602, 0.22316063940525055, 0.26834380626678467, -0.10408122092485428, 0.8790069818496704, 0.45391157269477844, -0.14598321914672852, 0.01308286190032959, -0.006066054105758667, -0.05817924439907074, -0.26590952879047997, 0.5969091356734255, 0.7557072804681979,-0.04356779997030469,0.8988494873046875,0.445587158203125,-0.2140655517578125
20220209-1406,2022-02-09 14:06:34Z,u01, 164,40,movements,el-ex, lt, d,16409.163997125, 1.4091353314833708, -0.4729523864765909, 0.28047165022133586, 0.14286483824253082, 0.17822344601154327, -0.10126765817403793, 0.8786198496818542, 0.4555165767669678, -0.1432889997959137, 0.027202844619750977, -0.012691229581832886, -0.07506416738033295, -0.2647568017053636, 0.5985476914332488, 0.7546267029312316,-0.046722640487823514,0.906097412109375,0.44091796875,-0.215911865234375
20220209-1406,2022-02-09 14:06:34Z,u01, 165,40,movements,el-ex, lt, d,16409.188943125002, 1.4113897337282157, -0.47465800666268104, 0.27791798129308254, 0.009387277066707611, 0.1085829809308052, -0.06676414608955383, 0.8781723976135254, 0.45703428983688354, -0.14118434488773346, 0.02235555648803711, -0.026339679956436157, -0.07076013088226318, -0.2645453433379851, 0.5995194622906757, 0.7538145437375564,-0.04853723468737359,0.8924102783203125,0.42474365234375,-0.212615966796875
20220209-1406,2022-02-09 14:06:34Z,u01, 166,40,movements,el-ex, lt, d,16409.213890125, 1.4140513249056654, -0.4764731298075801, 0.2779891419770882, -0.00029574427753686905, 0.10864230245351791, -0.07371639460325241, 0.8777241110801697, 0.4586479961872101, -0.13871677219867706, 0.007133007049560547, -0.02551203966140747, -0.06660537421703339, -0.26514678998482444, 0.6002822611628753, 0.7529361137478623,-0.04945240820594177,0.8873138427734375,0.4367828369140625,-0.208099365234375
20220209-1406,2022-02-09 14:06:34Z,u01, 167,40,movements,el-ex, lt, d,16409.238836125, 1.415636445324026, -0.4778503077829837, 0.2761443907625518, 0.10837993770837784, 0.07916257530450821, -0.06377974152565002, 0.8773180842399597, 0.4598713517189026, -0.13722757995128632, 0.018143951892852783, -0.0148334801197052, -0.08388744294643402, -0.2650421083415636, 0.600948327582923, 0.7523514885118674,-0.05080444664375511,0.9009246826171875,0.4471893310546875,-0.224395751953125
20220209-1406,2022-02-09 14:06:34Z,u01, 168,40,movements,el-ex, lt, d,16409.263783125, 1.4122732875405697, -0.47639666733161135, 0.27140036813757107, 0.1015908420085907, -0.0041702017188072205, -0.03792530670762062, 0.8775107264518738, 0.45858004689216614, -0.14028272032737732, 0.026328325271606445, -0.025581389665603638, -0.0820225328207016, -0.263186638195606, 0.6004926589814057, 0.7533068136301899,-0.05167379672407452,0.9003753662109375,0.427337646484375,-0.2233123779296875
20220209-1406,2022-02-09 14:06:34Z,u01, 169,40,movements,el-ex, lt, d,16409.288729125, 1.4092162422177648, -0.4754835088529074, 0.2694342719311169, -0.022036727517843246, -0.05765612795948982, -0.020550644025206566, 0.8774908185005188, 0.45776838064193726, -0.1430319845676422, 0.016170799732208252, -0.03416904807090759, -0.07971574366092682, -0.26235036869530903, 0.599713509255438, 0.7542157925038678,-0.05171702085387539,0.893218994140625,0.4214324951171875,-0.220977783203125
20220209-1406,2022-02-09 14:06:34Z,u01, 170,40,movements,el-ex, lt, d,16409.313675125002, 1.4052502890605256, -0.4744017171722523, 0.2689428358449231, -0.00134646100923419, -0.0838991180062294, -0.005643000360578299, 0.8774045705795288, 0.4568063020706177, -0.14659245312213898, 0.025244414806365967, -0.022693723440170288, -0.08257919549942017, -0.26191885922677505, 0.5984164838461004, 0.7554415627779175,-0.0510326284237618,0.9031524658203125,0.43450927734375,-0.2303314208984375
20220209-1406,2022-02-09 14:06:34Z,u01, 171,40,movements,el-ex, lt, d,16409.338622125, 1.4005196513669431, -0.4733362851679167, 0.2671877469144387, 0.054968975484371185, -0.11974453926086426, -0.00038172584027051926, 0.8771803975105286, 0.4558582901954651, -0.15082386136054993, 0.023851096630096436, -0.022294998168945312, -0.08429872989654541, -0.2611334548892132, 0.5969902755671003, 0.7568606718132191,-0.050733658239289964,0.9017486572265625,0.426849365234375,-0.2387237548828125
20220209-1406,2022-02-09 14:06:34Z,u01, 172,40,movements,el-ex, lt, d,16409.363568166667, 1.393899796192207, -0.47094973370564674, 0.2647767684579695, 0.021741680800914764, -0.1677386313676834, -0.00724728824570775, 0.8772310614585876, 0.45373284816741943, -0.15681830048561096, 0.022503316402435303, -0.027524352073669434, -0.08327864110469818, -0.25972493629409577, 0.5950914287078329, 0.75888557678439,-0.05001737078887772,0.89776611328125,0.4274749755859375,-0.23785400390625
20220209-1406,2022-02-09 14:06:34Z,u01, 173,40,movements,el-ex, lt, d,16409.38851516667, 1.3878877152927684, -0.4694930052475255, 0.2639578457918782, 0.005881624296307564, -0.21082405745983124, 0.010934378951787949, 0.876921534538269, 0.4524342119693756, -0.16220948100090027, 0.028016209602355957, -0.02738538384437561, -0.07907764613628387, -0.2591058587468331, 0.5930930896558674, 0.7607205322517168,-0.04908159799331949,0.906036376953125,0.4251708984375,-0.2383880615234375
20220209-1406,2022-02-09 14:06:34Z,u01, 174,40,movements,el-ex, lt, d,16409.413461166667, 1.3801662719998937, -0.4671836476297348, 0.2629482078648784, 0.005010969936847687, -0.25065866112709045, 0.04195820912718773, 0.8766664266586304, 0.4503735303878784, -0.1691731959581375, 0.026882708072662354, -0.02787289023399353, -0.06713955104351044, -0.25815912745097513, 0.5905652105240515, 0.7630913335495995,-0.04773015363357713,0.902069091796875,0.4217376708984375,-0.23590087890625
20220209-1406,2022-02-09 14:06:34Z,u01, 175,40,movements,el-ex, lt, d,16409.43840816667, 1.3725124142184668, -0.46463045632808353, 0.2630743338204857, -0.025902405381202698, -0.2802888751029968, 0.06968291103839874, 0.8764705657958984, 0.4480924606323242, -0.17610402405261993, 0.025018692016601562, -0.02989479899406433, -0.055951595306396484, -0.25744880338667736, 0.5879354590146053, 0.7654716314155684,-0.04588339828366536,0.905181884765625,0.4160003662109375,-0.234832763671875
20220209-1406,2022-02-09 14:06:34Z,u01, 176,40,movements,el-ex, lt, d,16409.463354166666, 1.3636574914466497, -0.46128215483510737, 0.2631383733916424, 0.003702559508383274, -0.3294600248336792, 0.0781223326921463, 0.8763400316238403, 0.44509661197662354, -0.1841655969619751, 0.030199766159057617, -0.014356285333633423, -0.05912046134471893, -0.2564456762088758, 0.584938304678982, 0.7682293859545032,-0.043661366205073715,0.902435302734375,0.430999755859375,-0.24310302734375
20220209-1406,2022-02-09 14:06:34Z,u01, 177,40,movements,el-ex, lt, d,16409.488300166668, 1.354384738967095, -0.4578632978648674, 0.2630568255793759, -0.002438523340970278, -0.35516130924224854, 0.09955179691314697, 0.876075804233551, 0.44203248620033264, -0.1926092654466629, 0.0150831937789917, -0.014496535062789917, -0.05003592371940613, -0.25536764660406847, 0.58179268713314, 0.7710954077201486,-0.04142958448016096,0.8875274658203125,0.4196319580078125,-0.2362823486328125
20220209-1406,2022-02-09 14:06:34Z,u01, 178,40,movements,el-ex, lt, d,16409.51324716667, 1.3455889849667633, -0.4552124225833166, 0.2644331097758532, -0.04671144485473633, -0.392737478017807, 0.11740242689847946, 0.8754870295524597, 0.4396531283855438, -0.20056846737861633, 0.025849640369415283, -0.01838839054107666, -0.034371018409729004, -0.25496905483396404, 0.578538284962019, 0.773800751748136,-0.03894523783711398,0.902191162109375,0.422088623046875,-0.2360076904296875
20220209-1406,2022-02-09 14:06:34Z,u01, 179,40,movements,el-ex, lt, d,16409.538193166667, 1.336524035447846, -0.4526136828264777, 0.2663844059888848, -0.04412978142499924, -0.4034454822540283, 0.1307760328054428, 0.8747413754463196, 0.43731752038002014, -0.20876088738441467, 0.02001887559890747, -0.009995043277740479, -0.026697427034378052, -0.25474298810791046, 0.5750874400923555, 0.7765748075380693,-0.036223669684008614,0.8968505859375,0.424072265625,-0.2358245849609375
20220209-1406,2022-02-09 14:06:34Z,u01, 180,40,movements,el-ex, lt, d,16409.56314016667, 1.3274251436529652, -0.45003582930576613, 0.26867052956129195, -0.040190961211919785, -0.4198220670223236, 0.14304041862487793, 0.8738967776298523, 0.4349977970123291, -0.21698223054409027, 0.033970654010772705, 0.00024387240409851074, -0.018231913447380066, -0.2546014654491794, 0.5715653758317286, 0.7793440403245824,-0.03337634532149744,0.908355712890625,0.4351043701171875,-0.2355194091796875
20220209-1406,2022-02-09 14:06:34Z,u01, 181,40,movements,el-ex, lt, d,16409.588086166666, 1.3178229391589555, -0.44679112955824574, 0.2703031898160905, -5.8955512940883636e-05, -0.41393348574638367, 0.14716732501983643, 0.8731349110603333, 0.4320738911628723, -0.2257154881954193, 0.024066567420959473, 0.0028473734855651855, -0.011604338884353638, -0.25401276633626574, 0.5679962769581166, 0.782257220552131,-0.03051713703221967,0.8928680419921875,0.441558837890625,-0.2392578125
20220209-1406,2022-02-09 14:06:34Z,u01, 182,40,movements,el-ex, lt, d,16409.613032166668, 1.308003821464602, -0.4433475267007657, 0.2705201995421231, 0.0648324191570282, -0.40004590153694153, 0.15194955468177795, 0.8723083734512329, 0.4289657473564148, -0.23466306924819946, 0.037023961544036865, 0.01591956615447998, -0.02290523052215576, -0.25293123893659, 0.5645301168851892, 0.7852008151961051,-0.02813146923764967,0.913360595703125,0.4471893310546875,-0.2598724365234375
20220209-1406,2022-02-09 14:06:34Z,u01, 183,40,movements,el-ex, lt, d,16409.637979166666, 1.29757494273632, -0.4392577197910248, 0.2699082134730614, 0.06342248618602753, -0.4223151206970215, 0.1616435945034027, 0.8714956641197205, 0.42526775598526, -0.24421869218349457, 0.04487091302871704, 0.015390872955322266, -0.022428572177886963, -0.2513639275180456, 0.5609873725013225, 0.7883167328626125,-0.02581073099897449,0.9077911376953125,0.4376373291015625,-0.2710113525390625
20220209-1406,2022-02-09 14:06:34Z,u01, 184,40,movements,el-ex, lt, d,16409.662925166667, 1.2869411212408333, -0.43558436099629966, 0.26967397809258936, 0.055243246257305145, -0.42999833822250366, 0.13715849816799164, 0.8703432679176331, 0.42194026708602905, -0.25390782952308655, 0.015063285827636719, 0.022197306156158447, -0.03605484962463379, -0.2500431855290087, 0.5572472502148439, 0.7914567202260391,-0.023457764743907733,0.8841094970703125,0.4456024169921875,-0.2985382080078125
20220209-1406,2022-02-09 14:06:34Z,u01, 185,40,movements,el-ex, lt, d,16409.68787216667, 1.2756363370707156, -0.4320046951849026, 0.26848196695196924, 0.11417970061302185, -0.4544498324394226, 0.12032977491617203, 0.8688569068908691, 0.4186921715736389, -0.2641681134700775, 0.01868593692779541, 0.024713099002838135, -0.04968985915184021, -0.24848135577632927, 0.553328979680783, 0.7947479676301947,-0.02144479928473156,0.8880157470703125,0.440277099609375,-0.3184661865234375
20220209-1406,2022-02-09 14:06:34Z,u01, 186,40,movements,el-ex, lt, d,16409.712818166667, 1.2625823220034778, -0.4284489860825532, 0.2657461463838319, 0.17282837629318237, -0.5051087141036987, 0.11301327496767044, 0.8667474985122681, 0.4154604971408844, -0.27593719959259033, 0.016538023948669434, 0.026495158672332764, -0.05572772026062012, -0.246505936827694, 0.548877242709287, 0.7984824613381696,-0.019857945459744147,0.88153076171875,0.4375762939453125,-0.33245849609375
20220209-1406,2022-02-09 14:06:34Z,u01, 187,40,movements,el-ex, lt, d,16409.737764166668, 1.248475693867806, -0.42483506941929505, 0.2623578029577462, 0.14043481647968292, -0.5277659893035889, 0.10613393038511276, 0.8641873598098755, 0.41217052936553955, -0.28860995173454285, 0.011636614799499512, 0.01591479778289795, -0.0467018187046051, -0.24432779460354, 0.5440578609698502, 0.8024748541232445,-0.0184141216962318,0.8807830810546875,0.4228515625,-0.3357391357421875
20220209-1406,2022-02-09 14:06:34Z,u01, 188,40,movements,el-ex, lt, d,16409.762711166666, 1.2338850798804915, -0.4213153418522717, 0.2597830199474432, 0.1385902762413025, -0.5639208555221558, 0.12233414500951767, 0.8612483143806458, 0.40896111726760864, -0.3016655147075653, 0.024463355541229248, 0.012486636638641357, -0.03881898522377014, -0.2423986425457524, 0.5388971576496842, 0.8065703529971283,-0.016643256000048373,0.8833465576171875,0.4194793701171875,-0.341644287109375
20220209-1406,2022-02-09 14:06:34Z,u01, 189,40,movements,el-ex, lt, d,16409.787657166667, 1.2187773808733204, -0.4174662404216403, 0.2578808159406185, 0.09814534336328506, -0.589060366153717, 0.12764708697795868, 0.8580641150474548, 0.4054456055164337, -0.31518253684043884, 0.02143728733062744, 0.013591349124908447, -0.029467642307281494, -0.24050932060356012, 0.5334454094680118, 0.8107909503639845,-0.014471994010861522,0.8793487548828125,0.42010498046875,-0.3538970947265625
20220209-1406,2022-02-09 14:06:34Z,u01, 190,40,movements,el-ex, lt, d,16409.81260416667, 1.2035564688531655, -0.4140711062572562, 0.2569476465554335, 0.08380395174026489, -0.6174328923225403, 0.11871590465307236, 0.8544473052024841, 0.4023396968841553, -0.3286983370780945, 0.03292757272720337, 0.026859551668167114, -0.038229674100875854, -0.23903393953210061, 0.5277438841151534, 0.8149870794248087,-0.012051836692481194,0.8901519775390625,0.42999267578125,-0.3723602294921875
20220209-1406,2022-02-09 14:06:35Z,u01, 191,40,movements,el-ex, lt, d,16409.837550166667, 1.1871134790822344, -0.4107505912020492, 0.2554059978257016, 0.1251486986875534, -0.647407591342926, 0.09793252497911453, 0.8501614928245544, 0.3992975950241089, -0.3432011902332306, 0.03713715076446533, 0.03689020872116089, -0.038054823875427246, -0.23741129969134545, 0.5215700175928599, 0.8194541254152444,-0.009780336490079478,0.888153076171875,0.438385009765625,-0.386627197265625
20220209-1406,2022-02-09 14:06:35Z,u01, 192,40,movements,el-ex, lt, d,16409.86249716667, 1.169873755527509, -0.4076951339535175, 0.2532469809693778, 0.10613203048706055, -0.6734101176261902, 0.07302697747945786, 0.8452380895614624, 0.39649441838264465, -0.3582804799079895, 0.04378479719161987, 0.031789302825927734, -0.025004982948303223, -0.23571571250452833, 0.5150707372803519, 0.8240630940122292,-0.007770963420070248,0.8883514404296875,0.4258575439453125,-0.3812103271484375
20220209-1406,2022-02-09 14:06:35Z,u01, 193,40,movements,el-ex, lt, d,16409.887443166666, 1.1525388131091447, -0.40542997159162936, 0.25239069619085736, 0.029920514672994614, -0.6965119242668152, 0.0736563503742218, 0.8397190570831299, 0.39441391825675964, -0.3732418417930603, 0.04123181104660034, 0.018916159868240356, -0.007693737745285034, -0.23464971589032385, 0.5082505150735589, 0.8286079187763756,-0.0054586136577365885,0.8748931884765625,0.417510986328125,-0.3822174072265625
20220209-1406,2022-02-09 14:06:35Z,u01, 194,40,movements,el-ex, lt, d,16409.912389166668, 1.1351572549399713, -0.4037537964800834, 0.25280992902637, 0.018400179222226143, -0.7151519656181335, 0.07841801643371582, 0.833703339099884, 0.392873078584671, -0.3880588412284851, 0.03645968437194824, 0.021631956100463867, -0.014895200729370117, -0.23411796067956858, 0.501158020403458, 0.8330796756414608,-0.002788777652242308,0.8687591552734375,0.417144775390625,-0.4037628173828125
20220209-1406,2022-02-09 14:06:35Z,u01, 195,40,movements,el-ex, lt, d,16409.93733616667, 1.1172491422639608, -0.4021858729162618, 0.25381878890750303, -0.03996992111206055, -0.7499845623970032, 0.07133267819881439, 0.8271732330322266, 0.39143073558807373, -0.40319526195526123, 0.03476524353027344, 0.021289050579071045, 0.0014314055442810059, -0.23374697541672462, 0.4937253532029472, 0.8376142507058094,0.0001507545413977629,0.852203369140625,0.409332275390625,-0.4087371826171875
20220209-1406,2022-02-09 14:06:35Z,u01, 196,40,movements,el-ex, lt, d,16409.962282166667, 1.0995874152367682, -0.40133816131951267, 0.2556527666281486, -0.014252771623432636, -0.728152871131897, 0.06633459031581879, 0.8202188014984131, 0.39065051078796387, -0.41789138317108154, 0.017305612564086914, 0.024098604917526245, -0.0047616660594940186, -0.23383678141085312, 0.48618378536414253, 0.8419829555995929,0.003211385590648541,0.8365936279296875,0.41583251953125,-0.4268951416015625
20220209-1406,2022-02-09 14:06:35Z,u01, 197,40,movements,el-ex, lt, d,16409.98722916667, 1.0814848354069628, -0.3994506365161136, 0.2552779614884442, 0.1124236136674881, -0.7131457924842834, 0.06418315321207047, 0.8131694197654724, 0.38891229033470154, -0.4330160319805145, 0.020189404487609863, 0.03105539083480835, -0.002042531967163086, -0.23293422312519596, 0.4787834933903049, 0.8464490990244268,0.005661891411366832,0.829559326171875,0.4180145263671875,-0.4326934814453125
20220209-1406,2022-02-09 14:06:35Z,u01, 198,40,movements,el-ex, lt, d,16410.012175166667, 1.0626487794069592, -0.39632885482644664, 0.252486673269903, 0.18741902709007263, -0.7118422389030457, 0.06796137988567352, 0.8059260845184326, 0.38603436946868896, -0.44884374737739563, 0.020902037620544434, 0.026288747787475586, 0.005606472492218018, -0.2309243069775115, 0.4714361944298886, 0.8510970514195754,0.007470381457402364,0.8289947509765625,0.41351318359375,-0.4482879638671875
20220209-1406,2022-02-09 14:06:35Z,u01, 199,40,movements,el-ex, lt, d,16410.037121166668, 1.0434377453008319, -0.3923058020982619, 0.2489948289239088, 0.1730634868144989, -0.7235953211784363, 0.08202174305915833, 0.7984907031059265, 0.3823200464248657, -0.46502044796943665, 0.03105342388153076, 0.022114187479019165, 0.007104277610778809, -0.22836026048273286, 0.46404888586388426, 0.8558185608751538,0.00921221818307541,0.82269287109375,0.4015960693359375,-0.4564666748046875
20220209-1406,2022-02-09 14:06:35Z,u01, 200,40,movements,el-ex, lt, d,16410.062068166666, 1.025184206978328, -0.389724423090584, 0.24764691409212716, 0.04480951279401779, -0.713008463382721, 0.060456257313489914, 0.7907108664512634, 0.37993350625038147, -0.4800280034542084, 0.029143869876861572, 0.016108393669128418, 0.01854121685028076, -0.22687940833483808, 0.45663085120879343, 0.8601656868491417,0.01135955560945609,0.823699951171875,0.3965911865234375,-0.468902587890625
20220209-1406,2022-02-09 14:06:35Z,u01, 201,40,movements,el-ex, lt, d,16410.087014166667, 1.0070051351202531, -0.38764229073809464, 0.24720104711081672, 0.10588005930185318, -0.7262526154518127, 0.06950594484806061, 0.7825211882591248, 0.3780066967010498, -0.4947439730167389, 0.03121483325958252, 0.028640031814575195, 0.0013816356658935547, -0.22579080810248967, 0.4490507002143732, 0.8643976395358258,0.013739416625665052,0.7970733642578125,0.4083099365234375,-0.501953125
20220209-1406,2022-02-09 14:06:35Z,u01, 202,40,movements,el-ex, lt, d,16410.11196116667, 0.988199628074479, -0.3842352471489943, 0.2441748184264483, 0.23489068448543549, -0.7046151757240295, 0.05379629135131836, 0.7741503715515137, 0.37485024333000183, -0.5100769400596619, -0.0019335150718688965, 0.022458136081695557, -0.006463527679443359, -0.22354214720584784, 0.44157723050683784, 0.8687935277043061,0.015369549350349648,0.772979736328125,0.3934478759765625,-0.519256591796875
20220209-1406,2022-02-09 14:06:35Z,u01, 203,40,movements,el-ex, lt, d,16410.136907166667, 0.9689250734003139, -0.3798668473437933, 0.2397537522512891, 0.21365828812122345, -0.7099493741989136, 0.059091582894325256, 0.7655181884765625, 0.370796799659729, -0.525824785232544, 0.00823986530303955, 0.020194411277770996, 0.0001291036605834961, -0.22056454409170506, 0.43409547773810697, 0.8732902994100814,0.016628762883175968,0.7747802734375,0.3900146484375,-0.5269927978515625
20220209-1406,2022-02-09 14:06:35Z,u01, 204,40,movements,el-ex, lt, d,16410.161853166668, 0.9507154927855161, -0.37657453074303515, 0.23718326289320663, 0.12358225136995316, -0.6648648381233215, 0.054002419114112854, 0.7568060755729675, 0.36773717403411865, -0.5403830409049988, 0.016768693923950195, 0.012496620416641235, 0.01157456636428833, -0.21844546400014464, 0.4267201194525939, 0.8774151849732233,0.018276085866467506,0.7661895751953125,0.3821258544921875,-0.527923583984375
20220209-1406,2022-02-09 14:06:35Z,u01, 205,40,movements,el-ex, lt, d,16410.186800166666, 0.9344159336912176, -0.3725330545570267, 0.23342298739994088, 0.39347878098487854, -0.5450866222381592, 0.04978037625551224, 0.7490871548652649, 0.3639759123325348, -0.5535250902175903, -0.03319048881530762, 0.0392376184463501, 0.022198855876922607, -0.21575920451348934, 0.4203396594261523, 0.8811294203563862,0.019326822858105663,0.68707275390625,0.428131103515625,-0.5507354736328125
20220209-1406,2022-02-09 14:06:35Z,u01, 206,40,movements,el-ex, lt, d,16410.211746166668, 0.9180260223243214, -0.36159706448534357, 0.2193629456077179, 0.948307454586029, -0.3944021165370941, 0.020169155672192574, 0.7430325150489807, 0.3537684679031372, -0.5681114792823792, -0.05635648965835571, 0.07634627819061279, -0.028003573417663574, -0.20794182309082826, 0.4155772680503298, 0.8852994551434528,0.017341052452707756,0.7068939208984375,0.4208831787109375,-0.60498046875
20220209-1406,2022-02-09 14:06:35Z,u01, 207,40,movements,el-ex, lt, d,16410.23669316667, 0.9004861097316856, -0.3465619299986704, 0.19916801531200123, 0.8777711391448975, -0.4935097396373749, 0.018883448094129562, 0.7370391488075256, 0.3396661579608917, -0.5842946171760559, 0.035955846309661865, 0.05401065945625305, -0.013666749000549316, -0.19708124204679586, 0.41111030726803244, 0.889924027626234,0.013510373120404567,0.8065185546875,0.3737640380859375,-0.58416748046875
20220209-1406,2022-02-09 14:06:35Z,u01, 208,40,movements,el-ex, lt, d,16410.261639166667, 0.8817706983499294, -0.3360069973922185, 0.18718824105500234, 0.34325364232063293, -0.679469883441925, 0.07639161497354507, 0.7287021279335022, 0.32972002029418945, -0.6002314686775208, 0.0996517539024353, 0.008719921112060547, 0.015865743160247803, -0.18988301418948264, 0.4047575896580582, 0.894407460493139,0.012285807035003232,0.8215484619140625,0.3337249755859375,-0.5839691162109375
20220209-1406,2022-02-09 14:06:35Z,u01, 209,40,movements,el-ex, lt, d,16410.28658516667, 0.8635447497428953, -0.3334841489459948, 0.18630196230360965, -0.07275189459323883, -0.7374734282493591, 0.043338194489479065, 0.7182720303535461, 0.32733720541000366, -0.6139509081840515, 0.07391858100891113, 0.011301159858703613, 0.02839493751525879, -0.18847081315955846, 0.3968668440558124, 0.8982066998953876,0.01415372317217825,0.7738800048828125,0.350372314453125,-0.5864715576171875
20220209-1406,2022-02-09 14:06:35Z,u01, 210,40,movements,el-ex, lt, d,16410.311532166666, 0.8454305198069081, -0.33359346398165474, 0.18766420194301817, 0.05857715755701065, -0.7524929642677307, 0.034027114510536194, 0.7070067524909973, 0.3274405002593994, -0.6268366575241089, 0.039560019969940186, 0.040647298097610474, 0.012075424194335938, -0.18864820392926218, 0.38857884052092295, 0.9017470823083368,0.0164515352258216,0.7419586181640625,0.3668212890625,-0.620208740234375
20220209-1406,2022-02-09 14:06:35Z,u01, 211,40,movements,el-ex, lt, d,16410.336478166668, 0.8258096760812162, -0.33042912813178804, 0.18462646790058412, 0.25498875975608826, -0.7384546399116516, 0.0033357813954353333, 0.6953306198120117, 0.32444897294044495, -0.6412864327430725, 0.028607487678527832, 0.03295770287513733, 0.020574212074279785, -0.18648725887309675, 0.38023581715801086, 0.9057232320623856,0.01757161366386456,0.7155303955078125,0.3585968017578125,-0.6248016357421875
20220209-1406,2022-02-09 14:06:35Z,u01, 212,40,movements,el-ex, lt, d,16410.361424875002, 0.8059883580755012, -0.324963437318707, 0.1786526448625874, 0.3844005763530731, -0.7064703106880188, 0.008522886782884598, 0.6837529540061951, 0.3192741274833679, -0.6561599969863892, 0.03771317005157471, 0.03868180513381958, 0.008027732372283936, -0.18273950208811723, 0.37219117824056924, 0.9098150968730581,0.017792171566487353,0.72515869140625,0.3589630126953125,-0.653839111328125
20220209-1406,2022-02-09 14:06:35Z,u01, 213,40,movements,el-ex, lt, d,16410.386370875, 0.7856412401953995, -0.31776465050492336, 0.17109343600774687, 0.3893757164478302, -0.7367374300956726, -0.003427316900342703, 0.6718695759773254, 0.31244391202926636, -0.6715430617332458, 0.05425041913986206, 0.03180968761444092, -0.002452850341796875, -0.17792449939915966, 0.3641034855375102, 0.914036032744984,0.017597886407299423,0.7187347412109375,0.33380126953125,-0.686309814453125
20220209-1406,2022-02-09 14:06:35Z,u01, 214,40,movements,el-ex, lt, d,16410.411317875, 0.7645632010974872, -0.3125995000308685, 0.16524795138242904, 0.22066843509674072, -0.8177870512008667, -0.004586657043546438, 0.6586748957633972, 0.3075332045555115, -0.686710000038147, 0.04289370775222778, 0.006370663642883301, -0.017605125904083252, -0.17434653027908525, 0.35531433503519316, 0.9181716819041079,0.01776863264068254,0.6992645263671875,0.3149871826171875,-0.7089385986328125
20220209-1406,2022-02-09 14:06:35Z,u01, 215,40,movements,el-ex, lt, d,16410.436263875003, 0.7428696550389062, -0.310389972809391, 0.163240040593576, 0.0013095755130052567, -0.8649473786354065, 0.010410401970148087, 0.6440820097923279, 0.30542999505996704, -0.701335072517395, 0.049414753913879395, -0.00016263127326965332, -0.01465296745300293, -0.1727882380838922, 0.3456539797989327, 0.9221177948071456,0.019140848187943482,0.6891021728515625,0.299163818359375,-0.7073822021484375
20220209-1406,2022-02-09 14:06:35Z,u01, 216,40,movements,el-ex, lt, d,16410.461209875, 0.721670096914463, -0.3123342943336677, 0.16493107098833518, -0.1355898231267929, -0.8823418617248535, -0.012021936476230621, 0.6286768913269043, 0.30728083848953247, -0.714383602142334, 0.0585484504699707, 0.005585402250289917, 0.0014320015907287598, -0.17375068199857574, 0.3355874161665154, 0.9255990750056093,0.02140442434303294,0.677825927734375,0.318878173828125,-0.7117462158203125
20220209-1406,2022-02-09 14:06:35Z,u01, 217,40,movements,el-ex, lt, d,16410.486156875002, 0.700514705414977, -0.3144687781624502, 0.16594690402617807, -0.033721841871738434, -0.8331730961799622, -0.042213793843984604, 0.6130000948905945, 0.3093113303184509, -0.7270195484161377, 0.03826034069061279, 0.026244759559631348, 0.00797969102859497, -0.17466201346049062, 0.3255509209149726, 0.928959162966089,0.023339531451047613,0.6456298828125,0.3349151611328125,-0.7192535400390625
20220209-1406,2022-02-09 14:06:35Z,u01, 218,40,movements,el-ex, lt, d,16410.511102875, 0.6796038623041284, -0.3161137480133108, 0.16547917736611092, -0.052089300006628036, -0.8464189171791077, -0.052010565996170044, 0.5973440408706665, 0.3108752369880676, -0.7392812967300415, 0.05944013595581055, 0.01630377769470215, 0.02425450086593628, -0.17509423580864242, 0.315755229156004, 0.9322190698064151,0.02466648751375844,0.657928466796875,0.3293914794921875,-0.7182464599609375
20220209-1406,2022-02-09 14:06:35Z,u01, 219,40,movements,el-ex, lt, d,16410.536049875, 0.6583426459297628, -0.3183369104047934, 0.16562800691039373, -0.08721795678138733, -0.8572595119476318, -0.0519375279545784, 0.5810678601264954, 0.31298747658729553, -0.7512649297714233, 0.06476038694381714, 0.017350047826766968, 0.026716649532318115, -0.17587534741893052, 0.30567205133769176, 0.9353846798694416,0.02622867913912491,0.6346893310546875,0.324981689453125,-0.728118896484375
20220209-1406,2022-02-09 14:06:35Z,u01, 220,40,movements,el-ex, lt, d,16410.560995875, 0.6371299419845127, -0.3211144872874704, 0.16547382387654128, -0.05707337334752083, -0.8475419282913208, -0.07791613042354584, 0.5644826292991638, 0.31562426686286926, -0.7627192735671997, 0.05467325448989868, 0.024204224348068237, 0.024560153484344482, -0.17685639185535168, 0.295570950938284, 0.9384024802445085,0.02757489806065097,0.61480712890625,0.3401641845703125,-0.73760986328125
20220209-1406,2022-02-09 14:06:35Z,u01, 221,40,movements,el-ex, lt, d,16410.585941875, 0.6158367833489421, -0.3231840048292841, 0.16407829111432976, -0.005287006963044405, -0.830564558506012, -0.09636731445789337, 0.5477367043495178, 0.31758734583854675, -0.7740302681922913, 0.05069780349731445, 0.020639032125473022, 0.036924004554748535, -0.1773194092646876, 0.2855568272757885, 0.9413842337344801,0.028477801499252914,0.59698486328125,0.3316650390625,-0.7464447021484375
20220209-1406,2022-02-09 14:06:35Z,u01, 222,40,movements,el-ex, lt, d,16410.610888875002, 0.5943109214823095, -0.32391781399664427, 0.16165174094051052, 0.05731688439846039, -0.8397275805473328, -0.08239203691482544, 0.5308188199996948, 0.3182830512523651, -0.7854472398757935, 0.06287020444869995, 0.0007324814796447754, 0.018967747688293457, -0.1770120744978388, 0.27557777310587844, 0.9443915169477957,0.029128507346118576,0.5883636474609375,0.31787109375,-0.7694549560546875
20220209-1406,2022-02-09 14:06:35Z,u01, 223,40,movements,el-ex, lt, d,16410.635834875, 0.5726431006549023, -0.3241943388279222, 0.1593844162220321, 0.00640200637280941, -0.8250115513801575, -0.0781044214963913, 0.5136289000511169, 0.3185451924800873, -0.7966896295547485, 0.04432404041290283, -0.009859859943389893, 0.027951836585998535, -0.17651520334882076, 0.2655137970734816, 0.9473378569194987,0.02993040694865276,0.5390625,0.3063507080078125,-0.7640380859375
20220209-1406,2022-02-09 14:06:35Z,u01, 224,40,movements,el-ex, lt, d,16410.660781875, 0.552465637960456, -0.3256365539816004, 0.1580887176263553, -0.01895228587090969, -0.774278998374939, -0.0637410581111908, 0.4972086250782013, 0.3199119567871094, -0.8064985871315002, 0.041853904724121094, -0.0148581862449646, 0.03975975513458252, -0.1767184030118046, 0.25597134040115205, 0.9498920969154652,0.030891889710915277,0.53778076171875,0.308135986328125,-0.7632598876953125
20220209-1406,2022-02-09 14:06:35Z,u01, 225,40,movements,el-ex, lt, d,16410.685727875, 0.5331019469996594, -0.32648325965962616, 0.15636750019853699, 0.045994892716407776, -0.7330868244171143, -0.06791822612285614, 0.4813617765903473, 0.3207140564918518, -0.8157409429550171, 0.041801124811172485, -0.010594367980957031, 0.060812413692474365, -0.17659895072052967, 0.24686499430102404, 0.9522959955847446,0.03166690572933767,0.512359619140625,0.30792236328125,-0.7538604736328125
20220209-1406,2022-02-09 14:06:35Z,u01, 226,40,movements,el-ex, lt, d,16410.710673875, 0.5143383559948377, -0.3252258361941623, 0.15400781664788185, 0.10761601477861404, -0.7172565460205078, -0.030672386288642883, 0.4661697447299957, 0.31952279806137085, -0.8249793648719788, 0.030442863702774048, -0.017230868339538574, 0.059079766273498535, -0.17541704541439201, 0.23819986067940058, 0.9546949631841644,0.03236095066895592,0.490753173828125,0.2973480224609375,-0.7585906982421875
20220209-1406,2022-02-09 14:06:35Z,u01, 227,40,movements,el-ex, lt, d,16410.735620875002, 0.4965409684295046, -0.324051560819409, 0.1531197445139645, -0.006524345371872187, -0.6778357625007629, 0.008405107073485851, 0.4515926241874695, 0.31840986013412476, -0.8334742188453674, 0.022604793310165405, -0.028401285409927368, 0.10413467884063721, -0.17446190857132132, 0.22983895741506374, 0.9568725286922546,0.033644779165974664,0.466033935546875,0.29071044921875,-0.70330810546875
20220209-1406,2022-02-09 14:06:35Z,u01, 228,40,movements,el-ex, lt, d,16410.760566875, 0.4809586638645485, -0.3250243119750465, 0.15408909452658895, -0.053689561784267426, -0.6128715872764587, 0.023358289152383804, 0.43840739130973816, 0.3193318247795105, -0.8401346206665039, 0.038551896810531616, -0.01984754204750061, 0.13404947519302368, -0.17476557234253576, 0.2222379024002888, 0.9585499392416933,0.03534777890679369,0.4750518798828125,0.30792236328125,-0.7068634033203125
20220209-1406,2022-02-09 14:06:35Z,u01, 229,40,movements,el-ex, lt, d,16410.785513875002, 0.4665291249235045, -0.3256212348823131, 0.15493573069024347, -0.02440550923347473, -0.5656242966651917, 0.018580980598926544, 0.42615360021591187, 0.31989744305610657, -0.846202552318573, 0.03582152724266052, -0.0033691227436065674, 0.14516806602478027, -0.17488197458032712, 0.21520927557465955, 0.9600710529754906,0.03694265739779587,0.4413909912109375,0.310333251953125,-0.6926422119140625
20220209-1406,2022-02-09 14:06:35Z,u01, 230,40,movements,el-ex, lt, d,16410.810459875, 0.4535215072995176, -0.3274232898233209, 0.15604290704979468, -0.13176052272319794, -0.5119103789329529, 0.008006233721971512, 0.41485753655433655, 0.32160428166389465, -0.8511544466018677, 0.0043777525424957275, -0.016565799713134766, 0.19229525327682495, -0.17561473764379526, 0.20876358723544403, 0.961302546417367,0.03840111859471454,0.416046142578125,0.3066864013671875,-0.6551361083984375
20220209-1406,2022-02-09 14:06:36Z,u01, 231,40,movements,el-ex, lt, d,16410.835406875, 0.44231264680609594, -0.3304820115375085, 0.1578367741887103, -0.12036009877920151, -0.43491658568382263, 0.01764148287475109, 0.4048682749271393, 0.3244989812374115, -0.8548579216003418, 0.003792703151702881, -0.007772266864776611, 0.19564777612686157, -0.1770421598440649, 0.20304457140440604, 0.9622043202574957,0.03989879652731196,0.400726318359375,0.31329345703125,-0.6556854248046875
20220209-1406,2022-02-09 14:06:36Z,u01, 232,40,movements,el-ex, lt, d,16410.860352875003, 0.43330071724135805, -0.3334284501332093, 0.15967329317088713, -0.15314574539661407, -0.3430737555027008, 0.024278080090880394, 0.39674484729766846, 0.327284574508667, -0.8576003313064575, -0.010682165622711182, -0.019194304943084717, 0.2336227297782898, -0.17845329130867305, 0.19837906093733323, 0.9628596052581118,0.04125020700006657,0.384918212890625,0.3021240234375,-0.622344970703125
20220209-1406,2022-02-09 14:06:36Z,u01, 233,40,movements,el-ex, lt, d,16410.885298875, 0.42689198060496264, -0.3378145529177263, 0.1625926635494494, -0.23014774918556213, -0.24679496884346008, 0.03542414307594299, 0.3906424939632416, 0.3314259648323059, -0.8588104248046875, -0.015367776155471802, -0.02852371335029602, 0.2451934814453125, -0.18070495377817575, 0.1947832427336526, 0.963108731434991,0.042742590198772745,0.3687744140625,0.3076019287109375,-0.610626220703125
20220209-1406,2022-02-09 14:06:36Z,u01, 234,40,movements,el-ex, lt, d,16410.910245875002, 0.4239253246572485, -0.34284354724606353, 0.16647119028786775, -0.22179235517978668, -0.11431174725294113, 0.059449587017297745, 0.3874024748802185, 0.33616650104522705, -0.8584354519844055, -0.01255500316619873, -0.007415860891342163, 0.2479923963546753, -0.1834228677804159, 0.19271305756757387, 0.9629398421110236,0.04432462227055972,0.38079833984375,0.330657958984375,-0.609954833984375
20220209-1406,2022-02-09 14:06:36Z,u01, 235,40,movements,el-ex, lt, d,16410.935191875, 0.4238072233248799, -0.34773570152365524, 0.17043773522588684, -0.21998721361160278, -0.022105593234300613, 0.0564890131354332, 0.3866201341152191, 0.3407699167728424, -0.8569718599319458, 0.00022074580192565918, -0.005366474390029907, 0.23670214414596558, -0.1861417248800421, 0.1920034725751234, 0.9624951937225182,0.04570521776729661,0.377166748046875,0.3332061767578125,-0.633880615234375
20220209-1406,2022-02-09 14:06:36Z,u01, 236,40,movements,el-ex, lt, d,16410.960138875, 0.42677195795645273, -0.35268656177448654, 0.17393609277104743, -0.13187891244888306, 0.08324459940195084, 0.04336901754140854, 0.3884560167789459, 0.345420241355896, -0.854275643825531, -0.027799248695373535, -0.0035775601863861084, 0.2006959319114685, -0.18891266795694656, 0.1928061087611963, 0.9617536286941477,0.046561382708435434,0.3590545654296875,0.341796875,-0.6583099365234375
20220209-1406,2022-02-09 14:06:36Z,u01, 237,40,movements,el-ex, lt, d,16410.985084875, 0.43175974469313516, -0.3560300913027663, 0.17692258287713578, -0.1636740118265152, 0.16592369973659515, 0.06076152250170708, 0.39222660660743713, 0.3485560417175293, -0.851273775100708, -0.014525771141052246, -0.011687695980072021, 0.1915295124053955, -0.19091502372377384, 0.19471666648944724, 0.9609442894943881,0.04714892113997329,0.3951263427734375,0.3280181884765625,-0.6655731201171875
20220209-1406,2022-02-09 14:06:36Z,u01, 238,40,movements,el-ex, lt, d,16411.010030875, 0.438221451732136, -0.35990472156014985, 0.18056548431475297, -0.15930873155593872, 0.23271891474723816, 0.050477124750614166, 0.39714303612709045, 0.35218507051467896, -0.8474922776222229, -0.0005823075771331787, -0.0030639469623565674, 0.15411770343780518, -0.19327279989950794, 0.19722953005163002, 0.9599259576397331,0.04783790278900146,0.390045166015625,0.3556365966796875,-0.6965484619140625
20220209-1406,2022-02-09 14:06:36Z,u01, 239,40,movements,el-ex, lt, d,16411.034977875002, 0.4460373706718889, -0.361628105926317, 0.18277473874415714, -0.05683225393295288, 0.3176823556423187, 0.036207977682352066, 0.4034923017024994, 0.3537974953651428, -0.8438135385513306, -0.022297203540802002, 0.007118672132492065, 0.14186352491378784, -0.19450032277730395, 0.2006560581300223, 0.958962173395191,0.04794123790018942,0.3825836181640625,0.350555419921875,-0.70343017578125
20220209-1406,2022-02-09 14:06:36Z,u01, 240,40,movements,el-ex, lt, d,16411.059923875, 0.4552580755161545, -0.36291656582123705, 0.18452714235646683, -0.09279251843690872, 0.36401602625846863, 0.03786738961935043, 0.4110548198223114, 0.35500234365463257, -0.839647114276886, -0.013502299785614014, -0.01677599549293518, 0.11982905864715576, -0.19551119781850576, 0.20482141471250562, 0.9578858974005743,0.04773061099717674,0.4010162353515625,0.34100341796875,-0.7210693359375
20220209-1406,2022-02-09 14:06:36Z,u01, 241,40,movements,el-ex, lt, d,16411.084870875, 0.4658795050758805, -0.3644069258586001, 0.1870872605724021, -0.11311527341604233, 0.4006591737270355, 0.06848009675741196, 0.4197115898132324, 0.3563952147960663, -0.8347602486610413, -0.0035585761070251465, -0.014750897884368896, 0.10320818424224854, -0.19673752297428704, 0.20955721717786538, 0.9566094036561624,0.04773565483028616,0.4164581298828125,0.3431396484375,-0.7233734130859375
20220209-1406,2022-02-09 14:06:36Z,u01, 242,40,movements,el-ex, lt, d,16411.109816875, 0.47775985597377246, -0.3674921753291497, 0.1906487776013295, -0.21778686344623566, 0.448574960231781, 0.06212279945611954, 0.42909136414527893, 0.3592761754989624, -0.8287346959114075, -0.008208096027374268, -0.014519065618515015, 0.11910951137542725, -0.19886138492229874, 0.21467835517605027, 0.9550258788916064,0.04788408697406274,0.4240570068359375,0.3500823974609375,-0.709991455078125
20220209-1406,2022-02-09 14:06:36Z,u01, 243,40,movements,el-ex, lt, d,16411.134762875, 0.49135892695721606, -0.37138440689789065, 0.1947245913498671, -0.15384441614151, 0.5283594131469727, 0.06898749619722366, 0.4396582245826721, 0.3629058003425598, -0.8215838670730591, -0.008124351501464844, 0.0008179843425750732, 0.09586060047149658, -0.20147099927507817, 0.22049379609148545, 0.9531474809985956,0.04797718995610334,0.4241180419921875,0.3790740966796875,-0.7302703857421875
20220209-1406,2022-02-09 14:06:36Z,u01, 244,40,movements,el-ex, lt, d,16411.159709875003, 0.5066110064722923, -0.3722385904650244, 0.19684215731528515, -0.0030219550244510174, 0.6155235171318054, 0.040436677634716034, 0.4519869089126587, 0.36370161175727844, -0.8145114779472351, -0.031057894229888916, 0.022422075271606445, 0.09547162055969238, -0.20247448055915784, 0.22748262207639786, 0.951322829348452,0.04733453480381658,0.42376708984375,0.3833465576171875,-0.7213287353515625
20220209-1406,2022-02-09 14:06:36Z,u01, 245,40,movements,el-ex, lt, d,16411.184655875, 0.5222872165085934, -0.37107203952997747, 0.19740665850104439, 0.09497318416833878, 0.6140260100364685, 0.03801187127828598, 0.4649106562137604, 0.3626147210597992, -0.8076934218406677, -0.0253354012966156, 0.011271417140960693, 0.0422515869140625, -0.2023571892416801, 0.23495711094565863, 0.9495867678449091,0.04617162411217404,0.4459686279296875,0.3830413818359375,-0.7883148193359375
20220209-1406,2022-02-09 14:06:36Z,u01, 246,40,movements,el-ex, lt, d,16411.209602875002, 0.5375481252571853, -0.36709256333039386, 0.19601938128953825, 0.19608595967292786, 0.6418914198875427, 0.03154997527599335, 0.47791725397109985, 0.3589032292366028, -0.801737904548645, -0.016720324754714966, 0.04136538505554199, 0.02773582935333252, -0.20066835980908615, 0.24261752935362, 0.9480965652652039,0.04452015641992049,0.4695281982421875,0.394500732421875,-0.7652435302734375
20220209-1406,2022-02-09 14:06:36Z,u01, 247,40,movements,el-ex, lt, d,16411.234548875, 0.5530290361677208, -0.36498267423452563, 0.194676594639201, -0.01840590499341488, 0.6393005847930908, -0.0343354307115078, 0.49066779017448425, 0.3569331169128418, -0.7948861122131348, 0.0057922303676605225, 0.02369740605354309, 0.05422455072402954, -0.19985099851464103, 0.25023294242220245, 0.9463751085785405,0.04263010021182964,0.5168914794921875,0.3801422119140625,-0.7275848388671875
20220209-1406,2022-02-09 14:06:36Z,u01, 248,40,movements,el-ex, lt, d,16411.259495875, 0.5685001574026463, -0.36659654306417516, 0.1943200268913947, -0.04636490345001221, 0.6134432554244995, -0.06298238784074783, 0.5025955438613892, 0.35844022035598755, -0.7867136001586914, 0.03446805477142334, 0.026508569717407227, 0.05662637948989868, -0.20088293788369455, 0.2574669788136244, 0.9442996928302352,0.04067936292420954,0.533294677734375,0.3836669921875,-0.7294464111328125
20220209-1406,2022-02-09 14:06:36Z,u01, 249,40,movements,el-ex, lt, d,16411.284441875003, 0.5842449640480336, -0.36881865818345305, 0.19385070864895018, -0.10225553065538406, 0.6504546999931335, -0.06441424041986465, 0.5144788026809692, 0.3605137765407562, -0.7780368328094482, 0.015459001064300537, 0.008871018886566162, 0.04149514436721802, -0.20217026883827266, 0.26478058111252223, 0.9420895791757423,0.03854365808490076,0.5321197509765625,0.36328125,-0.7399139404296875
20220209-1406,2022-02-09 14:06:36Z,u01, 250,40,movements,el-ex, lt, d,16411.309387875, 0.601064816062412, -0.3720653834526187, 0.19453676436672057, -0.09377981722354889, 0.6725944876670837, -0.0316590890288353, 0.5268272161483765, 0.36354026198387146, -0.7683043479919434, 0.01083153486251831, 0.0029453635215759277, 0.014199793338775635, -0.20408906355095646, 0.2723884485498892, 0.9395785266512862,0.03666662555435063,0.5399627685546875,0.3707275390625,-0.7568206787109375
