SessionID,LoggingTime,UID,RecNo,Hertz,Activity,MoveType,Wrist,Side,TimeStamp,DMRoll,DMPitch,DMYaw,DMRotX,DMRotY,DMRotZ,DMGrvX,DMGrvY,DMGrvZ,DMUAccelX,DMUAccelY,DMUAccelZ,DMQuatX,DMQuatY,DMQuatW,DMQuatZ,AccelroX,AceelroY,AceelroZ
20220112-1351,2022-01-12 13:51:21Z,u01, 1,40,movements,el-ex, rt, d,94056.08149491667, -1.7659907232172065, 0.30496383734794585, 2.890389573768227, -0.17546270787715912, -0.4912619888782501, -0.4899800419807434, -0.9357442855834961, -0.30025869607925415, 0.18500767648220062, 0.04905587434768677, 0.014263153076171875, -0.04363475739955902, -0.7697427098229436, -2.7755575615628914e-17, -0.19503834043879653,-0.6078292532671618,-0.89984130859375,-0.3192291259765625,0.179901123046875
20220112-1351,2022-01-12 13:51:21Z,u01, 2,40,movements,el-ex, rt, d,94056.10643691667, -1.7767524296302568, 0.3164353963945891, 2.8883274273783615, -0.09494522958993912, -0.3830963373184204, -0.40266165137290955, -0.9302660226821899, -0.3111809194087982, 0.1943497359752655, -0.060456693172454834, -0.12442699074745178, 0.06538569927215576, -0.7727688404141362, -0.0017857180530154865, -0.19994957846644856,-0.6023665093321582,-0.99072265625,-0.43560791015625,0.259735107421875
20220112-1351,2022-01-12 13:51:21Z,u01, 3,40,movements,el-ex, rt, d,94056.13137791667, -1.786532071862694, 0.3259940658794021, 2.8878762728854217, -0.07569706439971924, -0.2659965455532074, -0.3405851721763611, -0.9253731369972229, -0.32025066018104553, 0.2027919739484787, -0.21050655841827393, 0.09081944823265076, 0.00025704503059387207, -0.7754886982954953, -0.0036420323663280407, -0.20367655486315425,-0.5975952357475017,-0.6040496826171875,-0.2756195068359375,0.0782470703125
20220112-1351,2022-01-12 13:51:21Z,u01, 4,40,movements,el-ex, rt, d,94056.15631991667, -1.7966427832868892, 0.33636831730004385, 2.8903836551621267, 0.03786854073405266, -0.3530360460281372, -0.5038946866989136, -0.9199878573417664, -0.3300611078739166, 0.21138224005699158, 0.011494755744934082, 0.09544193744659424, -0.06216621398925781, -0.7782315954498691, -0.0068339985584253, -0.20685196144439377,-0.5928923335908769,-0.9084930419921875,-0.234619140625,0.1492156982421875
20220112-1351,2022-01-12 13:51:21Z,u01, 5,40,movements,el-ex, rt, d,94056.18126091667, -1.8072194411297704, 0.3477635715419893, 2.8935379598968125, -0.026443468406796455, -0.40498900413513184, -0.4518437087535858, -0.9139845371246338, -0.3407961130142212, 0.22020529210567474, 0.012480020523071289, 0.03325521945953369, -0.006353169679641724, -0.78101991098697, -0.010514010719599454, -0.2102588046203137,-0.5879528949799334,-0.9131317138671875,-0.3152313232421875,0.2362518310546875
20220112-1351,2022-01-12 13:51:21Z,u01, 6,40,movements,el-ex, rt, d,94056.20620291667, -1.8162185835040787, 0.3574649870025469, 2.894915484030501, -0.023512858897447586, -0.2620636820793152, -0.31299862265586853, -0.908716082572937, -0.34990060329437256, 0.2276073694229126, -0.06856375932693481, -0.009520232677459717, 0.08132234215736389, -0.7833466160287478, -0.013105832854864996, -0.2135731434378571,-0.5835949188497197,-0.9772796630859375,-0.3594207763671875,0.308929443359375
20220112-1351,2022-01-12 13:51:21Z,u01, 7,40,movements,el-ex, rt, d,94056.23114391667, -1.8228421832517339, 0.364802018621161, 2.896408681623247, -0.0568372942507267, -0.24776363372802734, -0.3034006357192993, -0.9046778082847595, -0.3567643463611603, 0.23297472298145294, -0.026031911373138428, -0.006776303052902222, 0.008312791585922241, -0.7850191213463525, -0.015242714228942314, -0.21596313765412875,-0.5804072351427463,-0.9145660400390625,-0.35955810546875,0.2379302978515625
20220112-1351,2022-01-12 13:51:21Z,u01, 8,40,movements,el-ex, rt, d,94056.25608591667, -1.8288478986781134, 0.372545270552076, 2.895457639775459, -0.10571228712797165, -0.26043441891670227, -0.28696149587631226, -0.9005643725395203, -0.3639872968196869, 0.23769164085388184, 0.03195774555206299, -0.0587117075920105, 0.044596195220947266, -0.7864925027535343, -0.01659407136009071, -0.2192220023498418,-0.5771447044772365,-0.8686065673828125,-0.422698974609375,0.28228759765625
20220112-1351,2022-01-12 13:51:21Z,u01, 9,40,movements,el-ex, rt, d,94056.28102691667, -1.8360244443591076, 0.37934135293859556, 2.89782323878327, 0.11026311665773392, -0.1873892992734909, -0.25207361578941345, -0.8964276313781738, -0.3703087270259857, 0.24349439144134521, -0.014873206615447998, -0.08841630816459656, 0.046956926584243774, -0.788284994098405, -0.018813922123813054, -0.2211859533914764,-0.5738726539459328,-0.93115234375,-0.4468994140625,0.2890167236328125
20220112-1351,2022-01-12 13:51:21Z,u01, 10,40,movements,el-ex, rt, d,94056.30596891667, -1.839527187490731, 0.38322395758009686, 2.901106599239025, 0.03740701824426651, -0.026547953486442566, -0.14127519726753235, -0.8941761255264282, -0.373912513256073, 0.24624918401241302, -0.04214894771575928, 0.001231849193572998, -0.005053311586380005, -0.7891055742595489, -0.020904159146155787, -0.22175697433989777,-0.5724502629203578,-0.9363250732421875,-0.3726806640625,0.2411956787109375
20220112-1351,2022-01-12 13:51:21Z,u01, 11,40,movements,el-ex, rt, d,94056.33090991667, -1.840196648358829, 0.38657225771127435, 2.900449567483054, -0.1527315080165863, -0.03950556367635727, -0.10579682141542435, -0.8927991986274719, -0.3770158290863037, 0.24651314318180084, 0.0007704496383666992, -0.012815654277801514, 0.030189961194992065, -0.7891707475626294, -0.02158942992106125, -0.2232265624522905,-0.571763397584769,-0.8943023681640625,-0.4060211181640625,0.3040008544921875
20220112-1351,2022-01-12 13:51:21Z,u01, 12,40,movements,el-ex, rt, d,94056.35585191667, -1.8385670099719096, 0.39024150503988225, 2.8957095458742965, -0.21962957084178925, 0.0006399918347597122, -0.09598467499017715, -0.891859769821167, -0.3804117739200592, 0.24469023942947388, 0.008848845958709717, -0.051137298345565796, 0.048629745841026306, -0.7886084458896759, -0.021019879512954545, -0.2259591552369598,-0.5714870469752522,-0.8830108642578125,-0.431549072265625,0.2933197021484375
20220112-1351,2022-01-12 13:51:21Z,u01, 13,40,movements,el-ex, rt, d,94056.38079291668, -1.8374271810504992, 0.39313198416023054, 2.8931143666690686, -0.04048518091440201, 0.0293069239705801, -0.06890898197889328, -0.8910737633705139, -0.3830833435058594, 0.2433827966451645, 0.010168492794036865, -0.021900206804275513, 0.022349238395690918, -0.7881942029488657, -0.021007097541613146, -0.22778600427900625,-0.5713338075215948,-0.8853302001953125,-0.3958282470703125,0.2737579345703125
20220112-1351,2022-01-12 13:51:21Z,u01, 14,40,movements,el-ex, rt, d,94056.40573391668, -1.8360461286221648, 0.39354631716591093, 2.893510636063086, -0.02071780525147915, 0.09440696239471436, -0.02014024369418621, -0.8912557363510132, -0.38346603512763977, 0.24211029708385468, -0.020533323287963867, -0.021502256393432617, 0.009049654006958008, -0.7877786371267411, -0.021446915284075496, -0.22781524859037128,-0.5718786595849672,-0.9117889404296875,-0.40496826171875,0.25115966796875
20220112-1351,2022-01-12 13:51:21Z,u01, 15,40,movements,el-ex, rt, d,94056.43067591668, -1.8330299183927736, 0.39531613696974033, 2.8900559521710902, -0.22827686369419098, 0.10507719218730927, 0.01328615564852953, -0.8913248777389526, -0.38509997725486755, 0.23924463987350464, -0.028291761875152588, 0.013014405965805054, 0.04862794280052185, -0.7868814883332856, -0.020972363938198443, -0.2294420605180989,-0.5724805951357326,-0.918487548828125,-0.3769683837890625,0.2927703857421875
20220112-1351,2022-01-12 13:51:21Z,u01, 16,40,movements,el-ex, rt, d,94056.45561691668, -1.8291022923705305, 0.3965717396382481, 2.885759017508331, -0.09747835993766785, 0.16105949878692627, 0.051263898611068726, -0.8917897343635559, -0.38625842332839966, 0.23561838269233704, -0.05124938488006592, -0.025866299867630005, 0.04486897587776184, -0.7857508445903895, -0.02011964321533856, -0.23110727009089405,-0.5733938125055376,-0.9430389404296875,-0.4121246337890625,0.280487060546875
20220112-1351,2022-01-12 13:51:21Z,u01, 17,40,movements,el-ex, rt, d,94056.48055891668, -1.8242678312159502, 0.3953034111393877, 2.884338573019968, -0.018501654267311096, 0.20588529109954834, 0.07183708250522614, -0.8933918476104736, -0.3850882053375244, 0.23142695426940918, -0.04236871004104614, -0.019910573959350586, 0.006030559539794922, -0.7844260069435948, -0.019731083357546822, -0.23098863043291318,-0.5752659415528937,-0.931060791015625,-0.392333984375,0.229827880859375
20220112-1351,2022-01-12 13:51:21Z,u01, 18,40,movements,el-ex, rt, d,94056.50549991668, -1.819489483502219, 0.3937814472291355, 2.8833886036086755, -0.030779659748077393, 0.21959997713565826, 0.056799739599227905, -0.8950543999671936, -0.3836831748485565, 0.22729936242103577, -0.041148602962493896, 0.04058930277824402, -0.008945837616920471, -0.7831166653734517, -0.01944148040757014, -0.2306425966689868,-0.5771952677191273,-0.9362030029296875,-0.3430938720703125,0.218353271484375
20220112-1351,2022-01-12 13:51:21Z,u01, 19,40,movements,el-ex, rt, d,94056.53044191668, -1.8141658120671327, 0.39204768080152413, 2.8830353112378693, 0.0010113930329680443, 0.24397875368595123, 0.053757812827825546, -0.8968960642814636, -0.382081538438797, 0.22269116342067719, -0.029587090015411377, 0.023118525743484497, -0.03346659243106842, -0.7816456820483909, -0.019380696804033634, -0.23004166435290818,-0.5794267415227519,-0.918548583984375,-0.3653564453125,0.1856231689453125
20220112-1351,2022-01-12 13:51:21Z,u01, 20,40,movements,el-ex, rt, d,94056.55538291667, -1.809902562281487, 0.3910818281363123, 2.883738911906897, 0.060799360275268555, 0.13691727817058563, 0.01894310861825943, -0.8981955051422119, -0.3811887800693512, 0.21895277500152588, 0.008348643779754639, 0.03238809108734131, -0.05376088619232178, -0.7804373953755344, -0.019845871622232378, -0.2294334254323403,-0.5812779509387495,-0.8898468017578125,-0.3488006591796875,0.165191650390625
20220112-1351,2022-01-12 13:51:21Z,u01, 21,40,movements,el-ex, rt, d,94056.58032491668, -1.807340063013531, 0.39035640838653624, 2.884031038544011, -0.052119869738817215, 0.09287897497415543, 0.019828610122203827, -0.8990220427513123, -0.3805180490016937, 0.21671514213085175, -0.017741262912750244, 0.05713850259780884, -0.0026187896728515625, -0.7797156157635458, -0.02002827932903864, -0.2290511387159248,-0.5823899447650788,-0.9234161376953125,-0.3349456787109375,0.2230072021484375
20220112-1351,2022-01-12 13:51:21Z,u01, 22,40,movements,el-ex, rt, d,94056.60526591667, -1.803860298123612, 0.38851383641482495, 2.8816208785019284, -0.0662764310836792, 0.10117179155349731, 0.0584990419447422, -0.9004516005516052, -0.37881341576576233, 0.2137470841407776, -0.0273897647857666, -0.003877103328704834, -0.05301067233085632, -0.7787912320604929, -0.018914451189012346, -0.2290304415619419,-0.5836709154226837,-0.9278411865234375,-0.3826904296875,0.160736083984375
20220112-1351,2022-01-12 13:51:21Z,u01, 23,40,movements,el-ex, rt, d,94056.63020691667, -1.799460536053891, 0.38667734536688686, 2.8805625321940194, 0.056513138115406036, 0.12682895362377167, 0.08849821984767914, -0.9020592570304871, -0.3771131634712219, 0.209940567612648, -0.003961920738220215, -0.028618067502975464, -0.08548963069915771, -0.7775798983513738, -0.018433261306990037, -0.22861265471311715,-0.585462300281479,-0.894683837890625,-0.4104156494140625,0.11236572265625
20220112-1351,2022-01-12 13:51:21Z,u01, 24,40,movements,el-ex, rt, d,94056.65514891667, -1.7960531642706077, 0.3826309169261197, 2.880661242921591, -0.04000092297792435, 0.09674422442913055, 0.09278131276369095, -0.9042491316795349, -0.3733624219894409, 0.20720478892326355, 0.03440672159194946, -0.041585057973861694, -0.056524068117141724, -0.7767192657730299, -0.017594708286589517, -0.22704332395895066,-0.5872383416173874,-0.869842529296875,-0.414947509765625,0.1506805419921875
20220112-1351,2022-01-12 13:51:21Z,u01, 25,40,movements,el-ex, rt, d,94056.68009004167, -1.7925177924963074, 0.38074010266361635, 2.8758498861231474, -0.2014407217502594, 0.06703978776931763, 0.10439050197601318, -0.9056633710861206, -0.3716076612472534, 0.20416158437728882, -0.025122880935668945, -0.005208194255828857, 0.021363645792007446, -0.7757830904376266, -0.015536743441490294, -0.22772349946437026,-0.5882698212720947,-0.9544525146484375,-0.3679046630859375,0.227020263671875
20220112-1351,2022-01-12 13:51:21Z,u01, 26,40,movements,el-ex, rt, d,94056.70503204167, -1.7864578477885622, 0.37938094386947674, 2.872699176318748, 0.08148206770420074, 0.19862709939479828, 0.11357361078262329, -0.9073764085769653, -0.37034550309181213, 0.1987774819135666, -0.08853429555892944, -0.015427231788635254, -0.004136085510253906, -0.7740647154270552, -0.014579345713094216, -0.2281010745785677,-0.5904077046421452,-0.99591064453125,-0.385772705078125,0.19464111328125
20220112-1351,2022-01-12 13:51:21Z,u01, 27,40,movements,el-ex, rt, d,94056.72997304167, -1.7812424411541292, 0.377425473146285, 2.8748866249885454, 0.0765911415219307, 0.17560693621635437, 0.08815473318099976, -0.9091073274612427, -0.3685283660888672, 0.19419339299201965, -0.03515249490737915, -0.0443287193775177, -0.049905985593795776, -0.7725668210960411, -0.015401425972837071, -0.22668961633045148,-0.5928872512025697,-0.9342041015625,-0.4016571044921875,0.141815185546875
20220112-1351,2022-01-12 13:51:21Z,u01, 28,40,movements,el-ex, rt, d,94056.75491504167, -1.777748779985505, 0.3757183544222135, 2.874608924437405, -0.04614194110035896, 0.10068483650684357, 0.11999636143445969, -0.9103946089744568, -0.36694085597991943, 0.19114509224891663, -0.012212991714477539, -0.03372448682785034, -0.02897438406944275, -0.7715847493192595, -0.015149977865185585, -0.22611310848514393,-0.594390853008007,-0.922607421875,-0.400665283203125,0.16217041015625
20220112-1351,2022-01-12 13:51:21Z,u01, 29,40,movements,el-ex, rt, d,94056.77985604167, -1.7750409349133436, 0.3730288537338551, 2.8717179364121668, -0.09653517603874207, 0.08752888441085815, 0.10528485476970673, -0.9118717908859253, -0.36443763971328735, 0.1888786405324936, -0.08248245716094971, -0.015612989664077759, 0.0015207380056381226, -0.770880900393739, -0.013489257448671452, -0.22595876614219318,-0.5954018580573602,-1.0140533447265625,-0.36968994140625,0.194610595703125
20220112-1351,2022-01-12 13:51:22Z,u01, 30,40,movements,el-ex, rt, d,94056.80479804167, -1.7714810458571844, 0.37056832878636553, 2.8708171959244186, 0.09033921360969543, 0.1136040985584259, 0.11325988918542862, -0.9134144186973572, -0.36214524507522583, 0.18580949306488037, -0.1124798059463501, 0.00646287202835083, -0.007678166031837463, -0.7698972993307025, -0.012762958706287672, -0.22529485204795335,-0.596940179224944,-1.0258941650390625,-0.355682373046875,0.178131103515625
20220112-1351,2022-01-12 13:51:22Z,u01, 31,40,movements,el-ex, rt, d,94056.82973904167, -1.7700088171176211, 0.36708620340308834, 2.873401098516748, 0.11169376224279404, 0.043079596012830734, 0.13288044929504395, -0.9149174690246582, -0.35889729857444763, 0.1847129613161087, -0.0969996452331543, -0.003941446542739868, -0.014088883996009827, -0.7695402754824188, -0.012815697531737502, -0.22322758583120783,-0.5981747243218847,-1.0148162841796875,-0.3725128173828125,0.171234130859375
20220112-1351,2022-01-12 13:51:22Z,u01, 32,40,movements,el-ex, rt, d,94056.85468104167, -1.770518130674481, 0.3642082761258047, 2.874450892457535, 0.023641135543584824, -0.006957206875085831, 0.07850243896245956, -0.915831983089447, -0.3562096059322357, 0.18538311123847961, -0.1756751537322998, -0.07448503375053406, -0.02888868749141693, -0.7697671970850912, -0.012248041692103459, -0.22185344716328464,-0.5984059572028297,-1.0915069580078125,-0.430694580078125,0.156494140625
20220112-1351,2022-01-12 13:51:22Z,u01, 33,40,movements,el-ex, rt, d,94056.87962204167, -1.7697001536346257, 0.36329961053360726, 2.8740882559369982, 0.02180618606507778, 0.027990058064460754, -0.008272198960185051, -0.9163002967834473, -0.3553604185581207, 0.18469780683517456, -0.20184868574142456, -0.06044164299964905, 0.01011146605014801, -0.7695499002494804, -0.011910259340250265, -0.22162123393289018,-0.5987782327259471,-1.1124267578125,-0.4244842529296875,0.19012451171875
20220112-1351,2022-01-12 13:51:22Z,u01, 34,40,movements,el-ex, rt, d,94056.90456304167, -1.770149154365882, 0.36463603552020607, 2.875790080595019, 0.03884618729352951, -0.018664997071027756, -0.10022788494825363, -0.9157509207725525, -0.3566092848777771, 0.1850149780511856, -0.21758049726486206, -0.06727990508079529, 0.05286979675292969, -0.7696363017685514, -0.012940320063489288, -0.22160845630325404,-0.5986504737632722,-1.133331298828125,-0.42388916015625,0.237884521484375
20220112-1351,2022-01-12 13:51:22Z,u01, 35,40,movements,el-ex, rt, d,94056.92950504167, -1.7709536242262196, 0.36646655336681844, 2.877625689525294, 0.06092242896556854, 0.028070218861103058, -0.08722133934497833, -0.9149603247642517, -0.35831886529922485, 0.1856214851140976, -0.2691369652748108, -0.08003562688827515, 0.04239092767238617, -0.7698121953283875, -0.014139418321148428, -0.22174127284528816,-0.598347824542088,-1.19183349609375,-0.4293365478515625,0.2207794189453125
20220112-1351,2022-01-12 13:51:22Z,u01, 36,40,movements,el-ex, rt, d,94056.95444604167, -1.7706805581779361, 0.36775974885558216, 2.880434440865528, 0.11139858514070511, 0.06475752592086792, -0.06854073703289032, -0.9145559668540955, -0.3595258891582489, 0.18527944386005402, -0.2292885184288025, -0.07931682467460632, -0.025779172778129578, -0.769671642570278, -0.015661585665708105, -0.2213768899391272,-0.598625524654086,-1.1438446044921875,-0.4388427734375,0.1595001220703125
20220112-1351,2022-01-12 13:51:22Z,u01, 37,40,movements,el-ex, rt, d,94056.97938804167, -1.7706690020085611, 0.3697236737067688, 2.8824934468263774, -0.005801905412226915, -0.012989933602511883, -0.1079581081867218, -0.9138645529747009, -0.36135777831077576, 0.1851283758878708, -0.1809079647064209, -0.10363858938217163, -0.007607325911521912, -0.769592418507996, -0.017079172489823782, -0.22148669432002324,-0.5986481522147983,-1.0906982421875,-0.4671783447265625,0.176788330078125
20220112-1351,2022-01-12 13:51:22Z,u01, 38,40,movements,el-ex, rt, d,94057.00432904167, -1.7705956754719328, 0.37276880640956, 2.8821154291045814, -0.04153820127248764, 0.015150891616940498, -0.10752827674150467, -0.9127951264381409, -0.36419546604156494, 0.1848420649766922, -0.18301469087600708, -0.05986148118972778, 0.016879409551620483, -0.7694805306334983, -0.017909354251736467, -0.2227248381365567,-0.5983080937273073,-1.0958099365234375,-0.4240570068359375,0.20172119140625
20220112-1351,2022-01-12 13:51:22Z,u01, 39,40,movements,el-ex, rt, d,94057.02927104167, -1.7702460009831729, 0.374750090345421, 2.8822878607967564, 0.01384856179356575, 0.00035636499524116516, -0.06338358670473099, -0.9121507406234741, -0.3660399615764618, 0.18437956273555756, -0.1420484185218811, -0.07733467221260071, 0.020363077521324158, -0.7693127925676488, -0.018644213139238877, -0.22340211842474111,-0.5982488899911279,-1.04754638671875,-0.4469757080078125,0.20001220703125
20220112-1351,2022-01-12 13:51:22Z,u01, 40,40,movements,el-ex, rt, d,94057.05421204168, -1.7704891275392751, 0.3761415271764815, 2.8829927352494176, 0.029222391545772552, 0.009731626138091087, -0.0552954338490963, -0.9116060137748718, -0.3673344850540161, 0.18450015783309937, -0.12194818258285522, -0.030843645334243774, -0.01778233051300049, -0.7693350485312884, -0.01933026502790411, -0.2237076217091411,-0.5980844522697896,-1.0335540771484375,-0.3981781005859375,0.166717529296875
20220112-1351,2022-01-12 13:51:22Z,u01, 41,40,movements,el-ex, rt, d,94057.07915404167, -1.7708236924685823, 0.37697107327853135, 2.8845557738524406, 0.04413243383169174, 0.017344137653708458, -0.02440929226577282, -0.9112450480461121, -0.3681059181690216, 0.1847444772720337, -0.10315924882888794, -0.044354408979415894, -0.024328604340553284, -0.7693932069868941, -0.020157659285374677, -0.22354999642627443,-0.5980411071924961,-1.0106048583984375,-0.423583984375,0.170745849609375
20220112-1351,2022-01-12 13:51:22Z,u01, 42,40,movements,el-ex, rt, d,94057.10409504168, -1.7702383138867381, 0.3777150994748453, 2.8844525521724167, -0.047344986349344254, 0.022887839004397392, -0.029702257364988327, -0.9110845327377319, -0.3687976002693176, 0.18415674567222595, -0.07234460115432739, -0.04232001304626465, -0.019498929381370544, -0.7691952980785645, -0.020419765383406077, -0.2238497952006679,-0.5981747672858407,-0.983428955078125,-0.4111175537109375,0.1646575927734375
20220112-1351,2022-01-12 13:51:22Z,u01, 43,40,movements,el-ex, rt, d,94057.12903704167, -1.7693778552878674, 0.3786807706004001, 2.8834316175201224, -0.07794004678726196, 0.029987294226884842, -0.03507012501358986, -0.9108928442001343, -0.3696950376033783, 0.18330234289169312, -0.06803470849990845, -0.023890167474746704, 0.017564520239830017, -0.7689172677274954, -0.020430544608127293, -0.22450293684278125,-0.5982869324104613,-0.98748779296875,-0.400665283203125,0.2254791259765625
20220112-1351,2022-01-12 13:51:22Z,u01, 44,40,movements,el-ex, rt, d,94057.15397804168, -1.7671510708700942, 0.37950431682972297, 2.8818360241085, -0.01574764773249626, 0.11902475357055664, -0.005086925812065601, -0.9109999537467957, -0.3704600930213928, 0.1812140792608261, -0.10593730211257935, -0.04755443334579468, 0.0457606166601181, -0.7682406803876396, -0.02032972509985094, -0.22526157243373235,-0.5988741355398636,-1.016937255859375,-0.4180145263671875,0.2269744873046875
20220112-1351,2022-01-12 13:51:22Z,u01, 45,40,movements,el-ex, rt, d,94057.17891904167, -1.7631099431917294, 0.3789287548787627, 2.8839261274407146, 0.18386435508728027, 0.22806356847286224, 0.02379525452852249, -0.9119341373443604, -0.36992543935775757, 0.17757190763950348, -0.06649011373519897, -0.0034419596195220947, 0.0008646398782730103, -0.7670253403261542, -0.021402774507525382, -0.2243805726996001,-0.6007225612560205,-0.9589385986328125,-0.3713836669921875,0.1544036865234375
20220112-1351,2022-01-12 13:51:22Z,u01, 46,40,movements,el-ex, rt, d,94057.20386104168, -1.75931094287579, 0.37750547936736384, 2.888900757858817, 0.1510687619447708, 0.20053400099277496, 0.028067298233509064, -0.9131183624267578, -0.3686027526855469, 0.17420467734336853, 0.019670426845550537, -0.04332354664802551, -0.051920413970947266, -0.7658723338344547, -0.023278910836229405, -0.22231749538018708,-0.6028870248744891,-0.8934478759765625,-0.41192626953125,0.122283935546875
20220112-1351,2022-01-12 13:51:22Z,u01, 47,40,movements,el-ex, rt, d,94057.22880204167, -1.7547138238419355, 0.376934017911476, 2.889755361779845, -0.10146355628967285, 0.21141314506530762, 0.005868652835488319, -0.9141165018081665, -0.36807146668434143, 0.17004363238811493, 0.005165517330169678, -0.059312015771865845, 0.008789673447608948, -0.7644926502096444, -0.0239333711314786, -0.2217951784343478,-0.6048018408140882,-0.913909912109375,-0.4148712158203125,0.1895751953125
20220112-1351,2022-01-12 13:51:22Z,u01, 48,40,movements,el-ex, rt, d,94057.25374404168, -1.7480855298955513, 0.377048204646631, 2.8853817163073234, -0.15770988166332245, 0.1970963329076767, 0.037955813109874725, -0.9151820540428162, -0.3681776225566864, 0.16397348046302795, -0.03722584247589111, 0.0253126323223114, 0.09840153157711029, -0.7625326289741331, -0.02303757647407083, -0.22308401689717028,-0.6068334871083871,-0.9524078369140625,-0.342864990234375,0.2623748779296875
20220112-1351,2022-01-12 13:51:22Z,u01, 49,40,movements,el-ex, rt, d,94057.27868504167, -1.7410932594839648, 0.3756391985440407, 2.8847528355414256, 0.15786637365818024, 0.3356407582759857, 0.06094302237033844, -0.9168165326118469, -0.3668672442436218, 0.15765808522701263, -0.06468987464904785, 0.08537307381629944, 0.016719579696655273, -0.7604566817618026, -0.023123056507636325, -0.22267977274578749,-0.6095775265060008,-0.9746246337890625,-0.2681427001953125,0.139007568359375
20220112-1351,2022-01-12 13:51:22Z,u01, 50,40,movements,el-ex, rt, d,94057.30362704168, -1.7337267996265873, 0.3739066827533059, 2.8885955634594374, 0.0906696692109108, 0.31007394194602966, 0.08837631344795227, -0.9185789823532104, -0.3652549684047699, 0.15100307762622833, 0.03320282697677612, 0.08630898594856262, -0.04886041581630707, -0.7582114597977507, -0.024837847141888872, -0.22078566575388717,-0.6129864296541816,-0.8853759765625,-0.2789459228515625,0.102142333984375
20220112-1351,2022-01-12 13:51:22Z,u01, 51,40,movements,el-ex, rt, d,94057.32856804167, -1.7262612078474178, 0.3711811185244981, 2.8868934618475732, -0.1755063235759735, 0.27663880586624146, 0.14716912806034088, -0.9206608533859253, -0.3627163767814636, 0.14429481327533722, 0.004934966564178467, -0.009323477745056152, 0.023063912987709045, -0.7560192581431893, -0.024130607463888232, -0.22022686126428304,-0.6159163640121473,-0.9315032958984375,-0.378448486328125,0.173828125
20220112-1351,2022-01-12 13:51:22Z,u01, 52,40,movements,el-ex, rt, d,94057.35350904167, -1.7164408148106838, 0.3681042777501874, 2.881188982281081, -0.10379278659820557, 0.358707457780838, 0.15503117442131042, -0.923133134841919, -0.3598473370075226, 0.13540805876255035, -0.05225449800491333, 0.07040336728096008, 0.04608023166656494, -0.7531384785382508, -0.02205581129090911, -0.2207615436039147,-0.6193225688006575,-0.9753875732421875,-0.2894439697265625,0.181488037109375
20220112-1351,2022-01-12 13:51:22Z,u01, 53,40,movements,el-ex, rt, d,94057.37845104167, -1.7066528330625474, 0.3637075462410123, 2.8808923590639655, 0.12042583525180817, 0.4000568091869354, 0.2036600261926651, -0.925973117351532, -0.3557416796684265, 0.1265791803598404, -0.01027590036392212, 0.11709415912628174, 0.020912542939186096, -0.7502160060453653, -0.021576312076618698, -0.2191625983603385,-0.6234407990490886,-0.92230224609375,-0.256256103515625,0.140960693359375
20220112-1351,2022-01-12 13:51:22Z,u01, 54,40,movements,el-ex, rt, d,94057.40339204167, -1.6977857673889034, 0.35776964957430835, 2.882475936702669, 0.028743887320160866, 0.3524523377418518, 0.25144144892692566, -0.9291378259658813, -0.35018599033355713, 0.11862906813621521, 0.024138987064361572, -0.01735249161720276, 0.024239182472229004, -0.7475735373076547, -0.02117402363724978, -0.21644009890364188,-0.6275661321970323,-0.904998779296875,-0.3675384521484375,0.1428680419921875
20220112-1351,2022-01-12 13:51:22Z,u01, 55,40,movements,el-ex, rt, d,94057.42833404167, -1.6881987299276118, 0.35115302831604317, 2.8806377189699823, -0.0768023133277893, 0.35035231709480286, 0.29234349727630615, -0.9325131177902222, -0.34398069977760315, 0.10998506844043732, -0.005780398845672607, 0.01941099762916565, 0.010635845363140106, -0.7447275190219619, -0.019325000325124242, -0.21455340801223238,-0.6316441840041636,-0.940399169921875,-0.3009033203125,0.1175689697265625
20220112-1351,2022-01-12 13:51:22Z,u01, 56,40,movements,el-ex, rt, d,94057.45327504167, -1.6792833486242191, 0.34284177483560674, 2.8800986644343394, 0.07250461727380753, 0.3592837452888489, 0.3477739989757538, -0.9362665414810181, -0.33616483211517334, 0.10197313874959946, 0.000734865665435791, 0.06130823493003845, -0.02439713478088379, -0.7420830262547703, -0.017301775691464655, -0.21167770677975614,-0.6357720840033706,-0.9355316162109375,-0.2748565673828125,0.07757568359375
20220112-1351,2022-01-12 13:51:22Z,u01, 57,40,movements,el-ex, rt, d,94057.47821704167, -1.6708849765561682, 0.33359172809071097, 2.879172018622864, -0.07082980871200562, 0.2822320759296417, 0.3976879417896271, -0.9401436448097229, -0.3274388611316681, 0.09441319108009338, 0.0308876633644104, -0.00019785761833190918, 0.01566397398710251, -0.7395872634428922, -0.014740247625968442, -0.208615594438331,-0.6397444963450234,-0.9102325439453125,-0.3452606201171875,0.123016357421875
20220112-1351,2022-01-12 13:51:22Z,u01, 58,40,movements,el-ex, rt, d,94057.50315804167, -1.663726091723576, 0.3235011224049887, 2.8766116792337826, 0.016848046332597733, 0.2654673159122467, 0.4234621524810791, -0.9440374970436096, -0.3178880214691162, 0.08798259496688843, 0.009253323078155518, -0.017500221729278564, -0.005279652774333954, -0.7374735310449934, -0.011139542992376461, -0.20581014051049812,-0.643157137493507,-0.934783935546875,-0.33538818359375,0.08270263671875
20220112-1351,2022-01-12 13:51:22Z,u01, 59,40,movements,el-ex, rt, d,94057.52810004167, -1.6574558909224186, 0.3122962557565263, 2.878676577025099, 0.20113889873027802, 0.27256351709365845, 0.4453330636024475, -0.9480596780776978, -0.3072446286678314, 0.08236472308635712, 0.02723747491836548, -0.03259915113449097, -0.026364684104919434, -0.7355989138106721, -0.008752152738199515, -0.20114407777885937,-0.6468066646226952,-0.9188690185546875,-0.3426513671875,0.036895751953125
20220112-1351,2022-01-12 13:51:22Z,u01, 60,40,movements,el-ex, rt, d,94057.55304104167, -1.6514737947764984, 0.3007594715286718, 2.880744288214785, 0.042221345007419586, 0.2661382555961609, 0.47757768630981445, -0.9520052075386047, -0.29624566435813904, 0.07697244733572006, 0.02768874168395996, -0.014911562204360962, -0.041571855545043945, -0.7337900491267781, -0.006195679048352498, -0.19636881928591104,-0.6503484979901099,-0.92431640625,-0.3111572265625,0.035400390625
20220112-1351,2022-01-12 13:51:22Z,u01, 61,40,movements,el-ex, rt, d,94057.57798304167, -1.6434037934143446, 0.2888440806064617, 2.8786860867024124, -0.13730520009994507, 0.33436110615730286, 0.46812331676483154, -0.9560484886169434, -0.28484436869621277, 0.06953849643468857, 0.022225618362426758, -0.07967287302017212, -0.008915059268474579, -0.7312759582704005, -0.002173104380358587, -0.1928142420325831,-0.6542581293333678,-0.932861328125,-0.3756256103515625,0.0652618408203125
20220112-1351,2022-01-12 13:51:22Z,u01, 62,40,movements,el-ex, rt, d,94057.60292404167, -1.6343887709927853, 0.27680201650974473, 2.874595473633423, 0.01904405653476715, 0.3215065598487854, 0.49961015582084656, -0.9599900841712952, -0.2732807993888855, 0.06113054230809212, 0.024809300899505615, -0.1235392689704895, 0.038845181465148926, -0.7283945726408887, 0.0025723890892349194, -0.18991604950091184,-0.6583059734235525,-0.9351806640625,-0.396820068359375,0.0999755859375
20220112-1351,2022-01-12 13:51:22Z,u01, 63,40,movements,el-ex, rt, d,94057.62786504168, -1.6247194520716701, 0.2655436578865141, 2.878233344804096, 0.31788188219070435, 0.531408429145813, 0.3923952579498291, -0.9635476469993591, -0.2624339163303375, 0.05200791731476784, 0.010285139083862305, -0.002870708703994751, -0.01711081713438034, -0.7252490814526251, 0.004210542759418595, -0.1847771363006951,-0.6632146379491244,-0.936431884765625,-0.2370758056640625,0.004669189453125
20220112-1351,2022-01-12 13:51:22Z,u01, 64,40,movements,el-ex, rt, d,94057.65280704167, -1.6142048622567988, 0.25628650700274547, 2.885755031696912, 0.25830337405204773, 0.43630850315093994, 0.35109975934028625, -0.9664269089698792, -0.2534900903701782, 0.041977547109127045, 0.11451327800750732, 0.09583625197410583, -0.06512486934661865, -0.721785892359314, 0.003728081457272936, -0.17905232285622835,-0.668544420130086,-0.8519134521484375,-0.15765380859375,-0.0231475830078125
20220112-1351,2022-01-12 13:51:22Z,u01, 65,40,movements,el-ex, rt, d,94057.67774766668, -1.605004234619444, 0.24605183659865387, 2.8894910111330985, 0.10291671752929688, 0.3891146183013916, 0.46341565251350403, -0.9693143963813782, -0.24357661604881287, 0.0331711582839489, 0.06999170780181885, 0.0028844475746154785, 0.02137935534119606, -0.7187206454223541, 0.005119845420151051, -0.17424633035134598,-0.673091967859992,-0.9186553955078125,-0.2667236328125,0.0649261474609375
20220112-1351,2022-01-12 13:51:22Z,u01, 66,40,movements,el-ex, rt, d,94057.70268966668, -1.5942143251828205, 0.23404659005397918, 2.8914793173884665, 0.07051340490579605, 0.4812507629394531, 0.4899088144302368, -0.9724693298339844, -0.2319156676530838, 0.02277744933962822, 0.035625338554382324, 0.0899173766374588, 0.030399680137634277, -0.7150734061010416, 0.007664755078997054, -0.16943125900835035,-0.678162568134629,-0.9368438720703125,-0.141998291015625,0.0531768798828125
20220112-1351,2022-01-12 13:51:22Z,u01, 67,40,movements,el-ex, rt, d,94057.72763066668, -1.584531728499528, 0.2225847879647913, 2.893686330761185, 0.09713093936443329, 0.34023138880729675, 0.39235571026802063, -0.9752383232116699, -0.22075137495994568, 0.013396132737398148, 0.09909379482269287, 0.16336306929588318, -0.02624380588531494, -0.7117558428849491, 0.010083963888414704, -0.164748361055053,-0.682759184853229,-0.8742218017578125,-0.055450439453125,-0.0189666748046875
20220112-1351,2022-01-12 13:51:22Z,u01, 68,40,movements,el-ex, rt, d,94057.75257266668, -1.5772350421513022, 0.2134410225299407, 2.8946099277714015, -0.09144869446754456, 0.2697764039039612, 0.3657454252243042, -0.9772874712944031, -0.21182408928871155, 0.006292562931776047, 0.07982665300369263, 0.054246604442596436, 0.03733253479003906, -0.7092200479262306, 0.012377602888380607, -0.16131130287905854,-0.6861722177363198,-0.8974609375,-0.1575775146484375,0.0436248779296875
20220112-1351,2022-01-12 13:51:22Z,u01, 69,40,movements,el-ex, rt, d,94057.77751366668, -1.5702850206236452, 0.2035718574848145, 2.8934238793358307, -0.05654611065983772, 0.26033174991607666, 0.41262689232826233, -0.9793506860733032, -0.20216871798038483, -0.0005007481086067855, 0.07157474756240845, -0.04848740994930267, -0.006045043468475342, -0.7067547886418304, 0.01572560620070411, -0.1583638901691081,-0.6893267263258847,-0.9014739990234375,-0.217132568359375,-0.00115966796875
20220112-1351,2022-01-12 13:51:23Z,u01, 70,40,movements,el-ex, rt, d,94057.80245566668, -1.5641101545510905, 0.19245061117183013, 2.8924892818270425, -0.016857851296663284, 0.2319549024105072, 0.49102896451950073, -0.9815165996551514, -0.19126483798027039, -0.006562686990946531, 0.10073345899581909, 0.11005757749080658, -0.008802652359008789, -0.7045126278773218, 0.019509323751634708, -0.15491386873576207,-0.6923027634732142,-0.8807830810546875,-0.081207275390625,-0.0153656005859375
20220112-1351,2022-01-12 13:51:23Z,u01, 71,40,movements,el-ex, rt, d,94057.82739666667, -1.559318597519982, 0.18042745991165668, 2.8914857245988355, -0.2002285122871399, 0.08749166876077652, 0.453639417886734, -0.9837023615837097, -0.1794501096010208, -0.01129116490483284, 0.13773977756500244, 0.003699392080307007, 0.002090335823595524, -0.7027017341131235, 0.023763213748941803, -0.1511828639318051,-0.694830481691575,-0.844573974609375,-0.2020721435546875,0.0076446533203125
20220112-1351,2022-01-12 13:51:23Z,u01, 72,40,movements,el-ex, rt, d,94057.85233766667, -1.5570603894074768, 0.16886068036672547, 2.8845988979069417, -0.38747912645339966, 0.02166678197681904, 0.4585683345794678, -0.9856838583946228, -0.1680593490600586, -0.013540143147110939, 0.0660061240196228, -0.06970308721065521, 0.07440769672393799, -0.7016570050879899, 0.030122674326252555, -0.14963756365677805,-0.695973166970481,-0.919677734375,-0.237762451171875,0.0608673095703125
20220112-1351,2022-01-12 13:51:23Z,u01, 73,40,movements,el-ex, rt, d,94057.87727966667, -1.5533008991049813, 0.15567555064455083, 2.8767206722862744, -0.14988228678703308, 0.19357489049434662, 0.5723069310188293, -0.9877558946609497, -0.15504752099514008, -0.01728297583758831, 0.02655893564224243, -0.011044412851333618, 0.07200121879577637, -0.6999768512656172, 0.03729503921205847, -0.14792464527977855,-0.6976817844251585,-0.9546966552734375,-0.14935302734375,0.0189056396484375
20220112-1351,2022-01-12 13:51:23Z,u01, 74,40,movements,el-ex, rt, d,94057.90222066667, -1.5486615094777165, 0.14134773394798253, 2.8746450062657347, -0.15513430535793304, 0.13492250442504883, 0.5391026139259338, -0.9897845387458801, -0.14087752997875214, -0.02191227860748768, 0.09423089027404785, 0.011772915720939636, -0.00532442145049572, -0.6980064900699476, 0.04278785579731466, -0.14383596519326325,-0.7001909546781244,-0.8955535888671875,-0.1291046142578125,-0.0272369384765625
20220112-1351,2022-01-12 13:51:23Z,u01, 75,40,movements,el-ex, rt, d,94057.92716266667, -1.5440291381367148, 0.12862639867452044, 2.865356031603872, -0.51522296667099, 0.16498206555843353, 0.4914205074310303, -0.9913837909698486, -0.12827201187610626, -0.026542896404862404, 0.03363537788391113, -0.043725043535232544, 0.08411455154418945, -0.6958485128574613, 0.05023344075091578, -0.1428501649435293,-0.7020436844413036,-0.96124267578125,-0.158660888671875,0.0626068115234375
20220112-1351,2022-01-12 13:51:23Z,u01, 76,40,movements,el-ex, rt, d,94057.95210366667, -1.5353900890104033, 0.11771905927759695, 2.857382351778923, -0.0439467579126358, 0.41057729721069336, 0.34320905804634094, -0.9924569129943848, -0.11744736135005951, -0.03515385463833809, 0.07059693336486816, 0.042328327894210815, -0.0072653330862522125, -0.6922822850425837, 0.05628774168557932, -0.14216762476672629,-0.705241440630601,-0.9218597412109375,-0.0751190185546875,-0.04241943359375
20220112-1351,2022-01-12 13:51:23Z,u01, 77,40,movements,el-ex, rt, d,94057.97704566667, -1.5265056265146022, 0.1111944737279752, 2.860245789271543, 0.17954638600349426, 0.29068395495414734, 0.20622192323207855, -0.9928497076034546, -0.11096547544002533, -0.04400278627872467, 0.17998343706130981, 0.05261585861444473, -0.05684232339262962, -0.6890193362288374, 0.05701720187525708, -0.13919169424526,-0.7089620168065454,-0.80902099609375,-0.0893096923828125,-0.0874176025390625
20220112-1351,2022-01-12 13:51:23Z,u01, 78,40,movements,el-ex, rt, d,94058.00198666667, -1.520937592516949, 0.10678699038401068, 2.8630655704028056, 0.008951041847467422, 0.17647980153560638, 0.14943420886993408, -0.9930682182312012, -0.10658414661884308, -0.049554191529750824, 0.12943589687347412, -0.07562105357646942, 0.03072512149810791, -0.6869826903315805, 0.057251083433042776, -0.13685756297618032,-0.7113699823598391,-0.8636322021484375,-0.1822052001953125,-0.018829345703125
20220112-1351,2022-01-12 13:51:23Z,u01, 79,40,movements,el-ex, rt, d,94058.02692866667, -1.516882759694514, 0.10337165759432504, 2.8638340456506723, 0.12210309505462646, 0.1644003689289093, 0.11986926198005676, -0.9932168126106262, -0.10318765789270401, -0.053599804639816284, 0.10285109281539917, 0.06125649809837341, -0.0019114017486572266, -0.6854505962875997, 0.057944606274309696, -0.135546886037545,-0.7130407543292178,-0.888214111328125,-0.0155487060546875,-0.0855560302734375
20220112-1351,2022-01-12 13:51:23Z,u01, 80,40,movements,el-ex, rt, d,94058.05186966667, -1.5150955222532632, 0.10232443714759518, 2.8680848144738404, 0.05257195606827736, -0.038077376782894135, -0.03287075459957123, -0.9932268261909485, -0.1021459698677063, -0.055380817502737045, 0.18080294132232666, 0.1062200665473938, -0.08098673820495605, -0.6849010151534193, 0.05674672074396951, -0.13372822042144888,-0.7140079397766537,-0.8124237060546875,0.0040740966796875,-0.1363677978515625
20220112-1351,2022-01-12 13:51:23Z,u01, 81,40,movements,el-ex, rt, d,94058.07681066667, -1.5182250675074491, 0.10301693479851314, 2.861973032690847, -0.2664088010787964, -0.1707237809896469, -0.06759057939052582, -0.9933242201805115, -0.10283482074737549, -0.052268464118242264, 0.07750695943832397, -0.15511497855186462, 0.13613098859786987, -0.6858630354233616, 0.05880190364879187, -0.1360511409091288,-0.7124775841129358,-0.966644287109375,-0.32318115234375,0.081146240234375
20220112-1351,2022-01-12 13:51:23Z,u01, 82,40,movements,el-ex, rt, d,94058.10175266667, -1.5205128686148475, 0.10400995641680964, 2.8578741743443388, 0.04964634031057358, -0.07259353995323181, 0.0032544946298003197, -0.9933388233184814, -0.10382252931594849, -0.04999065026640892, 0.05228346586227417, 0.07846242189407349, -0.05430293083190918, -0.6865885942866068, 0.06000646750486423, -0.13777771581441578,-0.7113457378488377,-0.9410552978515625,-0.025360107421875,-0.1042938232421875
20220112-1351,2022-01-12 13:51:23Z,u01, 83,40,movements,el-ex, rt, d,94058.12669366667, -1.5235287578122836, 0.10558739238295375, 2.8632870885634936, 0.2409263551235199, -0.16446714103221893, -0.10753713548183441, -0.9933202862739563, -0.10539130866527557, -0.04698683321475983, 0.11780136823654175, 0.14713935554027557, -0.14811182022094727, -0.6878717490846866, 0.057784426656856513, -0.13629837615596108,-0.7105746434459778,-0.870758056640625,-0.002716064453125,-0.1850433349609375
20220112-1351,2022-01-12 13:51:23Z,u01, 84,40,movements,el-ex, rt, d,94058.15163566667, -1.5297381832229942, 0.1091083989565841, 2.863607667298094, -0.24329155683517456, -0.2949385344982147, -0.1466679573059082, -0.9932159781455994, -0.1088920459151268, -0.04080253466963768, 0.041220009326934814, -0.1191810816526413, 0.06295853853225708, -0.6901948331535073, 0.05683154778859216, -0.13720087183137925,-0.7082212590576725,-0.951995849609375,-0.2280731201171875,0.02215576171875
20220112-1351,2022-01-12 13:51:23Z,u01, 85,40,movements,el-ex, rt, d,94058.17657666668, -1.5349089139610614, 0.11235405463479635, 2.858129527009234, -0.0854266956448555, -0.17714345455169678, -0.11485916376113892, -0.9930551052093506, -0.11211781948804855, -0.0356534868478775, -0.031664133071899414, -0.11816781759262085, 0.06763613224029541, -0.6919673043856354, 0.0579181007714715, -0.1400925200410102,-0.7058334472512143,-1.004547119140625,-0.154998779296875,-0.0097503662109375
20220112-1351,2022-01-12 13:51:23Z,u01, 86,40,movements,el-ex, rt, d,94058.20151866667, -1.5396448471502757, 0.11502765007834863, 2.860903852615696, 0.21659362316131592, -0.17307919263839722, -0.10404513031244278, -0.9929096698760986, -0.11477415263652802, -0.03094061277806759, 0.08543896675109863, 0.1569036841392517, -0.12558376789093018, -0.6937985990754576, 0.056331138181250684, -0.1398901663743625,-0.7042024152010047,-0.907470703125,0.0421295166015625,-0.156524658203125
20220112-1351,2022-01-12 13:51:23Z,u01, 87,40,movements,el-ex, rt, d,94058.22645966668, -1.5463299428534094, 0.11828785614254665, 2.863628688912981, -0.026373427361249924, -0.31624317169189453, -0.17386509478092194, -0.9927151203155518, -0.1180122047662735, -0.024292998015880585, 0.12905222177505493, 0.03477548062801361, -0.056868258863687515, -0.6963209047405438, 0.05468728327957581, -0.13986089757244494,-0.7018444455443514,-0.8684539794921875,-0.1178436279296875,-0.0580596923828125
20220112-1351,2022-01-12 13:51:23Z,u01, 88,40,movements,el-ex, rt, d,94058.25140066668, -1.5549469259752475, 0.12325806686416996, 2.858633405561914, -0.22931000590324402, -0.4063577950000763, -0.2674594223499298, -0.9922888278961182, -0.12294620275497437, -0.015728499740362167, 0.07996571063995361, -0.09731440246105194, 0.037274181842803955, -0.6993431812920244, 0.05527083081496828, -0.14307659587471994,-0.6981357001850229,-0.912322998046875,-0.2202606201171875,0.02154541015625
20220112-1351,2022-01-12 13:51:23Z,u01, 89,40,movements,el-ex, rt, d,94058.27634266668, -1.5636693050197894, 0.13181630432176303, 2.858744571002389, 0.2916683256626129, -0.30638837814331055, -0.3781319260597229, -0.9912998080253601, -0.13143490254878998, -0.007065135054290295, 0.06655603647232056, 0.09745357930660248, -0.05088752508163452, -0.7026212564794198, 0.05282804553160901, -0.14574711437038507,-0.6944714172425186,-0.9035491943359375,0.0140838623046875,-0.0869903564453125
20220112-1351,2022-01-12 13:51:23Z,u01, 90,40,movements,el-ex, rt, d,94058.30128366667, -1.5743563426823033, 0.14175088770437774, 2.8718393320946474, 0.7973923087120056, -0.4530714154243469, -0.369530588388443, -0.9899638295173645, -0.14127665758132935, 0.003524302039295435, 0.20149648189544678, 0.13877421617507935, -0.0919029712677002, -0.7068900548666128, 0.04548187888618188, -0.1443836285395937,-0.6909350147890257,-0.7884674072265625,-0.00250244140625,-0.08837890625
20220112-1351,2022-01-12 13:51:23Z,u01, 91,40,movements,el-ex, rt, d,94058.32622566668, -1.5918934128377522, 0.15198089454371028, 2.901660543555127, 1.4487428665161133, -0.4959036707878113, -0.5373883247375488, -0.9882532358169556, -0.1513964831829071, 0.020852357149124146, 0.11601501703262329, -0.11544919013977051, 0.0075445156544446945, -0.7136999293924267, 0.03253597413573134, -0.1373415507380045,-0.6860839744620456,-0.9117279052734375,-0.3050689697265625,0.06536865234375
20220112-1351,2022-01-12 13:51:23Z,u01, 92,40,movements,el-ex, rt, d,94058.35116666667, -1.607913104810851, 0.164443339418351, 2.9318535705697593, 0.862126886844635, -0.4674196243286133, -0.5307443737983704, -0.9858301877975464, -0.16370320320129395, 0.03660765290260315, 0.08864390850067139, -0.007378324866294861, 0.02680813893675804, -0.7196967315564281, 0.0184510554435018, -0.13120322748332897,-0.6815291055012205,-0.897186279296875,-0.17108154296875,0.06341552734375
20220112-1351,2022-01-12 13:51:23Z,u01, 93,40,movements,el-ex, rt, d,94058.37610866668, -1.6247423222890582, 0.17583580593092638, 2.951082736845267, 0.8178799152374268, -0.5639262795448303, -0.45338788628578186, -0.983148455619812, -0.1749311238527298, 0.05308843404054642, 0.11441975831985474, 0.0672803670167923, -0.05317974463105202, -0.7255819892658154, 0.008659847357792932, -0.12861292503877725,-0.6759545832809492,-0.881927490234375,-0.12030029296875,-0.0271759033203125
20220112-1351,2022-01-12 13:51:23Z,u01, 94,40,movements,el-ex, rt, d,94058.40104966667, -1.64328122036571, 0.1857312206398723, 2.9726763434528674, 0.7921037673950195, -0.6080138683319092, -0.483730673789978, -0.9802207350730896, -0.1846652328968048, 0.07117589563131332, 0.09634017944335938, -0.0461086630821228, -0.025322921574115753, -0.7318373638507871, -0.001421436393688122, -0.12486426596202306,-0.6699410147261553,-0.883880615234375,-0.23077392578125,0.0458526611328125
20220112-1351,2022-01-12 13:51:23Z,u01, 95,40,movements,el-ex, rt, d,94058.42599166668, -1.6618787531540282, 0.19705147247431026, 2.987526714001484, 0.3443186283111572, -0.6603177189826965, -0.4990415573120117, -0.9765833020210266, -0.1957787126302719, 0.08919637650251389, 0.09369444847106934, -0.04425729811191559, 0.023520469665527344, -0.7379070581725413, -0.009558257481097981, -0.12406584001084565,-0.6633322069829967,-0.88201904296875,-0.2327880859375,0.136016845703125
20220112-1351,2022-01-12 13:51:23Z,u01, 96,40,movements,el-ex, rt, d,94058.45093266667, -1.6788651602423579, 0.2091672771509672, 2.994404824805219, 0.10392072796821594, -0.5608857870101929, -0.4974842965602875, -0.9724976420402527, -0.20764540135860443, 0.1055077463388443, -0.01264035701751709, 0.04567338526248932, 0.135093092918396, -0.7433206508878191, -0.015108988916182939, -0.12632535400076772,-0.6567252900144296,-0.985137939453125,-0.1619720458984375,0.2406005859375
20220112-1351,2022-01-12 13:51:23Z,u01, 97,40,movements,el-ex, rt, d,94058.47587366667, -1.6907298461383673, 0.2199782839411058, 3.000685766257419, 0.30251044034957886, -0.3416191041469574, -0.448578417301178, -0.9688919186592102, -0.2182084321975708, 0.11676300317049026, -0.037532031536102295, 0.07704940438270569, -0.030520088970661163, -0.7469736861278163, -0.020293161839969265, -0.1283478002320864,-0.652031745967025,-0.966339111328125,-0.1255035400390625,0.03826904296875
20220112-1351,2022-01-12 13:51:23Z,u01, 98,40,movements,el-ex, rt, d,94058.50081566667, -1.703080337661839, 0.23023676035314034, 3.01062372515179, 0.2344542145729065, -0.44270220398902893, -0.4998106360435486, -0.9651063084602356, -0.2282080501317978, 0.12841807305812836, 0.06340336799621582, -0.004961520433425903, -0.08270251750946045, -0.7506669781728539, -0.02661062321811629, -0.12905337532194322,-0.6474073889322943,-0.901702880859375,-0.2331695556640625,0.04571533203125
20220112-1351,2022-01-12 13:51:23Z,u01, 99,40,movements,el-ex, rt, d,94058.52575666667, -1.714971024357862, 0.24041373780632203, 3.0135687405302485, 0.08221539855003357, -0.3766539692878723, -0.37503620982170105, -0.9611631631851196, -0.23810449242591858, 0.13954360783100128, -0.014133214950561523, -0.1127714216709137, 0.11462238430976868, -0.7542246173673708, -0.030282569083669025, -0.13205091331321805,-0.6424881930076017,-1.0080108642578125,-0.3751373291015625,0.2662811279296875
20220112-1351,2022-01-12 13:51:23Z,u01, 100,40,movements,el-ex, rt, d,94058.55069866667, -1.7225163602111926, 0.24845345582655912, 3.0145964646299106, -0.03733170032501221, -0.2795640230178833, -0.250672847032547, -0.9581594467163086, -0.24590519070625305, 0.14649778604507446, -0.025880098342895508, 0.061319589614868164, 0.03344930708408356, -0.7564216176329496, -0.032790672793625936, -0.13483612265332862,-0.6391952119974468,-0.984039306640625,-0.1845855712890625,0.1799468994140625
20220112-1351,2022-01-12 13:51:23Z,u01, 101,40,movements,el-ex, rt, d,94058.57563966667, -1.7305014350854038, 0.2557750734466484, 3.01891947448202, 0.20264777541160583, -0.28870660066604614, -0.39418840408325195, -0.9551559686660767, -0.2529953420162201, 0.15385356545448303, 0.044511258602142334, 0.1104934811592102, -0.06530652940273285, -0.7586907554330551, -0.036264570374815036, -0.13633177787755152,-0.6359929725707958,-0.898895263671875,-0.14862060546875,0.0789947509765625
20220112-1351,2022-01-12 13:51:23Z,u01, 102,40,movements,el-ex, rt, d,94058.60058166667, -1.740422431083296, 0.2641646596365498, 3.0244896679167477, 0.21315598487854004, -0.3483749330043793, -0.31638675928115845, -0.9514570236206055, -0.2611030042171478, 0.16295787692070007, 0.019800901412963867, -0.08173149824142456, 0.09541942179203033, -0.7614761451816132, -0.04041065040791031, -0.13790242053593,-0.6320634340955318,-0.9316558837890625,-0.34283447265625,0.2583770751953125
20220112-1351,2022-01-12 13:51:23Z,u01, 103,40,movements,el-ex, rt, d,94058.62552266667, -1.7488557744381426, 0.27003343376734884, 3.0310791966533417, 0.04946211725473404, -0.24975167214870453, -0.20612762868404388, -0.9485244750976562, -0.2667636573314667, 0.17070160806179047, -0.06005120277404785, -0.07372096180915833, 0.07581974565982819, -0.7638029311545801, -0.04422539384909631, -0.13821284283044338,-0.6289249821865653,-0.9918670654296875,-0.28253173828125,0.2316131591796875
20220112-1351,2022-01-12 13:51:23Z,u01, 104,40,movements,el-ex, rt, d,94058.65046366668, -1.756151840582294, 0.27419694416213414, 3.033895097263437, 0.13454225659370422, -0.2538505494594574, -0.20933672785758972, -0.9461538195610046, -0.2707739770412445, 0.1774112433195114, -0.005033373832702637, 0.13294130563735962, -0.04865729808807373, -0.7658837854449007, -0.04612645205871356, -0.13906668114824214,-0.6260630652659788,-0.9511871337890625,-0.1378326416015625,0.128753662109375
20220112-1351,2022-01-12 13:51:23Z,u01, 105,40,movements,el-ex, rt, d,94058.67540600001, -1.7632369292536065, 0.2791132366620994, 3.0377221666274457, 0.04561125114560127, -0.2466454952955246, -0.2188398241996765, -0.9435549974441528, -0.2755033075809479, 0.18385349214076996, -0.002215266227722168, 0.08844584226608276, -0.044586196541786194, -0.7678272353071931, -0.04866291399754927, -0.13990144297494087,-0.6232984213048567,-0.9341583251953125,-0.223602294921875,0.15716552734375
20220112-1351,2022-01-12 13:51:23Z,u01, 106,40,movements,el-ex, rt, d,94058.700347, -1.7698699871668409, 0.28445104770399593, 3.041064055653894, 0.06752847135066986, -0.20796267688274384, -0.2463749200105667, -0.9408597350120544, -0.28063058853149414, 0.1898145079612732, -0.024869024753570557, -0.09493395686149597, 0.08406564593315125, -0.7696029980566875, -0.05117107085478176, -0.1410550566800819,-0.6206418041074235,-0.965728759765625,-0.3755645751953125,0.2738800048828125
20220112-1351,2022-01-12 13:51:23Z,u01, 107,40,movements,el-ex, rt, d,94058.72528900001, -1.7745994688506523, 0.2895999831007617, 3.0409614198296273, -0.10478720813989639, -0.19462604820728302, -0.17508947849273682, -0.938524067401886, -0.28556889295578003, 0.19396714866161346, -0.011656045913696289, 0.04782173037528992, -0.026806846261024475, -0.7708669134990529, -0.05241920200794703, -0.1431688685243236,-0.6184813811771351,-0.93017578125,-0.2066802978515625,0.1501007080078125
20220112-1351,2022-01-12 13:51:23Z,u01, 108,40,movements,el-ex, rt, d,94058.75023, -1.7792869221956766, 0.2947921247877495, 3.038989077307826, -0.1442979872226715, -0.18738143146038055, -0.20925384759902954, -0.9361412525177002, -0.2905409336090088, 0.198054701089859, -0.00309830904006958, 0.09652546048164368, -0.01169884204864502, -0.7721550530815331, -0.05295208157830658, -0.14587984530249332,-0.61619134757025,-0.939239501953125,-0.1940155029296875,0.1863555908203125
20220112-1351,2022-01-12 13:51:23Z,u01, 109,40,movements,el-ex, rt, d,94058.77517200001, -1.7823694466115496, 0.3004558871567765, 3.0357296489231977, -0.16414424777030945, -0.13069918751716614, -0.21761398017406464, -0.9339025020599365, -0.29595568776130676, 0.20059065520763397, -0.012996971607208252, -0.030536562204360962, 0.09433148801326752, -0.7729557597328831, -0.05324212336567548, -0.14912469182651003,-0.6143831097033088,-0.9541015625,-0.3487396240234375,0.2716064453125
20220112-1351,2022-01-12 13:51:24Z,u01, 110,40,movements,el-ex, rt, d,94058.800113, -1.7844772328893446, 0.30708255544410706, 3.0317526925359872, -0.19858843088150024, -0.1272428035736084, -0.2182103842496872, -0.9315406084060669, -0.30227896571159363, 0.20213836431503296, -0.034035682678222656, 0.00413745641708374, -0.04329407215118408, -0.7734300291554143, -0.05362059772203974, -0.15292903843205496,-0.6128161866122077,-0.965576171875,-0.2981414794921875,0.158843994140625
20220112-1351,2022-01-12 13:51:24Z,u01, 111,40,movements,el-ex, rt, d,94058.82505500001, -1.7857734585575176, 0.31272864591186444, 3.029153856268872, -0.13247859477996826, -0.05573466420173645, -0.1868898868560791, -0.9295955300331116, -0.30765607953071594, 0.20297834277153015, -0.03778129816055298, 0.07689744234085083, -0.06494700908660889, -0.7736554073302664, -0.05428151228318917, -0.15591298067973372,-0.6117205906608663,-0.960357666015625,-0.2321624755859375,0.1588592529296875
20220112-1351,2022-01-12 13:51:24Z,u01, 112,40,movements,el-ex, rt, d,94058.849996, -1.7862320152457423, 0.3183280060263705, 3.0256825339721365, -0.2830515205860138, -0.04530692845582962, -0.20544078946113586, -0.9278048872947693, -0.3129790127277374, 0.20303313434123993, -0.03339201211929321, -0.005960196256637573, 0.02433834969997406, -0.7736469491319946, -0.05465313859259427, -0.15912097503310446,-0.6108715229043384,-0.9611968994140625,-0.318939208984375,0.2273712158203125
20220112-1351,2022-01-12 13:51:24Z,u01, 113,40,movements,el-ex, rt, d,94058.874937, -1.785157985654417, 0.32493200711328485, 3.019218184690413, -0.22847484052181244, -0.018178902566432953, -0.19603636860847473, -0.9259827733039856, -0.3192443549633026, 0.20159249007701874, -0.042889535427093506, -0.038803160190582275, 0.03757408261299133, -0.7732057938619418, -0.05430510268086608, -0.1635795792349831,-0.6102833020685523,-0.97088623046875,-0.3558197021484375,0.2075653076171875
20220112-1351,2022-01-12 13:51:24Z,u01, 114,40,movements,el-ex, rt, d,94058.899879, -1.7838666189328212, 0.3299921818177989, 3.0154752011659984, -0.15881666541099548, 0.01018136739730835, -0.13964100182056427, -0.924651563167572, -0.32403564453125, 0.20005236566066742, -0.017670392990112305, 0.022766083478927612, -0.04224559664726257, -0.7726905002492168, -0.05454883436185645, -0.1666098873357345,-0.610094408509185,-0.94232177734375,-0.30126953125,0.157806396484375
20220112-1351,2022-01-12 13:51:24Z,u01, 115,40,movements,el-ex, rt, d,94058.92482, -1.7817062594399955, 0.3342705053112468, 3.0102656665708594, -0.33627787232398987, 0.04075685143470764, -0.11620838940143585, -0.9237173795700073, -0.3280801475048065, 0.19776226580142975, -0.01993197202682495, 0.04733365774154663, -0.0584644079208374, -0.7719836283072206, -0.054059305845254244, -0.1697640522310805,-0.6101632376180302,-0.942718505859375,-0.27874755859375,0.1504058837890625
20220112-1351,2022-01-12 13:51:24Z,u01, 116,40,movements,el-ex, rt, d,94058.949762, -1.7783377067082677, 0.338554522343707, 3.001204235747739, -0.30707675218582153, 0.00022766739130020142, -0.09474503993988037, -0.9229943752288818, -0.3321240246295929, 0.19435812532901764, -0.024225473403930664, -0.023482024669647217, -0.016760841012001038, -0.771008682549424, -0.052198436864619085, -0.17406138802712753,-0.6103471129829867,-0.9472198486328125,-0.3556060791015625,0.1775970458984375
20220112-1351,2022-01-12 13:51:24Z,u01, 117,40,movements,el-ex, rt, d,94058.974703, -1.7766142271055296, 0.342482025360482, 2.9975642622052754, -0.03657916188240051, 0.02702799253165722, -0.11511941999197006, -0.9220442175865173, -0.33582600951194763, 0.1924990564584732, -0.03292727470397949, -0.0026902854442596436, -0.03447875380516052, -0.7704067466003925, -0.05218214476837808, -0.1766109347139224,-0.610376332180865,-0.94189453125,-0.3274993896484375,0.160308837890625
20220112-1351,2022-01-12 13:51:24Z,u01, 118,40,movements,el-ex, rt, d,94058.999645, -1.7765099614044455, 0.3451135495935777, 2.9980648674228694, -0.018262935802340508, -0.01729246973991394, -0.07834982126951218, -0.9211959838867188, -0.3383035361766815, 0.1922217458486557, 0.012016117572784424, -0.015639394521713257, 0.032616883516311646, -0.7702462740901307, -0.053212301993179514, -0.17744859792554696,-0.6102469596357981,-0.9091796875,-0.35394287109375,0.2248382568359375
20220112-1351,2022-01-12 13:51:24Z,u01, 119,40,movements,el-ex, rt, d,94059.024586, -1.775685346667164, 0.34574456269849463, 2.9945989475518564, -0.25601738691329956, 0.01843157410621643, -0.03806644678115845, -0.9211447238922119, -0.3388972878456116, 0.19141851365566254, -0.04821556806564331, 0.02833518385887146, -0.0031401216983795166, -0.7700582216500131, -0.0521497320186495, -0.17872240315077503,-0.6102041062887231,-0.97503662109375,-0.298492431640625,0.1786956787109375
20220112-1351,2022-01-12 13:51:24Z,u01, 120,40,movements,el-ex, rt, d,94059.04952700001, -1.7710292359718576, 0.3475852468840525, 2.9881372022538515, -0.21134737133979797, 0.050285905599594116, -0.008583390153944492, -0.9214131832122803, -0.340628445148468, 0.18700312077999115, -0.002674400806427002, -0.008401066064834595, -0.000998273491859436, -0.7687228191482415, -0.0506635102463449, -0.18126897704643,-0.6112610272286295,-0.9240875244140625,-0.349029541015625,0.186004638671875
20220112-1351,2022-01-12 13:51:24Z,u01, 121,40,movements,el-ex, rt, d,94059.074469, -1.768759064960875, 0.3486446112075526, 2.985249936790367, -0.05422915890812874, 0.06743447482585907, -0.05016552284359932, -0.9214809536933899, -0.34162428975105286, 0.18483980000019073, -0.014020144939422607, -0.10860154032707214, -0.01664198935031891, -0.7680562032150368, -0.05009558771243762, -0.18249261791332907,-0.6117814559492558,-0.93695068359375,-0.444732666015625,0.15972900390625
20220112-1351,2022-01-12 13:51:24Z,u01, 122,40,movements,el-ex, rt, d,94059.09941000001, -1.7676282530881338, 0.34993770059400364, 2.9843462790521116, -0.04503486305475235, 0.023284319788217545, -0.06177077814936638, -0.9212557077407837, -0.3428392708301544, 0.1837111860513687, 0.018026649951934814, 0.013401955366134644, -0.025812938809394836, -0.7676779263503384, -0.05026124735360722, -0.1832260205419869,-0.6120236231804344,-0.903228759765625,-0.329437255859375,0.15789794921875
20220112-1351,2022-01-12 13:51:24Z,u01, 123,40,movements,el-ex, rt, d,94059.124352, -1.7659073216671506, 0.3514766666443593, 2.9815069767135474, -0.13905367255210876, 0.027442777529358864, -0.05221116170287132, -0.9210517406463623, -0.3442845642566681, 0.18202297389507294, -0.008559644222259521, 0.08044478297233582, 0.01052786409854889, -0.7671568944216594, -0.04981753786208505, -0.18462902848433876,-0.612291492563928,-0.937774658203125,-0.268157958984375,0.18963623046875
20220112-1351,2022-01-12 13:51:24Z,u01, 124,40,movements,el-ex, rt, d,94059.14929300001, -1.76303517344956, 0.3536472895139877, 2.9779063458745125, -0.18942341208457947, 0.07550664246082306, -0.000880928710103035, -0.9208348393440247, -0.3463216722011566, 0.1792335957288742, -0.0013758540153503418, 0.006172776222229004, -0.013293996453285217, -0.7662748852920863, -0.049392288585892355, -0.18647320406621454,-0.612871148429469,-0.922210693359375,-0.34014892578125,0.1659393310546875
20220112-1351,2022-01-12 13:51:24Z,u01, 125,40,movements,el-ex, rt, d,94059.174235, -1.7598546461614568, 0.3549819581783598, 2.9727067802085867, -0.21589981019496918, 0.03107086941599846, -0.00665799155831337, -0.9209454655647278, -0.347573459148407, 0.17621693015098572, 0.019974946975708008, -0.0796268880367279, -0.013313889503479004, -0.765370874641769, -0.04812371594690207, -0.18848842297395674,-0.6134849404688573,-0.90777587890625,-0.4252471923828125,0.1561279296875
20220112-1351,2022-01-12 13:51:24Z,u01, 126,40,movements,el-ex, rt, d,94059.19917600001, -1.7572509026726906, 0.3555946996478053, 2.9677774211973973, -0.13458925485610962, 0.04499067738652229, -0.03706516698002815, -0.9211916327476501, -0.3481479287147522, 0.17377890646457672, -0.027172625064849854, -0.006313741207122803, 0.00038515031337738037, -0.7646636155880502, -0.04667984180722658, -0.19016781404301786,-0.6139599347973058,-0.9483642578125,-0.354461669921875,0.174163818359375
20220112-1351,2022-01-12 13:51:24Z,u01, 127,40,movements,el-ex, rt, d,94059.224117, -1.7545879072582808, 0.35651766919794264, 2.9657922284120297, -0.01938725635409355, 0.11536291241645813, -0.023439567536115646, -0.9213349223136902, -0.34901300072669983, 0.1712663769721985, -0.05274045467376709, 0.05500662326812744, -0.00023043155670166016, -0.7638545514152486, -0.046469519973643195, -0.1910591649449702,-0.614705899104522,-0.9695892333984375,-0.29754638671875,0.1738433837890625
20220112-1351,2022-01-12 13:51:24Z,u01, 128,40,movements,el-ex, rt, d,94059.24905900001, -1.751509325448067, 0.3574773968510367, 2.9658251940670435, -0.019095905125141144, 0.10731802880764008, 0.010017458349466324, -0.9215278029441833, -0.34991222620010376, 0.1683688759803772, -0.01530081033706665, -0.0009483695030212402, -0.047045961022377014, -0.7628680191612649, -0.04708314706285244, -0.19133376154280102,-0.6157978696793742,-0.93682861328125,-0.350860595703125,0.1213226318359375
20220112-1351,2022-01-12 13:51:24Z,u01, 129,40,movements,el-ex, rt, d,94059.274, -1.748181057892822, 0.3588086484796376, 2.962686457076173, -0.17497511208057404, 0.07547807693481445, 0.02263231948018074, -0.921623945236206, -0.351159006357193, 0.1652185469865799, -0.026420116424560547, -0.0009223520755767822, -0.007656082510948181, -0.7618626363411104, -0.04663254969028757, -0.19271685206269534,-0.6166450672620097,-0.9544219970703125,-0.3628082275390625,0.172149658203125
20220112-1351,2022-01-12 13:51:24Z,u01, 130,40,movements,el-ex, rt, d,94059.29894200001, -1.7445966924118945, 0.35785495642528303, 2.9578907068511966, -0.181227445602417, 0.08252819627523422, 0.006540635600686073, -0.9225396513938904, -0.35026589035987854, 0.16197189688682556, -0.07639241218566895, -0.011306434869766235, 0.008819952607154846, -0.7609038602996802, -0.044847092493888935, -0.19376152267697594,-0.6176331692531256,-0.998931884765625,-0.361572265625,0.1707916259765625
20220112-1351,2022-01-12 13:51:24Z,u01, 131,40,movements,el-ex, rt, d,94059.323883, -1.7416291747129724, 0.35750783417476995, 2.9564110282763547, 0.03662850707769394, 0.10504136234521866, -0.03617740049958229, -0.9231360554695129, -0.3499407172203064, 0.15925419330596924, -0.07915300130844116, -0.04280528426170349, -0.005628332495689392, -0.7600331313542903, -0.04446051850200969, -0.19402426504043646,-0.618649917504989,-1.0043487548828125,-0.3917083740234375,0.15557861328125
20220112-1351,2022-01-12 13:51:24Z,u01, 132,40,movements,el-ex, rt, d,94059.34882500001, -1.7398440042429706, 0.3581143466312337, 2.9582071007753465, 0.0620691180229187, 0.060760654509067535, -0.03359074145555496, -0.9232093691825867, -0.35050883889198303, 0.1575702279806137, -0.11121457815170288, -0.051178812980651855, 0.0083845853805542, -0.7594167857446871, -0.04551112538670381, -0.19365217425310344,-0.6194464222469948,-1.034423828125,-0.4016876220703125,0.16595458984375
20220112-1351,2022-01-12 13:51:24Z,u01, 133,40,movements,el-ex, rt, d,94059.373766, -1.7386904750315746, 0.35911380099652707, 2.9584709480283737, -0.04433015361428261, 0.05693742260336876, -0.02028185874223709, -0.9230446815490723, -0.35144469141960144, 0.15644656121730804, -0.17369616031646729, -0.03129154443740845, -0.005521655082702637, -0.7590145741561579, -0.04604516028169724, -0.19391290610621498,-0.6198182411541805,-1.108428955078125,-0.390167236328125,0.161163330078125
20220112-1351,2022-01-12 13:51:24Z,u01, 134,40,movements,el-ex, rt, d,94059.39870800001, -1.7366989116903329, 0.3593421065378867, 2.9568578949025737, -0.09092332422733307, 0.05461201071739197, 0.015537459403276443, -0.9232751131057739, -0.351658433675766, 0.15459467470645905, -0.20340335369110107, -0.10009324550628662, 0.026969894766807556, -0.7584252283471367, -0.04570024810934771, -0.19445155182475657,-0.620396101085615,-1.126678466796875,-0.451751708984375,0.1815643310546875
20220112-1351,2022-01-12 13:51:24Z,u01, 135,40,movements,el-ex, rt, d,94059.423649, -1.7356313821060672, 0.3589898341741278, 2.955606346681006, -0.0023029781877994537, -0.013797802850604057, 0.0016404185444116592, -0.9235619902610779, -0.35132864117622375, 0.15362931787967682, -0.19690638780593872, -0.13164260983467102, 0.01510263979434967, -0.7581359939829282, -0.045215833922797086, -0.19468581694158898,-0.6207116750810737,-1.12628173828125,-0.475067138671875,0.165191650390625
20220112-1351,2022-01-12 13:51:24Z,u01, 136,40,movements,el-ex, rt, d,94059.44859, -1.7366982873034307, 0.3587566543101375, 2.956861379150899, 0.05988446623086929, -0.014528641477227211, 0.012745200656354427, -0.9234781265258789, -0.3511103093624115, 0.15462806820869446, -0.25341707468032837, -0.10625660419464111, 0.0027817338705062866, -0.7584475157212837, -0.0455126576079756, -0.19423467240426207,-0.6204505676614234,-1.1768951416015625,-0.457366943359375,0.15740966796875
20220112-1351,2022-01-12 13:51:24Z,u01, 137,40,movements,el-ex, rt, d,94059.473532, -1.7373091926148145, 0.35824226121784064, 2.9568639764847044, -0.05618099123239517, -0.0537572018802166, 0.019656438380479813, -0.9235615134239197, -0.3506286144256592, 0.15522213280200958, -0.2299724817276001, -0.12425538897514343, 0.018041715025901794, -0.7586567277930448, -0.04528832522503237, -0.19405810149575387,-0.6202664697119048,-1.144073486328125,-0.474578857421875,0.17169189453125
20220112-1351,2022-01-12 13:51:24Z,u01, 138,40,movements,el-ex, rt, d,94059.498473, -1.7383060003893187, 0.35826179613844267, 2.955212878123189, -0.03210631385445595, -0.054688043892383575, 0.0036678165197372437, -0.9233997464179993, -0.3506469130516052, 0.15614154934883118, -0.21844619512557983, -0.09866341948509216, 0.009340301156044006, -0.7590020883018447, -0.044571313559824396, -0.1945995355153406,-0.6197261238166737,-1.141845703125,-0.449310302734375,0.1654815673828125
20220112-1351,2022-01-12 13:51:24Z,u01, 139,40,movements,el-ex, rt, d,94059.523415, -1.7393763375551672, 0.3586794050200746, 2.9555882399624145, 0.03416425362229347, -0.037796810269355774, -0.03020293079316616, -0.9230876564979553, -0.35103797912597656, 0.1571052223443985, -0.19745701551437378, -0.06911280751228333, 0.006225124001502991, -0.7593092643238596, -0.04474427951617517, -0.19466121164647876,-0.6193178613353691,-1.1099853515625,-0.4218292236328125,0.159210205078125
20220112-1351,2022-01-12 13:51:24Z,u01, 140,40,movements,el-ex, rt, d,94059.548356, -1.7407087388358153, 0.35938726522648506, 2.956402684212028, -0.010323254391551018, -0.04305402562022209, -0.04478280618786812, -0.9226323366165161, -0.35170072317123413, 0.15829293429851532, -0.1630459427833557, -0.08290013670921326, -4.385411739349365e-05, -0.7596760975604837, -0.045151927333490674, -0.19470031157609569,-0.618825908099745,-1.0856781005859375,-0.434600830078125,0.1582489013671875
20220112-1351,2022-01-12 13:51:24Z,u01, 141,40,movements,el-ex, rt, d,94059.573298, -1.7414891238800456, 0.360496120006668, 2.956140458290471, 0.002868015319108963, -0.02631026692688465, -0.04569900035858154, -0.9221234321594238, -0.35273849964141846, 0.15894652903079987, -0.14391660690307617, -0.05636489391326904, 0.00900721549987793, -0.7598803584914856, -0.04533327032706545, -0.1952084807499333,-0.6184015180323009,-1.0610809326171875,-0.40374755859375,0.16851806640625
20220112-1351,2022-01-12 13:51:24Z,u01, 142,40,movements,el-ex, rt, d,94059.598239, -1.7421006951714337, 0.3615422538700108, 2.956824435796245, 0.031558215618133545, -0.0011975225061178207, -0.03368421643972397, -0.9216621518135071, -0.35371720790863037, 0.15944747626781464, -0.11994868516921997, -0.03536668419837952, 0.0006022453308105469, -0.7600129430800389, -0.045870107352449604, -0.1953973046199905,-0.6181394203723768,-1.0416107177734375,-0.3890838623046875,0.1600494384765625
20220112-1351,2022-01-12 13:51:24Z,u01, 143,40,movements,el-ex, rt, d,94059.62318000001, -1.742174585960352, 0.3620353571614264, 2.9578093543159114, 0.018379995599389076, 0.02454678900539875, -0.009045382030308247, -0.9214782118797302, -0.35417839884757996, 0.15948578715324402, -0.10173040628433228, -0.038064032793045044, -0.016220703721046448, -0.75999363195163, -0.04639582225696105, -0.19527671926527077,-0.6181619117055959,-1.0172271728515625,-0.3997802734375,0.148956298828125
20220112-1351,2022-01-12 13:51:24Z,u01, 144,40,movements,el-ex, rt, d,94059.648122, -1.7412188609130759, 0.362222727109858, 2.956688900345628, -0.10666170716285706, 0.02276267111301422, -0.0008042966946959496, -0.9215649366378784, -0.3543536067008972, 0.1585938036441803, -0.07553601264953613, -0.03141915798187256, -0.017983779311180115, -0.7597167215718406, -0.04612382797317033, -0.195670176233055,-0.6183983150228531,-0.997100830078125,-0.385772705078125,0.1406097412109375
20220112-1351,2022-01-12 13:51:24Z,u01, 145,40,movements,el-ex, rt, d,94059.67306225, -1.7391738152795184, 0.362426964879652, 2.953794892231851, -0.07113970071077347, 0.05611870065331459, 0.02697773277759552, -0.9218159317970276, -0.35454457998275757, 0.15669669210910797, -0.07168394327163696, -0.00817212462425232, -0.005832791328430176, -0.7591423098144859, -0.04529127503339121, -0.1965939523099436,-0.6188720470632508,-0.992034912109375,-0.365020751953125,0.15264892578125
20220112-1351,2022-01-12 13:51:24Z,u01, 146,40,movements,el-ex, rt, d,94059.69800425, -1.7372181626021017, 0.36182408248750697, 2.9524410010929087, -0.01515246368944645, 0.05726891756057739, 0.04376683384180069, -0.9223312735557556, -0.35398080945014954, 0.1549290269613266, -0.06408852338790894, -0.0015184879302978516, -0.009619355201721191, -0.7585905857108525, -0.04477541475614062, -0.1967469261189546,-0.6195371694172277,-0.986419677734375,-0.355499267578125,0.1453094482421875
20220112-1351,2022-01-12 13:51:24Z,u01, 147,40,movements,el-ex, rt, d,94059.72294525, -1.7348806474932603, 0.3603872301372103, 2.951712123068479, -0.048311248421669006, 0.10184670239686966, 0.09145359694957733, -0.923191487789154, -0.3526366055011749, 0.1528555303812027, -0.0651354193687439, 0.0005553364753723145, -0.01378670334815979, -0.7579369332862401, -0.04426476907380514, -0.1963918718953205,-0.6204856508486496,-0.985198974609375,-0.3600921630859375,0.149261474609375
20220112-1351,2022-01-12 13:51:24Z,u01, 148,40,movements,el-ex, rt, d,94059.74788725, -1.7309765405935928, 0.35789990532877486, 2.949104543826619, -0.14025619626045227, 0.13512669503688812, 0.13001783192157745, -0.9246443510055542, -0.35030797123908997, 0.1493895798921585, -0.0364762544631958, -0.026309430599212646, -0.010793700814247131, -0.7568739619760902, -0.04285555471702664, -0.19620227055134298,-0.6219404530330896,-0.96112060546875,-0.376617431640625,0.1385955810546875
20220112-1351,2022-01-12 13:51:24Z,u01, 149,40,movements,el-ex, rt, d,94059.77282825, -1.72665540389396, 0.3547168237074463, 2.9454721998800517, -0.030287208035588264, 0.13602711260318756, 0.1630958914756775, -0.9263780117034912, -0.34732481837272644, 0.14556503295898438, -0.024183452129364014, -0.0009569823741912842, 0.013096064329147339, -0.755719464451844, -0.040873041846127986, -0.1960746377857375,-0.6235160049783359,-0.959503173828125,-0.3392791748046875,0.161590576171875
20220112-1351,2022-01-12 13:51:25Z,u01, 150,40,movements,el-ex, rt, d,94059.79776925, -1.722210833584943, 0.34989984523885004, 2.9462977840021956, 0.08852406591176987, 0.22886183857917786, 0.19912593066692352, -0.9286592602729797, -0.3428037166595459, 0.1416970044374466, -0.04094541072845459, 0.02754184603691101, -0.00627492368221283, -0.7544828793220808, -0.04005109833949769, -0.19396189491951932,-0.6257239782286048,-0.9696044921875,-0.3152618408203125,0.1354217529296875
20220112-1351,2022-01-12 13:51:25Z,u01, 151,40,movements,el-ex, rt, d,94059.82271125, -1.7161527299528891, 0.3448698452012742, 2.945109858528336, -0.12531964480876923, 0.21528637409210205, 0.22330662608146667, -0.9311947226524353, -0.3380741775035858, 0.13631652295589447, 0.007946550846099854, -0.006881237030029297, 0.0145321786403656, -0.7527764452128508, -0.0385471952175674, -0.19237539558594952,-0.6283577281409342,-0.9188232421875,-0.351715087890625,0.140869140625
20220112-1351,2022-01-12 13:51:25Z,u01, 152,40,movements,el-ex, rt, d,94059.84765225, -1.7089040086281435, 0.3398873073113395, 2.9390346188617142, -0.1963319033384323, 0.21354520320892334, 0.2749304175376892, -0.9338152408599854, -0.3333808481693268, 0.12979331612586975, 0.03452324867248535, 0.00598829984664917, 0.0007611364126205444, -0.750765325965099, -0.0353282487338943, -0.19233670577543183,-0.6309595132801982,-0.8992919921875,-0.327392578125,0.13055419921875
20220112-1351,2022-01-12 13:51:25Z,u01, 153,40,movements,el-ex, rt, d,94059.87259425, -1.702615553658623, 0.3332520428490652, 2.9341309072285418, -0.09320968389511108, 0.22461163997650146, 0.2860410511493683, -0.9367853403091431, -0.3271178901195526, 0.12420657277107239, 0.0029169321060180664, -0.011673003435134888, 0.052658312022686005, -0.7490561104098432, -0.03190969141686839, -0.1913679581537135,-0.6334627683460484,-0.951568603515625,-0.3427886962890625,0.1825714111328125
20220112-1351,2022-01-12 13:51:25Z,u01, 154,40,movements,el-ex, rt, d,94059.89753525001, -1.694737366410713, 0.32565538837462404, 2.932865403427199, 0.041386909782886505, 0.35464799404144287, 0.3300938010215759, -0.9401736855506897, -0.3199298083782196, 0.1171264573931694, -0.019299030303955078, 0.026243895292282104, 0.006698839366436005, -0.7467814928320428, -0.029675430708013095, -0.18889320082794908,-0.6369899712089758,-0.95947265625,-0.2936859130859375,0.1238250732421875
20220112-1351,2022-01-12 13:51:25Z,u01, 155,40,movements,el-ex, rt, d,94059.92247725, -1.6862574614383703, 0.3166651870682512, 2.931839889483899, -0.04908140376210213, 0.3041655123233795, 0.3918268084526062, -0.9439521431922913, -0.31139928102493286, 0.10947670787572861, 0.04574340581893921, 0.03872472047805786, -0.007440924644470215, -0.7443142943052025, -0.02710319918799474, -0.1858487186903523,-0.6408759857775815,-0.893463134765625,-0.2835693359375,0.096893310546875
20220112-1351,2022-01-12 13:51:25Z,u01, 156,40,movements,el-ex, rt, d,94059.94741825001, -1.677208954366915, 0.30646630313153733, 2.92625552327913, -0.2104005217552185, 0.2852157950401306, 0.46069931983947754, -0.94801265001297, -0.301691472530365, 0.10126302391290665, 0.025130629539489746, -0.07993078231811523, 0.04982970654964447, -0.741705445573167, -0.022462079324304246, -0.1838542422859586,-0.6446441322555361,-0.922882080078125,-0.381622314453125,0.151092529296875
20220112-1351,2022-01-12 13:51:25Z,u01, 157,40,movements,el-ex, rt, d,94059.97235925001, -1.6669150608575016, 0.2954612743485827, 2.9182291068739175, -0.1737269014120102, 0.3495865762233734, 0.5079801082611084, -0.9522523283958435, -0.29118117690086365, 0.09181220829486847, -0.00805974006652832, 0.010434657335281372, 0.0279696062207222, -0.7386648897115329, -0.016741691610554263, -0.18239674275236897,-0.6487106628589867,-0.95391845703125,-0.2772369384765625,0.115264892578125
20220112-1351,2022-01-12 13:51:25Z,u01, 158,40,movements,el-ex, rt, d,94059.99730125001, -1.6571832241848132, 0.28345138016620974, 2.918162264333613, 0.1448579877614975, 0.3985162675380707, 0.4474663734436035, -0.9565158486366272, -0.27967095375061035, 0.08283659815788269, 0.053912580013275146, 0.10347771644592285, -0.053279995918273926, -0.7356866963407699, -0.01354193420155722, -0.1780482237985893,-0.6533610452660923,-0.9026031494140625,-0.1761932373046875,0.0295562744140625
20220112-1351,2022-01-12 13:51:25Z,u01, 159,40,movements,el-ex, rt, d,94060.02224225001, -1.6492445140799648, 0.2719016303725088, 2.920326335567058, 0.04014025256037712, 0.2906859815120697, 0.4757244288921356, -0.9602996110916138, -0.2685636878013611, 0.07548867911100388, 0.10951519012451172, 0.061059385538101196, -0.04500138759613037, -0.733226244040879, -0.011118266575090269, -0.17316879431691268,-0.6574711954111172,-0.8564453125,-0.2462158203125,0.063751220703125
20220112-1351,2022-01-12 13:51:25Z,u01, 160,40,movements,el-ex, rt, d,94060.04718425001, -1.6416128355412511, 0.25976619615299484, 2.916258555221896, -0.22848375141620636, 0.2771978974342346, 0.5146896839141846, -0.9640279412269592, -0.2568545937538147, 0.06838344782590866, 0.002296745777130127, -0.11471220850944519, 0.03386593610048294, -0.7308583051372257, -0.006153131410753382, -0.17015662954410876,-0.6609502444484708,-0.96173095703125,-0.3715667724609375,0.1022491455078125
20220112-1351,2022-01-12 13:51:25Z,u01, 161,40,movements,el-ex, rt, d,94060.07212525001, -1.6308185019868195, 0.24704410340724028, 2.9102421321233454, -0.06040026992559433, 0.4384865164756775, 0.5352928042411804, -0.9678934216499329, -0.24453887343406677, 0.05816493555903435, -0.012331247329711914, 0.04472503066062927, -0.023298386484384537, -0.7273803669360371, -0.0005189635849165014, -0.16762082285667124,-0.66544785069614,-0.9565582275390625,-0.156494140625,0.0115509033203125
20220112-1351,2022-01-12 13:51:25Z,u01, 162,40,movements,el-ex, rt, d,94060.09706625, -1.6211754059109151, 0.23450521912620204, 2.910639969536143, 0.12943118810653687, 0.31729137897491455, 0.47441136837005615, -0.9713954925537109, -0.2323617786169052, 0.04897945374250412, 0.12941545248031616, 0.1830758899450302, -0.09754788875579834, -0.7242110145593371, 0.002851938582665109, -0.16306260027766023,-0.6700156264280339,-0.84197998046875,-0.049285888671875,-0.0485687255859375
20220112-1351,2022-01-12 13:51:25Z,u01, 163,40,movements,el-ex, rt, d,94060.12200825001, -1.6145500877506147, 0.22262801995657094, 2.9124327728680885, -0.06519219279289246, 0.24616959691047668, 0.46229350566864014, -0.9743873476982117, -0.22079354524612427, 0.04266033694148064, 0.09865480661392212, -0.010331332683563232, -0.015087485313415527, -0.7220088903001511, 0.005773321147967428, -0.15828774452892452,-0.6735094800935124,-0.897430419921875,-0.2728424072265625,0.0564117431640625
20220112-1351,2022-01-12 13:51:25Z,u01, 164,40,movements,el-ex, rt, d,94060.14694925, -1.6071923529707384, 0.2105365597530718, 2.9081970294575337, -0.21638549864292145, 0.29500651359558105, 0.4885236620903015, -0.9772714376449585, -0.2089846432209015, 0.03558450937271118, 0.007743120193481445, -0.1178891509771347, -0.025727152824401855, -0.7194950728539014, 0.010913091414720993, -0.15549525023767874,-0.6767784853733408,-0.9695281982421875,-0.326873779296875,0.009857177734375
20220112-1351,2022-01-12 13:51:25Z,u01, 165,40,movements,el-ex, rt, d,94060.17189125001, -1.5986743792081937, 0.19878770140633414, 2.9034262925268135, -0.09349913150072098, 0.2861853241920471, 0.4747689366340637, -0.9799257516860962, -0.19748105108737946, 0.027325499802827835, 0.06439846754074097, 0.07058897614479065, -0.054424889385700226, -0.7165228126979852, 0.016056435909744496, -0.15305158241072309,-0.6803766724231347,-0.8951263427734375,-0.08551025390625,-0.0410308837890625
20220112-1351,2022-01-12 13:51:25Z,u01, 166,40,movements,el-ex, rt, d,94060.19683225, -1.5927296789128997, 0.18693712203140972, 2.902149192003132, 0.04070690646767616, 0.19719798862934113, 0.4740539491176605, -0.9823418259620667, -0.18585024774074554, 0.02154950425028801, 0.14466476440429688, 0.11634646356105804, -0.06659317016601562, -0.7143995119832648, 0.020201233798799206, -0.1493964292406484,-0.6833052346830459,-0.837677001953125,-0.0695037841796875,-0.0450439453125
20220112-1351,2022-01-12 13:51:25Z,u01, 167,40,movements,el-ex, rt, d,94060.22177425, -1.5886444294461588, 0.17583429336619305, 2.8998945465944903, -0.3493444621562958, 0.08609224855899811, 0.43720218539237976, -0.9844241738319397, -0.1749296337366104, 0.01757196895778179, 0.1342960000038147, -0.006817802786827087, -0.008874299004673958, -0.7128684055145044, 0.024589044760045378, -0.1463364352020628,-0.6854193619079406,-0.864013671875,-0.20672607421875,0.0768585205078125
20220112-1351,2022-01-12 13:51:25Z,u01, 168,40,movements,el-ex, rt, d,94060.24671525, -1.5840103944184813, 0.164280236334415, 2.8922687184127716, -0.17011018097400665, 0.26999375224113464, 0.4841078221797943, -0.9864504337310791, -0.16354230046272278, 0.013035781681537628, -0.0328216552734375, -0.08618307113647461, 0.02505040355026722, -0.7110244947986202, 0.031017066598738402, -0.14498933058772723,-0.6873575635310158,-1.0192718505859375,-0.249725341796875,0.0380859375
20220112-1351,2022-01-12 13:51:25Z,u01, 169,40,movements,el-ex, rt, d,94060.27165625, -1.576061080682267, 0.15210077034276867, 2.892454041242699, 0.1050744503736496, 0.28192806243896484, 0.4735144078731537, -0.9884414672851562, -0.15151497721672058, 0.00520394928753376, 0.0774763822555542, 0.12533089518547058, -0.1000828742980957, -0.7080962383698913, 0.034665426876105826, -0.14081911936965713,-0.6910631081272233,-0.87091064453125,0.0067901611328125,-0.1119842529296875
20220112-1351,2022-01-12 13:51:25Z,u01, 170,40,movements,el-ex, rt, d,94060.29659825, -1.5722241689643774, 0.1408034345398891, 2.890924486490237, -0.31790459156036377, 0.022901354357600212, 0.414861261844635, -0.9901026487350464, -0.14033864438533783, 0.0014137112302705646, 0.1693323254585266, -0.00643564760684967, 0.028325915336608887, -0.7065351776442105, 0.03892169554030267, -0.13749628178072698,-0.6931002843509033,-0.820770263671875,-0.1467742919921875,0.0297393798828125
20220112-1351,2022-01-12 13:51:25Z,u01, 171,40,movements,el-ex, rt, d,94060.32153925, -1.5703036233974643, 0.13013056100152226, 2.8786032623571645, -0.4759831726551056, 0.13406895101070404, 0.47376832365989685, -0.9915449619293213, -0.12976360321044922, -0.0004885375965386629, -0.0024584531784057617, -0.2224702686071396, 0.1576542854309082, -0.7053763060400782, 0.04690413712091604, -0.1381071994370834,-0.6936647332071315,-1.0315093994140625,-0.3480072021484375,0.1384124755859375
20220112-1351,2022-01-12 13:51:25Z,u01, 172,40,movements,el-ex, rt, d,94060.34648125, -1.5624512449290906, 0.11837080202453949, 2.871787772580412, 0.040252238512039185, 0.3545890748500824, 0.44276994466781616, -0.9929680228233337, -0.11809457093477249, -0.008286591619253159, 0.03497523069381714, 0.1267920732498169, 0.010957120917737484, -0.702179636673007, 0.05291939166487747, -0.13660283505917942,-0.6967662377715377,-0.9579925537109375,0.008697509765625,0.0026702880859375
20220112-1351,2022-01-12 13:51:25Z,u01, 173,40,movements,el-ex, rt, d,94060.37142225, -1.5550865651161563, 0.10930133575404778, 2.877170306994679, 0.26896780729293823, 0.26609349250793457, 0.31310591101646423, -0.9939101338386536, -0.10908383131027222, -0.015615375712513924, 0.14398008584976196, 0.18830743432044983, -0.04265773296356201, -0.6995017531950215, 0.053755086142097036, -0.13179000753943007,-0.7003137335038387,-0.8400421142578125,0.0416107177734375,-0.0632476806640625
20220112-1351,2022-01-12 13:51:25Z,u01, 174,40,movements,el-ex, rt, d,94060.39636425, -1.5500888911329873, 0.10246046857694584, 2.8792480221773986, -0.1718577891588211, 0.14473137259483337, 0.2437814325094223, -0.9945424795150757, -0.10228128731250763, -0.020597368478775024, 0.12164795398712158, -0.05805806815624237, 0.06312382221221924, -0.6976111326706826, 0.05513640644752131, -0.12884186726812924,-0.70263695482251,-0.872894287109375,-0.16033935546875,0.0425262451171875
20220112-1351,2022-01-12 13:51:25Z,u01, 175,40,movements,el-ex, rt, d,94060.42130525001, -1.5459567078631977, 0.09628828370117197, 2.8724155961859834, -0.20613327622413635, 0.18469466269016266, 0.20149293541908264, -0.995060920715332, -0.0961395651102066, -0.024722019210457802, 0.06039893627166748, -0.08211362361907959, 0.12854307889938354, -0.6957764239373967, 0.05944878925477391, -0.12924193025574637,-0.7040295765982029,-0.9468841552734375,-0.145050048828125,0.0739898681640625
20220112-1351,2022-01-12 13:51:25Z,u01, 176,40,movements,el-ex, rt, d,94060.44624625001, -1.5403943654370025, 0.09236832118159564, 2.8744170248944556, 0.27787071466445923, 0.2152683436870575, 0.09493301808834076, -0.9952771067619324, -0.09223703294992447, -0.030267702415585518, 0.12833362817764282, 0.14430002868175507, -0.002874135971069336, -0.6937510911363748, 0.05979608889076725, -0.12735805614554002,-0.7063384204074429,-0.866943359375,0.05206298828125,-0.03314208984375
20220112-1351,2022-01-12 13:51:25Z,u01, 177,40,movements,el-ex, rt, d,94060.47118825001, -1.5369984710061466, 0.09223227699517263, 2.8807992453622737, 0.10516113042831421, 0.08856445550918579, -0.05507006496191025, -0.9951810836791992, -0.0921015664935112, -0.0336478017270565, 0.17090117931365967, 0.0515284538269043, -0.02650207281112671, -0.6927331765792966, 0.05741816798799976, -0.12515445786058735,-0.7079268406813852,-0.8234405517578125,-0.0823822021484375,-0.053924560546875
20220112-1351,2022-01-12 13:51:25Z,u01, 178,40,movements,el-ex, rt, d,94060.49612925001, -1.5362430466874881, 0.09381201755815217, 2.876015683436474, -0.18683989346027374, 0.002787632867693901, -0.04837900400161743, -0.9950087666511536, -0.09367447346448898, -0.034394506365060806, 0.052885234355926514, -0.19392316043376923, 0.09698629379272461, -0.6923763762832756, 0.05846110023445919, -0.12740948944838149,-0.7077882952064993,-0.9421234130859375,-0.28759765625,0.062591552734375
20220112-1351,2022-01-12 13:51:25Z,u01, 179,40,movements,el-ex, rt, d,94060.52107125001, -1.5344729728524327, 0.09467404891756953, 2.8759338568022317, 0.1976984143257141, 0.0823066234588623, 0.014890708960592747, -0.9948651194572449, -0.09453268349170685, -0.03615273907780647, 0.012199103832244873, -0.015986710786819458, -0.03782164677977562, -0.6917743780505281, 0.058067550601451204, -0.12778442479461846,-0.7083413959635426,-0.95458984375,-0.04473876953125,-0.1014556884765625
20220112-1351,2022-01-12 13:51:25Z,u01, 180,40,movements,el-ex, rt, d,94060.54601225001, -1.5351313441232266, 0.09524866223355721, 2.8815843521593543, 0.19715680181980133, -0.0830630287528038, -0.025299187749624252, -0.9948344230651855, -0.09510470926761627, -0.03549580276012421, 0.1105111837387085, 0.10552646219730377, -0.0652119517326355, -0.6921863084220452, 0.0559483054264784, -0.12596054554284342,-0.708436321348362,-0.8843231201171875,0.0104217529296875,-0.1007080078125
20220112-1351,2022-01-12 13:51:25Z,u01, 181,40,movements,el-ex, rt, d,94060.57095425001, -1.5395850352108067, 0.09606136233207957, 2.8794801103782492, -0.19659313559532166, -0.23025481402873993, -0.024246372282505035, -0.9949048757553101, -0.09591369330883026, -0.031062353402376175, 0.04829537868499756, -0.11006470024585724, 0.10454893112182617, -0.693727310537436, 0.056667821108532954, -0.12685753245828538,-0.7067095268241962,-0.9862823486328125,-0.269927978515625,0.085235595703125
20220112-1351,2022-01-12 13:51:25Z,u01, 182,40,movements,el-ex, rt, d,94060.59589525001, -1.5424458165356996, 0.0961698663565601, 2.8773580544632336, 0.008442943915724754, -0.07052672654390335, 0.041726186871528625, -0.9949793219566345, -0.09602169692516327, -0.02821573056280613, -0.037018418312072754, -0.05737488716840744, -0.01180785708129406, -0.6946800787738481, 0.05754756910140858, -0.12756226125292053,-0.7055747957479568,-1.0319976806640625,-0.1533966064453125,-0.0400238037109375
20220112-1351,2022-01-12 13:51:25Z,u01, 183,40,movements,el-ex, rt, d,94060.62083625, -1.5447693889881495, 0.09525857166016051, 2.8803079087794288, 0.152296781539917, -0.08373254537582397, 0.037566326558589935, -0.9951292872428894, -0.0951145738363266, -0.025906017050147057, 0.021008074283599854, 0.1232975572347641, -0.056201279163360596, -0.6955562925492562, 0.05699504576751124, -0.12614283488732678,-0.7050113992900114,-0.9755096435546875,0.039154052734375,-0.0821685791015625
20220112-1351,2022-01-12 13:51:25Z,u01, 184,40,movements,el-ex, rt, d,94060.64577825001, -1.5477726975118293, 0.0948759694375874, 2.8818147910275522, -0.1444474756717682, -0.14458803832530975, 0.0061249155551195145, -0.9952388405799866, -0.09473370015621185, -0.022918060421943665, -0.023071706295013428, -0.05648089945316315, 0.06028705835342407, -0.6966456775374883, 0.05679586240561972, -0.12539508094245178,-0.7040846132849997,-1.018310546875,-0.151214599609375,0.0373687744140625
20220112-1351,2022-01-12 13:51:25Z,u01, 185,40,movements,el-ex, rt, d,94060.67071925, -1.548770550503348, 0.09398478670581628, 2.8795187961859616, 0.06594215333461761, 0.04846563935279846, 0.04849294573068619, -0.9953452348709106, -0.09384648501873016, -0.021926797926425934, -0.09181302785873413, -0.12134819477796555, 0.0110627431422472, -0.6969041514395333, 0.05797590105380174, -0.12586792123644208,-0.7036481353935057,-1.071502685546875,-0.144989013671875,-0.0312652587890625
20220112-1351,2022-01-12 13:51:25Z,u01, 186,40,movements,el-ex, rt, d,94060.69566166667, -1.5477472080776016, 0.09280923070547244, 2.885520107808171, 0.27132824063301086, 0.062250763177871704, 0.052081622183322906, -0.9954319000244141, -0.09267605096101761, -0.0229478906840086, 0.025369584560394287, 0.1399935483932495, -0.04187119007110596, -0.6966800610313202, 0.05624008185478238, -0.12338003966588273,-0.7044511018607655,-0.970062255859375,0.0473175048828125,-0.0648193359375
20220112-1351,2022-01-12 13:51:25Z,u01, 187,40,movements,el-ex, rt, d,94060.72060266667, -1.5479094963289324, 0.09133588467464657, 2.889949178376724, 0.01975102536380291, -0.02402813732624054, 0.05062840133905411, -0.9955711960792542, -0.09120894968509674, -0.022789448499679565, 0.03371793031692505, -0.01036883145570755, -0.0016548652201890945, -0.6968175438026215, 0.05523211266983605, -0.12130803878288977,-0.704754796587864,-0.9668731689453125,-0.1255950927734375,-0.0161285400390625
20220112-1351,2022-01-12 13:51:25Z,u01, 188,40,movements,el-ex, rt, d,94060.74554366668, -1.5494113065877775, 0.09164530514868927, 2.886783479334501, -0.15281488001346588, -0.09141276776790619, -0.0527254194021225, -0.9955760836601257, -0.09151707589626312, -0.02129366062581539, 0.023819923400878906, 0.002359949052333832, 0.04975157976150513, -0.6972672333697261, 0.05631673753384102, -0.12248766381241391,-0.7040197944960284,-0.9717559814453125,-0.0891571044921875,0.0284576416015625
20220112-1351,2022-01-12 13:51:25Z,u01, 189,40,movements,el-ex, rt, d,94060.77048566667, -1.5500085425962786, 0.0932210942174854, 2.88846448746619, 0.27540919184684753, 0.0330786257982254, -0.08308006078004837, -0.9954431653022766, -0.0930861383676529, -0.020696038380265236, 0.00810772180557251, 0.11295308917760849, -0.058832526206970215, -0.6975702634462555, 0.05520605238448649, -0.12242226242224605,-0.703818887310831,-0.97283935546875,0.0368194580078125,-0.0921783447265625
20220112-1351,2022-01-12 13:51:25Z,u01, 190,40,movements,el-ex, rt, d,94060.79542666668, -1.5510419818044763, 0.09526852481422776, 2.8959885250710364, 0.1717447191476822, -0.11179333925247192, -0.10684771090745926, -0.9952713251113892, -0.09512447565793991, -0.0196634903550148, 0.10516500473022461, 0.015488848090171814, -0.028172552585601807, -0.698192769576274, 0.051914458125254845, -0.12045271638228831,-0.7037919177836925,-0.890106201171875,-0.0796356201171875,-0.0478363037109375
20220112-1351,2022-01-12 13:51:26Z,u01, 191,40,movements,el-ex, rt, d,94060.82036866667, -1.5554505905320235, 0.09903480071001874, 2.895156681910014, -0.17391853034496307, -0.21063417196273804, -0.18528446555137634, -0.9949830770492554, -0.09887298941612244, -0.015269946306943893, 0.05269169807434082, -0.10171903669834137, 0.035503387451171875, -0.6998217235667923, 0.051132982245858466, -0.12193181315545906,-0.7019742165220998,-0.95172119140625,-0.1852874755859375,0.018157958984375
20220112-1351,2022-01-12 13:51:26Z,u01, 192,40,movements,el-ex, rt, d,94060.84530966668, -1.560421297820536, 0.10375620714676016, 2.892471160152294, 0.08218348026275635, -0.19511154294013977, -0.24244429171085358, -0.9945687651634216, -0.10357014834880829, -0.010319049470126629, 0.05026322603225708, 0.06577414274215698, -0.0031237006187438965, -0.7016192101236233, 0.050704626101108735, -0.12437951812220259,-0.6997780936512411,-0.944305419921875,-0.0377960205078125,-0.0134429931640625
20220112-1351,2022-01-12 13:51:26Z,u01, 193,40,movements,el-ex, rt, d,94060.87025166667, -1.5654836581653238, 0.10981183786537885, 2.897726194875738, 0.2606521546840668, -0.21868184208869934, -0.27837273478507996, -0.9939629435539246, -0.1095912754535675, -0.005280645564198494, 0.06982946395874023, 0.05984759330749512, -0.043882906436920166, -0.7036674724849503, 0.04702940981676915, -0.12451884641442966,-0.6979510281791947,-0.915130615234375,-0.0726776123046875,-0.0540924072265625
20220112-1351,2022-01-12 13:51:26Z,u01, 194,40,movements,el-ex, rt, d,94060.89519266668, -1.5726838655489879, 0.11717926675868931, 2.8999626667124803, -0.0702843964099884, -0.3351360857486725, -0.31168174743652344, -0.9931405782699585, -0.11691128462553024, 0.0018745935522019863, 0.07920020818710327, -0.07499849051237106, 0.021669983863830566, -0.706394586170368, 0.04409065018458792, -0.12613725875875642,-0.6950914390271106,-0.9139404296875,-0.1919097900390625,0.0235443115234375
20220112-1351,2022-01-12 13:51:26Z,u01, 195,40,movements,el-ex, rt, d,94060.92013366667, -1.5810977937995423, 0.12570236180095062, 2.896703117786378, -0.14503082633018494, -0.3455214202404022, -0.32084283232688904, -0.992057204246521, -0.12537159025669098, 0.010220006108283997, 0.04505103826522827, -0.04360421001911163, 0.05374503135681152, -0.7094219378256693, 0.042784542829142944, -0.13005688358127737,-0.6913574918310094,-0.9549102783203125,-0.144775390625,0.071563720703125
20220112-1351,2022-01-12 13:51:26Z,u01, 196,40,movements,el-ex, rt, d,94060.94507566668, -1.5880091432960426, 0.1327321326750896, 2.895792705113697, 0.03133191540837288, -0.24793154001235962, -0.2408396601676941, -0.9910572171211243, -0.13234274089336395, 0.017060570418834686, 0.04678231477737427, 0.058490216732025146, 0.008101342245936394, -0.7119278523448925, 0.04109767003188408, -0.13268493985373167,-0.6883781297652012,-0.94427490234375,-0.0738525390625,0.0251617431640625
20220112-1351,2022-01-12 13:51:26Z,u01, 197,40,movements,el-ex, rt, d,94060.97001666667, -1.5947160200685506, 0.13786896629371995, 2.8969715480062543, 0.0439278669655323, -0.27925217151641846, -0.18876686692237854, -0.9902279376983643, -0.13743261992931366, 0.023690467700362206, 0.06537741422653198, 0.033825427293777466, -0.019677162170410156, -0.7143517543327841, 0.039329437951303184, -0.13394707023142693,-0.6857208785783092,-0.9287872314453125,-0.124786376953125,-0.003173828125
20220112-1351,2022-01-12 13:51:26Z,u01, 198,40,movements,el-ex, rt, d,94060.99495866668, -1.6022558557078508, 0.14385594318036993, 2.8957602106204257, -0.16899453103542328, -0.3447140157222748, -0.2948712110519409, -0.9891809821128845, -0.14336028695106506, 0.031129438430070877, 0.048873305320739746, 0.05295197665691376, -0.015321018174290657, -0.7170121589713407, 0.03818747266002183, -0.1363217690743338,-0.6825333528151911,-0.9403076171875,-0.0904083251953125,0.01580810546875
20220112-1351,2022-01-12 13:51:26Z,u01, 199,40,movements,el-ex, rt, d,94061.01989966667, -1.610628839168913, 0.15224172986947998, 2.891428284921974, -0.09998159855604172, -0.3144252896308899, -0.37196993827819824, -0.9876496195793152, -0.15165431797504425, 0.0393613837659359, 0.02689516544342041, 0.012387365102767944, 0.07202804088592529, -0.719917252936444, 0.037414451766457205, -0.14059683847703483,-0.6786397270468794,-0.9734954833984375,-0.157684326171875,0.1002197265625
20220112-1351,2022-01-12 13:51:26Z,u01, 200,40,movements,el-ex, rt, d,94061.04484166668, -1.6176498611120094, 0.16223237924748168, 2.892340707092779, 0.12734635174274445, -0.2382466197013855, -0.4199206829071045, -0.9857863187789917, -0.16152167320251465, 0.046221401542425156, 0.06063050031661987, 0.04033634066581726, -0.029329653829336166, -0.7224581101833832, 0.03413179431051047, -0.14369740363632935,-0.6754557849770216,-0.9251556396484375,-0.121185302734375,0.0168914794921875
20220112-1351,2022-01-12 13:51:26Z,u01, 201,40,movements,el-ex, rt, d,94061.06978266667, -1.6246701886934365, 0.17293958322083317, 2.89502675030441, -0.004339663311839104, -0.33741533756256104, -0.4546233117580414, -0.9836541414260864, -0.17207881808280945, 0.053044576197862625, 0.13007736206054688, 0.08330319821834564, -0.02527332305908203, -0.7249989136643196, 0.029981035808842857, -0.14647806205177027,-0.6723258263973555,-0.849945068359375,-0.110015869140625,0.0432281494140625
20220112-1351,2022-01-12 13:51:26Z,u01, 202,40,movements,el-ex, rt, d,94061.09472366667, -1.6336648205671915, 0.18481356808933455, 2.893055416573263, -0.20071163773536682, -0.4044952094554901, -0.45385992527008057, -0.9810288548469543, -0.1837632805109024, 0.06175719201564789, 0.07465654611587524, 0.027391180396080017, 0.05121923238039017, -0.7281028179437042, 0.027292543426346655, -0.15123357379193014,-0.6680195076078737,-0.9063720703125,-0.1563720703125,0.11297607421875
20220112-1351,2022-01-12 13:51:26Z,u01, 203,40,movements,el-ex, rt, d,94061.11966566667, -1.6421355853643786, 0.19580398161414286, 2.891282511717072, 0.01662464067339897, -0.31333231925964355, -0.429267555475235, -0.9783966541290283, -0.19455522298812866, 0.0699167400598526, 0.02865910530090332, -0.05266767740249634, 0.0444633886218071, -0.7309867437945797, 0.024834478826806894, -0.15563384421047277,-0.6639426116999418,-0.951568603515625,-0.2535552978515625,0.088714599609375
20220112-1351,2022-01-12 13:51:26Z,u01, 204,40,movements,el-ex, rt, d,94061.14460666667, -1.6496190717957147, 0.2067634139070958, 2.8931166554026464, 0.0481705516576767, -0.2668572962284088, -0.4709503650665283, -0.9756617546081543, -0.20529332756996155, 0.07706400752067566, 0.0601344108581543, 0.04867713153362274, -0.04802621155977249, -0.7335462298433022, 0.02102216569811699, -0.15886026501672118,-0.6604782088507726,-0.91552734375,-0.1566162109375,0.0290374755859375
20220112-1351,2022-01-12 13:51:26Z,u01, 205,40,movements,el-ex, rt, d,94061.16954866667, -1.6580094475420897, 0.21819667276906343, 2.895258300607648, 0.07904201745986938, -0.3563680648803711, -0.4697176516056061, -0.9725791215896606, -0.216469407081604, 0.08503737300634384, 0.09483230113983154, 0.05898340046405792, 0.0023804977536201477, -0.7363616891475622, 0.01703372883952088, -0.16217545277196377,-0.6566434790635926,-0.8893890380859375,-0.1787261962890625,0.0926513671875
20220112-1351,2022-01-12 13:51:26Z,u01, 206,40,movements,el-ex, rt, d,94061.19448966667, -1.6668707748257583, 0.22885450432221094, 2.8956278213719533, -0.09154567122459412, -0.3372928500175476, -0.35490313172340393, -0.9694356322288513, -0.22686204314231873, 0.09342561662197113, 0.026945948600769043, -0.05127514898777008, 0.08586537092924118, -0.7392672216047843, 0.014027955245776325, -0.16581911852662684,-0.6525268366991698,-0.9424896240234375,-0.27813720703125,0.179290771484375
20220112-1351,2022-01-12 13:51:26Z,u01, 207,40,movements,el-ex, rt, d,94061.21943066668, -1.6741011466205764, 0.23754134302356888, 2.89550076894999, -0.030484147369861603, -0.25356805324554443, -0.3552098572254181, -0.9667381048202515, -0.23531372845172882, 0.10022549331188202, 0.00804358720779419, -0.06606261432170868, -0.03598582744598389, -0.7416026003564665, 0.011761386085705372, -0.16894668469830412,-0.6491104784210566,-0.9452362060546875,-0.2652130126953125,0.0480804443359375
20220112-1351,2022-01-12 13:51:26Z,u01, 208,40,movements,el-ex, rt, d,94061.24437266667, -1.681239309097661, 0.24652497856238426, 2.8962290019359767, 0.05820803344249725, -0.31206971406936646, -0.3618573546409607, -0.963857889175415, -0.2440354824066162, 0.10688628256320953, 0.09578543901443481, 0.052217260003089905, -0.05117620527744293, -0.7438820296060648, 0.009092190632894195, -0.17192117334169998,-0.645755373524332,-0.868072509765625,-0.1918182373046875,0.0557098388671875
20220112-1351,2022-01-12 13:51:26Z,u01, 209,40,movements,el-ex, rt, d,94061.26931366668, -1.690389744707251, 0.2559617547420827, 2.8982944782261497, -0.047591693699359894, -0.377182275056839, -0.3855034112930298, -0.9605104327201843, -0.2531759440898895, 0.11542152613401413, 0.0756683349609375, -0.02569374442100525, 0.00472654402256012, -0.7467764849066334, 0.005970313243708128, -0.17464284760866575,-0.6417081311733158,-0.898468017578125,-0.2931671142578125,0.1434326171875
20220112-1351,2022-01-12 13:51:26Z,u01, 210,40,movements,el-ex, rt, d,94061.29425566667, -1.6995043717904834, 0.265044512107535, 2.8983817447177334, -0.046216607093811035, -0.3236176669597626, -0.347356915473938, -0.9570984244346619, -0.2619522213935852, 0.12387102842330933, -0.02112734317779541, -0.016139209270477295, 0.01048290729522705, -0.7496143076910364, 0.0037289648348740045, -0.17789596633889976,-0.6375089757662589,-0.9782257080078125,-0.2780914306640625,0.1343536376953125
20220112-1351,2022-01-12 13:51:26Z,u01, 211,40,movements,el-ex, rt, d,94061.31919666668, -1.7066070012038206, 0.2732200769347017, 2.898992134439915, 0.0034751826897263527, -0.25677764415740967, -0.3152296245098114, -0.9540404081344604, -0.2698334753513336, 0.13037140667438507, -0.016952574253082275, 0.055432260036468506, -0.02558913826942444, -0.7517869617814245, 0.0014373771194445412, -0.1806738881562659,-0.6341696867214952,-0.96087646484375,-0.2148284912109375,0.10430908203125
20220112-1351,2022-01-12 13:51:26Z,u01, 212,40,movements,el-ex, rt, d,94061.34413866667, -1.7131172594294666, 0.28062400437760254, 2.8978903931713056, -0.12124647200107574, -0.3105742037296295, -0.27037313580513, -0.9511680006980896, -0.2769553065299988, 0.13629257678985596, 0.01748257875442505, -0.05338224768638611, 0.041167378425598145, -0.7537547918524248, 9.931175871641384e-06, -0.1837254188510034,-0.6309507705509279,-0.933685302734375,-0.3303375244140625,0.177459716796875
20220112-1351,2022-01-12 13:51:26Z,u01, 213,40,movements,el-ex, rt, d,94061.36907966668, -1.7191403387141742, 0.2878345393069497, 2.8957539260563285, -0.1375349760055542, -0.21903803944587708, -0.24878594279289246, -0.9483298659324646, -0.28387650847435, 0.14172014594078064, -0.049839019775390625, -0.020154863595962524, 0.03142164647579193, -0.7555521805099734, -0.0009890890815028863, -0.18703842465789527,-0.6278189083109825,-1.0059356689453125,-0.2850341796875,0.203399658203125
20220112-1351,2022-01-12 13:51:26Z,u01, 214,40,movements,el-ex, rt, d,94061.39402066667, -1.7228634137656178, 0.2940563560607568, 2.896633881167658, 0.10261401534080505, -0.03807803988456726, -0.266732394695282, -0.9460315704345703, -0.2898368537425995, 0.14497952163219452, -0.08708006143569946, 0.0605277419090271, -0.016561388969421387, -0.7566245600753492, -0.003005519418309399, -0.1890464872084453,-0.6259167399892395,-1.033111572265625,-0.22930908203125,0.12841796875
20220112-1351,2022-01-12 13:51:26Z,u01, 215,40,movements,el-ex, rt, d,94061.41896266668, -1.7245031137387992, 0.3005494672670799, 2.90016971002451, 0.02202862873673439, -0.018321912735700607, -0.2825848460197449, -0.943912923336029, -0.29604509472846985, 0.14623931050300598, -0.030086159706115723, 0.03862929344177246, -0.023863554000854492, -0.757020394370271, -0.00630716685753252, -0.19032565886173458,-0.6250252824581282,-0.9621124267578125,-0.2686920166015625,0.126983642578125
20220112-1351,2022-01-12 13:51:26Z,u01, 216,40,movements,el-ex, rt, d,94061.44390366667, -1.7257246697092556, 0.30720153034983033, 2.899298805257947, -0.1418982595205307, -0.10649918019771576, -0.24356260895729065, -0.9417669177055359, -0.3023923635482788, 0.14708510041236877, 0.006876230239868164, -0.037527650594711304, 0.06481394171714783, -0.7572833505361982, -0.008029548707933085, -0.1930412522732089,-0.6238530050488061,-0.9348907470703125,-0.3399200439453125,0.2118988037109375
20220112-1351,2022-01-12 13:51:26Z,u01, 217,40,movements,el-ex, rt, d,94061.46884566668, -1.7264374921039265, 0.31337994441829803, 2.8957901025612545, -0.1318100094795227, -0.02047707699239254, -0.17722846567630768, -0.9397981762886047, -0.3082757294178009, 0.14746394753456116, -0.049871623516082764, 0.0380425751209259, 0.03751860558986664, -0.7574016325242234, -0.00864515828407457, -0.1964016669681239,-0.6226511773215181,-0.9903106689453125,-0.2548828125,0.162445068359375
20220112-1351,2022-01-12 13:51:26Z,u01, 218,40,movements,el-ex, rt, d,94061.49378666667, -1.7269536864080148, 0.31755349005497724, 2.8970979814913873, 0.12760528922080994, -0.00944606401026249, -0.193865567445755, -0.9384426474571228, -0.3122433125972748, 0.14774763584136963, 0.0018582940101623535, 0.05102813243865967, -0.08738365769386292, -0.7574725239082838, -0.010449416882268026, -0.19752560763917681,-0.6221814420008869,-0.93658447265625,-0.2612152099609375,0.06036376953125
20220112-1351,2022-01-12 13:51:26Z,u01, 219,40,movements,el-ex, rt, d,94061.51872766667, -1.729224404858883, 0.32273862248390267, 2.8999563192864577, -0.017056025564670563, -0.10335338115692139, -0.23242947459220886, -0.9364935755729675, -0.31716498732566833, 0.14962077140808105, 0.051499009132385254, 0.06637150049209595, -0.03629350662231445, -0.7580511254649551, -0.012995370587590455, -0.1985499826677945,-0.6211019316192296,-0.877716064453125,-0.2602691650390625,0.138702392578125
20220112-1351,2022-01-12 13:51:26Z,u01, 220,40,movements,el-ex, rt, d,94061.54366966667, -1.732452583142823, 0.3283530454793205, 2.898209350744608, -0.1392209529876709, -0.19053170084953308, -0.18542174994945526, -0.9342334866523743, -0.32248449325561523, 0.1523541510105133, 0.04659914970397949, -0.013300448656082153, 0.042104125022888184, -0.75893719860257, -0.013834869231417926, -0.20117121596068588,-0.6191552106583231,-0.88763427734375,-0.335784912109375,0.1944580078125
20220112-1351,2022-01-12 13:51:26Z,u01, 221,40,movements,el-ex, rt, d,94061.56861066667, -1.7355726903873228, 0.3329452851812288, 2.8967041091726267, -0.0593387633562088, -0.12214944511651993, -0.18167415261268616, -0.9322829842567444, -0.3268279731273651, 0.15502378344535828, 0.004960417747497559, -0.012680143117904663, 0.02037622034549713, -0.7598048736292264, -0.014437569213903476, -0.20334264848782202,-0.6173654454655775,-0.928863525390625,-0.3108367919921875,0.1497650146484375
20220112-1351,2022-01-12 13:51:26Z,u01, 222,40,movements,el-ex, rt, d,94061.59355266667, -1.73788831837778, 0.33653589587275784, 2.8975882143128042, 0.11220948398113251, -0.09558774530887604, -0.18982675671577454, -0.9307581782341003, -0.3302192986011505, 0.15698596835136414, 0.009279847145080566, 0.06883624196052551, -0.08945035934448242, -0.760425195713243, -0.01570053813560847, -0.20440495848296386,-0.616218888030267,-0.921478271484375,-0.261383056640625,0.067535400390625
20220112-1351,2022-01-12 13:51:26Z,u01, 223,40,movements,el-ex, rt, d,94061.61849366667, -1.7420274559135809, 0.3400556397738162, 2.901293856696738, 0.025490202009677887, -0.1384698897600174, -0.15335042774677277, -0.9289494752883911, -0.33353954553604126, 0.16063812375068665, 0.018976211547851562, -0.01907581090927124, -0.020226478576660156, -0.7615781802184034, -0.017825115792621624, -0.2045924608686005,-0.6146730957165113,-0.913726806640625,-0.3593597412109375,0.152740478515625
20220112-1351,2022-01-12 13:51:26Z,u01, 224,40,movements,el-ex, rt, d,94061.64343566667, -1.7457971365827258, 0.3429293345617178, 2.8996830107726317, -0.13411545753479004, -0.16503873467445374, -0.04057973995804787, -0.9273896217346191, -0.3362472951412201, 0.16397124528884888, -0.004479944705963135, -0.039698779582977295, 0.04095458984375, -0.7626732784008209, -0.017750956664242604, -0.20617758215742332,-0.6127848929111328,-0.9318695068359375,-0.375946044921875,0.204925537109375
20220112-1351,2022-01-12 13:51:26Z,u01, 225,40,movements,el-ex, rt, d,94061.66837666667, -1.7484671445072415, 0.3433203766527295, 2.8964770554408465, -0.048395439982414246, -0.14558365941047668, -0.005095381289720535, -0.9268189072608948, -0.33661556243896484, 0.16642352938652039, -0.035995423793792725, -0.009285926818847656, 0.036137089133262634, -0.7635073924784603, -0.01637762647271046, -0.2073255207947692,-0.6113954644483771,-0.971893310546875,-0.3470458984375,0.1873321533203125
20220112-1351,2022-01-12 13:51:26Z,u01, 226,40,movements,el-ex, rt, d,94061.693317875, -1.7502499021295281, 0.34309444442938397, 2.896863833785013, 0.054632239043712616, -0.07635325938463211, -0.016193373128771782, -0.9265955686569214, -0.3364028036594391, 0.1680891364812851, -0.015726208686828613, 0.026084810495376587, -0.03297235071659088, -0.764054919603099, -0.016267960699713216, -0.2071386346485899,-0.6107774484659393,-0.94232177734375,-0.3103179931640625,0.1351165771484375
20220112-1351,2022-01-12 13:51:26Z,u01, 227,40,movements,el-ex, rt, d,94061.71825987501, -1.7533758865431535, 0.34296804807857356, 2.898347051184643, 0.04696899652481079, -0.12439961731433868, 0.027577009052038193, -0.9261073470115662, -0.33628377318382263, 0.17099253833293915, 0.024282395839691162, -0.03833475708961487, -0.00807429850101471, -0.7649999848950897, -0.016470975444461064, -0.20666500568028634,-0.6097485826482267,-0.90679931640625,-0.383575439453125,0.1666107177734375
20220112-1351,2022-01-12 13:51:26Z,u01, 228,40,movements,el-ex, rt, d,94061.743200875, -1.7562701922592834, 0.34278555934544525, 2.8972187877461963, -0.1292135864496231, -0.1060975044965744, 0.0162368044257164, -0.9256688356399536, -0.3361119031906128, 0.17368356883525848, -0.01961308717727661, 0.006232172250747681, 0.03614029288291931, -0.7658954739677633, -0.01568137920294363, -0.20696448455944755,-0.6085424552020963,-0.945281982421875,-0.3298797607421875,0.2098236083984375
20220112-1351,2022-01-12 13:51:26Z,u01, 229,40,movements,el-ex, rt, d,94061.76814287501, -1.7561327370720077, 0.34258686793800947, 2.8936177517078754, -0.07023106515407562, -0.026532307267189026, -0.004806628450751305, -0.9257586002349854, -0.33592474460601807, 0.17356868088245392, -0.048072755336761475, 0.02115115523338318, 0.029037848114967346, -0.7658858867876326, -0.014252975198525086, -0.20798545457190803,-0.6082416667876486,-0.97674560546875,-0.3163909912109375,0.1999664306640625
20220112-1351,2022-01-12 13:51:26Z,u01, 230,40,movements,el-ex, rt, d,94061.793083875, -1.7558839674562048, 0.3426529796603439, 2.8956600799615106, 0.17864620685577393, 0.039567217230796814, -0.03321363776922226, -0.9257798790931702, -0.33598703145980835, 0.1733342856168747, -0.0018173456192016602, -0.0003167390823364258, -0.05159936845302582, -0.7657934913278805, -0.015082037955685676, -0.20738678972165356,-0.608542330622706,-0.9275970458984375,-0.3363037109375,0.121734619140625
20220112-1351,2022-01-12 13:51:27Z,u01, 231,40,movements,el-ex, rt, d,94061.818024875, -1.7575024757167073, 0.34405088383393334, 2.898280714146356, -0.016937479376792908, -0.0990869402885437, -0.025068756192922592, -0.9250357747077942, -0.3373033404350281, 0.1747450977563858, 0.013155102729797363, -0.0151137113571167, -0.003312334418296814, -0.7662275870975811, -0.01636562401626024, -0.20711925751648674,-0.6080537244578341,-0.9281005859375,-0.3473968505859375,0.1769561767578125
20220112-1351,2022-01-12 13:51:27Z,u01, 232,40,movements,el-ex, rt, d,94061.842966875, -1.7590461757689566, 0.34322073809877407, 2.8965059127795594, -0.09528827667236328, -0.004457763396203518, 0.03226177766919136, -0.9250394105911255, -0.336521714925766, 0.17622515559196472, -0.09121119976043701, -0.006068587303161621, 0.0342089980840683, -0.766733140051379, -0.015259956415851914, -0.20736361318577312,-0.6073613206900186,-1.0162506103515625,-0.34259033203125,0.2104339599609375
20220112-1351,2022-01-12 13:51:27Z,u01, 233,40,movements,el-ex, rt, d,94061.867907875, -1.757786648798342, 0.3424624178252756, 2.895475620134907, 0.060499683022499084, 0.04904613643884659, 0.020080145448446274, -0.9255111813545227, -0.33580753207206726, 0.17510731518268585, -0.07505345344543457, 0.005164802074432373, -0.020962834358215332, -0.7663784976309002, -0.014753078367904501, -0.20738662117105094,-0.607813497222005,-0.98883056640625,-0.331146240234375,0.139129638671875
20220112-1351,2022-01-12 13:51:27Z,u01, 234,40,movements,el-ex, rt, d,94061.892849875, -1.756848110056468, 0.34212956845017417, 2.898024260146334, 0.0824170708656311, 0.07010714709758759, -0.008390977047383785, -0.9257848262786865, -0.3354939818382263, 0.1742592453956604, -0.004924952983856201, -0.013474494218826294, -0.026920095086097717, -0.7660825689932843, -0.01572008005462737, -0.20648139745422225,-0.6084700629614155,-0.9307098388671875,-0.348968505859375,0.1473388671875
20220112-1351,2022-01-12 13:51:27Z,u01, 235,40,movements,el-ex, rt, d,94061.917790875, -1.7559757890286332, 0.34251077285582054, 2.8971931040551864, -0.14111003279685974, 0.004440523684024811, -0.03157006576657295, -0.9258108139038086, -0.33585307002067566, 0.17342805862426758, 0.00015157461166381836, -0.00948384404182434, -0.0041010379791259766, -0.7658134458541432, -0.015613979587873264, -0.2068684247441911,-0.6086801522880598,-0.9372711181640625,-0.3424835205078125,0.1898651123046875
20220112-1351,2022-01-12 13:51:27Z,u01, 236,40,movements,el-ex, rt, d,94061.942732875, -1.7538873417392327, 0.34235169711480423, 2.8953016453134093, 0.015210968442261219, 0.1176128163933754, 0.006382309831678867, -0.9262233972549438, -0.3357032537460327, 0.17150388658046722, -0.05920439958572388, 0.010309576988220215, 0.0018666833639144897, -0.7651962348619005, -0.015055317826697029, -0.20736958081644025,-0.6092995389650245,-0.9854278564453125,-0.3253936767578125,0.173370361328125
20220112-1351,2022-01-12 13:51:27Z,u01, 237,40,movements,el-ex, rt, d,94061.967673875, -1.750201464692185, 0.3413447527006246, 2.896824584927979, 0.0983322262763977, 0.17955420911312103, 0.052190277725458145, -0.9271814227104187, -0.3347545564174652, 0.16814902424812317, -0.0412939190864563, 0.01354178786277771, -0.009136930108070374, -0.7640864855691462, -0.015695641614660166, -0.20650509917423202,-0.6109674143782712,-0.966766357421875,-0.3291473388671875,0.1536102294921875
20220112-1351,2022-01-12 13:51:27Z,u01, 238,40,movements,el-ex, rt, d,94061.99261487501, -1.7449758621189293, 0.33899338007355373, 2.898122768028798, 0.02933327853679657, 0.258120059967041, 0.11436303704977036, -0.9288202524185181, -0.3325379192829132, 0.1634376496076584, 0.00029224157333374023, -0.06029963493347168, -0.04789780080318451, -0.7625376826678127, -0.015972088469759338, -0.2052000823367618,-0.6133304736875482,-0.92852783203125,-0.3928375244140625,0.11553955078125
20220112-1351,2022-01-12 13:51:27Z,u01, 239,40,movements,el-ex, rt, d,94062.01755687501, -1.7391550632191064, 0.3373393119020207, 2.8961885462755914, -0.13333988189697266, 0.15001922845840454, 0.031788066029548645, -0.9302969574928284, -0.33097752928733826, 0.15812040865421295, 0.03607070446014404, -0.01774686574935913, -0.019249901175498962, -0.7608062570212003, -0.015298475273750431, -0.20514072245822873,-0.6155138924943914,-0.9068450927734375,-0.34869384765625,0.160186767578125
20220112-1351,2022-01-12 13:51:27Z,u01, 240,40,movements,el-ex, rt, d,94062.04249787501, -1.7344162070743427, 0.33681712972680955, 2.894157486756405, -0.0018921857699751854, 0.21019402146339417, -0.03492211923003197, -0.9312060475349426, -0.3304847478866577, 0.15373821556568146, -0.11656934022903442, -0.04318776726722717, 0.011499404907226562, -0.7593739263505296, -0.014843995770174923, -0.20553941610926452,-0.617158466240219,-1.0477752685546875,-0.3736724853515625,0.1652374267578125
20220112-1351,2022-01-12 13:51:27Z,u01, 241,40,movements,el-ex, rt, d,94062.06743987501, -1.7293084779834047, 0.33748193257784975, 2.8976507329495504, 0.23114000260829926, 0.2622305750846863, -0.028593916445970535, -0.9317618608474731, -0.3311121165752411, 0.1489451378583908, -0.14347916841506958, -0.05170035362243652, -0.011402145028114319, -0.7577510598229351, -0.01690865695075912, -0.20466226586796277,-0.6193874505107138,-1.0702667236328125,-0.3844757080078125,0.137451171875
20220112-1351,2022-01-12 13:51:27Z,u01, 242,40,movements,el-ex, rt, d,94062.09238087501, -1.7253463502580348, 0.33727909760448405, 2.9019132845136952, 0.051467977464199066, 0.13993796706199646, 0.018397826701402664, -0.9324108958244324, -0.3309207260608673, 0.14526253938674927, -0.12903612852096558, -0.0712246298789978, -0.010695129632949829, -0.7564889691884356, -0.01886029223355587, -0.2032305443753894,-0.6213421056839528,-1.0614471435546875,-0.4021453857421875,0.1345672607421875
20220112-1351,2022-01-12 13:51:27Z,u01, 243,40,movements,el-ex, rt, d,94062.117321875, -1.7226336623559932, 0.3364444288660761, 2.9014864534585523, -0.03570231422781944, 0.09630107134580612, 0.05224427208304405, -0.9330744743347168, -0.33013296127319336, 0.14277443289756775, -0.17164665460586548, -0.04877328872680664, -0.018918633460998535, -0.7556701951410635, -0.018702193293998026, -0.2030331558583563,-0.6224069702218061,-1.111480712890625,-0.36932373046875,0.125640869140625
20220112-1351,2022-01-12 13:51:27Z,u01, 244,40,movements,el-ex, rt, d,94062.14226387501, -1.7211318743217803, 0.3352163923725756, 2.9021412164018243, 0.09263961017131805, 0.03530389443039894, 0.011566219851374626, -0.9336878657341003, -0.32897353172302246, 0.14143359661102295, -0.17457324266433716, -0.05649399757385254, -0.02146877348423004, -0.7552265089749948, -0.01870070636719519, -0.20236736108039827,-0.6231618642197535,-1.1082611083984375,-0.385467529296875,0.119964599609375
20220112-1351,2022-01-12 13:51:27Z,u01, 245,40,movements,el-ex, rt, d,94062.167204875, -1.7220614318149592, 0.33495342591787847, 2.905162507870109, 0.12845167517662048, -0.02426116354763508, -0.008556358516216278, -0.9336414337158203, -0.3287251889705658, 0.14231446385383606, -0.1686839461326599, -0.046518921852111816, -0.028559952974319458, -0.7554936362035215, -0.019662097007209237, -0.20133898671030193,-0.6231415221490869,-1.099578857421875,-0.381439208984375,0.1168365478515625
20220112-1351,2022-01-12 13:51:27Z,u01, 246,40,movements,el-ex, rt, d,94062.19214687501, -1.7247550788543138, 0.3356085446025383, 2.9071744226584486, -0.011891156435012817, -0.11351187527179718, -0.046290356665849686, -0.9330418705940247, -0.3293438255786896, 0.14479582011699677, -0.16615557670593262, -0.04896736145019531, -0.027104496955871582, -0.7562956881333684, -0.020365267817408356, -0.20097877861343644,-0.6222618244675656,-1.0991973876953125,-0.3783111572265625,0.1176910400390625
20220112-1351,2022-01-12 13:51:27Z,u01, 247,40,movements,el-ex, rt, d,94062.217087875, -1.7277115120943773, 0.33731354802360586, 2.9059939620205983, -0.0712566077709198, -0.1233448013663292, -0.06272019445896149, -0.9320535063743591, -0.3309532403945923, 0.14746566116809845, -0.20880025625228882, -0.042017340660095215, 0.010981887578964233, -0.7571827748296707, -0.02017610356372139, -0.20199896391248123,-0.6208571086627607,-1.1476898193359375,-0.3690185546875,0.1647186279296875
20220112-1351,2022-01-12 13:51:27Z,u01, 248,40,movements,el-ex, rt, d,94062.242028875, -1.7300453225591226, 0.3389009068123804, 2.904761514566296, -0.02310972288250923, -0.08679744601249695, -0.055436715483665466, -0.9311872124671936, -0.3324507176876068, 0.14955703914165497, -0.21313059329986572, -0.061592310667037964, 0.03016127645969391, -0.7578779251313015, -0.019989226209669197, -0.20298544521210182,-0.6196923115865933,-1.144317626953125,-0.39404296875,0.179718017578125
