SessionID,LoggingTime,UID,RecNo,Hertz,Activity,MoveType,Wrist,Side,TimeStamp,DMRoll,DMPitch,DMYaw,DMRotX,DMRotY,DMRotZ,DMGrvX,DMGrvY,DMGrvZ,DMUAccelX,DMUAccelY,DMUAccelZ,DMQuatX,DMQuatY,DMQuatW,DMQuatZ,AccelroX,AceelroY,AceelroZ
20220112-1402,2022-01-12 14:02:56Z,u01, 1,40,movements,el-ex, rt, d,94731.124470625, -1.629655481512362, 0.05039659028160228, 3.0940772599916624, -0.051934078335762024, -0.13734111189842224, -0.15596738457679749, -0.9970009922981262, -0.050375260412693024, 0.058750495314598083, 0.09500813484191895, -0.04444286227226257, 0.049037814140319824, -0.727581781222194, -2.7755575615628914e-17, -0.034618280224277265,-0.6851470333148638,-0.926025390625,-0.1307830810546875,0.1209259033203125
20220112-1402,2022-01-12 14:02:56Z,u01, 2,40,movements,el-ex, rt, d,94731.15439762501, -1.632832625788003, 0.0556361428014307, 3.094448919283138, 0.09399722516536713, -0.11402234435081482, -0.14746591448783875, -0.9965323209762573, -0.055607445538043976, 0.061900604516267776, 0.05416452884674072, -0.008159041404724121, -0.014170877635478973, -0.7286609554001634, -0.0018745963503886964, -0.036397830321659205,-0.6839043256668483,-0.9423675537109375,-0.0637664794921875,0.0477294921875
20220112-1402,2022-01-12 14:02:56Z,u01, 3,40,movements,el-ex, rt, d,94731.184325625, -1.6379093337721962, 0.05994167114872265, 3.097805620276617, 0.003470822237432003, -0.4760012626647949, -0.1432918757200241, -0.99595707654953, -0.05990578234195709, 0.06694220751523972, 0.0445866584777832, 0.1652524471282959, -0.039460889995098114, -0.7303773337298833, -0.0044783894432644245, -0.036828182041180366,-0.6820357801963806,-0.8092041015625,0.048583984375,0.0195465087890625
20220112-1402,2022-01-12 14:02:56Z,u01, 4,40,movements,el-ex, rt, d,94731.214253625, -1.6468691901377104, 0.06904844912575556, 3.097610238708156, 0.019600756466388702, -0.277114599943161, -0.3336760103702545, -0.9947319030761719, -0.06899359822273254, 0.07581841200590134, 0.0372733473777771, -0.011939011514186859, -0.004635937511920929, -0.7333862423483596, -0.007336685574659191, -0.04024928179204408,-0.6785800022941945,-0.909149169921875,-0.009765625,0.0737457275390625
20220112-1402,2022-01-12 14:02:56Z,u01, 5,40,movements,el-ex, rt, d,94731.244181625, -1.6572405024343946, 0.08038049170820177, 3.098325960144269, 0.003086494281888008, -0.37930914759635925, -0.3742532432079315, -0.9930493235588074, -0.08029396086931229, 0.08605779707431793, 0.10088318586349487, 0.006288841366767883, -0.061170585453510284, -0.7368195082276908, -0.011221001261084343, -0.04421417578831191,-0.6745489143484871,-0.91217041015625,-0.116912841796875,0.035888671875
20220112-1402,2022-01-12 14:02:56Z,u01, 6,40,movements,el-ex, rt, d,94731.27410962501, -1.67042196713462, 0.09165921719750379, 3.1005327729721923, 0.02697504684329033, -0.49058640003204346, -0.3917864263057709, -0.9908645749092102, -0.0915309265255928, 0.09904341399669647, 0.1301315426826477, 0.0344630628824234, -0.004240401089191437, -0.7411346049193741, -0.015530769300807018, -0.04772136106627407,-0.6694781842910558,-0.8741302490234375,-0.0333404541015625,0.0534820556640625
20220112-1402,2022-01-12 14:02:56Z,u01, 7,40,movements,el-ex, rt, d,94731.304036625, -1.6862801467965969, 0.1044861253270068, 3.0991416874682662, -0.11425034701824188, -0.5763590335845947, -0.4319747984409332, -0.987921953201294, -0.10429611057043076, 0.11459890007972717, 0.09171205759048462, -0.054578423500061035, -0.01389072835445404, -0.7462856969970059, -0.018897339241256403, -0.05308241333402823,-0.6632367257176827,-0.86798095703125,-0.086029052734375,0.0997314453125
20220112-1402,2022-01-12 14:02:56Z,u01, 8,40,movements,el-ex, rt, d,94731.33396462501, -1.7030798486377468, 0.11763949543720698, 3.1006613599136683, 0.14067797362804413, -0.48132938146591187, -0.41791456937789917, -0.9844121336936951, -0.11736834794282913, 0.13098643720149994, 0.03040212392807007, 0.04258503019809723, 0.033686503767967224, -0.751630133298844, -0.02335297240248918, -0.057674110462915026,-0.656643347890394,-0.896209716796875,-0.15887451171875,0.1007080078125
20220112-1402,2022-01-12 14:02:56Z,u01, 9,40,movements,el-ex, rt, d,94731.363892625, -1.7163805402590144, 0.12843951043765414, 3.106804929239862, 0.053014904260635376, -0.46063166856765747, -0.36404427886009216, -0.9812714457511902, -0.128086656332016, 0.14387553930282593, 0.08529061079025269, 0.017170533537864685, -0.034820929169654846, -0.7557163817388075, -0.028818723740431075, -0.05990004815791049,-0.6515168479142737,-0.938507080078125,-0.075958251953125,0.1620025634765625
20220112-1402,2022-01-12 14:02:56Z,u01, 10,40,movements,el-ex, rt, d,94731.39382079167, -1.7312493744560618, 0.13996358115923216, 3.1081701916634663, -0.06379915773868561, -0.4463501572608948, -0.3936982750892639, -0.9775016903877258, -0.13950705528259277, 0.158203125, 0.029808878898620605, -0.05131934583187103, -0.002212420105934143, -0.7602876646659359, -0.032622503295570295, -0.06404484362422924,-0.6455979552741953,-0.9513702392578125,-0.0951995849609375,0.1038970947265625
20220112-1402,2022-01-12 14:02:56Z,u01, 11,40,movements,el-ex, rt, d,94731.42374779168, -1.7442950524889407, 0.15078737009760568, 3.1105551897311368, 0.1420527696609497, -0.41334646940231323, -0.3535170555114746, -0.9738104343414307, -0.15021660923957825, 0.17067080736160278, 0.04503840208053589, 0.05980828404426575, 0.002669215202331543, -0.7641966133060116, -0.036591577192881954, -0.06762086142777779,-0.6403843707005461,-0.898712158203125,-0.1866302490234375,0.1573333740234375
20220112-1402,2022-01-12 14:02:56Z,u01, 12,40,movements,el-ex, rt, d,94731.45367579168, -1.7562480549620467, 0.16087446428392926, 3.1173839185172936, 0.15369340777397156, -0.36058610677719116, -0.3913598656654358, -0.9701623320579529, -0.1601814478635788, 0.18200965225696564, 0.031609296798706055, 0.05338515341281891, -0.05290482938289642, -0.7676189640110836, -0.04202327550339527, -0.0695331989742061,-0.6357362155537324,-0.93914794921875,-0.1297607421875,0.16827392578125
20220112-1402,2022-01-12 14:02:56Z,u01, 13,40,movements,el-ex, rt, d,94731.48360379167, -1.7706181313789549, 0.17359918590860338, 3.1221962344602257, -0.00594168808311224, -0.5184841752052307, -0.4782828390598297, -0.9653705954551697, -0.1727285534143448, 0.19551122188568115, 0.05472606420516968, 0.006743445992469788, 0.019866809248924255, -0.7716923310768982, -0.04739784633506563, -0.0732212361933437,-0.6299865937103839,-0.9419708251953125,-0.0970458984375,0.1609649658203125
20220112-1402,2022-01-12 14:02:56Z,u01, 14,40,movements,el-ex, rt, d,94731.51353179167, -1.7851551459226442, 0.18569841103500592, 3.125154691062964, 0.041834358125925064, -0.42522749304771423, -0.3483283221721649, -0.9603142738342285, -0.18463298678398132, 0.2090638279914856, -0.024152517318725586, 0.02514807879924774, 0.005612298846244812, -0.7757893202002255, -0.05179619750445136, -0.07732897506093124,-0.6240901770799995,-0.9385528564453125,-0.1067962646484375,0.1291046142578125
20220112-1402,2022-01-12 14:02:56Z,u01, 15,40,movements,el-ex, rt, d,94731.54345879167, -1.7980467440691186, 0.19557608423689754, 3.1287850263959704, 0.021023383364081383, -0.435273677110672, -0.36565902829170227, -0.9557158350944519, -0.19433167576789856, 0.2210044115781784, 0.026379108428955078, 0.04693174362182617, -0.060939520597457886, -0.7793532209452658, -0.05577419726163489, -0.0803835993230534,-0.6188994031168884,-0.8988800048828125,-0.156707763671875,0.1971282958984375
20220112-1402,2022-01-12 14:02:56Z,u01, 16,40,movements,el-ex, rt, d,94731.57338679167, -1.8122688138975274, 0.20577472802052307, 3.132621769677936, 0.04775390028953552, -0.4113212525844574, -0.341791033744812, -0.9505021572113037, -0.2043256014585495, 0.23408770561218262, -0.045988500118255615, -0.08516417443752289, 0.05608883500099182, -0.7832391303437208, -0.05983574860466134, -0.08359357407492662,-0.6131626152104093,-0.9768218994140625,-0.17626953125,0.24188232421875
20220112-1402,2022-01-12 14:02:56Z,u01, 17,40,movements,el-ex, rt, d,94731.60331479168, -1.8217276344944642, 0.21376909743428907, 3.1341395645568446, -0.05529189109802246, -0.2187754511833191, -0.22095245122909546, -0.9466327428817749, -0.21214470267295837, 0.24265433847904205, -0.0588451623916626, 0.052156299352645874, 0.014135941863059998, -0.7857633839736069, -0.0624745821108052, -0.0865526730073811,-0.6092466663251209,-0.9648895263671875,-0.1443023681640625,0.162841796875
20220112-1402,2022-01-12 14:02:56Z,u01, 18,40,movements,el-ex, rt, d,94731.63324279168, -1.8294491667884867, 0.220692069845396, 3.1348931002331244, 0.000988156534731388, -0.2450920045375824, -0.27264466881752014, -0.9432885050773621, -0.21890495717525482, 0.24957485496997833, 0.00790935754776001, 0.026598408818244934, 0.0038127005100250244, -0.7877959198039357, -0.06453696535948134, -0.08929073359938319,-0.6060031511758597,-0.9143218994140625,-0.1948699951171875,0.2252960205078125
20220112-1402,2022-01-12 14:02:56Z,u01, 19,40,movements,el-ex, rt, d,94731.66316979167, -1.8361510446558342, 0.23005744415449797, 3.1375734577929673, 0.11654235422611237, -0.16514624655246735, -0.3375341296195984, -0.9395750164985657, -0.22803345322608948, 0.25534212589263916, -0.018448054790496826, -0.004876717925071716, 0.04261636734008789, -0.7893227299409372, -0.06812266537450513, -0.09239364248436874,-0.6031520487357129,-1.0157928466796875,-0.291046142578125,0.3039398193359375
20220112-1402,2022-01-12 14:02:56Z,u01, 20,40,movements,el-ex, rt, d,94731.69309779168, -1.8412199138362388, 0.23884628521818704, -3.1396888343839686, 0.031950466334819794, -0.16020534932613373, -0.2986760139465332, -0.9363009929656982, -0.23658181726932526, 0.25955596566200256, 0.04392135143280029, 0.03028300404548645, -0.008762389421463013, -0.7902326987277138, -0.07287153003298269, -0.09425941206042529,-0.6011132352540275,-1.0054779052734375,-0.1599884033203125,0.2567901611328125
20220112-1402,2022-01-12 14:02:56Z,u01, 21,40,movements,el-ex, rt, d,94731.72302579167, -1.8481414307804107, 0.247105948598481, -3.1376684469608933, -0.052664853632450104, -0.17066949605941772, -0.28996461629867554, -0.9325709342956543, -0.244598850607872, 0.2654862403869629, -0.013031482696533203, 0.048645466566085815, 0.03329622745513916, -0.7918303244332364, -0.07581464135328646, -0.09717865466021562,-0.5981749160404664,-0.9267425537109375,-0.167144775390625,0.2430877685546875
20220112-1402,2022-01-12 14:02:56Z,u01, 22,40,movements,el-ex, rt, d,94731.75295379167, -1.8523239101015896, 0.2552315830044298, -3.1353772985208774, 0.08932048082351685, -0.12720252573490143, -0.287367045879364, -0.929512619972229, -0.2524695098400116, 0.2688233554363251, 0.0036396384239196777, 0.02570858597755432, -0.008447140455245972, -0.7925781116354692, -0.07894060387891903, -0.09987640026325363,-0.5963331554369227,-0.960601806640625,-0.208831787109375,0.2906646728515625
20220112-1402,2022-01-12 14:02:56Z,u01, 23,40,movements,el-ex, rt, d,94731.78288079167, -1.857695171143362, 0.2635539532328719, -3.129590205534828, 0.0029373569414019585, -0.15683212876319885, -0.3332861065864563, -0.9260076284408569, -0.26051342487335205, 0.27320799231529236, -0.0029625892639160156, -0.0036619901657104492, -0.004744678735733032, -0.7934999301019482, -0.08343772166542347, -0.10167499616619866,-0.5941870129665225,-0.95172119140625,-0.2287750244140625,0.2633514404296875
20220112-1402,2022-01-12 14:02:56Z,u01, 24,40,movements,el-ex, rt, d,94731.81280879167, -1.8625067493945513, 0.2719304895597586, -3.126422082557157, 0.013359073549509048, -0.02711893618106842, -0.28219982981681824, -0.9225599765777588, -0.2685914933681488, 0.2770230770111084, -0.09219527244567871, 0.035177797079086304, 0.015991568565368652, -0.7943270328076825, -0.08692581939518543, -0.10427000041249247,-0.5921286034459583,-0.869476318359375,-0.2045135498046875,0.2786865234375
20220112-1402,2022-01-12 14:02:56Z,u01, 25,40,movements,el-ex, rt, d,94731.84273679167, -1.8628060076871515, 0.2788780560898245, -3.125900714070013, -0.05467917025089264, -0.006543751806020737, -0.20244787633419037, -0.9206677079200745, -0.2752772271633148, 0.2767552435398102, 0.008558392524719238, -0.027853846549987793, 0.00772973895072937, -0.793994200081648, -0.08916745402528423, -0.10689199981160973,-0.59177403876816,-0.962677001953125,-0.19085693359375,0.2972564697265625
20220112-1402,2022-01-12 14:02:56Z,u01, 26,40,movements,el-ex, rt, d,94731.87266479168, -1.8646667540545367, 0.2852129755133138, -3.123451704716326, 0.011459738947451115, -0.1009928286075592, -0.21329498291015625, -0.9184638261795044, -0.28136181831359863, 0.2779572606086731, 0.031607627868652344, -0.033777981996536255, 0.03327646851539612, -0.7940603458760274, -0.09190645150746353, -0.10877164964662903,-0.5909232708312323,-0.925872802734375,-0.2267608642578125,0.2603759765625
20220112-1402,2022-01-12 14:02:56Z,u01, 27,40,movements,el-ex, rt, d,94731.90259279167, -1.8662480105275803, 0.28971696248212836, -3.1216828273552624, 0.024929707869887352, 0.07577309012413025, -0.10809646546840668, -0.9168012738227844, -0.28568100929260254, 0.27903735637664795, -0.0738908052444458, 0.013403177261352539, 0.011337608098983765, -0.7941733797807898, -0.09384729690661069, -0.11011478195692236,-0.590216986727376,-0.9245147705078125,-0.27734375,0.2592010498046875
20220112-1402,2022-01-12 14:02:56Z,u01, 28,40,movements,el-ex, rt, d,94731.93251979168, -1.863506930780007, 0.2936556551960274, -3.121783193855003, -0.030931692570447922, 0.05813470855355263, -0.1250283122062683, -0.9164783954620361, -0.28945332765579224, 0.27619650959968567, 0.026188910007476807, -0.03178998827934265, -0.025250285863876343, -0.7931272271166742, -0.09511808450115242, -0.1115812784370127,-0.5911442417128182,-0.9802093505859375,-0.2444915771484375,0.314178466796875
20220112-1402,2022-01-12 14:02:56Z,u01, 29,40,movements,el-ex, rt, d,94731.96244779167, -1.8637732068200936, 0.2977738916097226, -3.1207564818394484, 0.0343230776488781, -0.014106729999184608, -0.09339767694473267, -0.9152558445930481, -0.2933928072452545, 0.2760939300060272, 0.01431572437286377, -0.04300251603126526, 0.05898931622505188, -0.7929008506645033, -0.09672230723630833, -0.1129272192389129,-0.5909320222045182,-0.971038818359375,-0.2349395751953125,0.288055419921875
20220112-1402,2022-01-12 14:02:57Z,u01, 30,40,movements,el-ex, rt, d,94731.99237579167, -1.8626349773251076, 0.29835529090007545, -3.121638393665783, -0.09280521422624588, 0.09710707515478134, 0.0008041197434067726, -0.9154058694839478, -0.29394856095314026, 0.2750028073787689, -0.07223457098007202, 0.0018495619297027588, 0.009024500846862793, -0.7925706583568641, -0.09660826808664066, -0.11336385003680821,-0.591309816433037,-0.898284912109375,-0.3309478759765625,0.2590789794921875
20220112-1402,2022-01-12 14:02:57Z,u01, 31,40,movements,el-ex, rt, d,94732.02230379167, -1.858654320061553, 0.29946968476855645, -3.123033295697941, -0.019765324890613556, 0.09123913943767548, -0.013757978565990925, -0.9161787033081055, -0.29501354694366455, 0.27126356959342957, -0.010243475437164307, 0.01402294635772705, -0.04669976234436035, -0.791390007480028, -0.09661079203973176, -0.11402671970307668,-0.592761533690587,-0.9049530029296875,-0.29437255859375,0.325225830078125
20220112-1402,2022-01-12 14:02:57Z,u01, 32,40,movements,el-ex, rt, d,94732.05223079167, -1.8579861063295906, 0.30080370453741206, -3.12327422989424, -0.06514725089073181, 0.04041177034378052, -0.010278958827257156, -0.9159815907478333, -0.2962879240512848, 0.27053961157798767, -0.008731722831726074, -0.028144478797912598, 0.03510931134223938, -0.7911200702103435, -0.09694763518759564, -0.1145946733378668,-0.592957358626657,-0.990692138671875,-0.27227783203125,0.290374755859375
20220112-1402,2022-01-12 14:02:57Z,u01, 33,40,movements,el-ex, rt, d,94732.08215879167, -1.8555030825023031, 0.30103421537410413, -3.1256236321834994, -0.042066603899002075, 0.08547132462263107, -0.020296771079301834, -0.9165846109390259, -0.2965080738067627, 0.2682451009750366, -0.04244542121887207, 0.019561082124710083, -0.018855363130569458, -0.7904824061575786, -0.09622951303018397, -0.11526314614208091,-0.5937944104636755,-0.9058990478515625,-0.3139801025390625,0.24249267578125
20220112-1402,2022-01-12 14:02:57Z,u01, 34,40,movements,el-ex, rt, d,94732.11208679168, -1.8523157235772278, 0.3019391998038433, -3.1248078915157214, 0.05135585740208626, 0.08001071214675903, -0.07250677794218063, -0.9171768426895142, -0.2973722517490387, 0.2652476131916046, 0.008409261703491211, 0.035500943660736084, -0.04838961362838745, -0.7894391269865899, -0.09700346146874805, -0.1152248384584667,-0.5950625094910177,-0.877410888671875,-0.3220672607421875,0.3089447021484375
20220112-1402,2022-01-12 14:02:57Z,u01, 35,40,movements,el-ex, rt, d,94732.14201479168, -1.8529283787113209, 0.3043766463293588, -3.122990276491276, 0.03304522484540939, 0.00044784508645534515, -0.058705344796180725, -0.916315495967865, -0.29969853162765503, 0.26560693979263306, -0.003667473793029785, 0.0016943812370300293, -0.01717841625213623, -0.7893790870992078, -0.09840798796072549, -0.11567808843979081,-0.5948236908013153,-0.95660400390625,-0.31817626953125,0.32769775390625
20220112-1402,2022-01-12 14:02:57Z,u01, 36,40,movements,el-ex, rt, d,94732.17194179168, -1.8511395492067235, 0.30389811966485214, -3.122830244670702, -0.02033667266368866, 0.044141463935375214, -0.004758824128657579, -0.9169266819953918, -0.29924196004867554, 0.26400700211524963, -0.02742445468902588, -0.018537551164627075, -0.024520188570022583, -0.7888691421662899, -0.0984325799917383, -0.11535323689403443,-0.5955586547848543,-0.9783172607421875,-0.285308837890625,0.248809814453125
20220112-1402,2022-01-12 14:02:57Z,u01, 37,40,movements,el-ex, rt, d,94732.20186979168, -1.8483919667251942, 0.3029260244736138, -3.1240349369721563, -0.02882513217628002, 0.020037923008203506, -0.02639574185013771, -0.9179279804229736, -0.29831427335739136, 0.26156628131866455, -0.007471799850463867, -0.014872342348098755, -0.021179229021072388, -0.7881706376889925, -0.09782731922310718, -0.11519341039144906,-0.5966132417348434,-0.91400146484375,-0.28558349609375,0.2399749755859375
20220112-1402,2022-01-12 14:02:57Z,u01, 38,40,movements,el-ex, rt, d,94732.23179779167, -1.847165788748823, 0.3030378079080674, -3.1233087256063916, 0.08243584632873535, 0.018900420516729355, -0.006275361403822899, -0.9182159304618835, -0.2984209656715393, 0.2604314386844635, -0.034008800983428955, -8.669495582580566e-05, 0.00928303599357605, -0.7877620801649282, -0.09821722648292452, -0.11496071772538567,-0.5971334322108652,-0.924713134765625,-0.324432373046875,0.3056488037109375
20220112-1402,2022-01-12 14:02:57Z,u01, 39,40,movements,el-ex, rt, d,94732.26172579167, -1.8451788527227744, 0.3034439197994314, -3.122368874616801, -0.0007275845855474472, 0.07376746833324432, 0.02295822463929653, -0.9186148643493652, -0.2988085448741913, 0.25857365131378174, -0.07874536514282227, 0.007548809051513672, 0.014833539724349976, -0.787096556567355, -0.09882223820472923, -0.11474227349259057,-0.5979527245982366,-0.9566802978515625,-0.289093017578125,0.261993408203125
20220112-1402,2022-01-12 14:02:57Z,u01, 40,40,movements,el-ex, rt, d,94732.29165279167, -1.8426028755590698, 0.3034466279942421, -3.122899759677221, -0.04374752566218376, 0.0507049560546875, -0.0038870391435921192, -0.9192772507667542, -0.298811137676239, 0.2562062740325928, -0.030353665351867676, -0.004319995641708374, -0.022105783224105835, -0.786351830392707, -0.09876202511674397, -0.11477493926046611,-0.598935507203855,-0.93359375,-0.2571258544921875,0.2117462158203125
20220112-1402,2022-01-12 14:02:57Z,u01, 41,40,movements,el-ex, rt, d,94732.32158079167, -1.8405337257533987, 0.3043457696815237, -3.1257353994545762, -0.1400243639945984, 0.052221160382032394, -0.03061099536716938, -0.9195457696914673, -0.299669086933136, 0.25423184037208557, -0.03022211790084839, -0.003278881311416626, 0.010096251964569092, -0.7858148625000636, -0.098035274204144, -0.11587689553924631,-0.5995469634627822,-0.89056396484375,-0.26690673828125,0.2186431884765625
20220112-1402,2022-01-12 14:02:57Z,u01, 42,40,movements,el-ex, rt, d,94732.35150879167, -1.8378917725952295, 0.30668764720939584, -3.1296869401360574, -0.08497961610555649, 0.06494947522878647, -0.07604904472827911, -0.9195350408554077, -0.30190250277519226, 0.2516157031059265, -0.050557732582092285, 0.026923835277557373, -0.015851974487304688, -0.7850688534359205, -0.09733828058932883, -0.11785430184730393,-0.6002521310087199,-0.9469451904296875,-0.311126708984375,0.255767822265625
20220112-1402,2022-01-12 14:02:57Z,u01, 43,40,movements,el-ex, rt, d,94732.38143679168, -1.836002179430349, 0.30913416503966157, -3.1297836551509026, -0.010760611854493618, 0.03947001323103905, -0.06932343542575836, -0.9192934632301331, -0.30423396825790405, 0.24968339502811432, -0.04112541675567627, 0.006412893533706665, 0.013332515954971313, -0.7843527653937211, -0.09814498919291612, -0.11875223648547241,-0.6008797255105199,-0.9372100830078125,-0.318389892578125,0.2390899658203125
20220112-1402,2022-01-12 14:02:57Z,u01, 44,40,movements,el-ex, rt, d,94732.41136466667, -1.836119284510353, 0.3111031006853185, -3.130812488858828, -0.1154351532459259, -0.07777285575866699, -0.060946330428123474, -0.9186840653419495, -0.3061089813709259, 0.24963341653347015, -0.042772114276885986, -0.02419799566268921, 0.010819032788276672, -0.7843143345823994, -0.09832461175156883, -0.11984026370566077,-0.6006842791867361,-0.9253997802734375,-0.3131866455078125,0.240386962890625
20220112-1402,2022-01-12 14:02:57Z,u01, 45,40,movements,el-ex, rt, d,94732.44129266667, -1.837183566358988, 0.3127165075438809, -3.1337194214514583, -0.06808485835790634, -0.036194056272506714, -0.041081078350543976, -0.9179403185844421, -0.3076445162296295, 0.25048068165779114, -0.13180333375930786, -0.017520278692245483, -0.0162276029586792, -0.7846743855765325, -0.09760356752924441, -0.12139853980385147,-0.6000184353728889,-0.944976806640625,-0.299591064453125,0.2639617919921875
20220112-1402,2022-01-12 14:02:57Z,u01, 46,40,movements,el-ex, rt, d,94732.47122066667, -1.8378956716270014, 0.3139612748845582, -3.1350774888739417, -0.03614945709705353, -0.05860035866498947, -0.032209623605012894, -0.9173915982246399, -0.3088286817073822, 0.2510330080986023, -0.1297885775566101, -0.03423464298248291, 0.046467751264572144, -0.7848756194918234, -0.09740004371453292, -0.12232940847192662,-0.5995990516078975,-0.9873504638671875,-0.293853759765625,0.3010101318359375
20220112-1402,2022-01-12 14:02:57Z,u01, 47,40,movements,el-ex, rt, d,94732.50114866668, -1.8394975380803376, 0.3153065270045443, -3.135640216337756, 0.01750881038606167, -0.025563914328813553, -0.03651788830757141, -0.9165869355201721, -0.31010788679122925, 0.2523917257785797, -0.20293515920639038, -0.060070306062698364, 0.05737707018852234, -0.7852979343109412, -0.09748340078919535, -0.12310452056237747,-0.5988734958198138,-0.9775848388671875,-0.3076019287109375,0.2413177490234375
20220112-1402,2022-01-12 14:02:57Z,u01, 48,40,movements,el-ex, rt, d,94732.53107566667, -1.839908411039981, 0.3164025214071688, -3.134412638704119, 0.002560320310294628, 0.0023209117352962494, -0.06054099649190903, -0.9161550998687744, -0.3111496865749359, 0.2526778280735016, -0.18891698122024536, -0.061866700649261475, 0.0327686071395874, -0.7852912494403222, -0.09826780215714594, -0.12318775849975108,-0.5987370135070377,-0.939422607421875,-0.300262451171875,0.2467803955078125
20220112-1402,2022-01-12 14:02:57Z,u01, 49,40,movements,el-ex, rt, d,94732.56100366668, -1.8399309845177065, 0.31850775751019555, -3.1352269617442685, -0.07530687749385834, -0.005554786883294582, -0.04671912267804146, -0.9155158996582031, -0.31314972043037415, 0.2525237798690796, -0.18534481525421143, -0.10678747296333313, 0.0798586905002594, -0.7852035829817161, -0.09857594563635824, -0.12425986616741269,-0.5985797876396017,-0.9522247314453125,-0.3040008544921875,0.26580810546875
20220112-1402,2022-01-12 14:02:57Z,u01, 50,40,movements,el-ex, rt, d,94732.59093166667, -1.8386362454905643, 0.32009502557305014, -3.136242279470113, 0.026986565440893173, 0.07137827575206757, -0.03445480018854141, -0.9153615236282349, -0.3146567642688751, 0.25120630860328674, -0.19412028789520264, -0.053827762603759766, 0.061995744705200195, -0.784764294179712, -0.09873277435401145, -0.12512341509160418,-0.5989499664609484,-0.9700927734375,-0.2749786376953125,0.2357635498046875
20220112-1402,2022-01-12 14:02:57Z,u01, 51,40,movements,el-ex, rt, d,94732.62085966667, -1.8366396291461762, 0.3206305258693719, -3.1345382213335924, 0.0018184967339038849, 0.09269608557224274, -0.038928911089897156, -0.9156985878944397, -0.3151650130748749, 0.24933390319347382, -0.15316444635391235, -0.07651287317276001, 0.038157135248184204, -0.7840469579696154, -0.09968609817787233, -0.12472386283638992,-0.5998142531074458,-0.9638824462890625,-0.286773681640625,0.259368896484375
20220112-1402,2022-01-12 14:02:57Z,u01, 52,40,movements,el-ex, rt, d,94732.65078666667, -1.833154587486571, 0.3221840480545218, -3.136095469639414, -0.08533291518688202, 0.10647234320640564, -0.018664654344320297, -0.9160878658294678, -0.3166389763355255, 0.2460138201713562, -0.12483620643615723, -0.0602836012840271, 0.03020094335079193, -0.7829782060220095, -0.09975991180545776, -0.12562667933248206,-0.6010083524036044,-0.9488525390625,-0.3357696533203125,0.258148193359375
20220112-1402,2022-01-12 14:02:57Z,u01, 53,40,movements,el-ex, rt, d,94732.68071466667, -1.829358664222867, 0.32317014970438657, -3.138438432120489, -0.08298094570636749, 0.10552879422903061, -0.0014340011402964592, -0.9167129993438721, -0.3175742030143738, 0.24245475232601166, -0.11661237478256226, -0.05882963538169861, 0.05815890431404114, -0.7818895028428394, -0.0993789712738028, -0.1265284994324098,-0.6022983570675577,-1.0045623779296875,-0.3211212158203125,0.244659423828125
20220112-1402,2022-01-12 14:02:57Z,u01, 54,40,movements,el-ex, rt, d,94732.71064266667, -1.8248426826908009, 0.3226774565554338, -3.1392612534566795, 0.031595733016729355, 0.17795990407466888, 0.040539614856243134, -0.917949914932251, -0.3171069622039795, 0.2383517324924469, -0.11337649822235107, -0.011613160371780396, 0.027426034212112427, -0.7805999659808405, -0.09919456677428294, -0.12635993245088278,-0.6040343367415615,-1.0554962158203125,-0.3282318115234375,0.2545013427734375
20220112-1402,2022-01-12 14:02:57Z,u01, 55,40,movements,el-ex, rt, d,94732.74057066668, -1.819513769223244, 0.32146248593936, -3.1402907290722446, -0.1144402027130127, 0.12785780429840088, 0.05628468468785286, -0.919579803943634, -0.3159544765949249, 0.23355136811733246, -0.04592025279998779, -0.03818681836128235, -0.010971158742904663, -0.7791160306726641, -0.09876182480487657, -0.12593379855327624,-0.6061065846519029,-1.0532989501953125,-0.3530426025390625,0.3112335205078125
20220112-1402,2022-01-12 14:02:57Z,u01, 56,40,movements,el-ex, rt, d,94732.77049766667, -1.814019940830188, 0.32032352599348923, 3.1383342122578908, -0.0762215107679367, 0.1714829057455063, 0.0957438126206398, -0.9211974143981934, -0.3148736357688904, 0.22858232259750366, -0.09059756994247437, -0.0071935951709747314, 0.02581237256526947, -0.7777432091405164, -0.09698792979539976, -0.12660593156847033,-0.6080129749133842,-1.1195220947265625,-0.37017822265625,0.3097686767578125
20220112-1402,2022-01-12 14:02:57Z,u01, 57,40,movements,el-ex, rt, d,94732.80042566668, -1.8071362831791777, 0.31708599461725095, 3.136858108455924, -0.02680099755525589, 0.2233489602804184, 0.13573750853538513, -0.9237352609634399, -0.31179913878440857, 0.22247326374053955, -0.04683041572570801, 0.023331761360168457, 0.030425995588302612, -0.7759170549094473, -0.09586112338201189, -0.12546693844700493,-0.6107547720421423,-1.111663818359375,-0.372283935546875,0.288299560546875
20220112-1402,2022-01-12 14:02:57Z,u01, 58,40,movements,el-ex, rt, d,94732.83035366668, -1.8006368024289299, 0.3129544277610767, 3.134638752471286, -0.028520099818706512, 0.20652252435684204, 0.1666647344827652, -0.9264083504676819, -0.30787089467048645, 0.21675647795200348, -0.03957986831665039, -0.01892659068107605, 0.015802860260009766, -0.7742840133947235, -0.09414090117751762, -0.12423734919169459,-0.6133408198675445,-1.0897674560546875,-0.4048614501953125,0.32452392578125
20220112-1402,2022-01-12 14:02:57Z,u01, 59,40,movements,el-ex, rt, d,94732.86028166667, -1.7927757008043137, 0.3075378264849375, 3.1331125798698074, 0.008564183488488197, 0.23480774462223053, 0.19736625254154205, -0.9296966195106506, -0.30271291732788086, 0.20983131229877472, -0.013143956661224365, 0.03597399592399597, -0.0655592679977417, -0.7722589924749141, -0.09236724191263322, -0.12224782659734179,-0.616554822264018,-1.1154632568359375,-0.404296875,0.32208251953125
20220112-1402,2022-01-12 14:02:57Z,u01, 60,40,movements,el-ex, rt, d,94732.89020866668, -1.7861547083557774, 0.3006601090974572, 3.130169191304344, -0.16811850666999817, 0.22675181925296783, 0.27018171548843384, -0.9330775737762451, -0.2961507737636566, 0.20411138236522675, -0.040524959564208984, -0.03226423263549805, 0.04506485164165497, -0.7707429496445483, -0.08950418764784521, -0.12020629253493631,-0.619269704034964,-1.09466552734375,-0.37445068359375,0.31378173828125
20220112-1402,2022-01-12 14:02:57Z,u01, 61,40,movements,el-ex, rt, d,94732.92013666667, -1.7756374191802275, 0.29240757232202247, 3.1249710912591135, 0.00801104586571455, 0.3331047594547272, 0.33221006393432617, -0.9375336766242981, -0.28825843334198, 0.19477735459804535, -0.032971322536468506, 0.059620678424835205, 0.01719789206981659, -0.7681588685928231, -0.08556067998038483, -0.11819127046671275,-0.6234118895938561,-1.064178466796875,-0.39129638671875,0.286346435546875
20220112-1402,2022-01-12 14:02:57Z,u01, 62,40,movements,el-ex, rt, d,94732.95006466667, -1.765643113872347, 0.2819656419137684, 3.123391040979557, -0.10803885757923126, 0.31379178166389465, 0.37654054164886475, -0.9423349499702454, -0.2782441973686218, 0.18597038090229034, 0.007413744926452637, -0.003005772829055786, -0.004405871033668518, -0.7656491005165923, -0.08225963498423802, -0.1142703885255943,-0.6276599935901703,-1.040924072265625,-0.376922607421875,0.276214599609375
20220112-1402,2022-01-12 14:02:57Z,u01, 63,40,movements,el-ex, rt, d,94732.97999266667, -1.7542624903686126, 0.2713369111011639, 3.115133996337968, -0.19814515113830566, 0.3282429575920105, 0.4025695323944092, -0.9472448229789734, -0.2680196762084961, 0.17576387524604797, 0.004862010478973389, -0.021622687578201294, 0.015291571617126465, -0.7629198113320746, -0.07638914208036826, -0.11236805278728704,-0.6320534833379826,-1.0265960693359375,-0.384063720703125,0.3046417236328125
20220112-1402,2022-01-12 14:02:58Z,u01, 64,40,movements,el-ex, rt, d,94733.00991966667, -1.7421205368921853, 0.2599625925910273, 3.1119224703914234, 0.0883474349975586, 0.4211669862270355, 0.4064856469631195, -0.9522514343261719, -0.25704440474510193, 0.16475889086723328, 0.012538909912109375, 0.06859835982322693, 0.026342377066612244, -0.7597136363184773, -0.07221242897211681, -0.10861968875702992,-0.63704188762237,-1.043060302734375,-0.3389129638671875,0.284088134765625
20220112-1402,2022-01-12 14:02:58Z,u01, 65,40,movements,el-ex, rt, d,94733.03984766667, -1.7293662198885706, 0.24746354133852475, 3.109418221730748, -0.18030747771263123, 0.38584280014038086, 0.4166690409183502, -0.957373321056366, -0.24494555592536926, 0.15309591591358185, 0.039648592472076416, -0.008045196533203125, 0.023005977272987366, -0.7562632205341143, -0.06792566802575778, -0.10425246883182696,-0.6423267272556995,-0.9953155517578125,-0.325408935546875,0.2149200439453125
20220112-1402,2022-01-12 14:02:58Z,u01, 66,40,movements,el-ex, rt, d,94733.06977566668, -1.7164845718297865, 0.23590963840074683, 3.1002282294909014, -0.146304190158844, 0.31672561168670654, 0.45278263092041016, -0.9620017409324646, -0.23372752964496613, 0.14115241169929504, 0.06789779663085938, -0.04285326600074768, 0.0300513356924057, -0.7528670110755044, -0.06137973422003019, -0.10245636888674393,-0.6472452678345958,-0.968017578125,-0.3510589599609375,0.2501068115234375
20220112-1402,2022-01-12 14:02:58Z,u01, 67,40,movements,el-ex, rt, d,94733.09970366667, -1.7043720546092422, 0.22325991519109653, 3.0958084381208755, 0.0005624834448099136, 0.43095147609710693, 0.4378390908241272, -0.9664940237998962, -0.22140979766845703, 0.12987348437309265, 0.01614612340927124, 0.008534416556358337, 0.022027835249900818, -0.7495190148242605, -0.05619599908521462, -0.09880553735684905,-0.6521509000138478,-1.01837158203125,-0.3130340576171875,0.2433319091796875
20220112-1402,2022-01-12 14:02:58Z,u01, 68,40,movements,el-ex, rt, d,94733.12963066668, -1.6914206613985205, 0.2106406369930952, 3.095257014296943, 0.06655798107385635, 0.38481640815734863, 0.40850406885147095, -0.9707915186882019, -0.20908641815185547, 0.11767236143350601, 0.1035582423210144, 0.09015941619873047, -0.017940759658813477, -0.7457105913735796, -0.05245848991389105, -0.09393781504115137,-0.6575253377467738,-0.9705657958984375,-0.2884674072265625,0.252899169921875
20220112-1402,2022-01-12 14:02:58Z,u01, 69,40,movements,el-ex, rt, d,94733.15955866667, -1.6805198312344818, 0.19718381220788786, 3.093985814708083, -0.1529272347688675, 0.3486757278442383, 0.49884939193725586, -0.9747252464294434, -0.19590850174427032, 0.10738154500722885, 0.062112271785736084, -0.05517488718032837, 0.07328259944915771, -0.7425528785455716, -0.04802079392915628, -0.08909786920287842,-0.6620958484495357,-0.9519500732421875,-0.3336181640625,0.2542572021484375
20220112-1402,2022-01-12 14:02:58Z,u01, 70,40,movements,el-ex, rt, d,94733.18948666667, -1.666833126869157, 0.18171780029238047, 3.0849162546403424, -0.16019383072853088, 0.46121951937675476, 0.5417296886444092, -0.9790027737617493, -0.18071936070919037, 0.09431041777133942, 0.03515493869781494, -0.04335598647594452, -0.002238735556602478, -0.7386120500660013, -0.04009298228258357, -0.08610934481784252,-0.6674055280489228,-0.9759063720703125,-0.274627685546875,0.1448211669921875
20220112-1402,2022-01-12 14:02:58Z,u01, 71,40,movements,el-ex, rt, d,94733.21941466667, -1.653472629767612, 0.16570855332757803, 3.083679400386663, 0.10743483901023865, 0.39867842197418213, 0.5255278944969177, -0.9829328060150146, -0.16495122015476227, 0.081450916826725, 0.14305853843688965, 0.18458928167819977, -0.05894411355257034, -0.7345164597581735, -0.03479984827895544, -0.08040445633428239,-0.6729113601660333,-0.916290283203125,-0.3259124755859375,0.2353057861328125
20220112-1402,2022-01-12 14:02:58Z,u01, 72,40,movements,el-ex, rt, d,94733.24934166667, -1.6417069825654136, 0.14921126725566397, 3.0824239895383405, -0.146511048078537, 0.42448148131370544, 0.600021243095398, -0.9864034652709961, -0.14865821599960327, 0.0700639933347702, 0.053389549255371094, -0.07990318536758423, 0.11739038676023483, -0.7308758542857783, -0.029197267756034602, -0.07462208924922421,-0.6777901928947807,-1.0008087158203125,-0.295440673828125,0.243316650390625
20220112-1402,2022-01-12 14:02:58Z,u01, 73,40,movements,el-ex, rt, d,94733.27926966667, -1.627523874003369, 0.13267621984925274, 3.0752807237850814, -0.10721491277217865, 0.41567549109458923, 0.5191439390182495, -0.9896169304847717, -0.13228730857372284, 0.0561988390982151, 0.1303640604019165, 0.09342317283153534, 0.02564942091703415, -0.7263876291677208, -0.021457661985316068, -0.07087396692361474,-0.683284303240084,-0.9574432373046875,-0.2328643798828125,0.2073516845703125
20220112-1402,2022-01-12 14:02:58Z,u01, 74,40,movements,el-ex, rt, d,94733.30919766668, -1.6157744164708225, 0.11844148064713532, 3.0732692381765863, -0.02455049194395542, 0.34219199419021606, 0.4263205826282501, -0.9919899106025696, -0.11816474795341492, 0.04464792460203171, 0.15834105014801025, 0.06738347560167313, -0.028275128453969955, -0.7225375678898477, -0.016230373010796245, -0.06631718081877506,-0.6879522104073892,-0.9349212646484375,-0.28125,0.1815643310546875
20220112-1402,2022-01-12 14:02:58Z,u01, 75,40,movements,el-ex, rt, d,94733.33912566667, -1.606062649319274, 0.10720780886315401, 3.0699957461780754, -0.13829666376113892, 0.30631861090660095, 0.35716304183006287, -0.9936404228210449, -0.10700256377458572, 0.03505657985806465, 0.10026895999908447, -0.0009686127305030823, 0.028099652379751205, -0.7193028737084212, -0.011474560473942255, -0.06334500310627711,-0.6917073468632022,-0.93817138671875,-0.3143768310546875,0.1824798583984375
20220112-1402,2022-01-12 14:02:58Z,u01, 76,40,movements,el-ex, rt, d,94733.36905266668, -1.5957567921159426, 0.09661739189582702, 3.067388960755649, 0.008082385174930096, 0.3886936604976654, 0.3566053807735443, -0.9950262308120728, -0.09646714478731155, 0.02484147623181343, 0.03471428155899048, -0.01838577538728714, 0.0047149658203125, -0.7157997745263807, -0.007170853580406256, -0.060415169654081266,-0.6956503168828704,-0.947723388671875,-0.2076568603515625,0.1932830810546875
20220112-1402,2022-01-12 14:02:58Z,u01, 77,40,movements,el-ex, rt, d,94733.39898041668, -1.585490187929596, 0.08738956053560956, 3.070604114406645, 0.18065591156482697, 0.3112923800945282, 0.25888821482658386, -0.9960765242576599, -0.08727837353944778, 0.014637263491749763, 0.10621440410614014, 0.06121635437011719, -0.050113797187805176, -0.7122426603998332, -0.0053874534397189006, -0.0559777031576975,-0.6996770591360708,-0.9213714599609375,-0.2102813720703125,0.18475341796875
20220112-1402,2022-01-12 14:02:58Z,u01, 78,40,movements,el-ex, rt, d,94733.42890841667, -1.577630791429237, 0.08009432370169389, 3.076007275398197, 0.12334708869457245, 0.22553595900535583, 0.23573973774909973, -0.9967708587646484, -0.08000871539115906, 0.006812501233071089, 0.06453514099121094, 0.011328905820846558, -0.0005409717559814453, -0.7094939823155895, -0.004953761553496527, -0.051477248197133466,-0.7028113809139972,-0.911895751953125,-0.25213623046875,0.164520263671875
20220112-1402,2022-01-12 14:02:58Z,u01, 79,40,movements,el-ex, rt, d,94733.45883641667, -1.5714196523620116, 0.07292530804803324, 3.0778403759338584, 0.023609112948179245, 0.1908649355173111, 0.23242530226707458, -0.997342050075531, -0.07286068797111511, 0.0006216688780114055, 0.0076264142990112305, -0.08247379213571548, -0.030925512313842773, -0.707319173966699, -0.0032280928286910066, -0.04828623075210775,-0.7052359430579852,-0.9051666259765625,-0.2903289794921875,0.1744842529296875
20220112-1402,2022-01-12 14:02:58Z,u01, 80,40,movements,el-ex, rt, d,94733.48876341667, -1.5666938937201829, 0.06719831847503684, 3.0797168380059428, 0.0920754224061966, 0.1461276262998581, 0.1624143272638321, -0.997734546661377, -0.06714775413274765, -0.004093162249773741, 0.045158982276916504, 0.009133845567703247, -0.035228610038757324, -0.7056553811564502, -0.0019753258332793205, -0.045598968657701244,-0.7070836155138446,-0.950347900390625,-0.2128753662109375,0.1519012451171875
20220112-1402,2022-01-12 14:02:58Z,u01, 81,40,movements,el-ex, rt, d,94733.51869141667, -1.563285341391529, 0.0636606732302047, 3.0833214456568894, 0.10549432784318924, 0.0853934958577156, 0.10516920685768127, -0.9979463219642639, -0.06361768394708633, -0.007495701313018799, 0.08223581314086914, 0.07416150718927383, -0.057048797607421875, -0.704448632498711, -0.0020672414046147003, -0.043075272850553445,-0.7084437319008035,-0.8778076171875,-0.11737060546875,0.09893798828125
20220112-1402,2022-01-12 14:02:58Z,u01, 82,40,movements,el-ex, rt, d,94733.54861941667, -1.56217189897879, 0.06017937181183879, 3.0845155476413053, -0.06604494154453278, 0.03084024041891098, 0.13701236248016357, -0.9981526136398315, -0.06014305353164673, -0.008608708158135414, 0.03118795156478882, -0.07547705620527267, 0.024355947971343994, -0.7040554089848208, -0.0012754729028803397, -0.041427564098969596,-0.7089344584620194,-0.881744384765625,-0.199554443359375,0.1449432373046875
20220112-1402,2022-01-12 14:02:58Z,u01, 83,40,movements,el-ex, rt, d,94733.57854741668, -1.561358059440213, 0.05764003498778436, 3.0821102590773655, 0.02307181991636753, -0.02893774025142193, 0.0013776980340480804, -0.9982948899269104, -0.05760812386870384, -0.009422454051673412, 0.10116958618164062, 0.054510585963726044, -0.05422180891036987, -0.7037674083757871, 0.0004560644340215192, -0.041387982809543866,-0.7092237602137316,-0.951263427734375,-0.3095550537109375,0.189910888671875
20220112-1402,2022-01-12 14:02:58Z,u01, 84,40,movements,el-ex, rt, d,94733.60847441667, -1.562968084909214, 0.05860986714547096, 3.0845809722588102, 0.06513921171426773, -0.06535413861274719, -0.06703870743513107, -0.9982523918151855, -0.0585763193666935, -0.007814721204340458, 0.09246009588241577, 0.020536158233880997, 0.018679141998291016, -0.7043380680234909, -0.0007249523012107656, -0.04085310059564409,-0.7086878176523421,-0.9010009765625,-0.1029205322265625,0.0292510986328125
20220112-1402,2022-01-12 14:02:58Z,u01, 85,40,movements,el-ex, rt, d,94733.63840241668, -1.565021277491794, 0.06076016450850767, 3.083301719438714, -0.08585526049137115, -0.052716173231601715, -0.08144780993461609, -0.9981381297111511, -0.06072278693318367, -0.005764361005276442, 0.04774439334869385, -0.08251146972179413, 0.007915973663330078, -0.7050651250503704, -0.000994465509633169, -0.04206337302408554,-0.7078933195384588,-0.8424530029296875,0.0014801025390625,0.0429229736328125
20220112-1402,2022-01-12 14:02:58Z,u01, 86,40,movements,el-ex, rt, d,94733.66833041667, -1.5674963358001006, 0.06439958536039553, 3.0852137978662437, 0.1746165007352829, -0.09930717945098877, -0.17224356532096863, -0.9979216456413269, -0.06435508280992508, -0.003293144516646862, 0.0907103419303894, 0.18393820524215698, -0.016299009323120117, -0.705935536716665, -0.002906158484309959, -0.04267094129965704,-0.7069835966778294,-0.933013916015625,-0.2285614013671875,0.1874542236328125
20220112-1402,2022-01-12 14:02:58Z,u01, 87,40,movements,el-ex, rt, d,94733.69825841667, -1.5712448798411527, 0.06939840932016036, 3.0873196599183337, -0.029621317982673645, -0.13321614265441895, -0.16555476188659668, -0.9975928068161011, -0.0693427175283432, 0.0004474733432289213, 0.037418246269226074, -0.1307610422372818, 0.11121642589569092, -0.7072448265380494, -0.005337790036598469, -0.043697783408961896,-0.7055967719575625,-0.879241943359375,-0.07623291015625,0.10076904296875
20220112-1402,2022-01-12 14:02:58Z,u01, 88,40,movements,el-ex, rt, d,94733.72818541668, -1.5747496126439777, 0.07470878129379947, 3.0878487724048145, 0.19334454834461212, -0.09732997417449951, -0.18297336995601654, -0.9972029328346252, -0.07463930547237396, 0.003942248877137899, 0.04400151968002319, 0.05828188359737396, -0.017644524574279785, -0.7084613663028096, -0.007322351741035571, -0.04539822166365505,-0.7042499549131619,-0.8371124267578125,0.00994873046875,0.013275146484375
20220112-1402,2022-01-12 14:02:58Z,u01, 89,40,movements,el-ex, rt, d,94733.75811341667, -1.5794025497774262, 0.08139764202087253, 3.0931118075237474, 0.07790490984916687, -0.20710495114326477, -0.2584473490715027, -0.9966521263122559, -0.0813077837228775, 0.008577622473239899, 0.06493526697158813, 0.0798734799027443, 0.03167521953582764, -0.7100408037313014, -0.011439757096078584, -0.04593636398655282,-0.7025674438712117,-0.8541259765625,-0.1175994873046875,0.0432281494140625
20220112-1402,2022-01-12 14:02:58Z,u01, 90,40,movements,el-ex, rt, d,94733.78804141667, -1.5863079040402435, 0.08868656550131174, 3.0922034264370875, -0.0524432435631752, -0.19768694043159485, -0.22213327884674072, -0.9959502220153809, -0.08857035636901855, 0.01544999796897173, 0.004891812801361084, -0.11588215827941895, 0.0388561487197876, -0.7124200786805143, -0.013514082192571053, -0.04888467689815003,-0.6999181437798812,-0.914031982421875,-0.1063690185546875,0.0731201171875
20220112-1402,2022-01-12 14:02:58Z,u01, 91,40,movements,el-ex, rt, d,94733.81796941668, -1.5927506244603626, 0.09524118654882244, 3.0932599525081774, 0.17963765561580658, -0.20871029794216156, -0.22773391008377075, -0.9952282309532166, -0.09509726613759995, 0.021853048354387283, 0.08595693111419678, 0.11333150416612625, -0.07293939590454102, -0.7146115799341687, -0.01602541038069112, -0.050896423912086486,-0.6974834511375769,-0.9471435546875,-0.093109130859375,0.006988525390625
20220112-1402,2022-01-12 14:02:58Z,u01, 92,40,movements,el-ex, rt, d,94733.84789641667, -1.602818021894217, 0.10332549668048754, 3.0965887967970973, -0.10280321538448334, -0.46462756395339966, -0.2805265784263611, -0.9941568970680237, -0.10314173996448517, 0.03184547275304794, 0.16699302196502686, 0.034706056118011475, 0.0390775240957737, -0.7180053414784565, -0.019775405693141124, -0.05271764714843545,-0.693756616481926,-0.889862060546875,-0.02606201171875,-0.0354766845703125
20220112-1402,2022-01-12 14:02:58Z,u01, 93,40,movements,el-ex, rt, d,94733.87782441668, -1.6171900053732404, 0.11004852944634745, 3.0911745176188385, -0.16751709580421448, -0.49546271562576294, -0.16713501513004303, -0.992881178855896, -0.10982653498649597, 0.04609648883342743, 0.04622602462768555, -0.20818187296390533, 0.016067977994680405, -0.7229507710230966, -0.01975922537755652, -0.057146368999762304,-0.6882484831315772,-0.9241790771484375,-0.0566558837890625,-0.0152587890625
20220112-1402,2022-01-12 14:02:58Z,u01, 94,40,movements,el-ex, rt, d,94733.90775241668, -1.6344674688552976, 0.114841352376683, 3.0889121308324468, -0.004149147775024176, -0.6611889600753784, -0.18139159679412842, -0.9914001226425171, -0.11458908766508102, 0.06320901960134506, 0.15187674760818481, 0.22225509583950043, -0.08867573738098145, -0.7288355942690095, -0.020079465163736765, -0.05982814348390117,-0.6817742899345164,-0.9915771484375,-0.173736572265625,0.0036468505859375
20220112-1402,2022-01-12 14:02:58Z,u01, 95,40,movements,el-ex, rt, d,94733.93768041667, -1.6571047323133217, 0.12185349268285722, 3.105188294939437, 1.1131591796875, -0.716840922832489, -0.4255668520927429, -0.9888906478881836, -0.12155216187238693, 0.08556213229894638, 0.1840503215789795, 0.10623231530189514, -0.13558030128479004, -0.7362135066259827, -0.027762198125190103, -0.05714510983972336,-0.6737607838843896,-0.9577484130859375,-0.0798797607421875,-0.040985107421875
20220112-1402,2022-01-12 14:02:58Z,u01, 96,40,movements,el-ex, rt, d,94733.96760741668, -1.6876470970406947, 0.1338939097127922, 3.1387110309600215, 0.9055087566375732, -0.931499719619751, -0.4967901408672333, -0.9842914342880249, -0.13349419832229614, 0.11554156243801117, 0.18209105730056763, -0.15848273038864136, 0.11655998229980469, -0.7455792483126723, -0.04338624550122042, -0.05094009874378473,-0.6630493239979943,-0.9384765625,-0.0467529296875,-0.0413970947265625
20220112-1402,2022-01-12 14:02:59Z,u01, 97,40,movements,el-ex, rt, d,94733.99753541667, -1.7132106237239098, 0.14173523416050604, -3.1330555247260543, -0.08437677472829819, -0.7236154079437256, -0.149821475148201, -0.9799501299858093, -0.14126116037368774, 0.14051012694835663, -0.010680973529815674, -0.06200115382671356, 0.0030293315649032593, -0.7535218788901291, -0.04959679315548665, -0.050715018146648916,-0.6535846843288708,-0.9134368896484375,0.018768310546875,-0.0526123046875
20220112-1402,2022-01-12 14:02:59Z,u01, 98,40,movements,el-ex, rt, d,94734.02746341667, -1.7372907430677151, 0.14804818344299442, -3.130944999178398, 0.3077416718006134, -0.8244457244873047, -0.3138992488384247, -0.9753839373588562, -0.1475079506635666, 0.16391336917877197, 0.0809594988822937, 0.19001895189285278, -0.058063045144081116, -0.7610989059281678, -0.051818322743287855, -0.05303262338608708,-0.6443840950307319,-0.9669647216796875,-0.1356201171875,0.0157470703125
20220112-1402,2022-01-12 14:02:59Z,u01, 99,40,movements,el-ex, rt, d,94734.05739141667, -1.7618023566212984, 0.15540833095958229, -3.1192113455574804, 0.24766038358211517, -0.6160174012184143, -0.26315927505493164, -0.9699814319610596, -0.15478351712226868, 0.18755879998207092, -0.08765113353729248, -0.20137189328670502, 0.1367669403553009, -0.7683843446591856, -0.05800773119218141, -0.05276943902493897,-0.6351662006534734,-0.917083740234375,-0.04229736328125,-0.0583343505859375
20220112-1402,2022-01-12 14:02:59Z,u01, 100,40,movements,el-ex, rt, d,94734.08731841667, -1.7791530903809718, 0.16240692511502444, -3.1170775499907664, -0.05418751388788223, -0.5890233516693115, -0.2752618193626404, -0.9654978513717651, -0.16169393062591553, 0.20413053035736084, 0.03649693727493286, 0.11336933076381683, -0.09475529193878174, -0.7735611642281794, -0.060567250935690375, -0.055311769397161314,-0.6283911712834995,-0.8942413330078125,0.0543670654296875,-0.0403900146484375
20220112-1402,2022-01-12 14:02:59Z,u01, 101,40,movements,el-ex, rt, d,94734.11724641667, -1.7974792756310063, 0.1719886648450507, -3.113987079294022, 0.08828292042016983, -0.5864510536193848, -0.3888307809829712, -0.9600411653518677, -0.17114201188087463, 0.22143077850341797, 0.024540066719055176, 0.09841862320899963, 0.0001881122589111328, -0.7788388327672344, -0.06422975375781684, -0.05864338442043032,-0.6211647733435621,-0.934600830078125,-0.1736907958984375,0.0622100830078125
20220112-1402,2022-01-12 14:02:59Z,u01, 102,40,movements,el-ex, rt, d,94734.14717441668, -1.813576302649934, 0.18261339765881168, -3.1109536616487117, 0.008814388886094093, -0.38644835352897644, -0.29316991567611694, -0.9545336961746216, -0.18160013854503632, 0.23640474677085876, -0.09292131662368774, -0.16578148305416107, 0.05764761567115784, -0.7832951004666849, -0.0681994090844656, -0.062396932004207414,-0.6147392830081676,-0.9100341796875,-0.0075225830078125,-0.0246734619140625
20220112-1402,2022-01-12 14:02:59Z,u01, 103,40,movements,el-ex, rt, d,94734.17710141667, -1.8245185636183283, 0.19019612657753268, -3.1111455484271158, -0.06324482709169388, -0.3643636703491211, -0.25265565514564514, -0.9505293369293213, -0.18905149400234222, 0.24648237228393555, 0.011442422866821289, 0.14428220689296722, -0.05205477774143219, -0.7863389736187334, -0.07008710996569893, -0.06581617267098928,-0.6102680306219003,-0.9098358154296875,0.0984649658203125,0.0001678466796875
20220112-1402,2022-01-12 14:02:59Z,u01, 104,40,movements,el-ex, rt, d,94734.20702941668, -1.8358588460818037, 0.19878107748461452, -3.109446698598501, -0.025080295279622078, -0.3600928485393524, -0.3111611008644104, -0.9460719227790833, -0.19747455418109894, 0.2568109333515167, 0.000591576099395752, -0.009739801287651062, 0.07485425472259521, -0.7893544022262133, -0.07297319467638717, -0.06909513619513512,-0.6056570417385355,-0.960174560546875,-0.200103759765625,0.111663818359375
20220112-1402,2022-01-12 14:02:59Z,u01, 105,40,movements,el-ex, rt, d,94734.23695741667, -1.8454993404037654, 0.2078648202701954, -3.1069957930552383, -0.0077035692520439625, -0.2746588885784149, -0.28355956077575684, -0.9417868852615356, -0.20637115836143494, 0.26542192697525024, -0.013459265232086182, -0.05734652280807495, 0.00842776894569397, -0.7917604263823527, -0.07633081225383508, -0.07231513210466775,-0.6017139874102782,-0.9613494873046875,-0.0478363037109375,0.0057830810546875
20220112-1402,2022-01-12 14:02:59Z,u01, 106,40,movements,el-ex, rt, d,94734.26688541667, -1.8541954771207525, 0.21633740355659298, -3.104200957334927, -0.03511851280927658, -0.2545759379863739, -0.29861220717430115, -0.9377306699752808, -0.2146538496017456, 0.2731029689311981, -0.002989053726196289, 0.08809740841388702, -0.06279096007347107, -0.7938563405160354, -0.07964666259966124, -0.07518417724016878,-0.5981605134895559,-0.943145751953125,0.0376129150390625,0.0109710693359375
20220112-1402,2022-01-12 14:02:59Z,u01, 107,40,movements,el-ex, rt, d,94734.29681241667, -1.8617130215114064, 0.22476216879542538, -3.1035453438442056, -0.11685459315776825, -0.2747497856616974, -0.29590657353401184, -0.9338855147361755, -0.22287452220916748, 0.27961596846580505, 0.008684039115905762, -0.005335941910743713, 0.01312410831451416, -0.7956536730373456, -0.08211706806685384, -0.0786509325194883,-0.5949841791351795,-0.9484405517578125,-0.106964111328125,0.0956573486328125
20220112-1402,2022-01-12 14:02:59Z,u01, 108,40,movements,el-ex, rt, d,94734.32674041667, -1.8693593050361068, 0.23347030377717204, -3.1032037904252183, 0.031023621559143066, -0.20049457252025604, -0.25961315631866455, -0.9298298358917236, -0.23135505616664886, 0.2861666679382324, -0.04235339164733887, -0.028944626450538635, -0.001025557518005371, -0.7974589611694105, -0.08451357101722286, -0.08234774728664965,-0.5917225064546948,-0.9784698486328125,-0.149658203125,0.0077972412109375
20220112-1402,2022-01-12 14:02:59Z,u01, 109,40,movements,el-ex, rt, d,94734.35666841667, -1.8751474447904077, 0.24040566456404971, -3.1006185522725755, -0.06462224572896957, -0.2006445825099945, -0.26072216033935547, -0.9266049861907959, -0.23809663951396942, 0.2910560667514801, -0.00033605098724365234, 0.030805960297584534, -0.044061869382858276, -0.798686460072837, -0.08733825697959242, -0.084610190040697,-0.5893329079059217,-0.895751953125,0.041748046875,-0.04583740234375
20220112-1402,2022-01-12 14:02:59Z,u01, 110,40,movements,el-ex, rt, d,94734.38659641668, -1.8808132226923049, 0.2486967839115513, -3.1006287237624983, -0.04938643425703049, -0.14392857253551483, -0.255079984664917, -0.923029363155365, -0.24614104628562927, 0.2956888973712921, -0.04045647382736206, 0.004319712519645691, 0.06060412526130676, -0.7998951709440907, -0.08951066471383472, -0.0881894294198606,-0.5868376140264812,-0.8271636962890625,-0.0684356689453125,0.0709228515625
20220112-1402,2022-01-12 14:02:59Z,u01, 111,40,movements,el-ex, rt, d,94734.41652312501, -1.8837156059740543, 0.25516515176505666, -3.0993168684882244, 0.04933055490255356, -0.03719840198755264, -0.2054048478603363, -0.9206327795982361, -0.25240522623062134, 0.29787012934684753, -0.04485166072845459, -0.06400096416473389, 0.049557268619537354, -0.8003187066787235, -0.09178797774930181, -0.09053417235252459,-0.5855496312038557,-0.946044921875,-0.342681884765625,0.10235595703125
20220112-1402,2022-01-12 14:02:59Z,u01, 112,40,movements,el-ex, rt, d,94734.44645112501, -1.8845831325784925, 0.26153396659727013, -3.0979982792359175, -0.0344906747341156, -0.0027239788323640823, -0.20484419167041779, -0.9188265800476074, -0.2585626542568207, 0.29816654324531555, -0.042553484439849854, 0.0014673173427581787, 0.0007990598678588867, -0.8001397810753016, -0.09412545381832009, -0.09274719186953731,-0.5850767179938792,-0.849273681640625,-0.0029296875,-0.0245361328125
20220112-1402,2022-01-12 14:02:59Z,u01, 113,40,movements,el-ex, rt, d,94734.476379125, -1.8840321697804916, 0.2666980100588174, -3.0975712623629432, -0.05392635986208916, 0.03226476162672043, -0.12739399075508118, -0.9177080392837524, -0.2635476291179657, 0.2972448170185089, -0.025986909866333008, 0.020887136459350586, 0.03295546770095825, -0.7996504090360783, -0.095820795482438, -0.09467022099821899,-0.5851624593011987,-0.8289337158203125,0.1041717529296875,-0.009429931640625
20220112-1402,2022-01-12 14:02:59Z,u01, 114,40,movements,el-ex, rt, d,94734.506307125, -1.882698406123459, 0.271092651603137, -3.098540917843268, -0.09049435704946518, 0.0761675089597702, -0.13590440154075623, -0.9169925451278687, -0.26778435707092285, 0.2956622540950775, -0.030654489994049072, -0.02126285433769226, 0.00827762484550476, -0.7990407661328802, -0.09677285616455689, -0.09665375409005783,-0.5855142037062111,-0.752044677734375,-0.0418853759765625,0.0302276611328125
20220112-1402,2022-01-12 14:02:59Z,u01, 115,40,movements,el-ex, rt, d,94734.536234125, -1.8813205038155987, 0.2750754634675017, -3.0977433347400885, 0.02979949861764908, 0.046056874096393585, -0.1637481302022934, -0.9163762927055359, -0.2716195583343506, 0.2940702438354492, -0.0004937648773193359, 0.045438557863235474, -0.028368860483169556, -0.7983540676956812, -0.09831534896830486, -0.09795042366818801,-0.5859783187393909,-0.87554931640625,-0.3523406982421875,0.2270050048828125
20220112-1402,2022-01-12 14:02:59Z,u01, 116,40,movements,el-ex, rt, d,94734.566162125, -1.8813833719906043, 0.2786049464571222, -3.096207613079092, -0.05399277061223984, 0.03468377888202667, -0.14724700152873993, -0.9154393672943115, -0.2750146687030792, 0.29383307695388794, -0.005016624927520752, 0.049794912338256836, -0.028238534927368164, -0.7980767158977735, -0.09995044468770922, -0.09891864977530362,-0.5859169228576117,-0.990631103515625,-0.2032623291015625,0.1435394287109375
20220112-1402,2022-01-12 14:02:59Z,u01, 117,40,movements,el-ex, rt, d,94734.59609012501, -1.880914468642723, 0.2829320028027334, -3.095955353929693, -0.052840519696474075, 0.0012510549277067184, -0.17592410743236542, -0.9144351482391357, -0.27917227149009705, 0.29303786158561707, 0.019049465656280518, 0.006650328636169434, 0.00762137770652771, -0.7976533998226971, -0.10133104364662343, -0.1005554824819503,-0.5859775281224457,-0.8872222900390625,0.0606842041015625,0.0706634521484375
20220112-1402,2022-01-12 14:02:59Z,u01, 118,40,movements,el-ex, rt, d,94734.62601812501, -1.8811324268675162, 0.2857436632180778, -3.09421114597928, 0.10059137642383575, 0.008624549955129623, -0.1759057343006134, -0.9136202931404114, -0.2818710505962372, 0.2929963171482086, -0.001922309398651123, 0.021327227354049683, -0.017574936151504517, -0.7974482874320223, -0.1028318382318495, -0.10118228712289563,-0.5858873937299137,-1.0018463134765625,-0.2457275390625,0.302032470703125
20220112-1402,2022-01-12 14:02:59Z,u01, 119,40,movements,el-ex, rt, d,94734.655945125, -1.8811818015872128, 0.28548981569079573, -3.089650855970645, 0.10401280224323273, 0.034406211227178574, -0.1391071081161499, -0.9136738181114197, -0.28162747621536255, 0.293063223361969, -0.011100292205810547, -0.011676967144012451, 0.010266274213790894, -0.7972427136231278, -0.10457376671143478, -0.099746971376743,-0.5861048447759993,-1.0220794677734375,-0.2829132080078125,0.2074432373046875
20220112-1402,2022-01-12 14:02:59Z,u01, 120,40,movements,el-ex, rt, d,94734.68587312501, -1.8815324554027626, 0.2883947307219072, -3.08623906554214, 0.021238965913653374, 0.036632880568504333, -0.146027073264122, -0.9127885103225708, -0.284413605928421, 0.29313233494758606, -0.00870513916015625, -0.006479978561401367, -0.021327227354049683, -0.7969747972561096, -0.10675830499929538, -0.09993001152512518,-0.5860444137268447,-0.913482666015625,0.0646209716796875,0.0957183837890625
20220112-1402,2022-01-12 14:02:59Z,u01, 121,40,movements,el-ex, rt, d,94734.715801125, -1.8811689029872545, 0.2896010634821825, -3.083660492951529, 0.11075696349143982, 0.014527777209877968, -0.08668018877506256, -0.9125675559043884, -0.2855699360370636, 0.29269543290138245, -0.012191355228424072, 0.008973836898803711, -0.017930150032043457, -0.7966495898445966, -0.10815333857682767, -0.09963826762118452,-0.5862803473643603,-0.9492645263671875,-0.1430511474609375,0.2606201171875
20220112-1402,2022-01-12 14:02:59Z,u01, 122,40,movements,el-ex, rt, d,94734.745729125, -1.881582502051144, 0.2898322373119454, -3.078157214536583, 0.24242179095745087, 0.022793162614107132, -0.029435809701681137, -0.912383496761322, -0.28579145669937134, 0.293052613735199, -0.0009008646011352539, -0.028219163417816162, -0.04576849937438965, -0.7964546373792714, -0.11039166572008119, -0.09814017019325136,-0.58638066262322,-1.047454833984375,-0.347381591796875,0.2940521240234375
20220112-1402,2022-01-12 14:02:59Z,u01, 123,40,movements,el-ex, rt, d,94734.775656125, -1.883508624280726, 0.28895901421573206, -3.0699908563967067, 0.2008126676082611, -0.026921460404992104, -0.07389894872903824, -0.9120545983314514, -0.2849545478820801, 0.29488614201545715, 0.00821530818939209, -0.08797028660774231, 0.005315452814102173, -0.7966219682836833, -0.11329832803319835, -0.09550399280730917,-0.5860342202020177,-0.9493255615234375,-0.0686492919921875,0.197265625
20220112-1402,2022-01-12 14:02:59Z,u01, 124,40,movements,el-ex, rt, d,94734.805584125, -1.884814187365613, 0.2887118340625402, -3.0677737029656313, -0.006076843477785587, 0.0029885675758123398, 0.040087342262268066, -0.9117356538772583, -0.2847176194190979, 0.29609835147857666, -0.046974122524261475, -0.0674552321434021, 0.07407999038696289, -0.7968953515315622, -0.11404811192894596, -0.09482953997369976,-0.5856264063930227,-0.938507080078125,-0.11639404296875,0.2540740966796875
20220112-1402,2022-01-12 14:02:59Z,u01, 125,40,movements,el-ex, rt, d,94734.835512125, -1.8823327180392393, 0.2866997382205429, -3.0685170633000767, 0.07621626555919647, 0.08584556728601456, 0.1384442150592804, -0.9130111336708069, -0.2827882170677185, 0.2940100133419037, -0.049620211124420166, -0.05404958128929138, 0.026211172342300415, -0.7963484229349529, -0.11328811835713604, -0.09409868317888191,-0.5866349621671034,-0.9752349853515625,-0.30548095703125,0.331329345703125
20220112-1402,2022-01-12 14:02:59Z,u01, 126,40,movements,el-ex, rt, d,94734.865439125, -1.8799631298300552, 0.28331082652929296, -3.067427898409329, 0.02196624130010605, 0.09257331490516663, 0.16417281329631805, -0.9146127700805664, -0.27953600883483887, 0.2921355962753296, -0.052733421325683594, -0.024220705032348633, 0.03495192527770996, -0.7958218142518864, -0.11285142361403097, -0.09228559622144969,-0.5877206971381612,-0.9318084716796875,-0.2146148681640625,0.2271728515625
20220112-1402,2022-01-12 14:02:59Z,u01, 127,40,movements,el-ex, rt, d,94734.895367125, -1.8761197918350339, 0.2788919399020863, -3.0709888424837684, -0.11051047593355179, 0.14913825690746307, 0.20976205170154572, -0.9168981909751892, -0.2752905786037445, 0.28898686170578003, -0.12155413627624512, -0.0018853843212127686, 0.06706193089485168, -0.7951860502620841, -0.11032939989637744, -0.09134801775018052,-0.5892048411332979,-0.940582275390625,-0.1219482421875,0.227020263671875
20220112-1402,2022-01-12 14:02:59Z,u01, 128,40,movements,el-ex, rt, d,94734.92529512501, -1.8704948699970956, 0.274758679498996, -3.0744994319141443, -0.015785297378897667, 0.14311711490154266, 0.10075381398200989, -0.9195883274078369, -0.27131468057632446, 0.28415828943252563, -0.11250102519989014, 0.011564284563064575, 0.015371948480606079, -0.7939887533027624, -0.1079861507408711, -0.09042342754075339,-0.5913920731476576,-0.925201416015625,-0.22821044921875,0.2927398681640625
20220112-1402,2022-01-12 14:02:59Z,u01, 129,40,movements,el-ex, rt, d,94734.95522312501, -1.8666153429738135, 0.272905881955347, -3.07519401294205, -0.009321439079940319, 0.10761231184005737, 0.03808610886335373, -0.9211628437042236, -0.26953092217445374, 0.2807345986366272, -0.15633642673492432, -0.020401298999786377, 0.060879290103912354, -0.7929972752795402, -0.10734344687843576, -0.08968015956312266,-0.5929503401761865,-0.965057373046875,-0.2636566162109375,0.3080902099609375
20220112-1402,2022-01-12 14:03:00Z,u01, 130,40,movements,el-ex, rt, d,94734.98515012501, -1.8623262210378069, 0.27288313836747213, -3.077319397200238, -0.06808944791555405, 0.15554168820381165, 0.019650578498840332, -0.9223645925521851, -0.2695090174674988, 0.2767828702926636, -0.23649471998214722, -0.05803617835044861, 0.09971261024475098, -0.7918391408709615, -0.106687431154543, -0.0900725397713078,-0.5945549663063502,-0.9490509033203125,-0.218353271484375,0.2550048828125
20220112-1402,2022-01-12 14:03:00Z,u01, 131,40,movements,el-ex, rt, d,94735.01507812501, -1.8571087850604657, 0.2738675040538083, -3.0787464348411033, -0.03361815586686134, 0.14277449250221252, -0.0338994637131691, -0.923541247844696, -0.27045682072639465, 0.271891713142395, -0.20338153839111328, -0.04044106602668762, 0.07829776406288147, -0.7902986674302864, -0.10664836664345029, -0.09061109225171118,-0.596526573735288,-0.9302520751953125,-0.197540283203125,0.2964630126953125
20220112-1402,2022-01-12 14:03:00Z,u01, 132,40,movements,el-ex, rt, d,94735.045006125, -1.8531639582243618, 0.27576681352419935, -3.0799759848366293, -0.09488347917795181, 0.10997213423252106, -0.06340163201093674, -0.924111545085907, -0.2722848653793335, 0.268102765083313, -0.2098454236984253, -0.08007112145423889, 0.04566395282745361, -0.7890646895750226, -0.10690321381665631, -0.09152245064585397,-0.5979735544218384,-0.9800567626953125,-0.25006103515625,0.3444671630859375
20220112-1402,2022-01-12 14:03:00Z,u01, 133,40,movements,el-ex, rt, d,94735.074934125, -1.8490044143162143, 0.27864401202235417, -3.0826189985213137, -0.08299216628074646, 0.11165958642959595, -0.049273762851953506, -0.9244615435600281, -0.2750522196292877, 0.2640402913093567, -0.18720227479934692, -0.05505639314651489, 0.05491432547569275, -0.7877762644171208, -0.10690513463562994, -0.09323272604478632,-0.5994059987020997,-0.9651336669921875,-0.3204498291015625,0.3271484375
20220112-1402,2022-01-12 14:03:00Z,u01, 134,40,movements,el-ex, rt, d,94735.104861125, -1.845363129213075, 0.2812298583223709, -3.0841909487621852, -0.09021539241075516, 0.09851516038179398, -0.08636480569839478, -0.9247292280197144, -0.27753740549087524, 0.2604786455631256, -0.15107649564743042, -0.029713600873947144, 0.03291749954223633, -0.7866016533703339, -0.10722479527211994, -0.09453351784483449,-0.6006864274999542,-0.9613800048828125,-0.2570953369140625,0.2989654541015625
20220112-1402,2022-01-12 14:03:00Z,u01, 135,40,movements,el-ex, rt, d,94735.134789125, -1.8429014179802585, 0.2836709730646905, -3.0843497417824635, 0.019166894257068634, 0.0712081640958786, -0.04685281589627266, -0.9247121810913086, -0.2798817753791809, 0.2580185532569885, -0.1184244155883789, -0.024408936500549316, -0.0009535849094390869, -0.7857125195101976, -0.10800513854636767, -0.09541429877894719,-0.6015703083518471,-0.9515380859375,-0.230865478515625,0.3054351806640625
20220112-1402,2022-01-12 14:03:00Z,u01, 136,40,movements,el-ex, rt, d,94735.16471712501, -1.8411430035793612, 0.284417340905139, -3.0852372514554913, -0.10070175677537918, 0.016611434519290924, 0.013328700326383114, -0.9249628782272339, -0.2805982530117035, 0.2563362717628479, -0.08872419595718384, -0.05411851406097412, -0.027042299509048462, -0.7851828723813532, -0.10796291157046478, -0.09588137610230625,-0.6021948534385604,-0.9457550048828125,-0.3069000244140625,0.3396148681640625
20220112-1402,2022-01-12 14:03:00Z,u01, 137,40,movements,el-ex, rt, d,94735.19464512501, -1.8395234497481474, 0.2852166091022803, -3.0895793151641047, -0.15435552597045898, 0.01948525197803974, 0.003482726402580738, -0.9251604676246643, -0.281365305185318, 0.25477832555770874, -0.09933000802993774, -0.027793020009994507, 0.010007649660110474, -0.7848763594919423, -0.10657514873249534, -0.09741789890030267,-0.6025950045484155,-0.91900634765625,-0.2438201904296875,0.2808074951171875
20220112-1402,2022-01-12 14:03:00Z,u01, 138,40,movements,el-ex, rt, d,94735.22457212501, -1.8371680749611379, 0.28657243836763435, -3.0909803214318026, 0.019748661667108536, 0.08820659667253494, -0.059337180107831955, -0.9253891110420227, -0.2826661169528961, 0.2524978518486023, -0.07656407356262207, -0.01242363452911377, -0.02265465259552002, -0.7841536532500614, -0.1065456527217351, -0.09824965222524563,-0.6034054940575041,-0.9225616455078125,-0.225128173828125,0.2693023681640625
20220112-1402,2022-01-12 14:03:00Z,u01, 139,40,movements,el-ex, rt, d,94735.25450012501, -1.8350205665297394, 0.28854319525300426, -3.0911947381874336, -0.13258124887943268, 0.07421667873859406, -0.047649431973695755, -0.9253896474838257, -0.28455594182014465, 0.2503640353679657, -0.04642742872238159, -0.024159878492355347, -0.012723445892333984, -0.7833897057520552, -0.1071568075725638, -0.09897629358725053,-0.604170336212708,-0.9162750244140625,-0.2266387939453125,0.281402587890625
20220112-1402,2022-01-12 14:03:00Z,u01, 140,40,movements,el-ex, rt, d,94735.284428125, -1.8304256394268807, 0.29022461950344935, -3.095417175728263, -0.10041946172714233, 0.1400633305311203, -0.021642066538333893, -0.9260664582252502, -0.2861674726009369, 0.24598608911037445, -0.033757150173187256, 0.014622032642364502, -0.019850730895996094, -0.7821167650841139, -0.10623751267066958, -0.1006699607666568,-0.6057000338470248,-0.8953857421875,-0.27252197265625,0.3006591796875
20220112-1402,2022-01-12 14:03:00Z,u01, 141,40,movements,el-ex, rt, d,94735.31435512501, -1.8251424374936265, 0.2911776328928102, -3.096782219348544, -0.02740483731031418, 0.16024890542030334, -0.02489764802157879, -0.9270889163017273, -0.2870804965496063, 0.24102139472961426, -0.0010271072387695312, 0.021302849054336548, -0.00843152403831482, -0.780525495027711, -0.10625744907195778, -0.10117757800277988,-0.6076615281298744,-0.9084014892578125,-0.267822265625,0.2790374755859375
20220112-1402,2022-01-12 14:03:00Z,u01, 142,40,movements,el-ex, rt, d,94735.344283125, -1.8199635187840293, 0.2924136334653656, -3.098634219999789, -0.10541918128728867, 0.1528480350971222, -0.017193056643009186, -0.9279801249504089, -0.2882642447948456, 0.23612917959690094, -0.0034927725791931152, 0.026789605617523193, -0.004180192947387695, -0.7789686923692437, -0.10617139899257821, -0.10195040631362828,-0.6095421707868017,-0.9217071533203125,-0.263763427734375,0.29522705078125
20220112-1402,2022-01-12 14:03:00Z,u01, 143,40,movements,el-ex, rt, d,94735.374211125, -1.813397429630376, 0.2917910825075254, -3.102129210831148, -0.08631116151809692, 0.21001192927360535, 0.0400049202144146, -0.9296845197677612, -0.28766804933547974, 0.23007400333881378, -0.0070677995681762695, 0.034051716327667236, 0.011610150337219238, -0.7771876859735282, -0.10495856089954325, -0.10242775763356564,-0.6119409145684104,-0.9285736083984375,-0.3119354248046875,0.2742767333984375
20220112-1402,2022-01-12 14:03:00Z,u01, 144,40,movements,el-ex, rt, d,94735.40413879167, -1.8073707312210234, 0.2892144433755646, -3.1047792341001883, -0.09285681694746017, 0.1806950569152832, 0.036910589784383774, -0.9317715167999268, -0.285199373960495, 0.2246398627758026, 0.012826323509216309, 0.04623150825500488, 0.012939661741256714, -0.7756399407728425, -0.10345341956167975, -0.1019214588980996,-0.61424104674182,-0.9173431396484375,-0.2692108154296875,0.2742462158203125
20220112-1402,2022-01-12 14:03:00Z,u01, 145,40,movements,el-ex, rt, d,94735.43406579168, -1.8016972679965848, 0.28564191087752094, -3.106299219151603, 0.003350513055920601, 0.2649187743663788, 0.06864261627197266, -0.9340168833732605, -0.2817734181880951, 0.21958167850971222, -0.011539638042449951, 0.012852519750595093, -0.0005110800266265869, -0.7741928765694376, -0.1020599139825728, -0.1007077145505652,-0.6164958171598266,-0.930419921875,-0.28662109375,0.2751617431640625
20220112-1402,2022-01-12 14:03:00Z,u01, 146,40,movements,el-ex, rt, d,94735.46399379167, -1.7957681132746546, 0.2804805540923036, -3.106581837920855, -0.020784782245755196, 0.23381492495536804, 0.09147469699382782, -0.9367079138755798, -0.2768174409866333, 0.21436156332492828, 0.03366208076477051, -0.0127485990524292, 0.03038957715034485, -0.7726888065007921, -0.1006617444455562, -0.09849051697871139,-0.618966104824363,-0.9132843017578125,-0.3140106201171875,0.247283935546875
20220112-1402,2022-01-12 14:03:00Z,u01, 147,40,movements,el-ex, rt, d,94735.49392179167, -1.7886569215684005, 0.27541974613366454, -3.1078120585318705, 0.012856134213507175, 0.33231326937675476, 0.12680606544017792, -0.9395644068717957, -0.271950900554657, 0.2079952359199524, -0.0009265542030334473, 0.03446301817893982, 0.004697248339653015, -0.7708449235427097, -0.09897332310683687, -0.09655679616781448,-0.6218355163568441,-0.895843505859375,-0.369049072265625,0.28466796875
20220112-1402,2022-01-12 14:03:00Z,u01, 148,40,movements,el-ex, rt, d,94735.52384979167, -1.7796135573053309, 0.27035603855822254, -3.1083752596616208, -0.021009985357522964, 0.30832770466804504, 0.1680373251438141, -0.9427418112754822, -0.2670745551586151, 0.1997728794813156, 0.030464589595794678, -0.0259552001953125, 0.008082494139671326, -0.7683470169566479, -0.09761814091312296, -0.09433222092242695,-0.6254718494766013,-0.9296722412109375,-0.360443115234375,0.35906982421875
20220112-1402,2022-01-12 14:03:00Z,u01, 149,40,movements,el-ex, rt, d,94735.55377679167, -1.768959753545103, 0.26510914623934756, -3.1091297936377784, -0.04304448142647743, 0.3813067674636841, 0.17979750037193298, -0.9461773037910461, -0.26201459765434265, 0.18999117612838745, 0.006358087062835693, -0.02393507957458496, -0.0019569694995880127, -0.7653388290473524, -0.09618766210111894, -0.09203376232010152,-0.629709551029687,-0.9792327880859375,-0.3452911376953125,0.34710693359375
20220112-1402,2022-01-12 14:03:00Z,u01, 150,40,movements,el-ex, rt, d,94735.58370479167, -1.7570069157904113, 0.25912566185571767, -3.109166964265327, 0.10124049335718155, 0.4379390776157379, 0.19599851965904236, -0.9499044418334961, -0.2562355101108551, 0.17895545065402985, 0.02482503652572632, 0.0325569212436676, -0.0160830020904541, -0.7618952007483455, -0.09483368727953936, -0.08918204648580891,-0.6344831628196923,-0.95635986328125,-0.335601806640625,0.305267333984375
20220112-1402,2022-01-12 14:03:00Z,u01, 151,40,movements,el-ex, rt, d,94735.61363279168, -1.744965226692167, 0.2523510481626368, -3.1070484267214846, 0.11786949634552002, 0.40210992097854614, 0.24101385474205017, -0.9536784887313843, -0.2496812343597412, 0.16780132055282593, 0.0631905198097229, 0.0010391920804977417, -0.02772541344165802, -0.7583279597204736, -0.09401788450746867, -0.08535478178881227,-0.6393857868034231,-0.9736175537109375,-0.302276611328125,0.3435516357421875
20220112-1402,2022-01-12 14:03:00Z,u01, 152,40,movements,el-ex, rt, d,94735.64356079168, -1.7337366237641898, 0.24434680615533647, -3.106812098109819, -0.009717484004795551, 0.37729138135910034, 0.2877030670642853, -0.9574435353279114, -0.24192258715629578, 0.15740159153938293, 0.06758153438568115, -0.031408071517944336, 0.00721035897731781, -0.7551376346651978, -0.09202144687251304, -0.08171710595320168,-0.6439110945597614,-1.0384521484375,-0.2771759033203125,0.356048583984375
20220112-1402,2022-01-12 14:03:00Z,u01, 153,40,movements,el-ex, rt, d,94735.67348779168, -1.7225544322993973, 0.23585001400959155, -3.106724724296909, 0.09404073655605316, 0.346792608499527, 0.27546316385269165, -0.9611413478851318, -0.23366954922676086, 0.14699114859104156, 0.08722454309463501, 0.06904244422912598, -0.034243807196617126, -0.7519555067843258, -0.08976910157643342, -0.07796774419637868,-0.6484024060944832,-1.0335693359375,-0.2637481689453125,0.3139190673828125
20220112-1402,2022-01-12 14:03:00Z,u01, 154,40,movements,el-ex, rt, d,94735.70341579168, -1.7132168183511727, 0.22676724713342297, -3.1038899382425162, 0.16083528101444244, 0.3571034371852875, 0.3082207143306732, -0.9645329713821411, -0.22482872009277344, 0.1383056342601776, 0.04221540689468384, -0.029382720589637756, 0.0311586856842041, -0.7492431648683351, -0.08824679853719537, -0.0732091898702623,-0.6522941715987874,-1.0494232177734375,-0.27081298828125,0.3193359375
20220112-1402,2022-01-12 14:03:00Z,u01, 155,40,movements,el-ex, rt, d,94735.73334379167, -1.7019307245112014, 0.21707586913081242, -3.1010988308511753, 0.10321236401796341, 0.37946420907974243, 0.33277779817581177, -0.9681472778320312, -0.21537503600120544, 0.1276901811361313, 0.059196293354034424, -0.005984246730804443, -0.018696531653404236, -0.7458935341286572, -0.08653279496535203, -0.06816620820467308,-0.6568929990903499,-1.126312255859375,-0.3082275390625,0.3809661865234375
20220112-1402,2022-01-12 14:03:00Z,u01, 156,40,movements,el-ex, rt, d,94735.76327179167, -1.6926273811076435, 0.20626004491777072, -3.1002241155971118, 0.03371717408299446, 0.3296412527561188, 0.39486169815063477, -0.9715487957000732, -0.20480066537857056, 0.11895393580198288, 0.056112825870513916, -0.01881691813468933, 0.02740861475467682, -0.7432931869118884, -0.08361940412029523, -0.06344014855715709,-0.660680374112501,-1.1603240966796875,-0.3274688720703125,0.3621368408203125
20220112-1402,2022-01-12 14:03:00Z,u01, 157,40,movements,el-ex, rt, d,94735.79319979167, -1.6820624212495006, 0.19474258182707962, -3.1031203796347597, -0.04219113662838936, 0.31918227672576904, 0.3905479311943054, -0.975030779838562, -0.19351398944854736, 0.10893779247999191, 0.055780231952667236, 0.012453198432922363, -0.0036214590072631836, -0.7404165664211073, -0.07907088587621876, -0.05968271266638342,-0.6648075932586797,-1.1196746826171875,-0.320953369140625,0.3442840576171875
20220112-1402,2022-01-12 14:03:00Z,u01, 158,40,movements,el-ex, rt, d,94735.82312679167, -1.672620668571553, 0.18396525456629945, -3.1033420697400103, -0.004517429508268833, 0.2691297233104706, 0.3454219400882721, -0.9780340790748596, -0.18292935192584991, 0.09993328899145126, 0.07205861806869507, -0.011330291628837585, 0.022610187530517578, -0.7377254164502568, -0.0756825908026581, -0.05539561116749099,-0.668554318289312,-1.1339569091796875,-0.35235595703125,0.3137664794921875
20220112-1402,2022-01-12 14:03:00Z,u01, 159,40,movements,el-ex, rt, d,94735.85305479167, -1.6635653449368693, 0.1736785311711937, -3.1072106327354785, -0.11670009046792984, 0.32735371589660645, 0.3719887137413025, -0.980720579624176, -0.17280669510364532, 0.09124238044023514, 0.00325775146484375, -0.06285004317760468, 0.030049800872802734, -0.7352350929518545, -0.07106721314189418, -0.052560708530908856,-0.6720239999430908,-1.1212158203125,-0.3258514404296875,0.3099212646484375
20220112-1402,2022-01-12 14:03:00Z,u01, 160,40,movements,el-ex, rt, d,94735.88298279168, -1.6519319585291867, 0.16259737307970726, -3.108656344648349, -0.03511052578687668, 0.35935619473457336, 0.3657689690589905, -0.9835638999938965, -0.16188186407089233, 0.07997765392065048, 0.047833919525146484, 0.05679459869861603, 0.023934833705425262, -0.7317687474224267, -0.06710682852212894, -0.04857159325269249,-0.6764998285772461,-1.089019775390625,-0.3313446044921875,0.3057708740234375
20220112-1402,2022-01-12 14:03:00Z,u01, 161,40,movements,el-ex, rt, d,94735.91291079167, -1.6420562223336765, 0.15198576847404655, -3.11208545272802, -0.2410077303647995, 0.3041670620441437, 0.348080575466156, -0.9859637022018433, -0.1514013111591339, 0.07037883996963501, 0.022584855556488037, -0.026867106556892395, 0.04136132448911667, -0.7288919829268686, -0.06249716871415939, -0.04553085091373045,-0.6802481161597242,-1.052581787109375,-0.2972564697265625,0.2742156982421875
20220112-1402,2022-01-12 14:03:00Z,u01, 162,40,movements,el-ex, rt, d,94735.94283779168, -1.6304757480795924, 0.14102268944144195, -3.1205556626614537, -0.23555511236190796, 0.38198819756507874, 0.39841368794441223, -0.9883102774620056, -0.1405557245016098, 0.05905190855264664, -0.01667940616607666, 0.003959044814109802, 0.004836678504943848, -0.7255317063885546, -0.05594369803528426, -0.04408462258562018,-0.6844930235910899,-1.0361175537109375,-0.312591552734375,0.240692138671875
20220112-1402,2022-01-12 14:03:00Z,u01, 163,40,movements,el-ex, rt, d,94735.97276579167, -1.6195594270550238, 0.1301019103074812, -3.1267837541747894, -0.16210532188415527, 0.3162980079650879, 0.36966899037361145, -0.9903700351715088, -0.12973518669605255, 0.04833182692527771, 0.03889298439025879, -0.023157864809036255, 0.013847943395376205, -0.7222519184501045, -0.050180480459494796, -0.04197549413239228,-0.6885289794064333,-1.0118560791015625,-0.3376007080078125,0.2319793701171875
20220112-1402,2022-01-12 14:03:01Z,u01, 164,40,movements,el-ex, rt, d,94736.00269379167, -1.608906536467753, 0.11995344231682015, -3.133365485482683, -0.16967427730560303, 0.3410276770591736, 0.3554794490337372, -0.9920935034751892, -0.11966598778963089, 0.037827204912900925, 0.009213685989379883, -0.0266200453042984, 0.041747573763132095, -0.7189790905704695, -0.04452718724170713, -0.040336394607331835,-0.6924301700351283,-1.0244903564453125,-0.3091583251953125,0.2647857666015625
20220112-1402,2022-01-12 14:03:01Z,u01, 165,40,movements,el-ex, rt, d,94736.03262179167, -1.5976948109418445, 0.10973565096459376, -3.1371589100306942, -0.08674712479114532, 0.3395371735095978, 0.34373313188552856, -0.9936256408691406, -0.10951554775238037, 0.02673347108066082, 0.04530709981918335, -0.03762495517730713, 0.01219189167022705, -0.7153877231700534, -0.039838942307910775, -0.03775184408294936,-0.6965688706281586,-1.0155792236328125,-0.2936553955078125,0.2232818603515625
20220112-1402,2022-01-12 14:03:01Z,u01, 166,40,movements,el-ex, rt, d,94736.06254979168, -1.5869187163712621, 0.09957969409569797, -3.1411705859132395, -0.12822921574115753, 0.3313870429992676, 0.374139666557312, -0.9949169158935547, -0.09941520541906357, 0.01604182831943035, 0.046170949935913086, 0.00030934810638427734, -0.012959359213709831, -0.7118931652835462, -0.035057596770495254, -0.035326899245490165,-0.7005221406080384,-0.9646453857421875,-0.316314697265625,0.2286224365234375
20220112-1402,2022-01-12 14:03:01Z,u01, 167,40,movements,el-ex, rt, d,94736.09247679167, -1.5768376465580116, 0.08860475034410915, 3.1378953689982114, -0.13635869324207306, 0.33882275223731995, 0.3628310263156891, -0.9960589408874512, -0.0884888619184494, 0.006017583888024092, 0.03240543603897095, -0.0562560111284256, -0.018392324447631836, -0.7086000891252758, -0.029911628815437914, -0.03271261786225327,-0.7042166083821024,-0.9715576171875,-0.30316162109375,0.2444610595703125
20220112-1402,2022-01-12 14:03:01Z,u01, 168,40,movements,el-ex, rt, d,94736.12240479168, -1.5671182706478042, 0.07899012888508262, 3.1344547457231333, -0.03554478660225868, 0.2872856855392456, 0.3003310561180115, -0.9968754053115845, -0.07890801131725311, -0.0036665801890194416, 0.07878440618515015, -0.022822342813014984, -0.037562549114227295, -0.7053501259306979, -0.025454071117381162, -0.030394683522794078,-0.7077497401631626,-0.9476776123046875,-0.25433349609375,0.232269287109375
20220112-1402,2022-01-12 14:03:01Z,u01, 169,40,movements,el-ex, rt, d,94736.15233279167, -1.5607129147227408, 0.0705071633824434, 3.132607941019775, -0.14432506263256073, 0.15233370661735535, 0.2446502149105072, -0.9974645972251892, -0.07044875621795654, -0.010058187879621983, 0.11030346155166626, -0.04412948340177536, -0.011654912494122982, -0.7032010803049279, -0.021889421993885244, -0.027987220532830495,-0.7101026295252462,-0.924774169921875,-0.265411376953125,0.225372314453125
20220112-1402,2022-01-12 14:03:01Z,u01, 170,40,movements,el-ex, rt, d,94736.18226079167, -1.5562160437863481, 0.0643601561516988, 3.1277472829729107, -0.09067558497190475, 0.13756641745567322, 0.15242034196853638, -0.9978235363960266, -0.06431573629379272, -0.01454958040267229, 0.08101445436477661, -0.05360417813062668, -0.007224557921290398, -0.7017115425511954, -0.018058818434207854, -0.027511864567169947,-0.7117006900002524,-0.9314727783203125,-0.261474609375,0.2319488525390625
20220112-1402,2022-01-12 14:03:01Z,u01, 171,40,movements,el-ex, rt, d,94736.21218779167, -1.5506748885218218, 0.060537801548101, 3.129215522278855, 0.15938478708267212, 0.18525418639183044, 0.13259829580783844, -0.9979661107063293, -0.06050083041191101, -0.020083224400877953, 0.08144694566726685, 0.03588841110467911, -0.07929712533950806, -0.6997568478732884, -0.01728415775914749, -0.025601018880292217,-0.7137129669062452,-0.9406585693359375,-0.25494384765625,0.2473602294921875
20220112-1402,2022-01-12 14:03:01Z,u01, 172,40,movements,el-ex, rt, d,94736.24211579167, -1.550066841181612, 0.05820643272098439, 3.1288463999623395, -0.18109941482543945, -0.10300078243017197, 0.033661067485809326, -0.998091995716095, -0.05817357078194618, -0.020692897960543633, 0.16314631700515747, 0.013022828847169876, -0.019223986193537712, -0.6995619145885806, -0.016330299433742132, -0.024912382900169783,-0.7139508587033293,-0.91705322265625,-0.2481689453125,0.2149200439453125
20220112-1402,2022-01-12 14:03:01Z,u01, 173,40,movements,el-ex, rt, d,94736.27204379167, -1.5523549334845528, 0.0572598492023156, 3.122842938938548, -0.1063995212316513, -0.05895695835351944, 0.0509563684463501, -0.9981915354728699, -0.05722856521606445, -0.018410129472613335, 0.06363630294799805, -0.009330280125141144, 0.03601890802383423, -0.7004304307500301, -0.013861695787771494, -0.02674029286000501,-0.7130850145998373,-0.93878173828125,-0.2510833740234375,0.2447357177734375
20220112-1402,2022-01-12 14:03:01Z,u01, 174,40,movements,el-ex, rt, d,94736.30197179168, -1.5550126762337997, 0.05641524719900213, 3.121278575267186, -0.10406875610351562, -0.16495350003242493, -0.005732276476919651, -0.9982848763465881, -0.05638532713055611, -0.015757888555526733, 0.09113448858261108, 0.016849800944328308, -0.03792238235473633, -0.7013933724646653, -0.012976633034808296, -0.027019691294939946,-0.7121439679171162,-0.9250030517578125,-0.274444580078125,0.2047576904296875
20220112-1402,2022-01-12 14:03:01Z,u01, 175,40,movements,el-ex, rt, d,94736.33189879167, -1.5596770088437235, 0.05742317102419647, 3.1172619268939865, -0.118750661611557, -0.13447076082229614, -0.07784701883792877, -0.9982901215553284, -0.05739161744713783, -0.011100762523710728, 0.013335227966308594, -0.044933825731277466, 0.012184321880340576, -0.7030710930163225, -0.011859883323240755, -0.028830827638510456,-0.7104359591578053,-0.9131317138671875,-0.283233642578125,0.2380523681640625
20220112-1402,2022-01-12 14:03:01Z,u01, 176,40,movements,el-ex, rt, d,94736.36182679168, -1.5628769739063937, 0.060476988442442876, 3.1173295701269583, 0.11384423077106476, -0.08206214010715485, -0.12778981029987335, -0.9981404542922974, -0.06044013053178787, -0.007904792204499245, -0.007871389389038086, 0.04670723155140877, -0.02345186285674572, -0.7041879315058286, -0.012921346015059412, -0.029900246783599607,-0.7092660420694117,-0.94049072265625,-0.23748779296875,0.2126922607421875
20220112-1402,2022-01-12 14:03:01Z,u01, 177,40,movements,el-ex, rt, d,94736.39175479168, -1.5655925007665528, 0.06431058611516638, 3.1206201366210338, 0.09543965756893158, -0.11283816397190094, -0.13326554000377655, -0.9979193210601807, -0.06426626443862915, -0.005193045362830162, 0.025552988052368164, 0.03431326895952225, 0.02016204595565796, -0.7051002288230608, -0.015399499294944344, -0.030103026804833538,-0.7083010573250885,-0.9095916748046875,-0.28277587890625,0.2064208984375
20220112-1402,2022-01-12 14:03:01Z,u01, 178,40,movements,el-ex, rt, d,94736.42168362501, -1.569104136772913, 0.06851440371650877, 3.121083109798949, -0.0462917760014534, -0.12426712363958359, -0.10603364557027817, -0.9976524710655212, -0.06846081465482712, -0.001688219141215086, 0.012911200523376465, -0.007665283977985382, -0.008550286293029785, -0.7063051630461102, -0.016997266370953557, -0.03144995493292896,-0.7070043212939403,-0.9361419677734375,-0.32989501953125,0.2063446044921875
20220112-1402,2022-01-12 14:03:01Z,u01, 179,40,movements,el-ex, rt, d,94736.45161062501, -1.5738036387256715, 0.07083002711467398, 3.120357742032994, -0.0012959702871739864, -0.18693242967128754, -0.1388116329908371, -0.9974880814552307, -0.07077081501483917, 0.0029997669626027346, 0.030172407627105713, 0.01834162324666977, -0.017342805862426758, -0.7079507051644655, -0.017483777969000053, -0.032564703405013204,-0.7052940186377199,-0.92431640625,-0.247955322265625,0.179046630859375
20220112-1402,2022-01-12 14:03:01Z,u01, 180,40,movements,el-ex, rt, d,94736.48153862501, -1.5806416354752468, 0.07427543921356701, 3.1204902443276508, 0.017406679689884186, -0.2739175260066986, -0.15800435841083527, -0.9971945881843567, -0.07420716434717178, 0.009818005375564098, 0.060411691665649414, -0.009273678064346313, -0.004355192184448242, -0.7103251958047281, -0.018631128283264575, -0.03380050482503523,-0.7028147447279991,-0.9143218994140625,-0.206756591796875,0.158447265625
20220112-1402,2022-01-12 14:03:01Z,u01, 181,40,movements,el-ex, rt, d,94736.511466625, -1.588650412780692, 0.07915346713795601, 3.118467482406122, -0.11054742336273193, -0.3171957731246948, -0.1555449366569519, -0.9967102408409119, -0.07907084375619888, 0.017797240987420082, 0.05858457088470459, 0.008743084967136383, -0.027669548988342285, -0.7131052065887019, -0.01948294731907639, -0.03632056828392499,-0.6998445073227134,-0.88421630859375,-0.255615234375,0.1436920166015625
20220112-1402,2022-01-12 14:03:01Z,u01, 182,40,movements,el-ex, rt, d,94736.541394625, -1.5989404270439433, 0.08459360245845522, 3.1173651102520945, 0.006045132875442505, -0.3601503372192383, -0.22424271702766418, -0.9960296154022217, -0.0844927430152893, 0.028039760887622833, 0.04215681552886963, 0.017949163913726807, -0.010766744613647461, -0.7166501242323704, -0.020796146497158816, -0.038751574286574456,-0.6960449244581367,-0.889862060546875,-0.2733306884765625,0.16461181640625
20220112-1402,2022-01-12 14:03:01Z,u01, 183,40,movements,el-ex, rt, d,94736.571321625, -1.6097866969049484, 0.0924098543393756, 3.1189930057204434, 0.0536717064678669, -0.351119726896286, -0.2668347954750061, -0.9949766993522644, -0.0922783836722374, 0.038814179599285126, 0.04250764846801758, -0.0238562673330307, -0.004359599202871323, -0.7203033040380412, -0.023879706569340763, -0.04111291165718514,-0.6920280742087802,-0.8791656494140625,-0.1790924072265625,0.1235198974609375
20220112-1402,2022-01-12 14:03:01Z,u01, 184,40,movements,el-ex, rt, d,94736.601249625, -1.6200402656503963, 0.10158016917664854, 3.1204186224847255, 0.02559453248977661, -0.3456279933452606, -0.3239843547344208, -0.9936392903327942, -0.101405568420887, 0.0489703044295311, 0.06483668088912964, 0.0522875040769577, -0.043553344905376434, -0.7236970845683524, -0.02734377137805126, -0.044059461058016156,-0.6881669451406612,-0.8904571533203125,-0.205596923828125,0.1391754150390625
20220112-1402,2022-01-12 14:03:01Z,u01, 185,40,movements,el-ex, rt, d,94736.63117762501, -1.6323833814444881, 0.11207991238661591, 3.122330148286949, 0.035771504044532776, -0.43939289450645447, -0.363139271736145, -0.9918416738510132, -0.11184540390968323, 0.06116195395588875, 0.08508807420730591, 0.0020431578159332275, 0.007411118596792221, -0.7277345219949468, -0.031359886627694705, -0.04739118218127483,-0.6835006353846769,-0.9535675048828125,-0.266571044921875,0.1336669921875
20220112-1402,2022-01-12 14:03:01Z,u01, 186,40,movements,el-ex, rt, d,94736.66110562501, -1.6454327283280408, 0.1232605860659929, 3.122052254822294, -0.010888775810599327, -0.4376942813396454, -0.3807664215564728, -0.989650309085846, -0.12294870615005493, 0.07400140166282654, 0.04583299160003662, 0.002938307821750641, 0.03354264050722122, -0.7319790799123252, -0.03474659220995807, -0.05177731016034898,-0.6784677935388775,-0.8753204345703125,-0.2057952880859375,0.1128387451171875
20220112-1402,2022-01-12 14:03:01Z,u01, 187,40,movements,el-ex, rt, d,94736.691032625, -1.6573297251139296, 0.13449546155743122, 3.1263243647800993, 0.19474194943904877, -0.3717385530471802, -0.3775654137134552, -0.9872614145278931, -0.1340903490781784, 0.08564496040344238, 0.00944751501083374, 0.008571535348892212, -0.060254208743572235, -0.7356890559923237, -0.039800686851683476, -0.0546726778208982,-0.6739351611473139,-0.927581787109375,-0.2208251953125,0.1395263671875
20220112-1402,2022-01-12 14:03:01Z,u01, 188,40,movements,el-ex, rt, d,94736.72096062501, -1.6702895702928517, 0.14564830159962272, 3.1294187779844145, -0.09313257783651352, -0.4887778162956238, -0.3519711196422577, -0.9845190644264221, -0.14513389766216278, 0.0982774868607521, 0.09976863861083984, 0.01239769160747528, -0.01768052577972412, -0.7397121193440118, -0.04432521084922853, -0.05801656611238078,-0.6689509454574182,-0.91925048828125,-0.181060791015625,0.105316162109375
20220112-1402,2022-01-12 14:03:01Z,u01, 189,40,movements,el-ex, rt, d,94736.750888625, -1.6856368052264536, 0.15693366542679232, 3.124524038802727, -0.2399793565273285, -0.5529361963272095, -0.3246839642524719, -0.9812052845954895, -0.15629029273986816, 0.11318007856607437, 0.08169960975646973, 0.05185912549495697, 0.060999155044555664, -0.7446423406364466, -0.04580198678292747, -0.06417579667979961,-0.6627907060522529,-0.910858154296875,-0.1901702880859375,0.1129302978515625
20220112-1402,2022-01-12 14:03:01Z,u01, 190,40,movements,el-ex, rt, d,94736.780816625, -1.7000369563797801, 0.16635380245876968, 3.121929850342661, -0.06898563355207443, -0.451997309923172, -0.3222186863422394, -0.97797030210495, -0.16558758914470673, 0.12710195779800415, 0.03322237730026245, 0.04225081205368042, -0.017742052674293518, -0.7491981033805871, -0.04746766855428535, -0.06888102858210397,-0.6570422101264023,-0.94927978515625,-0.2503662109375,0.128692626953125
20220112-1402,2022-01-12 14:03:01Z,u01, 191,40,movements,el-ex, rt, d,94736.810743625, -1.7154275586191736, 0.17748632996669028, 3.121935008321099, -0.0635797530412674, -0.5879315733909607, -0.41086745262145996, -0.9740139842033386, -0.17655594646930695, 0.1418634057044983, 0.0888514518737793, 0.003200829029083252, -0.04957805573940277, -0.7539061211906058, -0.0505693542617944, -0.07343378849587053,-0.6509039682476802,-0.9843597412109375,-0.1776885986328125,0.1058807373046875
20220112-1402,2022-01-12 14:03:01Z,u01, 192,40,movements,el-ex, rt, d,94736.840671625, -1.7317261356415379, 0.19019828446158762, 3.1186529956345903, -0.25869202613830566, -0.49566352367401123, -0.372810423374176, -0.9692786335945129, -0.18905360996723175, 0.15734651684761047, -0.01569157838821411, -0.08130164444446564, 0.07557906210422516, -0.7588691052768223, -0.052829351484242545, -0.07971733481966004,-0.6441832090690116,-0.907623291015625,-0.1151580810546875,0.107879638671875
20220112-1402,2022-01-12 14:03:01Z,u01, 193,40,movements,el-ex, rt, d,94736.870599625, -1.7423447707884656, 0.20200570076102214, 3.1111930856966343, -0.262173593044281, -0.3658331334590912, -0.32704299688339233, -0.9652861952781677, -0.2006346434354782, 0.16723710298538208, 0.007263243198394775, 0.0948912650346756, 0.0037530362606048584, -0.762084109171759, -0.0533513355807522, -0.08687281190127011,-0.6394017176001454,-0.9772796630859375,-0.166534423828125,0.121246337890625
20220112-1402,2022-01-12 14:03:01Z,u01, 194,40,movements,el-ex, rt, d,94736.90052762501, -1.751685674294641, 0.21421111561415088, 3.106974199188627, -0.18445201218128204, -0.2965536117553711, -0.40639182925224304, -0.9612014293670654, -0.21257664263248444, 0.1757926642894745, -0.00764012336730957, -0.038445696234703064, -0.015483751893043518, -0.7647525500406971, -0.0552256167419239, -0.0931164053135754,-0.6351637870366261,-1.0049896240234375,-0.1365966796875,0.0638885498046875
20220112-1402,2022-01-12 14:03:01Z,u01, 195,40,movements,el-ex, rt, d,94736.930454625, -1.7595549579969658, 0.22744969368847076, 3.10812846318038, -0.0136768389493227, -0.25032278895378113, -0.41887223720550537, -0.9569402933120728, -0.2254936397075653, 0.1828070431947708, -0.0011897087097167969, -0.03898701071739197, 0.0282374769449234, -0.7667221615388448, -0.0595033446424432, -0.0980293630142509,-0.631654132447632,-0.9437713623046875,-0.1414031982421875,0.0483856201171875
20220112-1402,2022-01-12 14:03:01Z,u01, 196,40,movements,el-ex, rt, d,94736.96038262501, -1.7667121955054443, 0.23805068430626156, 3.1118279065091596, 0.014707463793456554, -0.13229694962501526, -0.3333556056022644, -0.9532090425491333, -0.23580873012542725, 0.18917536735534668, -0.046684324741363525, 0.07495053112506866, -0.0031399428844451904, -0.7684410673891272, -0.06392188925786185, -0.1011408372735747,-0.6286358764103805,-0.9813232421875,-0.1373748779296875,0.083648681640625
20220112-1402,2022-01-12 14:03:02Z,u01, 197,40,movements,el-ex, rt, d,94736.990310625, -1.7709168370309822, 0.24777288282116758, 3.1106518017411457, -0.18040235340595245, -0.17776423692703247, -0.3180985748767853, -0.9501132965087891, -0.24524547159671783, 0.19271670281887054, 0.021326005458831787, -0.03406667709350586, 0.006013989448547363, -0.7693896131803216, -0.06631722534063922, -0.10537325215782303,-0.6265287345028981,-0.9948272705078125,-0.141998291015625,0.0304412841796875
20220112-1402,2022-01-12 14:03:02Z,u01, 198,40,movements,el-ex, rt, d,94737.020238625, -1.7763193597740865, 0.2586407045239646, 3.1087652313754335, 0.007497088983654976, -0.2255331575870514, -0.3419128656387329, -0.9463929533958435, -0.25576671957969666, 0.19729124009609222, 0.019574105739593506, -0.007508426904678345, -0.01635242998600006, -0.7706646765335401, -0.06871374056603563, -0.11031582073043662,-0.623846787875084,-0.95391845703125,-0.13922119140625,0.0317840576171875
20220112-1402,2022-01-12 14:03:02Z,u01, 199,40,movements,el-ex, rt, d,94737.05016562501, -1.783961319129968, 0.2665718510380734, 3.114548883250836, 0.16249436140060425, -0.15375490486621857, -0.23565362393856049, -0.9428454637527466, -0.26342591643333435, 0.2040821760892868, -0.02454662322998047, 0.023237287998199463, -0.007243603467941284, -0.7724713563830676, -0.07300061692803539, -0.11183678578404338,-0.6208474819857416,-0.9411773681640625,-0.10284423828125,-0.0027008056640625
20220112-1402,2022-01-12 14:03:02Z,u01, 200,40,movements,el-ex, rt, d,94737.080093625, -1.7886641594311312, 0.27413106606552934, 3.1163136992099547, -0.1034730076789856, -0.16555218398571014, -0.27654486894607544, -0.939903974533081, -0.2707105576992035, 0.208077535033226, 0.02538377046585083, -0.02466908097267151, -0.03539372980594635, -0.773497066774769, -0.07576976435504112, -0.11437801722733204,-0.6187720773118713,-0.963653564453125,-0.144744873046875,-0.0123748779296875
20220112-1402,2022-01-12 14:03:02Z,u01, 201,40,movements,el-ex, rt, d,94737.110021625, -1.7948704159243754, 0.2840492083995174, 3.1158733416462345, -0.029729142785072327, -0.24715834856033325, -0.3139289915561676, -0.9359306693077087, -0.2802448868751526, 0.2132996916770935, 0.004900336265563965, -0.013425767421722412, 0.01039433479309082, -0.7749302765592968, -0.07831291587601508, -0.11858140779302855,-0.6158641825528072,-0.9266510009765625,-0.1124420166015625,-0.035980224609375
20220112-1402,2022-01-12 14:03:02Z,u01, 202,40,movements,el-ex, rt, d,94737.13994962501, -1.8015892256776904, 0.2916506900984092, 3.118784565643153, 0.03136853128671646, -0.1449553519487381, -0.21607626974582672, -0.9323757886886597, -0.28753361105918884, 0.2190895676612854, -0.04995465278625488, 0.06527402997016907, 0.012600094079971313, -0.7764799881263276, -0.08138556030452421, -0.12089526599859075,-0.6130577015014647,-0.877197265625,-0.0916900634765625,-0.0169219970703125
20220112-1402,2022-01-12 14:03:02Z,u01, 203,40,movements,el-ex, rt, d,94737.169876625, -1.8053361297271469, 0.29812513676104646, 3.1173551845009024, -0.2278607338666916, -0.15350031852722168, -0.19436398148536682, -0.929718017578125, -0.2937285602092743, 0.2221442013978958, -0.0057525634765625, -0.03575444221496582, 0.011971578001976013, -0.7773356950574264, -0.08259127732764748, -0.12399444907171447,-0.6111900906184029,-0.9042510986328125,-0.1077728271484375,-0.0247039794921875
20220112-1402,2022-01-12 14:03:02Z,u01, 204,40,movements,el-ex, rt, d,94737.19980462501, -1.8086269453583412, 0.3055726445773445, 3.1158376701845985, -0.019907835870981216, -0.07916808128356934, -0.23050527274608612, -0.9268303513526917, -0.3008393347263336, 0.22468093037605286, -0.041477203369140625, -0.03584587574005127, -0.004633784294128418, -0.7779918774719525, -0.08407797562332646, -0.12748181200008352,-0.6094325651003124,-0.94207763671875,-0.0904541015625,-0.0282135009765625
20220112-1402,2022-01-12 14:03:02Z,u01, 205,40,movements,el-ex, rt, d,94737.22973262501, -1.81164226204947, 0.3117303767133441, 3.1205685018165843, 0.1545301228761673, -0.03632987663149834, -0.21708938479423523, -0.9243320226669312, -0.3067060708999634, 0.22702839970588684, -0.020263314247131348, 0.03780043125152588, 0.0008617490530014038, -0.778356525546193, -0.08760890504115705, -0.12856015408037508,-0.6082418504865672,-0.8882293701171875,-0.0084686279296875,-0.10919189453125
20220112-1402,2022-01-12 14:03:02Z,u01, 206,40,movements,el-ex, rt, d,94737.259660625, -1.812599631881373, 0.31799301151004644, 3.1213540679531038, -0.19605350494384766, -0.030153807252645493, -0.18219831585884094, -0.9222312569618225, -0.312660813331604, 0.22744882106781006, -0.0025277137756347656, -0.011298537254333496, 0.013457179069519043, -0.7782459911526262, -0.08976408801652858, -0.13079468761317764,-0.607592321226134,-0.8349456787109375,-0.0451507568359375,-0.0399169921875
20220112-1402,2022-01-12 14:03:02Z,u01, 207,40,movements,el-ex, rt, d,94737.28958762501, -1.8120538560937307, 0.3238451449624017, 3.1170997297947283, -0.060129858553409576, -0.011414140462875366, -0.12820959091186523, -0.9205626249313354, -0.31821417808532715, 0.226504385471344, -0.0021057724952697754, -0.09542107582092285, 0.040356725454330444, -0.7779233040189787, -0.08993067625542073, -0.13433250207953423,-0.6072088568289562,-0.9276885986328125,-0.0710296630859375,0.0274505615234375
20220112-1402,2022-01-12 14:03:02Z,u01, 208,40,movements,el-ex, rt, d,94737.319515625, -1.8127958322111881, 0.32705081702399746, 3.117293094455279, 0.015010431408882141, 0.0018052589148283005, -0.12889134883880615, -0.9193991422653198, -0.3212515711784363, 0.22694171965122223, -0.015750885009765625, 0.05213233828544617, -0.003537699580192566, -0.7779472460588966, -0.09093370874646958, -0.13555036959837924,-0.6067579301091011,-0.9095916748046875,-0.039215087890625,-0.0406646728515625
20220112-1402,2022-01-12 14:03:02Z,u01, 209,40,movements,el-ex, rt, d,94737.349443625, -1.8120097382825961, 0.3301953641341384, 3.118814463810886, -0.0034381835721433163, 0.07618288695812225, -0.12003814429044724, -0.9185919761657715, -0.32422783970832825, 0.22597652673721313, 0.0010350942611694336, 0.03739309310913086, -0.01571032404899597, -0.777447778935772, -0.0925376515276882, -0.13627167364576967,-0.6069941428325238,-0.9349365234375,-0.080169677734375,-0.0034027099609375
20220112-1402,2022-01-12 14:03:02Z,u01, 210,40,movements,el-ex, rt, d,94737.37937162501, -1.811634450643047, 0.3353875326869793, 3.119061323562003, 0.00269374530762434, -0.010936835780739784, -0.1568709909915924, -0.9170292019844055, -0.32913514971733093, 0.22522714734077454, 0.034369468688964844, -0.00759577751159668, -0.01047484576702118, -0.7770018640364994, -0.0942426463050727, -0.13819099051664846,-0.6068686792965148,-0.990631103515625,-0.073822021484375,0.0086212158203125
20220112-1402,2022-01-12 14:03:02Z,u01, 211,40,movements,el-ex, rt, d,94737.409298375, -1.8122249429828603, 0.3382944462980205, 3.119899005140104, 0.024241846054792404, -0.01021578349173069, -0.11618628352880478, -0.9159634113311768, -0.3318786919116974, 0.2255389541387558, 0.020043611526489258, 0.027984619140625, -0.006590366363525391, -0.7769593291126234, -0.09541319945394335, -0.13909084143992123,-0.6065347149490431,-1.005218505859375,0.0048828125,-0.0374908447265625
20220112-1402,2022-01-12 14:03:02Z,u01, 212,40,movements,el-ex, rt, d,94737.439226375, -1.8130336531776954, 0.3402673743979657, 3.1222774292746345, 0.07433231174945831, -0.01142512634396553, -0.12557312846183777, -0.9151431322097778, -0.33373916149139404, 0.22612208127975464, 0.03202551603317261, 0.025145411491394043, -0.0594959557056427, -0.7769652245310841, -0.09688179841414934, -0.13917292928379466,-0.606275369069605,-0.9723663330078125,-0.0299530029296875,0.0149688720703125
20220112-1402,2022-01-12 14:03:02Z,u01, 213,40,movements,el-ex, rt, d,94737.46915437501, -1.8150860391975896, 0.3430435271267574, 3.125393700932128, 0.06303491443395615, -0.07013877481222153, -0.08850112557411194, -0.9137747883796692, -0.3363548517227173, 0.22777491807937622, 0.05046290159225464, -0.00776141881942749, -0.024787038564682007, -0.7772561954461005, -0.09879405314796276, -0.1394053333222267,-0.6055401146999542,-0.9963226318359375,-0.1002044677734375,-0.0108642578125
20220112-1402,2022-01-12 14:03:02Z,u01, 214,40,movements,el-ex, rt, d,94737.49908237501, -1.8176483019160756, 0.34477530139451135, 3.1260027300906863, -0.08287572115659714, -0.08649677783250809, -0.07026173174381256, -0.9126217365264893, -0.33798521757125854, 0.22997276484966278, 0.04331338405609131, 0.0009796321392059326, -0.01889781653881073, -0.7778884758992713, -0.09937757554101175, -0.1400198997621733,-0.6044898805028316,-0.9539947509765625,-0.04217529296875,-0.0063629150390625
20220112-1402,2022-01-12 14:03:02Z,u01, 215,40,movements,el-ex, rt, d,94737.52900937501, -1.8191810497856538, 0.3467271183954553, 3.1240559565219588, -0.007332490291446447, -0.07779835909605026, -0.043396562337875366, -0.9116269946098328, -0.3398215174674988, 0.2312086969614029, 0.019110023975372314, -0.0025399327278137207, -0.002006322145462036, -0.7783204610342701, -0.09910403630194678, -0.14144159798492845,-0.6036471657172224,-0.9603729248046875,-0.055816650390625,-0.0095672607421875
20220112-1402,2022-01-12 14:03:02Z,u01, 216,40,movements,el-ex, rt, d,94737.55893737501, -1.8203860065168957, 0.3477990231949833, 3.124771263813893, 0.06460651010274887, -0.0430939719080925, -0.00868925079703331, -0.9109944701194763, -0.34082943201065063, 0.2322169542312622, 0.001585841178894043, -0.026922643184661865, -0.012291789054870605, -0.7785781708660247, -0.09962181217123407, -0.14170186817892452,-0.6031685016251573,-0.94793701171875,-0.1110076904296875,0.0132293701171875
20220112-1402,2022-01-12 14:03:02Z,u01, 217,40,movements,el-ex, rt, d,94737.588865375, -1.8220374498918834, 0.3482626777180849, 3.1256571952629137, 0.025750793516635895, -0.020953383296728134, 0.022528192028403282, -0.9104564189910889, -0.3412652909755707, 0.23368172347545624, -0.04967236518859863, -0.019528746604919434, -0.0129174143075943, -0.7790011884419491, -0.0999900639198178, -0.1416973890260751,-0.6025620147866447,-0.9278717041015625,-0.0577392578125,-0.0175323486328125
20220112-1402,2022-01-12 14:03:02Z,u01, 218,40,movements,el-ex, rt, d,94737.618793375, -1.8215025932222346, 0.3467952808298977, 3.126570131613603, 0.0217371117323637, 0.033028822392225266, 0.047526951879262924, -0.9110655188560486, -0.3398856222629547, 0.2333187460899353, -0.04247152805328369, -0.05759057402610779, -0.022793054580688477, -0.7788911626789105, -0.09993962555963219, -0.14082520629371248,-0.6029170514014475,-0.9538726806640625,-0.0665435791015625,0.01727294921875
20220112-1402,2022-01-12 14:03:02Z,u01, 219,40,movements,el-ex, rt, d,94737.648720375, -1.8197865122900119, 0.3467028376182016, 3.1238667169166137, -0.12473994493484497, 0.03864516317844391, 0.04022296518087387, -0.9114950299263, -0.3397986888885498, 0.23176269233226776, -0.084705650806427, -0.05410698056221008, 0.04072883725166321, -0.7785141408439534, -0.09898019672775361, -0.14151924213120842,-0.6033996010128029,-0.9489898681640625,-0.113922119140625,0.0381927490234375
20220112-1402,2022-01-12 14:03:02Z,u01, 220,40,movements,el-ex, rt, d,94737.678648375, -1.8159502934545002, 0.34611236114034305, 3.1211351878259928, -0.0068504586815834045, 0.12294778972864151, 0.03414749726653099, -0.9125718474388123, -0.3392432928085327, 0.22831293940544128, -0.09789568185806274, -0.027700096368789673, 0.01891016960144043, -0.7775284223041752, -0.09801033151823235, -0.1419262300802327,-0.6047317982206467,-0.93927001953125,-0.0728912353515625,0.0230712890625
20220112-1402,2022-01-12 14:03:02Z,u01, 221,40,movements,el-ex, rt, d,94737.70857637501, -1.8118015423044072, 0.3465170136788322, 3.1205489112646125, 0.00789146963506937, 0.13176871836185455, -0.02218874916434288, -0.9133777022361755, -0.33962389826774597, 0.224492147564888, -0.11802482604980469, -0.06020212173461914, 0.045771703124046326, -0.7762749445741133, -0.09820021473270038, -0.14205697305787662,-0.6062785831676809,-0.900421142578125,-0.0466156005859375,0.0128326416015625
20220112-1402,2022-01-12 14:03:02Z,u01, 222,40,movements,el-ex, rt, d,94737.738503375, -1.8074523526258315, 0.34724646150408484, 3.122747629737559, 0.08517000824213028, 0.19550774991512299, -0.0421491414308548, -0.9141046404838562, -0.34030991792678833, 0.22045952081680298, -0.1750069260597229, -0.05060508847236633, 0.03219574689865112, -0.7747986065889566, -0.09958351417874005, -0.14145646779580956,-0.6080793823819809,-0.9264678955078125,-0.129608154296875,0.0998992919921875
20220112-1402,2022-01-12 14:03:02Z,u01, 223,40,movements,el-ex, rt, d,94737.768431375, -1.8017307386988959, 0.3491368903812271, 3.1232602121449844, -0.06527894735336304, 0.17523376643657684, -0.043775398284196854, -0.9147228598594666, -0.34208691120147705, 0.21507807075977325, -0.1556047797203064, -0.09480270743370056, 0.045221760869026184, -0.7729071263845643, -0.10076510247703829, -0.14174337164747516,-0.6102210540082064,-0.961395263671875,-0.118072509765625,0.0906982421875
20220112-1402,2022-01-12 14:03:02Z,u01, 224,40,movements,el-ex, rt, d,94737.79835937501, -1.7965229351448924, 0.35209941746417445, 3.121572605890278, 0.012400500476360321, 0.16605938971042633, -0.07131707668304443, -0.9148387908935547, -0.3448691964149475, 0.2100837230682373, -0.19159120321273804, -0.05564349889755249, 0.03742918372154236, -0.7712076270176743, -0.10139358946098585, -0.1431363436816647,-0.6119396037448164,-0.977813720703125,-0.125518798828125,0.025390625
20220112-1402,2022-01-12 14:03:02Z,u01, 225,40,movements,el-ex, rt, d,94737.828287375, -1.7937347657628324, 0.3537457061138652, 3.125346297920273, 0.15111510455608368, 0.09842600673437119, -0.059353627264499664, -0.9148661494255066, -0.3464139997959137, 0.2074064016342163, -0.20686852931976318, -0.052298158407211304, 0.022330045700073242, -0.7700519323461926, -0.10355300825760931, -0.142470368109612,-0.6131876102353928,-0.9022979736328125,-0.1324005126953125,0.065338134765625
20220112-1402,2022-01-12 14:03:02Z,u01, 226,40,movements,el-ex, rt, d,94737.85821437501, -1.7915201688208562, 0.3542328070017089, 3.1268393470765274, -0.07774952799081802, 0.06627678871154785, -0.003958611283451319, -0.9151586294174194, -0.34687089920043945, 0.20534290373325348, -0.21956145763397217, -0.08605149388313293, 0.03339627385139465, -0.7692624802626348, -0.10443509518885914, -0.14208413057200553,-0.6141179149618331,-0.8770599365234375,-0.1208343505859375,0.1530609130859375
20220112-1402,2022-01-12 14:03:02Z,u01, 227,40,movements,el-ex, rt, d,94737.888142375, -1.7901646862988179, 0.3546969983820721, 3.1248763671620345, 0.023349519819021225, -0.00247137900441885, -0.0059256223030388355, -0.9152786731719971, -0.3473062515258789, 0.2040671408176422, -0.18602442741394043, -0.047270774841308594, -0.0019796043634414673, -0.7689175725418415, -0.10391985496213806, -0.14279456499185095,-0.6144722794117085,-0.938446044921875,-0.1204681396484375,0.173187255859375
20220112-1402,2022-01-12 14:03:02Z,u01, 228,40,movements,el-ex, rt, d,94737.918070375, -1.7923151877938, 0.3547936208003645, 3.1269467491214216, 0.022293444722890854, -0.1023031622171402, -0.014074096456170082, -0.9148051142692566, -0.3473968505859375, 0.20602762699127197, -0.15446990728378296, -0.049758970737457275, 0.004299670457839966, -0.7694635798628807, -0.1045926103670801, -0.1423079891468597,-0.6137872317567443,-0.91619873046875,-0.1156005859375,0.0636749267578125
20220112-1402,2022-01-12 14:03:02Z,u01, 229,40,movements,el-ex, rt, d,94737.947998375, -1.7955743013988663, 0.3551643237140799, 3.1245770284751484, -0.13243438303470612, -0.15935799479484558, 0.023944593966007233, -0.9140028953552246, -0.3477444350719452, 0.20897920429706573, -0.12393027544021606, -0.010577678680419922, -0.003092333674430847, -0.77056122907688, -0.10356154334910336, -0.14334641141253235,-0.6123415124503214,-0.8942108154296875,-0.1937255859375,0.11407470703125
20220112-1402,2022-01-12 14:03:02Z,u01, 230,40,movements,el-ex, rt, d,94737.977925375, -1.8000297211829335, 0.3548724872319469, 3.1211122833138822, -0.0664510726928711, -0.20989647507667542, 0.048199400305747986, -0.9131616950035095, -0.34747079014778137, 0.21307247877120972, -0.07794243097305298, -0.03186267614364624, -0.009550705552101135, -0.7721204122932185, -0.10181506058209763, -0.14452201768717415,-0.6103910366319486,-0.9849700927734375,-0.270355224609375,0.2329254150390625
20220112-1402,2022-01-12 14:03:03Z,u01, 231,40,movements,el-ex, rt, d,94738.007853375, -1.804499443855724, 0.35383387344659295, 3.1178605387855236, -0.14521965384483337, -0.18625053763389587, 0.055832281708717346, -0.9125509262084961, -0.34649670124053955, 0.21723540127277374, -0.04037576913833618, -0.05743396282196045, 0.0018657445907592773, -0.7737146819136573, -0.09991642134100918, -0.14533817471156862,-0.6084893444641084,-0.9740142822265625,-0.11328125,0.18524169921875
20220112-1402,2022-01-12 14:03:03Z,u01, 232,40,movements,el-ex, rt, d,94738.03778137501, -1.807818863630791, 0.35358239454726653, 3.112708591411295, -0.10467945039272308, -0.13692566752433777, 0.05911509692668915, -0.9119093418121338, -0.34626081585884094, 0.22028376162052155, -0.04925704002380371, 0.027687788009643555, 0.0268019437789917, -0.7749939867284724, -0.09760226315958409, -0.14697042438657726,-0.6068425544564773,-0.9559783935546875,-0.189849853515625,0.150177001953125
20220112-1402,2022-01-12 14:03:03Z,u01, 233,40,movements,el-ex, rt, d,94738.067708375, -1.810021027009165, 0.3513074258368398, 3.112480153748026, 0.06159810721874237, -0.04981519281864166, 0.0823560357093811, -0.9121849536895752, -0.3441256880760193, 0.22247746586799622, -0.035416364669799805, -0.0008755326271057129, 0.002345666289329529, -0.7758195616817257, -0.0966578552418635, -0.14626820821395367,-0.6061080060708395,-0.9756317138671875,-0.32745361328125,0.145538330078125
20220112-1402,2022-01-12 14:03:03Z,u01, 234,40,movements,el-ex, rt, d,94738.09763637501, -1.8108220247219127, 0.3492143606573853, 3.1108202061314914, -0.08902362734079361, -0.04895232617855072, 0.10577215254306793, -0.9127042293548584, -0.3421596884727478, 0.22337883710861206, -0.014709830284118652, -0.04632914066314697, 0.018641024827957153, -0.7762758061616924, -0.09531678386068528, -0.1460007756925319,-0.6058007266296784,-0.95989990234375,-0.233428955078125,0.23968505859375
20220112-1402,2022-01-12 14:03:03Z,u01, 235,40,movements,el-ex, rt, d,94738.12756437501, -1.8108035876983528, 0.345543357125558, 3.109353395245482, 0.0806388109922409, 0.033806800842285156, 0.12996862828731537, -0.9139222502708435, -0.33870795369148254, 0.22365906834602356, -0.03816521167755127, 0.013833075761795044, 0.003056168556213379, -0.776571432705819, -0.09362877326972133, -0.14502528963164957,-0.6059193637456981,-0.9929046630859375,-0.1466217041015625,0.1807098388671875
20220112-1402,2022-01-12 14:03:03Z,u01, 236,40,movements,el-ex, rt, d,94738.157492375, -1.8095639348323465, 0.3411540999638022, 3.1096678490901826, 0.0011066338047385216, 0.04449126869440079, 0.15887019038200378, -0.9156343936920166, -0.3345749080181122, 0.22287538647651672, -0.0041348934173583984, -0.016606122255325317, 0.02816234529018402, -0.7764543934582113, -0.09250011458142178, -0.1431755581429816,-0.6066820626500524,-0.9287872314453125,-0.2793121337890625,0.19873046875
20220112-1402,2022-01-12 14:03:03Z,u01, 237,40,movements,el-ex, rt, d,94738.18741937501, -1.8068542697656993, 0.33716576889806016, 3.1083319568921364, 0.03232307732105255, 0.11201558262109756, 0.18548381328582764, -0.9175252318382263, -0.33081376552581787, 0.2207038849592209, -0.011597871780395508, -0.025692641735076904, -0.006714433431625366, -0.7759375618566786, -0.09095515152459618, -0.1419158153624673,-0.6078718264983991,-0.9262847900390625,-0.28656005859375,0.174163818359375
20220112-1402,2022-01-12 14:03:03Z,u01, 238,40,movements,el-ex, rt, d,94738.217347375, -1.8033592549004263, 0.33068487174139644, 3.107973886134782, -0.015430763363838196, 0.11541931331157684, 0.21596390008926392, -0.9203578233718872, -0.32469087839126587, 0.21798530220985413, 0.0019159913063049316, -0.011017769575119019, 0.0042438507080078125, -0.7752794526394179, -0.08907538360465433, -0.1393653365188937,-0.6095775397994614,-0.9536590576171875,-0.2044677734375,0.2176055908203125
20220112-1402,2022-01-12 14:03:03Z,u01, 239,40,movements,el-ex, rt, d,94738.247275375, -1.798359738544498, 0.3247496868172319, 3.105280631459551, -0.11874689906835556, 0.19949743151664734, 0.24210229516029358, -0.9232973456382751, -0.31907156109809875, 0.21381226181983948, -0.010159134864807129, 0.009547024965286255, 0.009927511215209961, -0.7742187707178366, -0.08655301125597069, -0.13767947330396332,-0.6116685006168948,-0.950836181640625,-0.27703857421875,0.1867523193359375
20220112-1402,2022-01-12 14:03:03Z,u01, 240,40,movements,el-ex, rt, d,94738.27720337501, -1.7905601931268906, 0.31940858497674335, 3.1016321500154005, -0.02189212664961815, 0.2598859369754791, 0.26464781165122986, -0.9265868067741394, -0.3140051066875458, 0.20697307586669922, 0.006924271583557129, 0.005228221416473389, -0.007906794548034668, -0.7722862728384647, -0.08402649082093812, -0.13641066628135623,-0.6147403185812688,-0.9054107666015625,-0.31072998046875,0.1882781982421875
20220112-1402,2022-01-12 14:03:03Z,u01, 241,40,movements,el-ex, rt, d,94738.307130375, -1.7812841808302298, 0.3122999147455743, 3.099312074085597, -0.04763703793287277, 0.33430424332618713, 0.3025496304035187, -0.9306260943412781, -0.3072481155395508, 0.19883060455322266, 0.02701592445373535, -0.002444237470626831, -0.018135935068130493, -0.7699123312696983, -0.0815493962699689, -0.13401569446252606,-0.618566456812995,-0.946624755859375,-0.285614013671875,0.2295379638671875
20220112-1402,2022-01-12 14:03:03Z,u01, 242,40,movements,el-ex, rt, d,94738.33705837501, -1.7705245195827315, 0.3035451327691916, 3.0944671644767605, -0.09616406261920929, 0.28157585859298706, 0.33856576681137085, -0.9353125691413879, -0.2989051342010498, 0.18933258950710297, 0.06133460998535156, 0.04068055748939514, 0.013548538088798523, -0.7672254612905023, -0.07766199450809935, -0.1317456477198813,-0.6228780701634262,-0.982330322265625,-0.222259521484375,0.231689453125
20220112-1402,2022-01-12 14:03:03Z,u01, 243,40,movements,el-ex, rt, d,94738.36698637501, -1.7596053204821718, 0.2937120850203927, 3.0887239713348094, -0.09644599258899689, 0.3285486102104187, 0.38241198658943176, -0.9401655197143555, -0.28950732946395874, 0.17965158820152283, 0.03138238191604614, 0.04776230454444885, 0.05022229254245758, -0.764516813804474, -0.0730741647313898, -0.12938685790659232,-0.6272427002835294,-0.9392547607421875,-0.30535888671875,0.2156829833984375
20220112-1402,2022-01-12 14:03:03Z,u01, 244,40,movements,el-ex, rt, d,94738.396913375, -1.7486630635380294, 0.2834075152215368, 3.0858937530394326, 0.01281728595495224, 0.29104501008987427, 0.3112452030181885, -0.9449609518051147, -0.27962884306907654, 0.16987229883670807, 0.08674561977386475, 0.048275113105773926, -0.05823887884616852, -0.7616542721710938, -0.06941843491405522, -0.12598195448011618,-0.6318167592970879,-0.9603118896484375,-0.4009552001953125,0.2298736572265625
20220112-1402,2022-01-12 14:03:03Z,u01, 245,40,movements,el-ex, rt, d,94738.426840125, -1.741063012857947, 0.27455907216927106, 3.0862724072740586, 0.06200217455625534, 0.2555698752403259, 0.2865822911262512, -0.9486261606216431, -0.271122545003891, 0.16309860348701477, 0.03851562738418579, -0.0029100775718688965, 0.011980891227722168, -0.7596267320242087, -0.06720511971108253, -0.12225911351100094,-0.6352192301158863,-0.9556732177734375,-0.262969970703125,0.222198486328125
20220112-1402,2022-01-12 14:03:03Z,u01, 246,40,movements,el-ex, rt, d,94738.456768125, -1.7321635952880836, 0.26390033266650864, 3.085286847688676, -0.024862749502062798, 0.34261488914489746, 0.41681337356567383, -0.9528383016586304, -0.2608478367328644, 0.15510554611682892, -0.008129715919494629, -0.02822992205619812, 0.0014040321111679077, -0.7572743250144984, -0.0639403328676892, -0.11826500885686446,-0.6391092768192923,-0.9425048828125,-0.2891845703125,0.2183837890625
20220112-1402,2022-01-12 14:03:03Z,u01, 247,40,movements,el-ex, rt, d,94738.48669612501, -1.7216034067141257, 0.25169431540031123, 3.0805192771222627, -0.12121511250734329, 0.2606998085975647, 0.4221367835998535, -0.9574995040893555, -0.2490452527999878, 0.14550243318080902, 0.05697166919708252, -0.0073328763246536255, -0.011286050081253052, -0.7545151860532823, -0.058805160567916404, -0.11488627570470702,-0.643467057036202,-0.920806884765625,-0.33734130859375,0.2459564208984375
