SessionID,LoggingTime,UID,RecNo,Hertz,Activity,MoveType,Wrist,Side,TimeStamp,DMRoll,DMPitch,DMYaw,DMRotX,DMRotY,DMRotZ,DMGrvX,DMGrvY,DMGrvZ,DMUAccelX,DMUAccelY,DMUAccelZ,DMQuatX,DMQuatY,DMQuatW,DMQuatZ,AccelroX,AceelroY,AceelroZ
20220112-1408,2022-01-12 14:08:28Z,u01, 1,40,movements,el-ex, rt, d,95063.586116125, -1.7000124773165373, 0.14846403549700252, 3.0111173029148066, -0.026341035962104797, 0.27199405431747437, 0.36476409435272217, -0.9807546734809875, -0.14791923761367798, 0.12743940949440002, 0.03368717432022095, 0.02685597538948059, -0.03417740762233734, -0.7508126965614135, 6.938893903907228e-18, -0.0985060856020995,-0.6531287165123925,-0.9298248291015625,-0.108489990234375,0.0724029541015625
20220112-1408,2022-01-12 14:08:28Z,u01, 2,40,movements,el-ex, rt, d,95063.616043125, -1.6926644350147486, 0.13766026469848994, 3.008621856347856, -0.09235157817602158, 0.19000126421451569, 0.36157235503196716, -0.9831933379173279, -0.1372258961200714, 0.12041664123535156, 0.061241984367370605, 0.022647634148597717, -0.05298781394958496, -0.7484591269075842, 0.004154059951393039, -0.09531473480798991,-0.6562826456911401,-1.06475830078125,-0.1190338134765625,0.1468963623046875
20220112-1408,2022-01-12 14:08:28Z,u01, 3,40,movements,el-ex, rt, d,95063.645970125, -1.6863921224867218, 0.12815078983772699, 3.003676688076134, -0.14328217506408691, 0.2319907248020172, 0.2740965187549591, -0.9851810336112976, -0.12780031561851501, 0.11439275741577148, 0.32957178354263306, -0.09421508014202118, -0.05697369575500488, -0.7464032404486146, 0.008864677284970153, -0.09343553316597478,-0.6588425835140598,-0.9060821533203125,-0.1934356689453125,0.088104248046875
20220112-1408,2022-01-12 14:08:28Z,u01, 4,40,movements,el-ex, rt, d,95063.67589712501, -1.680966410471776, 0.11912908662138838, 3.000052275708291, -0.00906600896269083, 0.15585073828697205, 0.2879069447517395, -0.9868931770324707, -0.11884751170873642, 0.10916813462972641, 0.0697023868560791, 0.021710030734539032, -0.0423191636800766, -0.7445910391886963, 0.012971164821497003, -0.09132424827893734,-0.6611172712592063,-0.896759033203125,-0.074951171875,0.06292724609375
20220112-1408,2022-01-12 14:08:28Z,u01, 5,40,movements,el-ex, rt, d,95063.705824125, -1.6788684332984567, 0.11088010282442258, 2.997095240479852, -0.10575560480356216, 0.0006604995578527451, 0.26634663343429565, -0.9880611300468445, -0.11065304279327393, 0.107199527323246, 0.11885923147201538, 0.011180967092514038, 0.009805217385292053, -0.743854716372294, 0.01673090234668146, -0.08927112011391647,-0.6621413845089426,-0.86920166015625,-0.0994720458984375,0.11700439453125
20220112-1408,2022-01-12 14:08:28Z,u01, 6,40,movements,el-ex, rt, d,95063.735751375, -1.6773546185652555, 0.1045971005887239, 2.9923951023895983, -0.08156048506498337, 0.04759398475289345, 0.15794911980628967, -0.9888938665390015, -0.10440648347139359, 0.10577549785375595, 0.12037879228591919, 0.008230328559875488, -0.026612646877765656, -0.743281280631785, 0.020510627334720803, -0.08852268523612031,-0.6627790897308149,-0.8914794921875,-0.1204986572265625,0.09326171875
20220112-1408,2022-01-12 14:08:28Z,u01, 7,40,movements,el-ex, rt, d,95063.765679375, -1.6779727238845146, 0.10262070794471044, 2.993703595072279, 0.046084627509117126, -0.11483021080493927, -0.025703653693199158, -0.9890314936637878, -0.10244068503379822, 0.10640858113765717, 0.22978460788726807, 0.07206042110919952, -0.05332291126251221, -0.7434886023030154, 0.020712009696287427, -0.08735318485068194,-0.662695433123044,-0.787322998046875,-0.0430755615234375,0.0117034912109375
20220112-1408,2022-01-12 14:08:28Z,u01, 8,40,movements,el-ex, rt, d,95063.795606375, -1.6819788771004234, 0.10339445292605559, 2.993469420217534, -0.04669987037777901, -0.043686192482709885, -0.014763055369257927, -0.988518238067627, -0.10321033000946045, 0.11036109924316406, 0.14479869604110718, -0.04724133759737015, 0.07898544520139694, -0.7448163471514745, 0.020716164742842755, -0.0876751245850221,-0.6611600794171909,-0.77557373046875,-0.1093902587890625,0.1624908447265625
20220112-1408,2022-01-12 14:08:28Z,u01, 9,40,movements,el-ex, rt, d,95063.82553337501, -1.6837242539331496, 0.10389426018436759, 2.9957137352267713, 0.11756610870361328, -0.1478729099035263, -0.0929405465722084, -0.9882727265357971, -0.103707455098629, 0.11208043992519379, 0.31091976165771484, 0.0817195400595665, -0.10272647440433502, -0.7454183967245265, 0.019789714020398114, -0.08710078504950267,-0.660585597774439,-0.8139495849609375,-0.1013946533203125,0.1219024658203125
20220112-1408,2022-01-12 14:08:28Z,u01, 10,40,movements,el-ex, rt, d,95063.85546037501, -1.6929208100879183, 0.11059720669057117, 2.9972754923664846, -0.028641941025853157, -0.4574751555919647, -0.3749340772628784, -0.9864879846572876, -0.11037188023328781, 0.12107686698436737, 0.3204265832901001, 0.12601211667060852, -0.06286431103944778, -0.7484892981936396, 0.017384012668587766, -0.08898702027804135,-0.6569192824102894,-0.6623687744140625,-0.0134124755859375,0.00592041015625
20220112-1408,2022-01-12 14:08:28Z,u01, 11,40,movements,el-ex, rt, d,95063.885387375, -1.709424744766857, 0.12349963640318629, 2.9986855124724108, 0.018317578360438347, -0.5656325817108154, -0.4637441039085388, -0.9828632473945618, -0.12318593263626099, 0.13713237643241882, 0.201094388961792, -0.01371593028306961, 0.10261404514312744, -0.7539151048272729, 0.013349148613364822, -0.09321001560180911,-0.6501890687419413,-0.6660614013671875,0.0156402587890625,0.0582122802734375
20220112-1408,2022-01-12 14:08:28Z,u01, 12,40,movements,el-ex, rt, d,95063.915314375, -1.7253692476836888, 0.1371601289587087, 3.0000238593834934, -0.1264205276966095, -0.5318729281425476, -0.4667922854423523, -0.9787977337837219, -0.13673047721385956, 0.15251220762729645, 0.14395880699157715, -0.061694830656051636, -0.021515265107154846, -0.7590603399045381, 0.009138099840149433, -0.09781330509022779,-0.6435654802349384,-0.7505645751953125,-0.0853729248046875,0.2207183837890625
20220112-1408,2022-01-12 14:08:28Z,u01, 13,40,movements,el-ex, rt, d,95063.94524137501, -1.7451902419437484, 0.15222052899877747, 3.0011561818759858, 0.0971762090921402, -0.6921027898788452, -0.535321056842804, -0.9734442830085754, -0.1516333520412445, 0.17150497436523438, 0.11771607398986816, 0.09035404026508331, 0.12228798866271973, -0.7653294545359676, 0.0048282768540895415, -0.10307214729112843,-0.6353139653713721,-0.8603973388671875,-0.2706756591796875,0.1771697998046875
20220112-1408,2022-01-12 14:08:28Z,u01, 14,40,movements,el-ex, rt, d,95063.97516837501, -1.7602849257887927, 0.16639116276013943, 3.006104408759427, 0.032916825264692307, -0.32906726002693176, -0.4381137192249298, -0.9685371518135071, -0.1656244397163391, 0.18575532734394073, -0.02369636297225952, 0.0019128471612930298, 0.01256348192691803, -0.7699850607164751, -0.0008176946642474356, -0.10688240167849956,-0.6290459271040764,-0.7804718017578125,-0.06182861328125,0.1357879638671875
20220112-1408,2022-01-12 14:08:29Z,u01, 15,40,movements,el-ex, rt, d,95064.005095375, -1.7718842929211016, 0.17932626309191302, 3.0084413887859265, 0.02324502542614937, -0.42595866322517395, -0.4372205138206482, -0.9641371965408325, -0.17836667597293854, 0.19653257727622986, 0.08582597970962524, -0.013665184378623962, -0.0033102184534072876, -0.7734592917510504, -0.005197350286046891, -0.11111139859256434,-0.6240096738659758,-0.979827880859375,-0.106964111328125,0.3062896728515625
20220112-1408,2022-01-12 14:08:29Z,u01, 16,40,movements,el-ex, rt, d,95064.035022375, -1.7829114438450147, 0.19092827733989579, 3.012043899624833, 0.026665423065423965, -0.2568591833114624, -0.32549747824668884, -0.959823727607727, -0.1897703856229782, 0.20670250058174133, -0.053832948207855225, -0.07475598156452179, 0.1326533406972885, -0.7766971512253685, -0.009632460315713527, -0.11448443550250337,-0.6193078162308457,-0.960235595703125,-0.16424560546875,0.1619415283203125
20220112-1408,2022-01-12 14:08:29Z,u01, 17,40,movements,el-ex, rt, d,95064.064950375, -1.7881257887483055, 0.1998606879606901, 3.014336302439994, -0.017746681347489357, -0.09814630448818207, -0.309054434299469, -0.9570392370223999, -0.19853278994560242, 0.21133053302764893, -0.03388172388076782, 0.004502028226852417, -0.016078874468803406, -0.7781359797619513, -0.01302562888131066, -0.11724254236765899,-0.6169188754867487,-0.8783111572265625,-0.1920318603515625,0.1932220458984375
20220112-1408,2022-01-12 14:08:29Z,u01, 18,40,movements,el-ex, rt, d,95064.094877375, -1.7940519680920592, 0.20945887958235296, 3.0174123415071747, 0.0811355859041214, -0.2595937252044678, -0.34061548113822937, -0.9538681507110596, -0.20793063938617706, 0.2165665626525879, 0.057154715061187744, 0.07446198165416718, -0.04133427143096924, -0.7797426095631507, -0.01687443617803586, -0.12003978617547312,-0.6142535486437123,-1.0060882568359375,-0.255950927734375,0.3157501220703125
20220112-1408,2022-01-12 14:08:29Z,u01, 19,40,movements,el-ex, rt, d,95064.12480437501, -1.8016765477313195, 0.21701387599852665, 3.0200485049376398, -0.034098025411367416, -0.15283338725566864, -0.17194807529449463, -0.9506325721740723, -0.21531450748443604, 0.2234671264886856, -0.07376623153686523, -0.06544721126556396, 0.0982799232006073, -0.7818834539963111, -0.019794686000432837, -0.12222099863911795,-0.6110061688274896,-1.0295562744140625,-0.251708984375,0.2579498291015625
20220112-1408,2022-01-12 14:08:29Z,u01, 20,40,movements,el-ex, rt, d,95064.154731375, -1.8043651067056103, 0.22340815779032933, 3.0177020393245915, -0.16114182770252228, -0.14011752605438232, -0.2342928946018219, -0.9486696720123291, -0.22155436873435974, 0.22569891810417175, -0.024597108364105225, 0.060970813035964966, -0.0857449471950531, -0.7825734231483226, -0.020695244524681747, -0.12543831351632886,-0.6094390640166512,-0.907562255859375,-0.1275634765625,0.147552490234375
20220112-1408,2022-01-12 14:08:29Z,u01, 21,40,movements,el-ex, rt, d,95064.184658375, -1.8109275781467247, 0.23089389217473766, 3.0194744165951604, 0.11928656697273254, -0.26057562232017517, -0.25397831201553345, -0.9455304145812988, -0.22884778678417206, 0.23151862621307373, 0.024540483951568604, 0.09380751848220825, -0.05003039538860321, -0.7843576100868813, -0.023290567220217627, -0.12787184819278738,-0.6065389122927703,-0.9303131103515625,-0.17633056640625,0.227813720703125
20220112-1408,2022-01-12 14:08:29Z,u01, 22,40,movements,el-ex, rt, d,95064.21458537501, -1.819185461623769, 0.23653273092807586, 3.021560210794222, -0.14704781770706177, -0.2267538160085678, -0.20252636075019836, -0.9423207640647888, -0.2343333214521408, 0.23899774253368378, -0.06317257881164551, -0.07148340344429016, 0.022156745195388794, -0.7866752978164874, -0.025314951730655365, -0.12953165216476867,-0.6030944176998027,-1.0421905517578125,-0.29901123046875,0.295928955078125
20220112-1408,2022-01-12 14:08:29Z,u01, 23,40,movements,el-ex, rt, d,95064.24451237501, -1.8241282992646495, 0.24428231691325863, 3.0175231963463585, -0.07407204061746597, -0.20354975759983063, -0.24578441679477692, -0.9393416047096252, -0.2418600171804428, 0.24319006502628326, -0.02545642852783203, 0.10427148640155792, -0.07963086664676666, -0.7879914907048189, -0.025776739649092006, -0.1338254487218839,-0.6004130465674443,-0.9732666015625,-0.16058349609375,0.13995361328125
20220112-1408,2022-01-12 14:08:29Z,u01, 24,40,movements,el-ex, rt, d,95064.274439375, -1.8326294993016463, 0.2510955849847849, 3.02173490021049, 0.07685931771993637, -0.2607163190841675, -0.2740631401538849, -0.9356268048286438, -0.24846532940864563, 0.2507343292236328, -0.026500940322875977, -0.01171228289604187, 0.007948249578475952, -0.7902716359970188, -0.028946565857149647, -0.135338034515619,-0.5969225630196309,-0.9201202392578125,-0.107513427734375,0.1595306396484375
20220112-1408,2022-01-12 14:08:29Z,u01, 25,40,movements,el-ex, rt, d,95064.304366375, -1.8390289528472177, 0.2584876586876308, 3.0243522482966956, 0.0038607418537139893, -0.15137970447540283, -0.2318142056465149, -0.9322068095207214, -0.25561875104904175, 0.2562229335308075, -0.06349050998687744, -0.000622183084487915, -0.022000253200531006, -0.7918969820481536, -0.031790508795368155, -0.13754595677770026,-0.5941127126975368,-0.9676971435546875,-0.281951904296875,0.2906341552734375
20220112-1408,2022-01-12 14:08:29Z,u01, 26,40,movements,el-ex, rt, d,95064.33429337501, -1.8439755879117201, 0.2643113471352725, 3.0271925588550816, 0.021414002403616905, -0.1579284816980362, -0.18992914259433746, -0.9294785857200623, -0.26124459505081177, 0.26042497158050537, -0.011790454387664795, 0.00678899884223938, -0.01803886890411377, -0.7931163453188137, -0.03433576420209915, -0.13906658841105501,-0.5919865862016039,-1.00714111328125,-0.2116241455078125,0.216796875
20220112-1408,2022-01-12 14:08:29Z,u01, 27,40,movements,el-ex, rt, d,95064.364220375, -1.849268127081963, 0.26942758374291165, 3.028992782514923, 0.02492831088602543, -0.1455059051513672, -0.16687388718128204, -0.926790177822113, -0.2661797106266022, 0.26496976613998413, -0.06022477149963379, -0.0693153440952301, 0.004119306802749634, -0.7944638550017389, -0.03622240861501033, -0.14063544933034833,-0.5896923213387144,-0.9311676025390625,-0.149688720703125,0.19073486328125
20220112-1408,2022-01-12 14:08:29Z,u01, 28,40,movements,el-ex, rt, d,95064.39414837501, -1.8522152506470224, 0.273459448388527, 3.030822800780513, -0.0007082438096404076, -0.0431513637304306, -0.13958747684955597, -0.9249663949012756, -0.27006393671035767, 0.2673996388912201, -0.08138114213943481, 0.01719534397125244, -0.0035902857780456543, -0.7951473814656539, -0.03795342798073583, -0.14173508654752182,-0.5883972296912596,-0.9814453125,-0.279693603515625,0.2618560791015625
20220112-1408,2022-01-12 14:08:29Z,u01, 29,40,movements,el-ex, rt, d,95064.424075375, -1.8528837417744253, 0.27749316409158836, 3.032435022419415, 0.023415934294462204, -0.0027420232072472572, -0.1468103677034378, -0.9237338304519653, -0.27394556999206543, 0.2677125632762909, -0.03525060415267944, 0.025044173002243042, -0.02735590934753418, -0.7951576134305228, -0.039757474023389014, -0.14285934268372008,-0.587992417069457,-0.995697021484375,-0.2562408447265625,0.234222412109375
20220112-1408,2022-01-12 14:08:29Z,u01, 30,40,movements,el-ex, rt, d,95064.454002375, -1.8538941291128808, 0.28225697223153773, 3.033549377484443, -0.0015575257129967213, -0.03253733366727829, -0.127760112285614, -0.9221990704536438, -0.2785240113735199, 0.2682781219482422, -0.02405935525894165, -0.011576056480407715, 0.01606959104537964, -0.7952434263711637, -0.04155661813202541, -0.14442488282578578,-0.5873690298195706,-0.9488677978515625,-0.2399749755859375,0.2185211181640625
20220112-1408,2022-01-12 14:08:29Z,u01, 31,40,movements,el-ex, rt, d,95064.48392937501, -1.853622713191727, 0.28571061188701186, 3.03308509707477, -0.05125094950199127, 0.013340074568986893, -0.12643791735172272, -0.9213429093360901, -0.2818393409252167, 0.2677578330039978, -0.029233992099761963, -0.0010128915309906006, 0.008670687675476074, -0.7950338765073738, -0.04242703312312794, -0.14591269830394435,-0.5872229004886842,-0.9629974365234375,-0.3208465576171875,0.2754669189453125
20220112-1408,2022-01-12 14:08:29Z,u01, 32,40,movements,el-ex, rt, d,95064.51385637501, -1.8528472392770758, 0.28955702081030776, 3.0334248983836027, -0.003154356963932514, 0.0030914992094039917, -0.1660505086183548, -0.9205021262168884, -0.28552770614624023, 0.26673954725265503, -0.0028987526893615723, 0.052281856536865234, -0.02566567063331604, -0.7946406505355716, -0.04377222395371583, -0.1473069237093861,-0.5873082397145154,-1.0123443603515625,-0.3106231689453125,0.2773590087890625
20220112-1408,2022-01-12 14:08:29Z,u01, 33,40,movements,el-ex, rt, d,95064.543783375, -1.853284624519778, 0.2931435161028814, 3.0349168865699907, 0.016703670844435692, -0.024031132459640503, -0.09677895903587341, -0.9193958640098572, -0.28896304965019226, 0.2668549418449402, 0.015068590641021729, 0.011817693710327148, 0.000357210636138916, -0.7945851673797761, -0.045407951447287834, -0.14828681125024207,-0.5870123973652945,-0.9966888427734375,-0.2306671142578125,0.26318359375
20220112-1408,2022-01-12 14:08:29Z,u01, 34,40,movements,el-ex, rt, d,95064.573710375, -1.8543854447763786, 0.2945687807959001, 3.035305996375247, -0.07263453304767609, -0.03916148096323013, -0.08744098246097565, -0.9187052845954895, -0.2903272211551666, 0.2677513659000397, 0.005375206470489502, -0.015001147985458374, -0.0002798140048980713, -0.7948384478347232, -0.045907842851566655, -0.1487574545711612,-0.5865113639769882,-0.9468231201171875,-0.252471923828125,0.243621826171875
20220112-1408,2022-01-12 14:08:29Z,u01, 35,40,movements,el-ex, rt, d,95064.60363737501, -1.8553759369358696, 0.29414032667193796, 3.0338587484618844, -0.008023913949728012, -0.10601174831390381, -0.07183820009231567, -0.9185589551925659, -0.2899172008037567, 0.268696129322052, 0.011103510856628418, 0.023224085569381714, -0.0031777918338775635, -0.7951800405137626, -0.04513052926770958, -0.1490359425540132,-0.5860377962670859,-0.946258544921875,-0.29010009765625,0.2843475341796875
20220112-1408,2022-01-12 14:08:29Z,u01, 36,40,movements,el-ex, rt, d,95064.633564375, -1.8574177714096758, 0.294838622648305, 3.0357949829777375, 0.05596088990569115, -0.027391841635107994, -0.04110191762447357, -0.9178141951560974, -0.2905854284763336, 0.2705138623714447, -0.001146554946899414, -0.011675983667373657, -0.02141377329826355, -0.7957039922907546, -0.045957443192512486, -0.1487898770640281,-0.5853245744406511,-0.9569854736328125,-0.2800140380859375,0.278045654296875
20220112-1408,2022-01-12 14:08:29Z,u01, 37,40,movements,el-ex, rt, d,95064.663491375, -1.8596012852418635, 0.29675536734495683, 3.0373277792053486, 0.017716404050588608, -0.09140684455633163, -0.04685068503022194, -0.9166856408119202, -0.2924189269542694, 0.27235811948776245, 0.037153661251068115, 0.0005945563316345215, -0.019260287284851074, -0.7962237076107385, -0.04697725096111844, -0.14914631388123029,-0.5844454221305252,-0.9310302734375,-0.245208740234375,0.25189208984375
20220112-1408,2022-01-12 14:08:29Z,u01, 38,40,movements,el-ex, rt, d,95064.69341837501, -1.8627712727371482, 0.29650898227640016, 3.0377956148810226, -0.02251407317817211, -0.09053006023168564, -0.011837240308523178, -0.9158867597579956, -0.2921833097934723, 0.2752833664417267, -0.0006326436996459961, 0.011589378118515015, -0.007430285215377808, -0.797148920842155, -0.04685389468753895, -0.14898708614948306,-0.5832335445832599,-0.9201202392578125,-0.2365875244140625,0.237396240234375
20220112-1408,2022-01-12 14:08:29Z,u01, 39,40,movements,el-ex, rt, d,95064.72334537501, -1.8642654570847457, 0.2974846084199473, 3.0365020906615725, -0.04194939136505127, -0.10922379046678543, -0.017805051058530807, -0.9152010083198547, -0.2931162416934967, 0.2765689492225647, 0.025247275829315186, -0.004857420921325684, -0.00834965705871582, -0.7975717219864579, -0.04651696220350664, -0.14978340483441901,-0.5824779835520957,-0.9063720703125,-0.3106536865234375,0.2660980224609375
20220112-1408,2022-01-12 14:08:29Z,u01, 40,40,movements,el-ex, rt, d,95064.7532735, -1.8668150377220236, 0.2989956703299393, 3.0362290014904985, 0.03519676253199577, -0.06961333006620407, -0.04186065122485161, -0.9140682220458984, -0.29456058144569397, 0.27877190709114075, -0.006723523139953613, 0.022099614143371582, -0.015847444534301758, -0.7982532602157205, -0.04666573504172132, -0.15051807135088474,-0.5813419910389513,-0.9058685302734375,-0.2978515625,0.2752532958984375
20220112-1408,2022-01-12 14:08:29Z,u01, 41,40,movements,el-ex, rt, d,95064.78320050001, -1.8683521060903685, 0.29888113391801996, 3.0374666434404394, 0.03278004005551338, -0.03142872825264931, -0.009732610546052456, -0.9136710166931152, -0.29445111751556396, 0.2801865041255951, -0.007349729537963867, -0.0034920573234558105, 0.00596192479133606, -0.7986759556771674, -0.04701030606075263, -0.15014928047916395,-0.58082889401119,-0.9074554443359375,-0.266693115234375,0.2655181884765625
20220112-1408,2022-01-12 14:08:29Z,u01, 42,40,movements,el-ex, rt, d,95064.8131275, -1.8676425226451108, 0.29992174138620675, 3.0365758266252882, -0.06097608059644699, 0.024502849206328392, -0.0036314413882791996, -0.9135761260986328, -0.29544544219970703, 0.27944833040237427, -0.022733986377716064, 0.010487467050552368, 0.016358911991119385, -0.7984444805301942, -0.04701677508211832, -0.15080201021472378,-0.5809775014779419,-0.9271697998046875,-0.2943267822265625,0.2640228271484375
20220112-1408,2022-01-12 14:08:29Z,u01, 43,40,movements,el-ex, rt, d,95064.8430545, -1.8653244971964682, 0.2985725485745494, 3.035334028979458, -0.04196859896183014, 0.06776689738035202, 0.003669281490147114, -0.9146018028259277, -0.2941562235355377, 0.2774452865123749, -0.03356415033340454, -0.01787075400352478, 0.026326864957809448, -0.7978592619403948, -0.04629509377532583, -0.15057684603536275,-0.5818969434216517,-0.8790435791015625,-0.306884765625,0.2266082763671875
20220112-1408,2022-01-12 14:08:29Z,u01, 44,40,movements,el-ex, rt, d,95064.87298150001, -1.8632687698943144, 0.29792783938739403, 3.0346504454013763, 0.03574317321181297, 0.07071328163146973, 0.016555119305849075, -0.9153518080711365, -0.29353997111320496, 0.2756192088127136, -0.015205621719360352, 0.010184168815612793, -0.0034478604793548584, -0.7973048006061314, -0.0459853952591449, -0.15047437800226843,-0.5827075615331074,-0.90057373046875,-0.2823028564453125,0.2627105712890625
20220112-1408,2022-01-12 14:08:29Z,u01, 45,40,movements,el-ex, rt, d,95064.90290850001, -1.8620414412600346, 0.2959280778458424, 3.037460388523231, 0.055072296410799026, 0.09927469491958618, 0.006955821067094803, -0.9162496328353882, -0.2916277050971985, 0.274663507938385, -0.045450806617736816, -0.029600322246551514, 0.0076396167278289795, -0.7969692819349513, -0.04660162408517046, -0.1488389741634194,-0.5835368616204388,-0.908050537109375,-0.287933349609375,0.27032470703125
20220112-1408,2022-01-12 14:08:29Z,u01, 46,40,movements,el-ex, rt, d,95064.9328355, -1.8598270994714454, 0.29519357795648177, 3.039010005350049, 0.06800507009029388, 0.11462420970201492, 0.024986620992422104, -0.9170606732368469, -0.2909250557422638, 0.2726949155330658, -0.052223384380340576, -0.022398918867111206, 0.001460045576095581, -0.7963183973487726, -0.04716424596802187, -0.1480453029482811,-0.5845812075358987,-0.891357421875,-0.296173095703125,0.26654052734375
20220112-1408,2022-01-12 14:08:29Z,u01, 47,40,movements,el-ex, rt, d,95064.9627625, -1.8568942092730918, 0.2936705442274439, 3.0411848681200864, 0.06265728175640106, 0.11517516523599625, 0.02100539579987526, -0.9182808995246887, -0.28946757316589355, 0.2701289653778076, -0.030419349670410156, -0.02387174963951111, -0.01094275712966919, -0.795475009641116, -0.047791071718607414, -0.14673989329084688,-0.5860062283377545,-0.9207916259765625,-0.2724609375,0.2629241943359375
20220112-1408,2022-01-12 14:08:30Z,u01, 48,40,movements,el-ex, rt, d,95064.99268950001, -1.854486617100422, 0.2927749158388536, 3.0431004889652287, 0.08510752767324448, 0.09710733592510223, 0.010659946128726006, -0.9191767573356628, -0.28861016035079956, 0.2679896950721741, -0.04369860887527466, -0.01845771074295044, -0.006514817476272583, -0.7947618448066333, -0.04846082920697182, -0.1457679681419095,-0.5871600759308389,-0.91839599609375,-0.2930450439453125,0.288787841796875
20220112-1408,2022-01-12 14:08:30Z,u01, 49,40,movements,el-ex, rt, d,95065.0226165, -1.852661640254081, 0.29191407619433496, 3.04591485362713, 0.13132868707180023, 0.07743536680936813, 0.012807252816855907, -0.9199027419090271, -0.2877858579158783, 0.26638078689575195, -0.05044955015182495, 0.015416443347930908, -0.0047075748443603516, -0.7941944060132008, -0.049453459792211156, -0.1445580519470614,-0.5881434767059351,-0.9361724853515625,-0.2907257080078125,0.29217529296875
20220112-1408,2022-01-12 14:08:30Z,u01, 50,40,movements,el-ex, rt, d,95065.0525435, -1.851442669228338, 0.29115384573243386, 3.0488090063642943, 0.04171844571828842, 0.052997805178165436, -0.010471038520336151, -0.9204365611076355, -0.28705769777297974, 0.26531973481178284, -0.058796226978302, -0.009237468242645264, -0.0025631487369537354, -0.7937968401692246, -0.050462323355716876, -0.14337730074980648,-0.588882948570415,-0.941680908203125,-0.3027496337890625,0.3081512451171875
20220112-1408,2022-01-12 14:08:30Z,u01, 51,40,movements,el-ex, rt, d,95065.08247050001, -1.8503480180077003, 0.2918680978529548, 3.04974971180096, 0.05269342660903931, 0.04959022253751755, -0.02368384599685669, -0.9205292463302612, -0.2877418100833893, 0.26425543427467346, -0.09875792264938354, -0.007912516593933105, 0.012371420860290527, -0.7934189383415744, -0.05112827399567102, -0.1433529429495705,-0.5893406340338699,-0.944854736328125,-0.303192138671875,0.2987518310546875
20220112-1408,2022-01-12 14:08:30Z,u01, 52,40,movements,el-ex, rt, d,95065.1123985, -1.8497788698218356, 0.29228982323222946, 3.0522964503721575, 0.05403609573841095, 0.022319523617625237, -0.062192291021347046, -0.9205628633499146, -0.28814569115638733, 0.2636980414390564, -0.1234130859375, -0.02284371852874756, 0.03651893138885498, -0.7931665270304382, -0.05230566545673915, -0.14275313534498554,-0.5897225941340791,-0.929595947265625,-0.2898406982421875,0.2764739990234375
20220112-1408,2022-01-12 14:08:30Z,u01, 53,40,movements,el-ex, rt, d,95065.14232550001, -1.8497359794684733, 0.2936080662705457, 3.0543715152427517, 0.07279860228300095, 0.022062262520194054, -0.06814897805452347, -0.9202081561088562, -0.28940775990486145, 0.2635537385940552, -0.16521066427230835, -0.04385948181152344, 0.055462002754211426, -0.7930395432935213, -0.05352710142248415, -0.142657744110951,-0.5898068228629726,-0.961700439453125,-0.32122802734375,0.2823028564453125
20220112-1408,2022-01-12 14:08:30Z,u01, 54,40,movements,el-ex, rt, d,95065.17225250001, -1.8503214887037382, 0.29492564987869135, 3.0577694522858705, 0.08308102935552597, -0.0030868351459503174, -0.08230295777320862, -0.9196863770484924, -0.29066869616508484, 0.26398706436157227, -0.17044740915298462, -0.05492764711380005, 0.026815295219421387, -0.7930595211605085, -0.05522790399001003, -0.14218914443454606,-0.5897363167863293,-0.9693450927734375,-0.3170318603515625,0.275146484375
20220112-1408,2022-01-12 14:08:30Z,u01, 55,40,movements,el-ex, rt, d,95065.2021795, -1.8520849020765275, 0.2974381986371152, 3.0602528508942557, 0.020681334659457207, -0.043334320187568665, -0.11008231341838837, -0.9185146689414978, -0.2930718660354614, 0.2654047906398773, -0.20869779586791992, -0.04961004853248596, 0.031088918447494507, -0.7933924670767961, -0.056840027312450574, -0.14249401057254374,-0.5890611887231334,-0.95623779296875,-0.312164306640625,0.2644195556640625
20220112-1408,2022-01-12 14:08:30Z,u01, 56,40,movements,el-ex, rt, d,95065.2321065, -1.8536803505250765, 0.3002540804834291, 3.0616564242512645, 0.015212232246994972, -0.03345033526420593, -0.09011825919151306, -0.9172940850257874, -0.29576292634010315, 0.26663851737976074, -0.20048856735229492, -0.07589539885520935, 0.05779406428337097, -0.7936880373088926, -0.0581253329475004, -0.1432338228474216,-0.5883577998127524,-0.9491424560546875,-0.3094482421875,0.2650604248046875
20220112-1408,2022-01-12 14:08:30Z,u01, 57,40,movements,el-ex, rt, d,95065.26203350001, -1.855092702653802, 0.3024801841288823, 3.06283920766963, 0.041497766971588135, -0.04283824563026428, -0.07282581925392151, -0.916282594203949, -0.29788869619369507, 0.26774853467941284, -0.1528705358505249, -0.0633479654788971, 0.03994530439376831, -0.7939612902998096, -0.05915857480617356, -0.14380306749917876,-0.5877471516042041,-0.969024658203125,-0.2784881591796875,0.266448974609375
20220112-1408,2022-01-12 14:08:30Z,u01, 58,40,movements,el-ex, rt, d,95065.2919605, -1.8578432826007267, 0.3041526875989812, 3.0655514700996966, 0.06418226659297943, -0.07656990736722946, -0.07420088350772858, -0.9150634407997131, -0.29948484897613525, 0.2701263427734375, -0.12077963352203369, -0.04144233465194702, 0.01828029751777649, -0.7946058505499077, -0.060536911714005374, -0.14374735974622221,-0.5867484236982276,-0.969451904296875,-0.28118896484375,0.2683868408203125
20220112-1408,2022-01-12 14:08:30Z,u01, 59,40,movements,el-ex, rt, d,95065.3218875, -1.860458245671377, 0.30591568202749436, 3.0672052813877304, 0.027671033516526222, -0.059646785259246826, -0.06437402218580246, -0.9138467311859131, -0.30116647481918335, 0.27236711978912354, -0.10740911960601807, -0.043224483728408813, 0.018740475177764893, -0.7952342414623388, -0.061530931033466296, -0.14403708595996462,-0.5857218711177465,-0.9792327880859375,-0.296295166015625,0.26275634765625
20220112-1408,2022-01-12 14:08:30Z,u01, 60,40,movements,el-ex, rt, d,95065.35181450001, -1.8627566780705642, 0.3076249862473917, 3.06779820327516, -0.03623791038990021, -0.07990331947803497, -0.05343588441610336, -0.9127236604690552, -0.30279597640037537, 0.2743181586265564, -0.0728721022605896, -0.036681562662124634, 0.027165263891220093, -0.7958024648491517, -0.06210884808935825, -0.14460876020940525,-0.5847472580931834,-1.011962890625,-0.2914886474609375,0.2733612060546875
20220112-1408,2022-01-12 14:08:30Z,u01, 61,40,movements,el-ex, rt, d,95065.38174150001, -1.8648094663058563, 0.30927381363783246, 3.067465118216994, -0.02043560892343521, -0.05216057226061821, -0.05090101808309555, -0.9116796851158142, -0.30436697602272034, 0.27604618668556213, -0.08494836091995239, 0.0046995580196380615, 0.008698374032974243, -0.7963289057160405, -0.06231662789353787, -0.14542061882846968,-0.5838064603044592,-1.0355377197265625,-0.308441162109375,0.285858154296875
20220112-1408,2022-01-12 14:08:30Z,u01, 62,40,movements,el-ex, rt, d,95065.4116685, -1.8654829087899159, 0.31012762793644416, 3.06742499339683, -0.02367604523897171, -0.009596133604645729, -0.016305292025208473, -0.9112445116043091, -0.3051801919937134, 0.2765844762325287, -0.05303478240966797, 0.0064588189125061035, 0.011410117149353027, -0.796483144539426, -0.06250470527267056, -0.14579043040595363,-0.5834835721705518,-1.0672454833984375,-0.3223876953125,0.3243865966796875
20220112-1408,2022-01-12 14:08:30Z,u01, 63,40,movements,el-ex, rt, d,95065.4415955, -1.8647237871706879, 0.3106264364991422, 3.065199058914735, -0.11092199385166168, 0.007947439327836037, 0.01091274619102478, -0.9113084077835083, -0.3056551516056061, 0.27584853768348694, -0.019035398960113525, -0.006905943155288696, -0.011611789464950562, -0.7963054332846656, -0.061821702846515336, -0.14661318747906002,-0.5835927689797253,-1.0872802734375,-0.34320068359375,0.3065338134765625
20220112-1408,2022-01-12 14:08:30Z,u01, 64,40,movements,el-ex, rt, d,95065.47152250001, -1.863200352652158, 0.31063149714535315, 3.062882535495055, -0.024443432688713074, 0.0426873117685318, 0.010724993422627449, -0.911726176738739, -0.3056599795818329, 0.27445945143699646, -0.013277113437652588, 0.02132764458656311, 0.010407119989395142, -0.7959316184952259, -0.06101300815893186, -0.1472446056642008,-0.5840287100718076,-1.0922088623046875,-0.3476104736328125,0.2894744873046875
20220112-1408,2022-01-12 14:08:30Z,u01, 65,40,movements,el-ex, rt, d,95065.5014495, -1.8607020182092484, 0.30942764893260966, 3.062394525779685, 0.0012767435982823372, 0.09821029007434845, 0.06559950113296509, -0.912760853767395, -0.30451351404190063, 0.2722857594490051, -0.004521369934082031, 0.017526179552078247, 0.01558685302734375, -0.7952767380984158, -0.0606448206043827, -0.146836742588441,-0.585060894787657,-1.1272125244140625,-0.342681884765625,0.2964935302734375
20220112-1408,2022-01-12 14:08:30Z,u01, 66,40,movements,el-ex, rt, d,95065.53137750001, -1.8568395791109749, 0.30756667798680387, 3.060116283533979, -0.10613906383514404, 0.11794032156467438, 0.09787114709615707, -0.9143478870391846, -0.3027403950691223, 0.2689177095890045, 0.017954885959625244, 0.001425027847290039, 0.00929608941078186, -0.7943062062899356, -0.05946857231727373, -0.14665538330750016,-0.5865437519707288,-1.1240386962890625,-0.364105224609375,0.3202667236328125
20220112-1408,2022-01-12 14:08:30Z,u01, 67,40,movements,el-ex, rt, d,95065.5613045, -1.8531589339281205, 0.3030489190503692, 3.05738666794308, -0.03557611256837845, 0.13830704987049103, 0.10400301218032837, -0.9166355133056641, -0.2984315752983093, 0.26592883467674255, 0.022256851196289062, 0.0016023516654968262, 0.0011155307292938232, -0.7935241697880933, -0.05730449692162183, -0.14557321452894245,-0.5880851191650222,-1.0901336669921875,-0.3756866455078125,0.3111572265625
20220112-1408,2022-01-12 14:08:30Z,u01, 68,40,movements,el-ex, rt, d,95065.5912315, -1.8498530853602826, 0.29823071340749846, 3.0563289460006824, -0.03681561350822449, 0.16671963036060333, 0.14189140498638153, -0.9188811182975769, -0.29382947087287903, 0.2632901072502136, 0.008999645709991455, 0.040426790714263916, 0.02029472589492798, -0.7928080806365926, -0.05568123807148992, -0.14389881356034492,-0.5896168876814414,-1.0446014404296875,-0.3503875732421875,0.2924652099609375
20220112-1408,2022-01-12 14:08:30Z,u01, 69,40,movements,el-ex, rt, d,95065.62115850001, -1.8446893699094808, 0.2948281046527726, 3.0538893963157383, -0.09679365903139114, 0.23341038823127747, 0.17223292589187622, -0.9211857318878174, -0.29057538509368896, 0.25881072878837585, 0.008099794387817383, -0.015912681818008423, -0.0027526915073394775, -0.7915064914972738, -0.054063308031909674, -0.14314300228536944,-0.5916965431735953,-1.031829833984375,-0.3404693603515625,0.287628173828125
20220112-1408,2022-01-12 14:08:30Z,u01, 70,40,movements,el-ex, rt, d,95065.65108550001, -1.8372363894113053, 0.2915722626414554, 3.0489658428158526, -0.08802254498004913, 0.23062552511692047, 0.19320639967918396, -0.9239967465400696, -0.28745847940444946, 0.25218576192855835, 0.033127665519714355, 0.01367005705833435, 0.003750026226043701, -0.7895715923463663, -0.0516680010393622, -0.14313210753900873,-0.5944916459509144,-1.0141448974609375,-0.3509063720703125,0.291961669921875
20220112-1408,2022-01-12 14:08:30Z,u01, 71,40,movements,el-ex, rt, d,95065.6810125, -1.8295721712386934, 0.28525938776771415, 3.0453922468384955, -0.11831183731555939, 0.2762375473976135, 0.2269337922334671, -0.9276384711265564, -0.28140637278556824, 0.2455562800168991, 0.028529345989227295, 0.007556825876235962, 0.026294618844985962, -0.7876471375318713, -0.04888890903096044, -0.14154132498531116,-0.5976521930221645,-0.985595703125,-0.3394775390625,0.301483154296875
20220112-1408,2022-01-12 14:08:30Z,u01, 72,40,movements,el-ex, rt, d,95065.7109395, -1.819952851765101, 0.2790512981928201, 3.03972486499064, -0.12361369282007217, 0.31101489067077637, 0.2637175917625427, -0.9316325783729553, -0.27544376254081726, 0.23704800009727478, 0.014503002166748047, -0.023628532886505127, 0.010434508323669434, -0.7851489395953379, -0.04544381533640394, -0.14059878363284162,-0.6014217462243261,-0.99517822265625,-0.314910888671875,0.287384033203125
20220112-1408,2022-01-12 14:08:30Z,u01, 73,40,movements,el-ex, rt, d,95065.74086650001, -1.808635222805285, 0.27183062387382356, 3.034491272522045, -0.07515104860067368, 0.3062894642353058, 0.27246877551078796, -0.9361644387245178, -0.2684952914714813, 0.22695189714431763, 0.06795436143875122, 0.06535497307777405, -0.04254910349845886, -0.7821220746161188, -0.04196436880134133, -0.13913385271844236,-0.6059423406090145,-0.9778289794921875,-0.28741455078125,0.2987823486328125
20220112-1408,2022-01-12 14:08:30Z,u01, 74,40,movements,el-ex, rt, d,95065.7707935, -1.7993731816940703, 0.26388271188224094, 3.0307824567603663, -0.06458033621311188, 0.27534905076026917, 0.3082149922847748, -0.9402750134468079, -0.260830819606781, 0.21874810755252838, 0.043149590492248535, -0.04809868335723877, 0.021944314241409302, -0.7796645300919472, -0.03869467496863635, -0.13700690016272618,-0.6097993804567857,-0.9461212158203125,-0.3119964599609375,0.2936248779296875
20220112-1408,2022-01-12 14:08:30Z,u01, 75,40,movements,el-ex, rt, d,95065.8007205, -1.7888822883357482, 0.2556318612933101, 3.026235197335132, -0.03900093585252762, 0.328262060880661, 0.2941141128540039, -0.944586992263794, -0.2528567910194397, 0.20933042466640472, 0.024893879890441895, 0.03194001317024231, -0.012003540992736816, -0.7768111200197443, -0.03506699274364613, -0.13503186256910793,-0.6140857691219294,-0.92169189453125,-0.2939910888671875,0.277801513671875
20220112-1408,2022-01-12 14:08:30Z,u01, 76,40,movements,el-ex, rt, d,95065.8306475, -1.7791575821292605, 0.24610102187129598, 3.0249060280579654, 0.019851192831993103, 0.29440316557884216, 0.3331528604030609, -0.9488927721977234, -0.24362431466579437, 0.2006242573261261, 0.06054121255874634, -0.01899471879005432, -0.006867885589599609, -0.7741283311536694, -0.03220954277116929, -0.1316257648100686,-0.6183548296679057,-0.9285125732421875,-0.2760009765625,0.2852783203125
20220112-1408,2022-01-12 14:08:30Z,u01, 77,40,movements,el-ex, rt, d,95065.86057450001, -1.7691074040426136, 0.23674347534595774, 3.0195711024088734, -0.2040340006351471, 0.35221049189567566, 0.31482571363449097, -0.9530547261238098, -0.23453818261623383, 0.19151854515075684, -0.004236280918121338, -0.010457009077072144, -0.021962478756904602, -0.7713518471067939, -0.02784963919689652, -0.12955671808102884,-0.6224597328740514,-0.9172821044921875,-0.2869873046875,0.287872314453125
20220112-1408,2022-01-12 14:08:30Z,u01, 78,40,movements,el-ex, rt, d,95065.8905015, -1.757564659260212, 0.2283268841703777, 3.014449397335248, 0.02027067355811596, 0.31739696860313416, 0.307055801153183, -0.9571073055267334, -0.2263481467962265, 0.18086524307727814, 0.0355374813079834, 0.046202898025512695, -0.00606025755405426, -0.7680229528082585, -0.023945098580985955, -0.12780674588284205,-0.6270828186682589,-0.9000701904296875,-0.2989349365234375,0.280609130859375
20220112-1408,2022-01-12 14:08:30Z,u01, 79,40,movements,el-ex, rt, d,95065.9204285, -1.7467772030234936, 0.21941499950052082, 3.013714797625383, -0.013067075982689857, 0.37974977493286133, 0.30354994535446167, -0.9609506130218506, -0.21765868365764618, 0.17087656259536743, 0.0021645426750183105, -0.01183350384235382, -0.0079430490732193, -0.7648375139939405, -0.021490843381917764, -0.12454078741379424,-0.6317051481160352,-0.8910064697265625,-0.3148651123046875,0.26947021484375
20220112-1408,2022-01-12 14:08:30Z,u01, 80,40,movements,el-ex, rt, d,95065.9503565, -1.7352485277543488, 0.21119354147224345, 3.009530677284825, -0.13771092891693115, 0.3152007460594177, 0.298336923122406, -0.9645894169807434, -0.20962707698345184, 0.16007450222969055, 0.030370056629180908, 0.0011004656553268433, 0.020772919058799744, -0.7613900521881115, -0.0179566454626702, -0.12265348160243808,-0.6363323839579368,-0.9046173095703125,-0.2697906494140625,0.27764892578125
20220112-1408,2022-01-12 14:08:30Z,u01, 81,40,movements,el-ex, rt, d,95065.9802835, -1.7231553793387204, 0.20278509544678522, 3.0050387993995873, -0.06653549522161484, 0.4235885739326477, 0.2984673082828522, -0.9681628346443176, -0.20139813423156738, 0.14866045117378235, 0.008461177349090576, 0.04556010663509369, -0.03675222396850586, -0.7577116620784725, -0.014257078101637437, -0.12083513677458865,-0.641146486650747,-0.91009521484375,-0.2715301513671875,0.289031982421875
20220112-1408,2022-01-12 14:08:31Z,u01, 82,40,movements,el-ex, rt, d,95066.01021050001, -1.7123494276657094, 0.19435120462294306, 3.002119788540958, -0.061157338321208954, 0.2778570055961609, 0.28610605001449585, -0.9713597297668457, -0.1931300014257431, 0.13842476904392242, 0.07022130489349365, 0.01307627558708191, -0.023724213242530823, -0.7543808199476961, -0.011043707665526543, -0.11855517797113688,-0.6455481587712771,-0.9081878662109375,-0.298614501953125,0.2446136474609375
20220112-1408,2022-01-12 14:08:31Z,u01, 83,40,movements,el-ex, rt, d,95066.04013750001, -1.702582363578928, 0.18616095861903012, 2.9975390190680296, -0.12458561360836029, 0.32859018445014954, 0.30144017934799194, -0.9742007255554199, -0.18508756160736084, 0.12913450598716736, 0.020801007747650146, -0.019548088312149048, 0.0023050308227539062, -0.7513423949918937, -0.007201311280934333, -0.11694674564577953,-0.6494276760903414,-0.890869140625,-0.2737884521484375,0.2559356689453125
20220112-1408,2022-01-12 14:08:31Z,u01, 84,40,movements,el-ex, rt, d,95066.0700645, -1.692492524660873, 0.17765284136693515, 2.9932674773464756, -0.06390685588121414, 0.285653293132782, 0.2957795560359955, -0.9769819378852844, -0.17671984434127808, 0.11948543041944504, 0.05867737531661987, 0.03339402377605438, -0.03318142890930176, -0.7481519529333062, -0.00337185978960693, -0.11515920434872008,-0.6534491630772058,-0.9046478271484375,-0.2646484375,0.269195556640625
20220112-1408,2022-01-12 14:08:31Z,u01, 85,40,movements,el-ex, rt, d,95066.0999915, -1.6833316125830722, 0.16924687508075256, 2.9908963847199486, -0.05641857534646988, 0.27057260274887085, 0.2757531404495239, -0.9794769883155823, -0.16844002902507782, 0.11069339513778687, 0.051437318325042725, 0.018308788537979126, -0.04158604145050049, -0.745215843332522, -0.0002137801824247769, -0.11282572536847621,-0.6572090686141553,-0.906402587890625,-0.3148345947265625,0.2688140869140625
20220112-1408,2022-01-12 14:08:31Z,u01, 86,40,movements,el-ex, rt, d,95066.12991850001, -1.6757227533682875, 0.160537068410091, 2.988316662198006, -0.063844233751297, 0.22067861258983612, 0.32198381423950195, -0.9817127585411072, -0.1598483920097351, 0.10338730365037918, 0.04515868425369263, -0.024905040860176086, -0.009820222854614258, -0.742753805227354, 0.0032306308257942333, -0.11047757439389588,-0.6603795942066838,-0.9072418212890625,-0.2366790771484375,0.213043212890625
20220112-1408,2022-01-12 14:08:31Z,u01, 87,40,movements,el-ex, rt, d,95066.1598455, -1.6689377938304104, 0.15174233067466214, 2.983013531999413, -0.14319978654384613, 0.18762372434139252, 0.3054514527320862, -0.9837526679039001, -0.15116067230701447, 0.09685809910297394, 0.040927231311798096, 0.012748196721076965, -0.018549688160419464, -0.7405191485682379, 0.007774342469781762, -0.10902540761337197,-0.663087143443082,-0.8582000732421875,-0.21978759765625,0.196685791015625
20220112-1408,2022-01-12 14:08:31Z,u01, 88,40,movements,el-ex, rt, d,95066.1897725, -1.6633860517477543, 0.14433598225799918, 2.9795728869432945, -0.000490196980535984, 0.14702749252319336, 0.24065320193767548, -0.9853631258010864, -0.14383535087108612, 0.09149610996246338, 0.028774142265319824, 0.02994370460510254, -0.02116810530424118, -0.7386621375847472, 0.011238368858302457, -0.10748512884190686,-0.6653564151390581,-0.912261962890625,-0.3138427734375,0.2475738525390625
20220112-1408,2022-01-12 14:08:31Z,u01, 89,40,movements,el-ex, rt, d,95066.21969950001, -1.658034049415624, 0.1378046946408955, 2.979467267817953, -0.01475861482322216, 0.15361055731773376, 0.2176906168460846, -0.9867534041404724, -0.13736894726753235, 0.08630116283893585, 0.02462559938430786, 0.002633824944496155, -0.02039813995361328, -0.7368693388635997, 0.013196906435163162, -0.10516886720984624,-0.6676744180099589,-0.9196929931640625,-0.220916748046875,0.19732666015625
20220112-1408,2022-01-12 14:08:31Z,u01, 90,40,movements,el-ex, rt, d,95066.24962650001, -1.6530950140825147, 0.1319615116381715, 2.9800205502851287, 0.06597387790679932, 0.1591421514749527, 0.1856793612241745, -0.9879505634307861, -0.13157884776592255, 0.08149109780788422, 0.030156314373016357, 0.037813588976860046, -0.054574377834796906, -0.7352068128807218, 0.01471363805051137, -0.10288944171557655,-0.6698270270189257,-0.8903961181640625,-0.245086669921875,0.190185546875
20220112-1408,2022-01-12 14:08:31Z,u01, 91,40,movements,el-ex, rt, d,95066.2795535, -1.6505020482471948, 0.12588252706725864, 2.98025707477804, -0.06442104279994965, 0.03826413303613663, 0.22530047595500946, -0.9889378547668457, -0.12555032968521118, 0.0789913535118103, 0.0530092716217041, -0.0617360919713974, 0.013645060360431671, -0.7343170822465426, 0.016555925983062655, -0.1006185364550047,-0.6711039365780486,-0.9304656982421875,-0.3035736083984375,0.1928558349609375
20220112-1408,2022-01-12 14:08:31Z,u01, 92,40,movements,el-ex, rt, d,95066.3094805, -1.6479161647878608, 0.11883868789674752, 2.9762324272160834, -0.0407034307718277, 0.10777457058429718, 0.24800798296928406, -0.9899957776069641, -0.11855916678905487, 0.07650003582239151, 0.018682241439819336, 0.025480546057224274, -0.021964915096759796, -0.7333744912222936, 0.02029464159640119, -0.09943323179320462,-0.6722076190871764,-0.9300689697265625,-0.17559814453125,0.1599578857421875
20220112-1408,2022-01-12 14:08:31Z,u01, 93,40,movements,el-ex, rt, d,95066.33940750001, -1.6456983404941783, 0.11243256385080982, 2.9766229776183475, 0.049997277557849884, 0.04038028046488762, 0.16147196292877197, -0.9909002780914307, -0.11219583451747894, 0.07435953617095947, 0.08086585998535156, -0.039537593722343445, -0.06270157545804977, -0.7325885900187699, 0.02221997490039846, -0.09699841118632654,-0.6733586193847046,-0.94842529296875,-0.2097625732421875,0.1827239990234375
20220112-1408,2022-01-12 14:08:31Z,u01, 94,40,movements,el-ex, rt, d,95066.3693345, -1.6461790924501043, 0.10989560928753667, 2.9750915981314727, -0.06175818294286728, -0.08031024783849716, 0.1096864640712738, -0.9911449551582336, -0.10967454314231873, 0.07485709339380264, 0.10178631544113159, -0.027654573321342468, 0.02110576629638672, -0.7327130600232341, 0.023666831540279723, -0.0965870060381337,-0.6732329377749966,-0.9509735107421875,-0.23321533203125,0.1628570556640625
20220112-1408,2022-01-12 14:08:31Z,u01, 95,40,movements,el-ex, rt, d,95066.39926250001, -1.6461571310445149, 0.10595336404671747, 2.975392428059884, 0.11015868932008743, 0.06953883171081543, 0.14880290627479553, -0.9915699362754822, -0.10575523227453232, 0.07486729323863983, 0.0625385046005249, 0.030086882412433624, 0.0027544498443603516, -0.7326758135229456, 0.02489575601931263, -0.09505376781222362,-0.6734472892675557,-0.9342193603515625,-0.208526611328125,0.18084716796875
20220112-1408,2022-01-12 14:08:31Z,u01, 96,40,movements,el-ex, rt, d,95066.4291895, -1.6464468127890817, 0.1029881415397404, 2.9773795837973847, -0.005028590559959412, -0.11901476979255676, 0.03072347119450569, -0.9918564558029175, -0.10280618071556091, 0.07517789304256439, 0.19373023509979248, 0.06618508696556091, -0.07841242104768753, -0.7327717554997665, 0.025189298041534462, -0.09330328839946472,-0.6735767113789928,-0.9788665771484375,-0.1705474853515625,0.1260223388671875
20220112-1408,2022-01-12 14:08:31Z,u01, 97,40,movements,el-ex, rt, d,95066.4591165, -1.6524549333732315, 0.10468690182388349, 2.975313637237567, -0.12571193277835846, -0.2845405042171478, -0.123735211789608, -0.9912117123603821, -0.10449579358100891, 0.08112135529518127, 0.1640324592590332, -0.06292366981506348, 0.04131544381380081, -0.7347806489937835, 0.02565297880516778, -0.094539818632978,-0.6711943465525949,-0.8829193115234375,-0.15057373046875,0.10540771484375
20220112-1408,2022-01-12 14:08:31Z,u01, 98,40,movements,el-ex, rt, d,95066.48904350001, -1.6592203287413552, 0.10946860238498425, 2.9761147369125114, 0.21794970333576202, -0.1642225980758667, -0.18386965990066528, -0.9901309609413147, -0.10925009846687317, 0.08778023719787598, 0.11966270208358765, 0.03446676582098007, 0.0008582994341850281, -0.7370963851905734, 0.024063205239645048, -0.09593259157463521,-0.6685109726755235,-0.945831298828125,-0.195068359375,0.1454315185546875
20220112-1408,2022-01-12 14:08:31Z,u01, 99,40,movements,el-ex, rt, d,95066.51897050001, -1.6676456578200982, 0.11648767958292287, 2.983680894227925, 0.09466028213500977, -0.3733115494251251, -0.3044487237930298, -0.9885686635971069, -0.11622441560029984, 0.0960426926612854, 0.20559430122375488, 0.03065311163663864, -0.016605257987976074, -0.740032780759402, 0.019308776390497107, -0.09588853509620571,-0.6654203252414692,-0.9399871826171875,-0.1683502197265625,0.114501953125
20220112-1408,2022-01-12 14:08:31Z,u01, 100,40,movements,el-ex, rt, d,95066.5488975, -1.6797228121608152, 0.12602524221004094, 2.9853679995049074, 0.018965359777212143, -0.3731395900249481, -0.32170370221138, -0.9861899018287659, -0.12569190561771393, 0.10784907639026642, 0.08174026012420654, -0.017878055572509766, 0.0635378360748291, -0.7440874479556159, 0.016075086262957866, -0.09873083127655119,-0.6605511659096327,-0.920928955078125,-0.1414947509765625,0.0904388427734375
20220112-1408,2022-01-12 14:08:31Z,u01, 101,40,movements,el-ex, rt, d,95066.5788245, -1.6903975484641798, 0.1350839368379994, 2.9874470361380414, 0.05570992827415466, -0.3062247335910797, -0.3079274296760559, -0.9838114380836487, -0.13467347621917725, 0.11822932213544846, 0.05281168222427368, 0.07418763637542725, 0.02639363706111908, -0.7476298397502514, 0.012817347469377812, -0.1013171141869602,-0.6562165873110244,-0.92803955078125,-0.1501312255859375,0.0691070556640625
20220112-1408,2022-01-12 14:08:31Z,u01, 102,40,movements,el-ex, rt, d,95066.60875150001, -1.700596995904115, 0.1454534872337981, 2.9905701515973973, 0.07492739707231522, -0.4075889587402344, -0.40114930272102356, -0.9811168909072876, -0.14494113624095917, 0.1280696839094162, 0.1082836389541626, 0.04554538428783417, 0.01008366048336029, -0.7509716980485034, 0.008738014662754819, -0.10408905716315922,-0.6520204713660658,-0.93426513671875,-0.1745147705078125,0.0819549560546875
20220112-1408,2022-01-12 14:08:31Z,u01, 103,40,movements,el-ex, rt, d,95066.6386785, -1.7130365055874615, 0.15635757976352135, 2.99424901414206, 0.052464429289102554, -0.2794214189052582, -0.30535778403282166, -0.9778252243995667, -0.1557212620973587, 0.14003169536590576, -0.02540963888168335, -0.01447528600692749, 0.0719437450170517, -0.7549809913463669, 0.004421928877916825, -0.10691848799262368,-0.6469564750336075,-0.9390411376953125,-0.151885986328125,0.09271240234375
20220112-1408,2022-01-12 14:08:31Z,u01, 104,40,movements,el-ex, rt, d,95066.6686055, -1.7225614731577532, 0.16537542241053538, 2.9953681105004706, -0.09673774242401123, -0.394923597574234, -0.3388495147228241, -0.9750192165374756, -0.16462264955043793, 0.14912056922912598, 0.07908415794372559, 0.06469282507896423, -0.05508042871952057, -0.7579959315578086, 0.0015667341714912623, -0.10991961363862113,-0.6429287578271325,-0.947509765625,-0.108001708984375,0.0540771484375
20220112-1408,2022-01-12 14:08:31Z,u01, 105,40,movements,el-ex, rt, d,95066.6985325, -1.7354214616782329, 0.1770643049587878, 2.9943767200910703, -0.08217120915651321, -0.42811062932014465, -0.39865726232528687, -0.9710564613342285, -0.17614054679870605, 0.1613202840089798, 0.0034813284873962402, -0.03154686093330383, 0.06034445762634277, -0.76200975052871, -0.0011315973500382534, -0.11462984588255655,-0.6373382417119673,-0.9811248779296875,-0.1446990966796875,0.059051513671875
20220112-1408,2022-01-12 14:08:31Z,u01, 106,40,movements,el-ex, rt, d,95066.72845875, -1.745707549692015, 0.18707357133106656, 2.9965427028210185, 0.07975330948829651, -0.2463361769914627, -0.29266679286956787, -0.9675611257553101, -0.18598432838916779, 0.17098456621170044, -0.010924100875854492, 0.0692850798368454, -0.04128468036651611, -0.7651609028760036, -0.004590536771544373, -0.11773537743408136,-0.6329662448284076,-0.961700439453125,-0.138519287109375,0.061553955078125
20220112-1408,2022-01-12 14:08:31Z,u01, 107,40,movements,el-ex, rt, d,95066.75838575, -1.7562595148808358, 0.19568970102596187, 2.997602141656323, -0.10272768139839172, -0.45357751846313477, -0.31308841705322266, -0.9640923142433167, -0.19444312155246735, 0.1808823198080063, 0.0907248854637146, 0.03286777436733246, -0.05577516555786133, -0.7683686059546637, -0.007130582181603059, -0.12069741912139416,-0.6284832593814937,-0.957794189453125,-0.0937652587890625,0.02691650390625
20220112-1408,2022-01-12 14:08:31Z,u01, 108,40,movements,el-ex, rt, d,95066.78831275001, -1.7687049652466404, 0.2059454246939988, 2.9972035480422194, 0.010330691933631897, -0.3531728684902191, -0.3408825099468231, -0.9597606062889099, -0.2044927030801773, 0.19246430695056915, -0.03344923257827759, -0.06616771221160889, 0.02741512656211853, -0.7721025154769706, -0.009479353564164298, -0.12477641058062161,-0.6230560015861402,-0.9223480224609375,-0.1686248779296875,0.0869140625
20220112-1408,2022-01-12 14:08:31Z,u01, 109,40,movements,el-ex, rt, d,95066.81823975, -1.779066128516428, 0.21560457272166197, 2.9999521494965937, 0.05060561001300812, -0.31940653920173645, -0.3287018835544586, -0.9557379484176636, -0.21393804252147675, 0.20198021829128265, -0.0023920536041259766, 0.08176639676094055, -0.058623552322387695, -0.7751274616011953, -0.012943329672114444, -0.12767166822636805,-0.618635650046265,-0.980133056640625,-0.1353759765625,0.0797119140625
20220112-1408,2022-01-12 14:08:31Z,u01, 110,40,movements,el-ex, rt, d,95066.84816675, -1.7891351657862051, 0.2247108193538549, 3.003318236516865, -0.007114310748875141, -0.33487823605537415, -0.32896852493286133, -0.9517141580581665, -0.22282445430755615, 0.21116237342357635, 0.039253830909729004, -0.019332528114318848, -0.032329097390174866, -0.7780168170098801, -0.016462727312940025, -0.13020002127946265,-0.6143832844882443,-0.9297027587890625,-0.07867431640625,0.0156402587890625
20220112-1408,2022-01-12 14:08:31Z,u01, 111,40,movements,el-ex, rt, d,95066.87809375001, -1.7994362019125727, 0.23454573415851607, 3.0045729914884785, -0.010658479295670986, -0.2603960633277893, -0.3007454574108124, -0.9473080635070801, -0.23240117728710175, 0.22044724225997925, -0.06518876552581787, -0.06676261126995087, 0.0605434775352478, -0.7809285980136538, -0.019342772550444004, -0.13369292770887634,-0.6098381241870895,-0.901336669921875,-0.163848876953125,0.01953125
20220112-1408,2022-01-12 14:08:31Z,u01, 112,40,movements,el-ex, rt, d,95066.90802175, -1.8054657250205888, 0.2420404569216111, 3.007135402460479, 0.03147299587726593, -0.16150037944316864, -0.2543944716453552, -0.9442412853240967, -0.2396841049194336, 0.22574369609355927, -0.046420395374298096, 0.0888204425573349, -0.043919697403907776, -0.7825446256131817, -0.02226568170399385, -0.13586798875815947,-0.6071804825270076,-0.905181884765625,-0.1390838623046875,0.116790771484375
20220112-1408,2022-01-12 14:08:31Z,u01, 113,40,movements,el-ex, rt, d,95066.93794875001, -1.8102830702126484, 0.24966701247881795, 3.0107247547058766, -0.004554780200123787, -0.16679927706718445, -0.3077826201915741, -0.9413396716117859, -0.24708130955696106, 0.22984953224658966, -0.009984850883483887, -0.005695804953575134, -0.031484976410865784, -0.7837500814842767, -0.0257016068230428, -0.137786006054948,-0.6050540549273234,-0.9290313720703125,-0.0756683349609375,0.0776214599609375
20220112-1408,2022-01-12 14:08:31Z,u01, 114,40,movements,el-ex, rt, d,95066.96787575001, -1.8159993416172149, 0.2571629234405355, 3.0135199189011077, 0.023508477956056595, -0.12982115149497986, -0.23624756932258606, -0.9381873607635498, -0.25433778762817383, 0.2347704917192459, -0.05761653184890747, -0.06051209568977356, 0.03836214542388916, -0.7852138883509627, -0.028712351146450318, -0.13992236301261712,-0.602525250583279,-0.80877685546875,-0.0265350341796875,-0.0142059326171875
20220112-1408,2022-01-12 14:08:32Z,u01, 115,40,movements,el-ex, rt, d,95066.99780275, -1.8180117728151552, 0.26338946964514004, 3.013952261905316, -0.027522379532456398, -0.04532523453235626, -0.19728240370750427, -0.9361591935157776, -0.260354608297348, 0.23626591265201569, -0.009519457817077637, 0.06191405653953552, -0.07444611191749573, -0.7856164667878552, -0.03065490836106445, -0.14223558095955238,-0.6013619225059637,-0.8087005615234375,-0.1376800537109375,0.0874481201171875
20220112-1408,2022-01-12 14:08:32Z,u01, 116,40,movements,el-ex, rt, d,95067.02772975, -1.8223759004379028, 0.2686023392606352, 3.0180216991440085, 0.06516924500465393, -0.13552244007587433, -0.23245550692081451, -0.9337921738624573, -0.26538413763046265, 0.24000808596611023, 0.00849902629852295, -0.02021464705467224, -0.03557059168815613, -0.7866885919277945, -0.03354255464435671, -0.1431062517165672,-0.5995971530550002,-0.879364013671875,-0.154144287109375,0.145355224609375
20220112-1408,2022-01-12 14:08:32Z,u01, 117,40,movements,el-ex, rt, d,95067.05765675001, -1.8270936473176744, 0.2741604496885012, 3.019825076815458, 0.04801585152745247, -0.13469573855400085, -0.16521567106246948, -0.9312082529067993, -0.2707388401031494, 0.2440330982208252, -0.022145748138427734, -0.04008275270462036, 0.023102760314941406, -0.7878758052450293, -0.035612725959072083, -0.14480781476005927,-0.5975067691611389,-0.8122711181640625,-0.0546112060546875,0.0409088134765625
20220112-1408,2022-01-12 14:08:32Z,u01, 118,40,movements,el-ex, rt, d,95067.08758375, -1.830018504003823, 0.27808209825885816, 3.0213245931982633, 0.018581464886665344, -0.09234307706356049, -0.13626138865947723, -0.9294570088386536, -0.2745119333267212, 0.24648162722587585, -0.0011003613471984863, 0.023687928915023804, -0.05283212661743164, -0.788579685086619, -0.03718729436648424, -0.1459392078260959,-0.5962055479784218,-0.801361083984375,-0.102508544921875,0.0987548828125
20220112-1408,2022-01-12 14:08:32Z,u01, 119,40,movements,el-ex, rt, d,95067.11751075, -1.83466700943038, 0.28244819395258525, 3.0239151596672373, 0.06996548920869827, -0.18494878709316254, -0.17576925456523895, -0.9271354675292969, -0.2787076532840729, 0.2504845857620239, 0.018321752548217773, 0.0136929452419281, -0.006999701261520386, -0.7897505106837013, -0.039197296896227904, -0.14695768318889268,-0.5942738547126756,-0.904449462890625,-0.1435699462890625,0.17138671875
20220112-1408,2022-01-12 14:08:32Z,u01, 120,40,movements,el-ex, rt, d,95067.14743775001, -1.8400723888363224, 0.2876748817339635, 3.026506757767667, 0.022696280851960182, -0.11818539351224899, -0.16755439341068268, -0.9243508577346802, -0.2837234139442444, 0.25510135293006897, -0.039348483085632324, 0.033387720584869385, -0.017369180917739868, -0.7910980614768248, -0.041406863208742775, -0.1483374878838979,-0.5919842968401271,-0.929168701171875,-0.069183349609375,0.158355712890625
20220112-1408,2022-01-12 14:08:32Z,u01, 121,40,movements,el-ex, rt, d,95067.17736475001, -1.8418644789076244, 0.2900620844833601, 3.028168323158912, -0.004955419339239597, -0.12231829017400742, -0.13910004496574402, -0.923237144947052, -0.2860117256641388, 0.25657540559768677, 0.019367337226867676, 0.0043954551219940186, -0.025572270154953003, -0.7914975883352247, -0.04265288779526176, -0.14881626091808806,-0.591241249927525,-0.8872528076171875,-0.0582427978515625,0.1286468505859375
20220112-1408,2022-01-12 14:08:32Z,u01, 122,40,movements,el-ex, rt, d,95067.20729175, -1.8461890018379232, 0.2932938313411155, 3.028822981004985, 0.00011756923049688339, -0.17742055654525757, -0.17726755142211914, -0.9212245345115662, -0.28910696506500244, 0.2603127956390381, 0.010518908500671387, 0.010893464088439941, -0.008283168077468872, -0.7926276370412931, -0.043564124975292134, -0.1499800893660084,-0.5893637743044722,-0.9300689697265625,-0.1595001220703125,0.1949462890625
20220112-1408,2022-01-12 14:08:32Z,u01, 123,40,movements,el-ex, rt, d,95067.23721875, -1.8506379661953427, 0.29497226517025804, 3.032041971133608, 0.10860170423984528, -0.11516356468200684, -0.13935452699661255, -0.9195897579193115, -0.2907133102416992, 0.26427435874938965, -0.03188741207122803, 0.02777382731437683, -0.025336742401123047, -0.7937953603953707, -0.045012202201912314, -0.14978878668657514,-0.5877298027750386,-0.9759979248046875,-0.1383056640625,0.160186767578125
20220112-1408,2022-01-12 14:08:32Z,u01, 124,40,movements,el-ex, rt, d,95067.26714575001, -1.8536870257419604, 0.29811029828087177, 3.0342672747495616, 0.017137665301561356, -0.13925300538539886, -0.13748638331890106, -0.9178990125656128, -0.29371437430381775, 0.2668209969997406, 0.007391810417175293, -0.06654563546180725, -0.009084492921829224, -0.79450498543639, -0.04660822553635249, -0.15043632457405987,-0.5864797331808215,-0.89031982421875,-0.108856201171875,0.116241455078125
20220112-1408,2022-01-12 14:08:32Z,u01, 125,40,movements,el-ex, rt, d,95067.29707275, -1.8578152665218808, 0.3013146495820317, 3.036422133222169, 0.07341491430997849, -0.09721846133470535, -0.11314082890748978, -0.9158823490142822, -0.2967758774757385, 0.2703402042388916, -0.03225302696228027, -0.036186158657073975, 0.023300141096115112, -0.7955220440572799, -0.048112151073706914, -0.15116162362778032,-0.5847906896995866,-0.9675750732421875,-0.2076873779296875,0.2216644287109375
20220112-1408,2022-01-12 14:08:32Z,u01, 126,40,movements,el-ex, rt, d,95067.32699975, -1.860348835954051, 0.30138661728427335, 3.0400010315492647, 0.08383473753929138, -0.036109164357185364, -0.03044474497437477, -0.915174126625061, -0.29684460163116455, 0.272653728723526, -0.03233569860458374, -0.015045076608657837, 0.0038510560989379883, -0.7961719509893234, -0.04936686903420778, -0.15020587651809372,-0.5840475387516119,-1.0008697509765625,-0.1420135498046875,0.15667724609375
20220112-1408,2022-01-12 14:08:32Z,u01, 127,40,movements,el-ex, rt, d,95067.35692675, -1.8608678606456968, 0.30330933904639207, 3.040015439025375, -0.05389796197414398, -0.02388499118387699, 0.0032093534246087074, -0.914483904838562, -0.2986801266670227, 0.2729649245738983, -0.013204813003540039, -0.00881505012512207, -0.015442132949829102, -0.7962360165302472, -0.04990663429129333, -0.15097120631042002,-0.5837168944633558,-0.8678131103515625,-0.1078033447265625,0.0907745361328125
20220112-1408,2022-01-12 14:08:32Z,u01, 128,40,movements,el-ex, rt, d,95067.38685375001, -1.8610807227056572, 0.30516196906582205, 3.038937066533789, -0.034630656242370605, 0.010761933401226997, -0.07424149662256241, -0.9138940572738647, -0.3004476726055145, 0.2730007469654083, -0.025986552238464355, -0.011777758598327637, 0.03248050808906555, -0.796240569909692, -0.05001325104780423, -0.15202018520510657,-0.5834292506072598,-0.94140625,-0.2357330322265625,0.21478271484375
20220112-1408,2022-01-12 14:08:32Z,u01, 129,40,movements,el-ex, rt, d,95067.41678075, -1.860929957002172, 0.30682315433699037, 3.0407952507352904, 0.08038434386253357, 0.0366116426885128, -0.055855028331279755, -0.9134556651115417, -0.3020316958427429, 0.2727198004722595, -0.021587848663330078, 0.018141865730285645, 0.03389051556587219, -0.7960730973043021, -0.05125936973354054, -0.15212785762647787,-0.583521569621614,-0.9944610595703125,-0.2232818603515625,0.2215423583984375
20220112-1408,2022-01-12 14:08:32Z,u01, 130,40,movements,el-ex, rt, d,95067.44670875001, -1.8593905989835786, 0.30711725574709475, 3.0418303938455447, -0.040002189576625824, 0.07599779963493347, 0.010668734088540077, -0.9137892127037048, -0.30231204628944397, 0.27128803730010986, -0.011412322521209717, 0.001820683479309082, -0.005342245101928711, -0.795583375048021, -0.051875934600073205, -0.15190166003087296,-0.5841935023598049,-0.9480133056640625,-0.1237945556640625,0.1435089111328125
20220112-1408,2022-01-12 14:08:32Z,u01, 131,40,movements,el-ex, rt, d,95067.47663575, -1.858530436524321, 0.3077588303528191, 3.0406825304507477, -0.008218624629080296, 0.0066111329942941666, -0.035294897854328156, -0.913835883140564, -0.3029235303401947, 0.2704468071460724, 0.014223456382751465, 0.011465400457382202, 0.022430747747421265, -0.7953319834754612, -0.051676234727931813, -0.15246697067261697,-0.5844061097718963,-0.9124603271484375,-0.242156982421875,0.1788330078125
20220112-1408,2022-01-12 14:08:32Z,u01, 132,40,movements,el-ex, rt, d,95067.50656275, -1.85891225452822, 0.307419443583698, 3.0416662365626426, 0.050519853830337524, 0.05763076990842819, -0.02578674629330635, -0.9138311147689819, -0.30260008573532104, 0.2708248794078827, -0.016771972179412842, 0.010684162378311157, 0.0022313296794891357, -0.7954338327661092, -0.05193712202020542, -0.15205602218197994,-0.5843514381761036,-0.990081787109375,-0.315521240234375,0.2906036376953125
20220112-1408,2022-01-12 14:08:32Z,u01, 133,40,movements,el-ex, rt, d,95067.53648975001, -1.8572634275841113, 0.30752311141316574, 3.043282658497109, 0.021379247307777405, 0.03014608658850193, -0.03732841834425926, -0.9142464399337769, -0.30269888043403625, 0.2693089544773102, 0.01167362928390503, 0.0046183764934539795, -0.011328309774398804, -0.7949046508297126, -0.052735883379922605, -0.1515810249108413,-0.5851229905347685,-1.0174102783203125,-0.1732025146484375,0.2028045654296875
20220112-1408,2022-01-12 14:08:32Z,u01, 134,40,movements,el-ex, rt, d,95067.56641675, -1.8573165718600522, 0.3075183813825162, 3.0439231778523093, 0.01246767956763506, 0.041080292314291, -0.027139363810420036, -0.9142336249351501, -0.3026943802833557, 0.26935797929763794, -0.007321178913116455, 0.01379963755607605, -0.020288437604904175, -0.7949034991615329, -0.052985019399461694, -0.1513931720333714,-0.5851507380494286,-0.9715118408203125,-0.216827392578125,0.2029876708984375
20220112-1408,2022-01-12 14:08:32Z,u01, 135,40,movements,el-ex, rt, d,95067.59634375, -1.8555801070200446, 0.3074198532186309, 3.044220421495876, 0.045195430517196655, 0.05207762122154236, -0.024508893489837646, -0.9147285223007202, -0.3026004731655121, 0.2677783966064453, 0.014001965522766113, -0.01603361964225769, 0.007169991731643677, -0.7943918556831946, -0.05320505895104559, -0.15122134801627365,-0.5858695587736884,-0.9387359619140625,-0.2761993408203125,0.2709503173828125
20220112-1408,2022-01-12 14:08:32Z,u01, 136,40,movements,el-ex, rt, d,95067.62627075, -1.8539657614260243, 0.30777649145387204, 3.046375746267115, 0.08579961955547333, 0.06456871330738068, -0.03952106833457947, -0.9150555729866028, -0.30294036865234375, 0.26627108454704285, -0.003294527530670166, 0.0022354423999786377, -0.014134705066680908, -0.7938439441196385, -0.0542893506049679, -0.1506862171502796,-0.5866498645666121,-1.0040283203125,-0.2885894775390625,0.248931884765625
20220112-1408,2022-01-12 14:08:32Z,u01, 137,40,movements,el-ex, rt, d,95067.65619775001, -1.8523245607447554, 0.3065812045912595, 3.0485321636841904, 0.030330466106534004, 0.05194631963968277, 0.014833984896540642, -0.915838897228241, -0.30180102586746216, 0.26486945152282715, -0.014275968074798584, -0.0049769580364227295, -0.002707839012145996, -0.7933596719319395, -0.054910439819538095, -0.14953926388478414,-0.5875402191534999,-0.9456787109375,-0.1984405517578125,0.1618194580078125
20220112-1408,2022-01-12 14:08:32Z,u01, 138,40,movements,el-ex, rt, d,95067.68612475, -1.8504289614525524, 0.3059257574494551, 3.047698958339217, -0.06396827101707458, 0.07825902104377747, 0.0669548436999321, -0.9165290594100952, -0.3011760711669922, 0.26318737864494324, -0.018132805824279785, -0.03993415832519531, 0.012127131223678589, -0.7928560274273114, -0.054525334648843654, -0.14947522296490592,-0.5882716243841429,-0.9097900390625,-0.291656494140625,0.2028045654296875
20220112-1408,2022-01-12 14:08:32Z,u01, 139,40,movements,el-ex, rt, d,95067.71605175, -1.8470292339937155, 0.30426215668841283, 3.0460719627015163, 0.062284037470817566, 0.09030415862798691, 0.0767538771033287, -0.9178995490074158, -0.2995893061161041, 0.26020628213882446, -0.01378709077835083, -0.03352537751197815, 0.014314919710159302, -0.791976270670629, -0.053635130598171446, -0.14921046000244056,-0.5896043872387754,-0.934600830078125,-0.2921905517578125,0.2935791015625
20220112-1408,2022-01-12 14:08:32Z,u01, 140,40,movements,el-ex, rt, d,95067.745979375, -1.8443158252432172, 0.30198456824771597, 3.047588639962291, 0.04216638207435608, 0.11900319159030914, 0.07576557993888855, -0.9192566275596619, -0.297415554523468, 0.2578983008861542, -0.02803957462310791, -0.02033349871635437, 0.01329648494720459, -0.7912394677591904, -0.05375173531382897, -0.14779834597565256,-0.5909370585206614,-0.9680328369140625,-0.2706146240234375,0.2169647216796875
20220112-1408,2022-01-12 14:08:32Z,u01, 141,40,movements,el-ex, rt, d,95067.77590637501, -1.8409312030420244, 0.3011330664643787, 3.046423311863708, -0.058557093143463135, 0.09805436432361603, 0.06762735545635223, -0.920367956161499, -0.2966024875640869, 0.2548529803752899, -0.03187203407287598, 0.027605265378952026, 0.00965842604637146, -0.7903083355740899, -0.053284347425467934, -0.14771945912466689,-0.5922436866692963,-0.9058685302734375,-0.2382965087890625,0.188812255859375
20220112-1408,2022-01-12 14:08:32Z,u01, 142,40,movements,el-ex, rt, d,95067.80583337501, -1.8373403552549035, 0.299960117092436, 3.045795577107048, -0.0054131168872118, 0.12522965669631958, 0.017077231779694557, -0.9216123819351196, -0.2954820990562439, 0.2516379654407501, -0.05816996097564697, -0.008991837501525879, 0.006312161684036255, -0.789313376172371, -0.05294690927447657, -0.14735207468047604,-0.5936907232811183,-0.921661376953125,-0.269317626953125,0.255126953125
20220112-1408,2022-01-12 14:08:32Z,u01, 143,40,movements,el-ex, rt, d,95067.835760375, -1.8336457203635836, 0.3002750907824097, 3.045076994564969, -0.024045657366514206, 0.09738683700561523, -0.015061795711517334, -0.9224457740783691, -0.29578301310539246, 0.2482070028781891, -0.05764162540435791, 0.01259508728981018, -9.882450103759766e-05, -0.7882202584427787, -0.053031346783750655, -0.14759059383823828,-0.5950745316549914,-0.9636993408203125,-0.250335693359375,0.23773193359375
20220112-1408,2022-01-12 14:08:32Z,u01, 144,40,movements,el-ex, rt, d,95067.865687375, -1.8307465506126874, 0.30114875180469175, 3.043810569788587, -0.079374760389328, 0.08118989318609238, -0.016467278823256493, -0.9229114651679993, -0.29661744832992554, 0.24546514451503754, -0.10435616970062256, 0.0010088682174682617, 0.012668043375015259, -0.7873514374140218, -0.05301212160350319, -0.14823111392760518,-0.5960664541885872,-0.91424560546875,-0.2759246826171875,0.2270660400390625
20220112-1408,2022-01-12 14:08:32Z,u01, 145,40,movements,el-ex, rt, d,95067.89561437501, -1.828097841410308, 0.301863969258589, 3.042577185383949, -0.015630900859832764, 0.06489807367324829, -0.031102348119020462, -0.9233529567718506, -0.29730039834976196, 0.2429656982421875, -0.13295215368270874, -0.03854560852050781, 0.03108254075050354, -0.7865622027205817, -0.05294101058990988, -0.148807024708073,-0.5969705444706317,-0.8937835693359375,-0.302886962890625,0.2542572021484375
20220112-1408,2022-01-12 14:08:32Z,u01, 146,40,movements,el-ex, rt, d,95067.925541375, -1.8270196867638715, 0.30278428212636177, 3.0428964459263517, 0.027720902115106583, 0.007412543520331383, -0.045407384634017944, -0.9233494400978088, -0.2981789708137512, 0.24190063774585724, -0.13202506303787231, -0.04941633343696594, 0.029111087322235107, -0.786190734913573, -0.05342702825257539, -0.14904069766258862,-0.597358255734459,-0.939117431640625,-0.247222900390625,0.2590179443359375
20220112-1408,2022-01-12 14:08:32Z,u01, 147,40,movements,el-ex, rt, d,95067.955468375, -1.8279172919008346, 0.3045061262919135, 3.0434432309827306, -0.015721214935183525, -0.037122368812561035, -0.04453513026237488, -0.9226337671279907, -0.299822062253952, 0.24259835481643677, -0.16914790868759155, -0.04673558473587036, 0.01449728012084961, -0.7863666147751406, -0.054099227600435576, -0.14957068029307677,-0.5969334727680791,-0.93597412109375,-0.2873077392578125,0.2404937744140625
20220112-1408,2022-01-12 14:08:33Z,u01, 148,40,movements,el-ex, rt, d,95067.985395375, -1.8289919519558753, 0.3062434954214726, 3.0422246387305583, -0.07925568521022797, -0.059321075677871704, -0.04059571772813797, -0.9218676090240479, -0.3014790415763855, 0.2434563785791397, -0.1653822660446167, -0.06642565131187439, 0.036512136459350586, -0.7866414972534785, -0.05406796161914974, -0.15063851936481054,-0.5963053191552478,-0.912689208984375,-0.36572265625,0.2586517333984375
20220112-1408,2022-01-12 14:08:33Z,u01, 149,40,movements,el-ex, rt, d,95068.01532237501, -1.8309556293650298, 0.3079862475913224, 3.041569091710865, 0.014388649724423885, -0.0863601565361023, -0.07227189093828201, -0.9208786487579346, -0.303140252828598, 0.24513064324855804, -0.16116803884506226, -0.05823370814323425, 0.02519431710243225, -0.7871649218189546, -0.05419140186009902, -0.1515645536521891,-0.5953680188710095,-0.9481353759765625,-0.3329620361328125,0.29364013671875
20220112-1408,2022-01-12 14:08:33Z,u01, 150,40,movements,el-ex, rt, d,95068.04525037501, -1.8338868508275898, 0.3092891937405337, 3.0434542965709217, 0.02636711485683918, -0.0826384574174881, -0.040979545563459396, -0.919774055480957, -0.3043816387653351, 0.2477259784936905, -0.15027928352355957, -0.05772474408149719, -0.0013725459575653076, -0.7879252552971957, -0.055106965331869304, -0.15159099433597636,-0.5942705114754242,-0.948394775390625,-0.3144989013671875,0.2887115478515625
20220112-1408,2022-01-12 14:08:33Z,u01, 151,40,movements,el-ex, rt, d,95068.07517737501, -1.8364928529720532, 0.3100676894901484, 3.0419900394931347, -0.11953605711460114, -0.128037691116333, -0.00207029702141881, -0.9188961982727051, -0.30512309074401855, 0.25005969405174255, -0.09288358688354492, -0.07065510749816895, -0.0012649595737457275, -0.7887028792305522, -0.05456757149208318, -0.1524003465378076,-0.5930804022266876,-0.9358978271484375,-0.2931976318359375,0.2539825439453125
20220112-1408,2022-01-12 14:08:33Z,u01, 152,40,movements,el-ex, rt, d,95068.105104375, -1.8395353291400842, 0.3111755019934569, 3.0369268809872065, -0.16224028170108795, -0.1856062412261963, -0.014996016398072243, -0.9178047180175781, -0.30617788434028625, 0.25276437401771545, -0.07300949096679688, -0.09825631976127625, 0.05466994643211365, -0.7896884943530381, -0.05267129335777898, -0.15441307529706327,-0.5914173886618922,-0.9311065673828125,-0.33123779296875,0.3077850341796875
20220112-1408,2022-01-12 14:08:33Z,u01, 153,40,movements,el-ex, rt, d,95068.135031375, -1.8423657475616677, 0.31259296722985647, 3.0337155065963675, -0.031243547797203064, -0.06116771325469017, -0.010831696912646294, -0.9166667461395264, -0.30752697587013245, 0.25524449348449707, -0.10213226079940796, -0.01603570580482483, -0.002039879560470581, -0.790543202575142, -0.05161091266378678, -0.1559882215633204,-0.5899539289993468,-0.9353485107421875,-0.2974853515625,0.310760498046875
20220112-1408,2022-01-12 14:08:33Z,u01, 154,40,movements,el-ex, rt, d,95068.16495837501, -1.8433723400168676, 0.3133423980063833, 3.0327531175378493, -0.0918785035610199, -0.05072486028075218, -0.020589984953403473, -0.9161871075630188, -0.30823999643325806, 0.2561049461364746, -0.019649863243103027, 0.005063056945800781, 0.0013263523578643799, -0.7908304471852771, -0.05137778265975712, -0.15659035304806615,-0.5894295486900875,-0.9364013671875,-0.2867889404296875,0.3011474609375
20220112-1408,2022-01-12 14:08:33Z,u01, 155,40,movements,el-ex, rt, d,95068.19488537501, -1.8428462540374602, 0.3152284935934596, 3.027979386704823, -0.1701597273349762, 0.010937437415122986, 0.005867454223334789, -0.9157599210739136, -0.3100337088108063, 0.25546619296073914, -0.038677334785461426, 0.030080705881118774, 0.04024931788444519, -0.7907104571606115, -0.05010058401115712, -0.15871936146871343,-0.5891308200304154,-0.925201416015625,-0.3004913330078125,0.2659454345703125
20220112-1408,2022-01-12 14:08:33Z,u01, 156,40,movements,el-ex, rt, d,95068.224812375, -1.8410257385958475, 0.3149862313566329, 3.0264397342371394, 0.14046715199947357, 0.068376824259758, 0.026135507971048355, -0.9162958860397339, -0.3098033666610718, 0.25381866097450256, -0.009226024150848389, -0.01244702935218811, 0.010692715644836426, -0.7902232534202461, -0.049563549260365033, -0.15903332927185265,-0.5897449958231318,-0.894500732421875,-0.28564453125,0.281219482421875
20220112-1408,2022-01-12 14:08:33Z,u01, 157,40,movements,el-ex, rt, d,95068.254739375, -1.839270310454182, 0.3134882973986973, 3.027015969412628, -0.05583607777953148, 0.06577112525701523, 0.041302409023046494, -0.9171867370605469, -0.30837878584861755, 0.2523326873779297, 0.006160438060760498, -0.02101278305053711, -0.0014473795890808105, -0.7897583808709285, -0.049477666721690995, -0.15823629172699508,-0.5905888978418444,-0.9333648681640625,-0.2858734130859375,0.2805633544921875
20220112-1408,2022-01-12 14:08:33Z,u01, 158,40,movements,el-ex, rt, d,95068.28466637501, -1.836755070728303, 0.3117364800196325, 3.0246958402260833, -0.05629683658480644, 0.11352846026420593, 0.06123930215835571, -0.9183379411697388, -0.306711882352829, 0.2501664459705353, -0.002499401569366455, 0.02759811282157898, -0.013319283723831177, -0.789149563835477, -0.04823057626614758, -0.1581786014821674,-0.5915203547121431,-0.9171142578125,-0.3032989501953125,0.2567138671875
20220112-1408,2022-01-12 14:08:33Z,u01, 159,40,movements,el-ex, rt, d,95068.314593375, -1.8328288082259703, 0.31094033315678593, 3.0212992247593324, -0.12228924036026001, 0.10434255003929138, 0.08187254518270493, -0.9195488095283508, -0.3059540092945099, 0.24662210047245026, 0.0027854442596435547, -0.027923554182052612, 0.018011316657066345, -0.7881026149719063, -0.04696081509928242, -0.15878139534825453,-0.5928554092352614,-0.910186767578125,-0.2856597900390625,0.25384521484375
20220112-1408,2022-01-12 14:08:33Z,u01, 160,40,movements,el-ex, rt, d,95068.344520375, -1.8280679149123849, 0.3101358013952881, 3.0173436636894304, -0.07651056349277496, 0.13458193838596344, 0.10991775989532471, -0.9209503531455994, -0.30518797039985657, 0.2423040270805359, -0.00765383243560791, 0.013226240873336792, -0.005609393119812012, -0.7868153275857653, -0.04553741598549979, -0.15953330322131967,-0.5944723060819244,-0.9223175048828125,-0.2897186279296875,0.2467193603515625
20220112-1408,2022-01-12 14:08:33Z,u01, 161,40,movements,el-ex, rt, d,95068.37444737501, -1.8229025672928278, 0.30595553689772914, 3.0146582814897034, -0.06915944069623947, 0.12936347723007202, 0.11024826020002365, -0.9234168529510498, -0.30120447278022766, 0.23785988986492157, 0.004807233810424805, 0.013088047504425049, -0.027852937579154968, -0.785511032780674, -0.04361608505405373, -0.15859921792601786,-0.5965872788678784,-0.900726318359375,-0.318634033203125,0.2749481201171875
20220112-1408,2022-01-12 14:08:33Z,u01, 162,40,movements,el-ex, rt, d,95068.40437437501, -1.818998144288506, 0.3046954285798516, 3.011105702961406, -0.13522450625896454, 0.1571873277425766, 0.12414748966693878, -0.9247058629989624, -0.3000026345252991, 0.23434577882289886, -0.0066754817962646484, -0.020538777112960815, 0.005919456481933594, -0.7844721934954764, -0.04214576425440255, -0.15908937641122073,-0.5979279710072456,-0.9188385009765625,-0.2998046875,0.258056640625
20220112-1408,2022-01-12 14:08:33Z,u01, 163,40,movements,el-ex, rt, d,95068.434301375, -1.8128938806115822, 0.3010840011094008, 3.0072775643604586, -0.03026590123772621, 0.2092624306678772, 0.15121206641197205, -0.9271649122238159, -0.29655560851097107, 0.22895504534244537, -0.006932497024536133, 0.02598673105239868, 0.013690471649169922, -0.7828638967991407, -0.04002054018771094, -0.15871780353580522,-0.6002760343265929,-0.927215576171875,-0.2985992431640625,0.245635986328125
20220112-1408,2022-01-12 14:08:33Z,u01, 164,40,movements,el-ex, rt, d,95068.464228375, -1.8058120293455024, 0.2963008677347979, 3.0062420806878825, -0.017482895404100418, 0.20204174518585205, 0.17594237625598907, -0.9301319122314453, -0.29198428988456726, 0.22271107137203217, 0.019365251064300537, 0.014594703912734985, 0.010031580924987793, -0.7809340642350578, -0.038697848874198415, -0.1570496642871911,-0.603307585902292,-0.93450927734375,-0.339080810546875,0.2861328125
20220112-1408,2022-01-12 14:08:33Z,u01, 165,40,movements,el-ex, rt, d,95068.49415537501, -1.7999857347236723, 0.2930611986549772, 3.0032024625068474, -0.0688278079032898, 0.2112710028886795, 0.19379308819770813, -0.9323298335075378, -0.2888842523097992, 0.21750181913375854, 0.0003230571746826172, -0.00019347667694091797, 0.0111360102891922, -0.7793487932424604, -0.03696446010852861, -0.1566145712620226,-0.6055749387550824,-0.9315032958984375,-0.3328857421875,0.2650299072265625
20220112-1408,2022-01-12 14:08:33Z,u01, 166,40,movements,el-ex, rt, d,95068.524082375, -1.7931854842467856, 0.28663260587833295, 3.0004497046828917, -0.03651783987879753, 0.2502710819244385, 0.20454712212085724, -0.935579776763916, -0.2827238142490387, 0.21156208217144012, 0.005495190620422363, -0.010763823986053467, -0.00228746235370636, -0.7775578818398248, -0.034420668419466574, -0.15486689515987256,-0.6084698110768336,-0.93646240234375,-0.33660888671875,0.2698211669921875
20220112-1408,2022-01-12 14:08:33Z,u01, 167,40,movements,el-ex, rt, d,95068.554009375, -1.78512563122314, 0.2809639152003868, 2.9984833145408842, 0.010848676785826683, 0.22909852862358093, 0.1880471110343933, -0.938805341720581, -0.27728191018104553, 0.2043522447347641, 0.03469139337539673, 0.05030733346939087, -0.018469423055648804, -0.775319031350261, -0.032504144581569236, -0.15316687221211492,-0.611852957456753,-0.947296142578125,-0.3177490234375,0.2711944580078125
20220112-1408,2022-01-12 14:08:33Z,u01, 168,40,movements,el-ex, rt, d,95068.58393637501, -1.777787750705874, 0.27532266704245784, 2.9968588527490945, -0.07429517805576324, 0.24838422238826752, 0.19845008850097656, -0.9417952299118042, -0.27185747027397156, 0.19777624309062958, 0.0161970853805542, -0.0014579594135284424, -0.010611683130264282, -0.7732710270723355, -0.030660038962497176, -0.15140058531868417,-0.6149713889074184,-0.9462127685546875,-0.2734375,0.260711669921875
20220112-1408,2022-01-12 14:08:33Z,u01, 169,40,movements,el-ex, rt, d,95068.61386337501, -1.7697790583121848, 0.2696269150518149, 2.993261826607667, -0.04246897250413895, 0.21378754079341888, 0.20590820908546448, -0.9448515772819519, -0.26637184619903564, 0.1905304342508316, 0.025631487369537354, 0.005965322256088257, 0.014944672584533691, -0.7710233409419462, -0.028075375690184253, -0.150228708965645,-0.6181959578676373,-0.970855712890625,-0.307708740234375,0.2701416015625
20220112-1408,2022-01-12 14:08:33Z,u01, 170,40,movements,el-ex, rt, d,95068.643790375, -1.7623439919237303, 0.2633487009180551, 2.9919276493731615, 0.03924456238746643, 0.2747361958026886, 0.23305679857730865, -0.9478652477264404, -0.26031526923179626, 0.18381497263908386, -0.024913311004638672, 0.01934841275215149, -0.012244924902915955, -0.7689116269102749, -0.02612278718111051, -0.148163815791759,-0.6214018033971995,-0.98101806640625,-0.2867431640625,0.256072998046875
20220112-1408,2022-01-12 14:08:33Z,u01, 171,40,movements,el-ex, rt, d,95068.673717375, -1.7534514365133484, 0.25688951913795366, 2.9900131493639313, -0.08063893020153046, 0.2495395541191101, 0.230542853474617, -0.9510958790779114, -0.2540733814239502, 0.17568062245845795, 0.015594720840454102, 0.00489729642868042, -0.01973557472229004, -0.7663323197693496, -0.023980981241841063, -0.14621013805771488,-0.6251259430052001,-0.99359130859375,-0.2832183837890625,0.252197265625
20220112-1408,2022-01-12 14:08:33Z,u01, 172,40,movements,el-ex, rt, d,95068.70364437501, -1.7447337682813664, 0.25088983446872776, 2.9849275721445303, -0.11064030975103378, 0.27529245615005493, 0.22593383491039276, -0.9540756344795227, -0.24826602637767792, 0.16764353215694427, -0.019008100032806396, -0.032236337661743164, 0.021153822541236877, -0.7638006103750261, -0.02074598057920866, -0.14544893853025123,-0.6285086575613139,-1.0338897705078125,-0.3031768798828125,0.26422119140625
20220112-1408,2022-01-12 14:08:33Z,u01, 173,40,movements,el-ex, rt, d,95068.73357162501, -1.7357834850457616, 0.24427528486737785, 2.9842946022782586, 0.1669035255908966, 0.35406628251075745, 0.21301904320716858, -0.9571366310119629, -0.24185319244861603, 0.15936388075351715, -0.03535616397857666, 0.03621046245098114, -0.014695048332214355, -0.7611309491179254, -0.01901634102893895, -0.14307907287029784,-0.6323342343113447,-1.056304931640625,-0.335845947265625,0.2740478515625
20220112-1408,2022-01-12 14:08:33Z,u01, 174,40,movements,el-ex, rt, d,95068.76349962501, -1.7261365592464186, 0.23724838011313457, 2.9863714309025244, -0.0017006704583764076, 0.28793254494667053, 0.2430800199508667, -0.9602847099304199, -0.23502898216247559, 0.150382399559021, 0.040652692317962646, 0.004041403532028198, -0.02555002272129059, -0.7581950137044882, -0.01820781188633897, -0.1397040793817434,-0.6366252139909739,-1.055572509765625,-0.340728759765625,0.2707977294921875
20220112-1408,2022-01-12 14:08:33Z,u01, 175,40,movements,el-ex, rt, d,95068.79342662501, -1.7173467354456573, 0.22977386893716206, 2.9820524757539535, -0.14205116033554077, 0.2874091565608978, 0.28500261902809143, -0.9632806181907654, -0.22775733470916748, 0.14218854904174805, -0.004355728626251221, -0.049082934856414795, 0.0098809152841568, -0.7555639108944772, -0.014746322504198738, -0.13822619794221366,-0.6401558108981468,-1.080902099609375,-0.340911865234375,0.2595977783203125
20220112-1408,2022-01-12 14:08:33Z,u01, 176,40,movements,el-ex, rt, d,95068.823353625, -1.7078470055877872, 0.22163663785458187, 2.978646429052166, 0.04020177200436592, 0.31420302391052246, 0.2751181125640869, -0.9663918018341064, -0.21982651948928833, 0.13328015804290771, -0.0018243193626403809, 0.030770093202590942, 0.0024164915084838867, -0.7526679724335232, -0.011445643488496363, -0.1362376325408302,-0.644049218816387,-1.0976409912109375,-0.3586883544921875,0.2552642822265625
20220112-1408,2022-01-12 14:08:33Z,u01, 177,40,movements,el-ex, rt, d,95068.853280625, -1.6976451036694864, 0.21322074237624863, 2.980027222236871, 0.09366503357887268, 0.3406597375869751, 0.2749975323677063, -0.9695020318031311, -0.21160879731178284, 0.12364403158426285, 0.05710262060165405, 0.06463611125946045, -0.04145991802215576, -0.7494828252995283, -0.009874685357052125, -0.13262530559114336,-0.6485280731915939,-1.0804443359375,-0.3768310546875,0.2891845703125
20220112-1408,2022-01-12 14:08:33Z,u01, 178,40,movements,el-ex, rt, d,95068.88320762501, -1.689414877474615, 0.205474746875565, 2.9792998614773887, -0.06518164277076721, 0.22085312008857727, 0.2713680863380432, -0.9720852971076965, -0.20403194427490234, 0.11585121601819992, 0.06520956754684448, -0.027825385332107544, 0.007806181907653809, -0.7469057653477363, -0.007575254847168839, -0.12997148643987136,-0.6520597777933269,-1.08447265625,-0.3534393310546875,0.26837158203125
20220112-1408,2022-01-12 14:08:33Z,u01, 179,40,movements,el-ex, rt, d,95068.913134625, -1.6812109942213227, 0.1974546155841358, 2.9768436534731184, -0.02958872728049755, 0.28128403425216675, 0.2847188711166382, -0.9745981693267822, -0.1961740404367447, 0.10804937779903412, 0.010608673095703125, -0.01766267418861389, 0.029737725853919983, -0.7443146394681727, -0.004517431193410141, -0.12780344914318714,-0.6554706768973724,-1.0700531005859375,-0.3621063232421875,0.2463531494140625
20220112-1408,2022-01-12 14:08:33Z,u01, 180,40,movements,el-ex, rt, d,95068.943061625, -1.672216189816198, 0.18914739082526397, 2.9780198487267184, 0.11487235128879547, 0.31501305103302, 0.27200818061828613, -0.9771180152893066, -0.18802155554294586, 0.09944035857915878, 0.05557870864868164, 0.07382477819919586, -0.027510181069374084, -0.7414260998610513, -0.002741731976307893, -0.12435881195859802,-0.6594048536283111,-1.0196533203125,-0.3773956298828125,0.2489166259765625
20220112-1408,2022-01-12 14:08:33Z,u01, 181,40,movements,el-ex, rt, d,95068.972988625, -1.664795157710613, 0.18141462325203342, 2.980209500815991, 0.019728057086467743, 0.19324307143688202, 0.22530153393745422, -0.9792474508285522, -0.1804211586713791, 0.09232018142938614, 0.09278792142868042, 0.0071118175983428955, -0.05020570755004883, -0.7390251062049965, -0.0014079792364708119, -0.12080433080076233,-0.6627566458632814,-0.9868316650390625,-0.394073486328125,0.3124847412109375
20220112-1408,2022-01-12 14:08:34Z,u01, 182,40,movements,el-ex, rt, d,95069.00291562501, -1.658758302639861, 0.17450690776864666, 2.9786691162216745, -0.022974099963903427, 0.2433299869298935, 0.23264260590076447, -0.9810050129890442, -0.17362254858016968, 0.08651438355445862, -0.004895985126495361, -0.07663686573505402, 0.012652754783630371, -0.7370589645666136, 0.0011290310617320977, -0.11879975818079991,-0.6653041361388858,-1.023895263671875,-0.373870849609375,0.2817535400390625
20220112-1408,2022-01-12 14:08:34Z,u01, 183,40,movements,el-ex, rt, d,95069.032842625, -1.651441506399796, 0.16740476128769888, 2.9797323566165654, 0.0974443256855011, 0.2275662124156952, 0.23708902299404144, -0.9828161597251892, -0.16662395000457764, 0.07943166047334671, 0.04223364591598511, 0.07136330008506775, -0.032708995044231415, -0.7346485342445568, 0.002712968804763821, -0.1158724524376043,-0.6684743712287728,-0.98779296875,-0.295166015625,0.2437286376953125
20220112-1408,2022-01-12 14:08:34Z,u01, 184,40,movements,el-ex, rt, d,95069.062769625, -1.6458870171179139, 0.16052716972013512, 2.9807771244898893, -0.0026012854650616646, 0.14774788916110992, 0.21939851343631744, -0.9843615889549255, -0.15983861684799194, 0.07405563443899155, 0.056550800800323486, 0.0032681673765182495, -0.03953993320465088, -0.7328089176635473, 0.004348154771060077, -0.1130400693221181,-0.6709651828644917,-0.9359283447265625,-0.309539794921875,0.263092041015625
20220112-1408,2022-01-12 14:08:34Z,u01, 185,40,movements,el-ex, rt, d,95069.09269662501, -1.6421928581241274, 0.15363250814955645, 2.979123135762834, -0.023403702303767204, 0.13604262471199036, 0.2401827573776245, -0.9857041835784912, -0.15302886068820953, 0.07049567997455597, -0.009611427783966064, -0.058457955718040466, 0.0008547231554985046, -0.7315719440155427, 0.007094526957576525, -0.11111182009059467,-0.6726116387222775,-0.954437255859375,-0.2799530029296875,0.29571533203125
20220112-1408,2022-01-12 14:08:34Z,u01, 186,40,movements,el-ex, rt, d,95069.12262362501, -1.6375904221455573, 0.14663462263466906, 2.9789047831235376, 0.021344659850001335, 0.14235073328018188, 0.23136568069458008, -0.9870625734329224, -0.1461097002029419, 0.0660281702876091, 0.021120071411132812, 0.038565754890441895, -0.026233084499835968, -0.7300187792831737, 0.009309610699877643, -0.10867629888997704,-0.6746669549578617,-0.929443359375,-0.3057098388671875,0.275665283203125
20220112-1408,2022-01-12 14:08:34Z,u01, 187,40,movements,el-ex, rt, d,95069.152550625, -1.634349468931663, 0.13996619391311163, 2.979085197724693, -0.00038533471524715424, 0.07283516228199005, 0.23123666644096375, -0.9882219433784485, -0.1395096331834793, 0.06288930028676987, 0.047196924686431885, 0.009031698107719421, -0.022560112178325653, -0.7289141421157772, 0.011350059474534454, -0.10622642118840278,-0.6762185757303787,-0.91217041015625,-0.3189697265625,0.2731170654296875
20220112-1408,2022-01-12 14:08:34Z,u01, 188,40,movements,el-ex, rt, d,95069.182477625, -1.6321404627798939, 0.13323311039243318, 2.9768465485435276, -0.1186491996049881, 0.06736648827791214, 0.2277935892343521, -0.9892733097076416, -0.13283929228782654, 0.06076235696673393, 0.027405083179473877, -0.006458207964897156, 0.005018465220928192, -0.7281312515830736, 0.014354731045067678, -0.10457119783230343,-0.6772619315481397,-0.9155426025390625,-0.296478271484375,0.2188873291015625
20220112-1408,2022-01-12 14:08:34Z,u01, 189,40,movements,el-ex, rt, d,95069.21240462501, -1.6296882968948496, 0.12710179857079004, 2.9749466663517468, 0.0029924847185611725, 0.05606789141893387, 0.19064155220985413, -0.9902141094207764, -0.1267598569393158, 0.05838317051529884, 0.051584720611572266, 0.044942185282707214, -0.011065356433391571, -0.7272564058317605, 0.01702073293006321, -0.10302609678855004,-0.678376239717353,-0.9164886474609375,-0.2898101806640625,0.241455078125
20220112-1408,2022-01-12 14:08:34Z,u01, 190,40,movements,el-ex, rt, d,95069.242331625, -1.628043180840341, 0.123061090013079, 2.9740350674743636, -0.07355888187885284, 0.06166772544384003, 0.12855635583400726, -0.9908119440078735, -0.12275072187185287, 0.05678291246294975, 0.022733211517333984, -0.045904695987701416, 0.04145336151123047, -0.7266659940799368, 0.018654452465815107, -0.10189588255023274,-0.6791361832553178,-0.921905517578125,-0.333526611328125,0.2537078857421875
20220112-1408,2022-01-12 14:08:34Z,u01, 191,40,movements,el-ex, rt, d,95069.272258625, -1.623634557632287, 0.12018418897290234, 2.9769719823259924, 0.2300422489643097, 0.2036900520324707, 0.08250837028026581, -0.991401195526123, -0.1198950707912445, 0.05243268981575966, 0.046836256980895996, 0.08859927952289581, -0.03494584560394287, -0.7251754575777983, 0.018354853519480012, -0.09990376281936064,-0.6810308822637942,-0.9286041259765625,-0.291961669921875,0.2366943359375
20220112-1408,2022-01-12 14:08:34Z,u01, 192,40,movements,el-ex, rt, d,95069.30218562501, -1.6204441089327621, 0.11732723540062089, 2.980069409308789, -0.061564136296510696, 0.06555566936731339, 0.10015693306922913, -0.9919015169143677, -0.11705823987722397, 0.049286212772130966, 0.057056427001953125, -0.04100757837295532, 0.06796252727508545, -0.7240973605394526, 0.01805875287684493, -0.09785134416746558,-0.6824823718875832,-0.9165191650390625,-0.279541015625,0.206695556640625
20220112-1408,2022-01-12 14:08:34Z,u01, 193,40,movements,el-ex, rt, d,95069.33211262501, -1.6169299560973769, 0.11461587693017171, 2.977101540461942, -0.009821680374443531, 0.17142225801944733, 0.10600344091653824, -0.9923821091651917, -0.1143650934100151, 0.045814696699380875, -0.013126611709594727, -0.03060869127511978, 0.0295792855322361, -0.7228495756126803, 0.019895690486701114, -0.09792641776008296,-0.6837421644903436,-0.9286956787109375,-0.3258056640625,0.239013671875
20220112-1408,2022-01-12 14:08:34Z,u01, 194,40,movements,el-ex, rt, d,95069.362039625, -1.6106917081509065, 0.11085219508321864, 2.982363556319981, 0.22216461598873138, 0.21291550993919373, 0.0978095605969429, -0.9930716753005981, -0.11062530428171158, 0.03964000567793846, 0.06648147106170654, 0.08201504498720169, -0.021512266248464584, -0.7207351060826034, 0.018997622726528995, -0.09483815682492572,-0.686429903453109,-0.932830810546875,-0.30706787109375,0.2451019287109375
20220112-1408,2022-01-12 14:08:34Z,u01, 195,40,movements,el-ex, rt, d,95069.391966625, -1.6072331798949333, 0.10834054650967472, 2.9825161938834706, -0.16730281710624695, 0.05321512371301651, 0.1015537679195404, -0.9934772849082947, -0.10812872648239136, 0.03621521592140198, 0.06337755918502808, -0.05477413535118103, 0.06327235698699951, -0.7195286484146464, 0.019650227682342904, -0.0939223533211973,-0.6878017342580991,-0.92559814453125,-0.2677154541015625,0.2210693359375
20220112-1408,2022-01-12 14:08:34Z,u01, 196,40,movements,el-ex, rt, d,95069.42189362501, -1.6036205962500916, 0.10568297973579259, 2.9783497258960483, 0.00528060644865036, 0.14474277198314667, 0.08742716163396835, -0.993885338306427, -0.10548636317253113, 0.03263528272509575, 0.0479469895362854, 0.03979724645614624, 0.013599161058664322, -0.7182186309018063, 0.021900673237362098, -0.09444673362514008,-0.6890300701742139,-0.9091033935546875,-0.286651611328125,0.2266387939453125
20220112-1408,2022-01-12 14:08:34Z,u01, 197,40,movements,el-ex, rt, d,95069.451820625, -1.6006952739230231, 0.10311960745667456, 2.9796709945682656, 0.030770618468523026, 0.07297291606664658, 0.055200181901454926, -0.9942435026168823, -0.10293694585561752, 0.02973569557070732, 0.07139182090759277, 0.006531901657581329, -0.005168795585632324, -0.7172000056982296, 0.022181069304456416, -0.09311104287204697,-0.6902627708674659,-0.9320068359375,-0.2890777587890625,0.2286376953125
20220112-1408,2022-01-12 14:08:34Z,u01, 198,40,movements,el-ex, rt, d,95069.481747625, -1.5994612817725253, 0.10262151017014833, 2.9781187079099842, -0.09652674943208694, 0.022878851741552353, 0.03845422714948654, -0.9943305253982544, -0.10244148224592209, 0.02851024828851223, 0.028525352478027344, -0.02059013396501541, 0.012795565649867058, -0.7167515923102428, 0.02285342711688626, -0.09348371279369755,-0.6906560596759957,-0.9317474365234375,-0.3002471923828125,0.2225494384765625
20220112-1408,2022-01-12 14:08:34Z,u01, 199,40,movements,el-ex, rt, d,95069.511674625, -1.5987293282865636, 0.1015981329988933, 2.975921820725157, -0.09802837669849396, 0.020130736753344536, 0.01178586296737194, -0.9944553971290588, -0.10142343491315842, 0.027785351499915123, 0.018777787685394287, -0.03587515652179718, 0.005738496780395508, -0.7164624613839468, 0.02396282615698366, -0.09388735452493416,-0.6908636849175869,-0.9134521484375,-0.2291412353515625,0.1797027587890625
20220112-1408,2022-01-12 14:08:34Z,u01, 200,40,movements,el-ex, rt, d,95069.54160162501, -1.597865997811106, 0.10185162533932236, 2.973622831373859, -0.010031371377408504, 0.04028640687465668, -0.001103768590837717, -0.9944532513618469, -0.1016756221652031, 0.02692609839141369, -0.00016051530838012695, 0.0471406951546669, 0.006414530798792839, -0.7161390052868608, 0.02465713961275116, -0.09478213580759388,-0.6910523699957042,-0.91302490234375,-0.2740020751953125,0.2020263671875
20220112-1408,2022-01-12 14:08:34Z,u01, 201,40,movements,el-ex, rt, d,95069.571528625, -1.5958878561999064, 0.10200423137990448, 2.9748410389916877, 0.04701044410467148, 0.08744107186794281, 0.02411603182554245, -0.9944890141487122, -0.10182743519544601, 0.02495848760008812, -0.016222715377807617, 0.023748211562633514, -0.049631718546152115, -0.7154716417650959, 0.024074337478786206, -0.09443924378738469,-0.6918106938187342,-0.919464111328125,-0.2715301513671875,0.1968994140625
20220112-1408,2022-01-12 14:08:34Z,u01, 202,40,movements,el-ex, rt, d,95069.601455625, -1.595630042835242, 0.10211483381202544, 2.97202195898681, -0.22099505364894867, -0.07318456470966339, 0.041072115302085876, -0.9944842457771301, -0.10193745791912079, 0.024701818823814392, 0.021629512310028076, -0.042486995458602905, 0.057039856910705566, -0.7153490843362389, 0.025031909897875463, -0.09545675394049594,-0.6917638908651886,-0.9284515380859375,-0.249298095703125,0.2004241943359375
20220112-1408,2022-01-12 14:08:34Z,u01, 203,40,movements,el-ex, rt, d,95069.631383625, -1.594502529153571, 0.09971482244173478, 2.968742074180115, 0.03025210276246071, 0.10565149039030075, 0.0842137262225151, -0.9947530031204224, -0.09954965859651566, 0.02358623407781124, -0.02982884645462036, -0.00024282187223434448, -0.023051980882883072, -0.7148879201756956, 0.026988498803305172, -0.0957552344818711,-0.692125586325094,-0.9727783203125,-0.240966796875,0.17156982421875
20220112-1408,2022-01-12 14:08:34Z,u01, 204,40,movements,el-ex, rt, d,95069.661310625, -1.5924886139474912, 0.09717405523331835, 2.971179031815227, 0.025505317375063896, -0.0010679597035050392, 0.07218189537525177, -0.9950482845306396, -0.0970211923122406, 0.02158825844526291, 0.0611950159072876, 0.069341741502285, -0.05579817295074463, -0.7141918442957008, 0.02690983104263977, -0.09403820567483771,-0.6930820949477562,-0.94256591796875,-0.2331390380859375,0.148956298828125
20220112-1408,2022-01-12 14:08:34Z,u01, 205,40,movements,el-ex, rt, d,95069.69123762501, -1.5932229756011889, 0.09641733133072855, 2.968038302962678, -0.18128806352615356, -0.04311341419816017, 0.027993928641080856, -0.9951053261756897, -0.09626801311969757, 0.022320620715618134, 0.015826642513275146, -0.04391449689865112, 0.04349076747894287, -0.7143932290690205, 0.028330626984788658, -0.09484810667835387,-0.6927075264707434,-0.958282470703125,-0.2869415283203125,0.192535400390625
20220112-1408,2022-01-12 14:08:34Z,u01, 206,40,movements,el-ex, rt, d,95069.721164625, -1.592740636860614, 0.09628482628532681, 2.9674870618721374, 0.11998045444488525, 0.043488919734954834, 0.011315949261188507, -0.9951285719871521, -0.09613612294197083, 0.021840915083885193, 0.0107840895652771, 0.051473647356033325, -0.031728386878967285, -0.7142165668168052, 0.028550896055376154, -0.0949989598127052,-0.6928598480073594,-0.9780426025390625,-0.221038818359375,0.18865966796875
20220112-1408,2022-01-12 14:08:34Z,u01, 207,40,movements,el-ex, rt, d,95069.75109091667, -1.592420639909357, 0.09579320229480721, 2.9693751319494512, -0.04338233545422554, -0.060795873403549194, -0.03857511281967163, -0.9951828718185425, -0.09564676135778427, 0.021523501724004745, 0.06136000156402588, 0.042210452258586884, -0.049187421798706055, -0.7141259556337289, 0.028033373021518194, -0.09417518990969995,-0.6930869606907981,-0.9770355224609375,-0.1896514892578125,0.123321533203125
20220112-1408,2022-01-12 14:08:34Z,u01, 208,40,movements,el-ex, rt, d,95069.78101791667, -1.5955311866168522, 0.09866122147341763, 2.967550521605775, -0.03627698868513107, -0.06861084699630737, -0.08976339548826218, -0.9948328137397766, -0.09850123524665833, 0.024612069129943848, 0.00679546594619751, -0.04982948303222656, 0.05265868082642555, -0.715214262067039, 0.027831533618322732, -0.09577987193937121,-0.6917517378078718,-0.918670654296875,-0.23602294921875,0.128173828125
20220112-1408,2022-01-12 14:08:34Z,u01, 209,40,movements,el-ex, rt, d,95069.81094491667, -1.596990026317148, 0.10056994930101791, 2.9688132516920946, 0.11716506630182266, -0.10314479470252991, -0.09778983145952225, -0.994606077671051, -0.10040049999952316, 0.026058372110128403, 0.08324414491653442, 0.07323982566595078, -0.06814193725585938, -0.7157596017064861, 0.026783932426366334, -0.09600046978845811,-0.6911982363130131,-0.9676361083984375,-0.2768402099609375,0.152069091796875
20220112-1408,2022-01-12 14:08:34Z,u01, 210,40,movements,el-ex, rt, d,95069.84087191668, -1.6012997818889878, 0.10307868095068244, 2.96934223590064, -0.12912607192993164, -0.20179733633995056, -0.13339869678020477, -0.9942296147346497, -0.10289623588323593, 0.03033684939146042, 0.06972986459732056, -0.019662387669086456, 0.007352594286203384, -0.7172838749924135, 0.025928113872485503, -0.09665218951503417,-0.6895579672000924,-0.9641265869140625,-0.2120819091796875,0.142059326171875
20220112-1408,2022-01-12 14:08:34Z,u01, 211,40,movements,el-ex, rt, d,95069.87079891667, -1.6078120044780362, 0.1090368713302312, 2.9656867357460053, -0.007133586332201958, -0.2029869556427002, -0.23410212993621826, -0.9933804869651794, -0.10882094502449036, 0.036787454038858414, 0.05864226818084717, 0.016688361763954163, -0.011533860117197037, -0.7195442403637452, 0.02549144777896806, -0.09994737972358564,-0.6867436617967992,-0.9471588134765625,-0.134490966796875,0.095123291015625
20220112-1408,2022-01-12 14:08:34Z,u01, 212,40,movements,el-ex, rt, d,95069.90072591667, -1.614472591460987, 0.11652940705645567, 2.9695811189463694, 0.1435147225856781, -0.2486392855644226, -0.30681028962135315, -0.9922712445259094, -0.11626585572957993, 0.04336627945303917, 0.11820179224014282, 0.04001764953136444, -0.050812240689992905, -0.7219464321783691, 0.021828632058137936, -0.10120860488191481,-0.6841593125890832,-0.88543701171875,-0.181549072265625,0.0775909423828125
20220112-1408,2022-01-12 14:08:34Z,u01, 213,40,movements,el-ex, rt, d,95069.93065291668, -1.6251184014393434, 0.12614018280359734, 2.9696616506925833, -0.1068456694483757, -0.43483617901802063, -0.34911900758743286, -0.9905915856361389, -0.12580594420433044, 0.05386398360133171, 0.13896799087524414, -0.05227939784526825, 0.005035277456045151, -0.7256512356955538, 0.019033523968094882, -0.10451603361204581,-0.679812080676632,-0.94354248046875,-0.26043701171875,0.14227294921875
20220112-1408,2022-01-12 14:08:34Z,u01, 214,40,movements,el-ex, rt, d,95069.96057991667, -1.6388652475890544, 0.1354877606410924, 2.975337562209549, 0.6002430319786072, -0.4246841371059418, -0.2987300455570221, -0.9885411262512207, -0.13507361710071564, 0.06739304959774017, 0.13514745235443115, 0.03712743520736694, -0.045252323150634766, -0.730401692902165, 0.014487588362164638, -0.10584627327614873,-0.674611130624243,-0.9592132568359375,-0.19720458984375,0.1317901611328125
20220112-1408,2022-01-12 14:08:35Z,u01, 215,40,movements,el-ex, rt, d,95069.99050691667, -1.6569069793222126, 0.14229556112410197, 2.9989443598543954, 0.6746333837509155, -0.6271070837974548, -0.288968563079834, -0.986225426197052, -0.14181584119796753, 0.08513505011796951, 0.15962618589401245, 0.061890289187431335, -0.04430222511291504, -0.7365784113916174, 0.004446125413710013, -0.10030398799272468,-0.6688585437098512,-0.921539306640625,-0.11419677734375,0.071929931640625
20220112-1408,2022-01-12 14:08:35Z,u01, 216,40,movements,el-ex, rt, d,95070.02043391667, -1.677974126791495, 0.14962153347807183, 3.0090172754927114, -0.027860302478075027, -0.6524582505226135, -0.2808648645877838, -0.9831538200378418, -0.14906390011310577, 0.10577759891748428, 0.06632936000823975, 0.00416642427444458, -0.018878579139709473, -0.7435646050735712, -0.000691611609553295, -0.09962101151374186,-0.6612012074636193,-0.8824310302734375,-0.16693115234375,0.03485107421875
20220112-1408,2022-01-12 14:08:35Z,u01, 217,40,movements,el-ex, rt, d,95070.05036091668, -1.698770676045409, 0.15976732215908154, 3.0116262363467032, 0.2106689065694809, -0.7007770538330078, -0.39280280470848083, -0.9791910648345947, -0.15908849239349365, 0.12599994242191315, 0.11052334308624268, 0.008514747023582458, -0.02675652503967285, -0.750322648515135, -0.003986999007141202, -0.10254322700265883,-0.6530582322305597,-0.948822021484375,-0.2508392333984375,0.12371826171875
20220112-1408,2022-01-12 14:08:35Z,u01, 218,40,movements,el-ex, rt, d,95070.08028791667, -1.7221855099005314, 0.17006019467834643, 3.0186405090526414, 0.04299502819776535, -0.7490280866622925, -0.32144224643707275, -0.9743022918701172, -0.16924168169498444, 0.1486360877752304, 0.03951823711395264, -0.04633450508117676, 0.093505859375, -0.7577866476324794, -0.008799837889440155, -0.1041891177409218,-0.6440704564981123,-0.97393798828125,-0.160400390625,0.0696868896484375
20220112-1408,2022-01-12 14:08:35Z,u01, 219,40,movements,el-ex, rt, d,95070.11021491667, -1.7400025356319846, 0.1794743595461905, 3.0174998970701203, -0.09082811325788498, -0.4838314652442932, -0.32310476899147034, -0.9698858857154846, -0.17851239442825317, 0.16569507122039795, 0.00023555755615234375, 0.06591777503490448, -0.011245369911193848, -0.7633726779831281, -0.010473222133748347, -0.10818752031772244,-0.6367479980288016,-0.92938232421875,-0.084503173828125,0.0429229736328125
20220112-1408,2022-01-12 14:08:35Z,u01, 220,40,movements,el-ex, rt, d,95070.14014191668, -1.756233091804132, 0.1906788351638521, 3.0199235468595975, 0.07822099328041077, -0.5586124658584595, -0.42766281962394714, -0.9650424718856812, -0.18952547013759613, 0.18103419244289398, 0.06991606950759888, -0.02534879744052887, -0.006900683045387268, -0.7683216213347102, -0.01410612827295871, -0.11176941717446227,-0.6300719245648937,-0.9281768798828125,-0.1678009033203125,0.0504608154296875
20220112-1408,2022-01-12 14:08:35Z,u01, 221,40,movements,el-ex, rt, d,95070.17006891668, -1.7702388890305931, 0.2026920017127936, 3.021531301278008, -0.22710813581943512, -0.4045966863632202, -0.3543890416622162, -0.9601114392280579, -0.20130695402622223, 0.1940670907497406, -0.004854559898376465, 0.046720102429389954, 0.1048528254032135, -0.7724755612392679, -0.017749774349994196, -0.11595909241931221,-0.6241155019119745,-0.9953155517578125,-0.21148681640625,0.07135009765625
20220112-1408,2022-01-12 14:08:35Z,u01, 222,40,movements,el-ex, rt, d,95070.19999591667, -1.7793748320103633, 0.21444419049183014, 3.017049206003455, -0.15192869305610657, -0.2620137333869934, -0.3688228726387024, -0.9559178352355957, -0.21280437707901, 0.20232652127742767, -0.0284421443939209, 0.09796667098999023, 0.010152488946914673, -0.7751098087821998, -0.019184569335667666, -0.12193683607190342,-0.6196518359911491,-0.977752685546875,-0.1177520751953125,0.0391693115234375
20220112-1408,2022-01-12 14:08:35Z,u01, 223,40,movements,el-ex, rt, d,95070.22992291667, -1.78818773227566, 0.22569711086050273, 3.0177563184789817, 0.03916896507143974, -0.27316972613334656, -0.3731755316257477, -0.9516987800598145, -0.22378584742546082, 0.21021310985088348, -0.023978769779205322, -0.023391306400299072, -0.003990292549133301, -0.777562005451565, -0.02244730556994442, -0.12613009864436367,-0.6156173719641432,-0.946044921875,-0.123992919921875,0.0307159423828125
20220112-1408,2022-01-12 14:08:35Z,u01, 224,40,movements,el-ex, rt, d,95070.25984991668, -1.7948870517345683, 0.23571836381714514, 3.0199554465901626, -0.0946546122431755, -0.20299382507801056, -0.30640289187431335, -0.9480351209640503, -0.2335415482521057, 0.2160748988389969, -0.007531523704528809, 0.05016136169433594, -0.02878829836845398, -0.7793337288577592, -0.026007482228062446, -0.1293923554844539,-0.61255238853403,-0.952728271484375,-0.1633453369140625,0.062042236328125
20220112-1408,2022-01-12 14:08:35Z,u01, 225,40,movements,el-ex, rt, d,95070.28977691667, -1.8024090203672254, 0.2453962229979334, 3.0182014836393134, -0.17861217260360718, -0.29442480206489563, -0.28822270035743713, -0.9441388845443726, -0.24294069409370422, 0.2226705551147461, -0.006666958332061768, 0.010717123746871948, -0.0011431872844696045, -0.7813835498562358, -0.027839223719934733, -0.13376110966654078,-0.6089112863061211,-0.9584808349609375,-0.1149444580078125,0.0570220947265625
20220112-1408,2022-01-12 14:08:35Z,u01, 226,40,movements,el-ex, rt, d,95070.31970391667, -1.8103726767330315, 0.25394232790846705, 3.0144520333324905, -0.14123180508613586, -0.2976025342941284, -0.18843677639961243, -0.9402843713760376, -0.25122180581092834, 0.229681134223938, -0.03153282403945923, -0.07911577820777893, 0.012720257043838501, -0.7836004430936099, -0.02847646888331993, -0.1383135263505544,-0.6050033160108335,-0.930084228515625,-0.1056060791015625,0.062896728515625
20220112-1408,2022-01-12 14:08:35Z,u01, 227,40,movements,el-ex, rt, d,95070.34963091667, -1.8182456941530476, 0.25995147788708706, 3.0110155166113013, -0.16282442212104797, -0.27068591117858887, -0.16431298851966858, -0.9369664788246155, -0.25703364610671997, 0.2367027997970581, -0.04597443342208862, 0.03988578915596008, -0.015861958265304565, -0.7858391965621528, -0.02842804725320943, -0.14178911792241533,-0.6012858882389098,-0.96807861328125,-0.1686553955078125,0.098236083984375
20220112-1408,2022-01-12 14:08:35Z,u01, 228,40,movements,el-ex, rt, d,95070.37955791668, -1.824561093866742, 0.2658151406087918, 3.0094993041141906, -0.06167622283101082, -0.2250065803527832, -0.16206182539463043, -0.9339779615402222, -0.26269587874412537, 0.2422328144311905, -0.031384825706481934, 0.009720325469970703, -0.015379995107650757, -0.7875690849465808, -0.029177802464955414, -0.14461034740486006,-0.598307381455297,-0.9656982421875,-0.0513458251953125,0.0188446044921875
20220112-1408,2022-01-12 14:08:35Z,u01, 229,40,movements,el-ex, rt, d,95070.40948491667, -1.830713855752842, 0.27089906284502485, 3.0074798831417184, -0.20367129147052765, -0.1932387351989746, -0.1554531306028366, -0.9311670064926147, -0.26759782433509827, 0.24762824177742004, -0.06256169080734253, -0.012034744024276733, 0.0019752830266952515, -0.7892684683959845, -0.029485742350449647, -0.14727974590089873,-0.5953945471603106,-0.9090576171875,-0.0581207275390625,0.0485992431640625
20220112-1408,2022-01-12 14:08:35Z,u01, 230,40,movements,el-ex, rt, d,95070.43941191667, -1.8344285840600205, 0.27674951335248743, 3.004143810565954, -0.07881446182727814, -0.13093574345111847, -0.18615704774856567, -0.9287132024765015, -0.27323028445243835, 0.2506732940673828, -0.043180108070373535, 0.026098936796188354, 0.00034925341606140137, -0.7902253687576508, -0.029673330517387863, -0.1506032792154144,-0.5932807665019828,-0.9948272705078125,-0.2492218017578125,0.1250762939453125
20220112-1408,2022-01-12 14:08:35Z,u01, 231,40,movements,el-ex, rt, d,95070.46933891668, -1.837777760872838, 0.2823483873549306, 3.005672748463438, 0.062361836433410645, -0.0811825692653656, -0.20222815871238708, -0.9263783097267151, -0.27861180901527405, 0.25337472558021545, -0.024366259574890137, 0.015992820262908936, -0.02881091833114624, -0.7909999256292255, -0.03172498143743947, -0.1523826742949332,-0.591685875273292,-0.9911651611328125,-0.063140869140625,0.0397796630859375
20220112-1408,2022-01-12 14:08:35Z,u01, 232,40,movements,el-ex, rt, d,95070.49926591667, -1.841587214913021, 0.28763760546588873, 3.007777874992179, -0.05296948552131653, -0.11207722872495651, -0.17252472043037415, -0.9239737391471863, -0.28368768095970154, 0.2565041482448578, -0.02739661931991577, 0.00956350564956665, -0.017566442489624023, -0.7918995884476229, -0.0338691211477549, -0.15388566613745303,-0.5899723178768218,-0.9148712158203125,-0.0544281005859375,0.012664794921875
20220112-1408,2022-01-12 14:08:35Z,u01, 233,40,movements,el-ex, rt, d,95070.52919291667, -1.8433191117432164, 0.2915547434716306, 3.0057515481815216, -0.11876223981380463, -0.06629063934087753, -0.11239194869995117, -0.9224506616592407, -0.2874417006969452, 0.2578028738498688, -0.03891414403915405, -0.021258890628814697, 0.003504157066345215, -0.7922988454539048, -0.034117137848062584, -0.15604062852701509,-0.5888548276800244,-0.9300994873046875,-0.16290283203125,0.0994873046875
20220112-1408,2022-01-12 14:08:35Z,u01, 234,40,movements,el-ex, rt, d,95070.55911991667, -1.8451529352050877, 0.294385343977559, 3.005610907972975, -0.010750425048172474, -0.08359692245721817, -0.1256885677576065, -0.9211896061897278, -0.2901516854763031, 0.25927260518074036, -0.02343648672103882, -0.020074814558029175, -0.0028941333293914795, -0.7927339735756586, -0.03477288740282346, -0.15721828562080584,-0.5879169309272402,-0.966522216796875,-0.093292236328125,0.0676727294921875
20220112-1408,2022-01-12 14:08:35Z,u01, 235,40,movements,el-ex, rt, d,95070.58904691668, -1.8468046632528483, 0.2960965000092141, 3.006601782607409, 0.03785402700304985, -0.04074579477310181, -0.059210412204265594, -0.9202810525894165, -0.29178881645202637, 0.2606581449508667, -0.03902387619018555, -0.026723206043243408, -0.019157052040100098, -0.7931362563039731, -0.03555202309279124, -0.15762435883237882,-0.5872186351958677,-0.904144287109375,-0.0366363525390625,0.008148193359375
20220112-1408,2022-01-12 14:08:35Z,u01, 236,40,movements,el-ex, rt, d,95070.61897491667, -1.8474502930964543, 0.2979867271477973, 3.007060002715864, -0.055702753365039825, -0.0311252623796463, -0.07390879839658737, -0.9195801615715027, -0.2935962677001953, 0.2611010670661926, -0.024145424365997314, 0.011522263288497925, -0.018760710954666138, -0.7932441537162694, -0.03625261932362617, -0.15823975283614483,-0.5868643311802245,-0.9578399658203125,-0.1499481201171875,0.031097412109375
20220112-1408,2022-01-12 14:08:35Z,u01, 237,40,movements,el-ex, rt, d,95070.64890191668, -1.8487520477555524, 0.3010643522644344, 3.006667220355325, 0.029289070516824722, -0.03400340676307678, -0.07745832204818726, -0.9183663129806519, -0.2965368628501892, 0.26204875111579895, -0.037215471267700195, -0.0005518198013305664, 0.03139328956604004, -0.7935119735609498, -0.03692052669869256, -0.15958097992254555,-0.5860969609994814,-0.9720306396484375,-0.122894287109375,0.0444488525390625
20220112-1408,2022-01-12 14:08:35Z,u01, 238,40,movements,el-ex, rt, d,95070.67882891667, -1.8491168674389467, 0.3039655065789497, 3.0079559782055534, 0.0073133306577801704, 0.008062021806836128, -0.11664647608995438, -0.9174396395683289, -0.2993062734603882, 0.26214635372161865, -0.04578673839569092, 0.0017903447151184082, 0.0153656005859375, -0.7934784894106822, -0.03827606617880578, -0.16034361159851204,-0.5858472061835955,-0.9762725830078125,-0.1255950927734375,0.0277252197265625
20220112-1408,2022-01-12 14:08:35Z,u01, 239,40,movements,el-ex, rt, d,95070.70875591667, -1.8485143781833542, 0.306297128939928, 3.0105616001419415, 0.08382285386323929, 0.04652226343750954, -0.1256440281867981, -0.9169235825538635, -0.3015301823616028, 0.2614014446735382, -0.0324476957321167, 0.04763922095298767, -0.030810415744781494, -0.7931556796283061, -0.040059794083646, -0.16047913260144764,-0.58612774760193,-0.9946136474609375,-0.054534912109375,0.0333404541015625
20220112-1408,2022-01-12 14:08:35Z,u01, 240,40,movements,el-ex, rt, d,95070.7386835, -1.8487891455397303, 0.30874529138726253, 3.013367161287601, -0.0026152003556489944, 0.010626647621393204, -0.11265280097723007, -0.9161392450332642, -0.3038634955883026, 0.26145005226135254, -0.00344693660736084, 0.007675141096115112, -0.016073137521743774, -0.7930765976148992, -0.04188711736598877, -0.1606188026164294,-0.5860688393246661,-1.0199737548828125,-0.0773468017578125,-0.014495849609375
20220112-1408,2022-01-12 14:08:35Z,u01, 241,40,movements,el-ex, rt, d,95070.7686105, -1.8488782543091198, 0.3110595739611275, 3.013719068949488, -0.013120638206601143, -0.00837780348956585, -0.11880510300397873, -0.9154372215270996, -0.3060675263404846, 0.26133790612220764, -0.01820230484008789, 0.003211081027984619, -0.00294533371925354, -0.7929970466085973, -0.04271579045519863, -0.16142147507929236,-0.5858960625080085,-0.9586639404296875,-0.0794525146484375,-0.00390625
20220112-1408,2022-01-12 14:08:35Z,u01, 242,40,movements,el-ex, rt, d,95070.7985375, -1.8486517153999102, 0.3104770137915157, 3.0163645518762445, 0.15324373543262482, 0.00965505838394165, -0.04679235816001892, -0.9156680107116699, -0.3055128753185272, 0.26117947697639465, -0.017666637897491455, -0.01684439182281494, 0.006566941738128662, -0.792898554438936, -0.043607609362033076, -0.16041382533029738,-0.5862405470226838,-1.0539703369140625,-0.2306976318359375,0.07525634765625
20220112-1408,2022-01-12 14:08:35Z,u01, 243,40,movements,el-ex, rt, d,95070.82846450001, -1.8488736021695054, 0.31099635334928344, 3.019023673359156, -0.006980620324611664, 0.019088905304670334, -0.04010103642940521, -0.9154571294784546, -0.30600735545158386, 0.261339008808136, -0.031747519969940186, -0.010520994663238525, -0.003327876329421997, -0.7928823583257836, -0.04480026074665748, -0.15984212658005875,-0.5863285187269711,-0.9741973876953125,-0.0263214111328125,-0.044769287109375
20220112-1408,2022-01-12 14:08:35Z,u01, 244,40,movements,el-ex, rt, d,95070.8583915, -1.8482099426808032, 0.31118215935759586, 3.0197626752837783, 0.011203276924788952, 0.04501897096633911, -0.02599646896123886, -0.9155758619308472, -0.30618423223495483, 0.26071587204933167, -0.013120114803314209, -0.01615777611732483, 0.0028495192527770996, -0.7926630471940338, -0.045202086649402534, -0.1596830746949923,-0.5866376073284224,-0.9387664794921875,-0.0682830810546875,-0.013031005859375
20220112-1408,2022-01-12 14:08:35Z,u01, 245,40,movements,el-ex, rt, d,95070.8883185, -1.8475356201814457, 0.31191895597629815, 3.0206362453665943, 0.0556199736893177, 0.035866957157850266, -0.029746796935796738, -0.9155341386795044, -0.30688557028770447, 0.2600366771221161, 0.001212000846862793, -0.010527849197387695, 0.0031776726245880127, -0.7924130977303211, -0.04582380312095327, -0.15969922612538331,-0.5869225077670145,-0.979278564453125,-0.1401824951171875,0.0658111572265625
20220112-1408,2022-01-12 14:08:35Z,u01, 246,40,movements,el-ex, rt, d,95070.91824550001, -1.8467729286719434, 0.31224987270455573, 3.0228604579274, 0.08080682158470154, 0.034364666789770126, -0.02676326036453247, -0.9156343340873718, -0.30720049142837524, 0.25931063294410706, -0.01274096965789795, 0.011851340532302856, 0.0006230771541595459, -0.7921230671747185, -0.04686529615545158, -0.15915781151209168,-0.5873786012807922,-0.994842529296875,-0.0644683837890625,0.0062103271484375
20220112-1408,2022-01-12 14:08:35Z,u01, 247,40,movements,el-ex, rt, d,95070.94817250001, -1.8455395801794507, 0.31271972742694, 3.0247052087157744, 0.00923889596015215, 0.07351553440093994, -0.02494911476969719, -0.9158143997192383, -0.30764758586883545, 0.2581419348716736, -0.039263784885406494, -0.02589431405067444, 0.005438685417175293, -0.7916961277082823, -0.04783525743628432, -0.1587699943645608,-0.5879806682282837,-0.944091796875,-0.041015625,-0.0361785888671875
20220112-1408,2022-01-12 14:08:35Z,u01, 248,40,movements,el-ex, rt, d,95070.9780995, -1.8432857850448445, 0.31373644103799153, 3.024501822826908, -0.016878224909305573, 0.08652953058481216, -0.03569450229406357, -0.9160923361778259, -0.3086148500442505, 0.25599294900894165, -0.0273129940032959, 0.0001278221607208252, 0.021213799715042114, -0.7909926319759341, -0.04824041867042117, -0.15917237544217208,-0.5887851528454416,-0.941162109375,-0.09552001953125,0.039520263671875
