SessionID,LoggingTime,UID,RecNo,Hertz,Activity,MoveType,Wrist,Side,TimeStamp,DMRoll,DMPitch,DMYaw,DMRotX,DMRotY,DMRotZ,DMGrvX,DMGrvY,DMGrvZ,DMUAccelX,DMUAccelY,DMUAccelZ,DMQuatX,DMQuatY,DMQuatW,DMQuatZ,AccelroX,AceelroY,AceelroZ
20220111-1114,2022-01-11 11:14:38Z,u01, 1,40,movements,el-ex, rt, d,75405.41558954168, -1.6003443847034609, 0.030563073348300912, 3.1119194411734448, 0.2687327265739441, -0.14143061637878418, -0.3134607672691345, -0.9990966320037842, -0.03055831603705883, 0.029529958963394165, 0.06818848848342896, -0.10664871335029602, -0.028049947693943977, -0.7174712395305706, 0.0, -0.02129584694014064,-0.6962624814718168,-0.9337921142578125,-0.16363525390625,0.027130126953125
20220111-1114,2022-01-11 11:14:38Z,u01, 2,40,movements,el-ex, rt, d,75405.44053254167, -1.606003499360005, 0.04003730385865151, 3.123080986618892, 0.47266632318496704, -0.32994768023490906, -0.4723176658153534, -0.9985793828964233, -0.04002660885453224, 0.035171691328287125, 0.20205539464950562, 0.08133211731910706, -0.1325075626373291, -0.7193979135832119, -0.007244809205947389, -0.020827985730370757,-0.6942480426501525,-0.842010498046875,0.017181396484375,-0.0915985107421875
20220111-1114,2022-01-11 11:14:38Z,u01, 3,40,movements,el-ex, rt, d,75405.46547654168, -1.619493962487583, 0.05225438410784712, 3.1294858480089305, -0.13478809595108032, -0.6805933713912964, -0.5173917412757874, -0.99745112657547, -0.052230607718229294, 0.048611946403980255, 0.17420899868011475, -0.1054995059967041, 0.051378846168518066, -0.7239613616255944, -0.01363524233622615, -0.02309000326926902,-0.6893191260555903,-0.7925567626953125,-0.0832061767578125,0.0155181884765625
20220111-1114,2022-01-11 11:14:38Z,u01, 4,40,movements,el-ex, rt, d,75405.49042054167, -1.6347866897335666, 0.06468974921463444, 3.1289295819675664, 0.3807586431503296, -0.49290144443511963, -0.4492296576499939, -0.9958658814430237, -0.06464464217424393, 0.06381294131278992, 0.05499374866485596, 0.06980213522911072, -0.023789167404174805, -0.7291090035724961, -0.017508072748112835, -0.027915900833674123,-0.6836038199459424,-0.9850921630859375,-0.1713409423828125,0.1084136962890625
20220111-1114,2022-01-11 11:14:38Z,u01, 5,40,movements,el-ex, rt, d,75405.51536454167, -1.6482829971226536, 0.07497432993011795, -3.1401953794378765, 0.28836745023727417, -0.6846837401390076, -0.4419872760772705, -0.9941986203193665, -0.07490410655736923, 0.07719169557094574, 0.2522704601287842, 0.21690240502357483, -0.09502934664487839, -0.7334313522812785, -0.025967253135151858, -0.027033642383606837,-0.6787292321015534,-0.80511474609375,0.14410400390625,0.0041046142578125
20220111-1114,2022-01-11 11:14:38Z,u01, 6,40,movements,el-ex, rt, d,75405.54030754167, -1.6715861019897371, 0.08802201158206466, 3.139849673786608, -0.40331122279167175, -1.0298963785171509, -0.6160704493522644, -0.9910731911659241, -0.08790839463472366, 0.1002296730875969, 0.010741829872131348, -0.14635977149009705, 0.07472753524780273, -0.7411356533656019, -0.028857914118769368, -0.03322191633994043,-0.6699115221105405,-0.7989501953125,-0.15130615234375,0.1474456787109375
20220111-1114,2022-01-11 11:14:38Z,u01, 7,40,movements,el-ex, rt, d,75405.56525154167, -1.6938020873476298, 0.10351870820003206, -3.14033339693729, 0.7430201172828674, -0.7821037769317627, -0.4767248034477234, -0.9871314764022827, -0.10333392024040222, 0.12203898280858994, 0.09563672542572021, -0.08975076675415039, -0.0826408863067627, -0.7482064362632888, -0.034736436880949406, -0.03834597037903498,-0.6614454610991132,-1.2784881591796875,-0.1752777099609375,0.180511474609375
20220111-1114,2022-01-11 11:14:38Z,u01, 8,40,movements,el-ex, rt, d,75405.59019554168, -1.7113013408556517, 0.1186029975903712, -3.116380956958738, 0.6701364517211914, -0.6972908973693848, -0.754433810710907, -0.9831895232200623, -0.1183251366019249, 0.13905934989452362, 0.21902942657470703, 0.2235192060470581, -0.1859954595565796, -0.7531208218549781, -0.04836014764661872, -0.03649145414425259,-0.655086781979618,-0.8619232177734375,0.0997161865234375,-0.0683441162109375
20220111-1114,2022-01-11 11:14:38Z,u01, 9,40,movements,el-ex, rt, d,75405.61513954167, -1.7347958890961908, 0.13596685539483738, -3.115368635140873, -0.4928208291530609, -1.0284723043441772, -0.6333050727844238, -0.9774765968322754, -0.13554830849170685, 0.16175855696201324, 0.12492245435714722, -0.14741067588329315, 0.2103574126958847, -0.7602452488081135, -0.053911403395343616, -0.04334189708737929,-0.6459427801110339,-0.764404296875,-0.1585845947265625,0.29534912109375
20220111-1114,2022-01-11 11:14:38Z,u01, 10,40,movements,el-ex, rt, d,75405.64008254166, -1.7528292925846003, 0.14838735137647843, -3.1151245581675435, 0.30785828828811646, -0.4413246512413025, -0.35730600357055664, -0.9726701378822327, -0.1478434056043625, 0.17903997004032135, -0.09182882308959961, -0.04374594986438751, 0.026099100708961487, -0.7656406199431184, -0.05757103070206199, -0.04851174831681854,-0.6388479372459992,-1.151397705078125,-0.3819427490234375,0.324676513671875
20220111-1114,2022-01-11 11:14:38Z,u01, 11,40,movements,el-ex, rt, d,75405.66502654167, -1.7664373368508495, 0.15715766312909016, -3.1061102186402185, 0.08225873857736588, -0.6415830850601196, -0.5063563585281372, -0.9688344597816467, -0.15651153028011322, 0.1919996440410614, 0.1935049295425415, 0.24136565625667572, -0.20580889284610748, -0.7693959892329045, -0.0634793860654353, -0.04942814569892834,-0.6336852418067516,-0.8214263916015625,0.040618896484375,0.0144500732421875
20220111-1114,2022-01-11 11:14:38Z,u01, 12,40,movements,el-ex, rt, d,75405.68997054167, -1.78526604591872, 0.17181414059546649, -3.109018022066373, -0.5830354690551758, -0.8812272548675537, -0.5255770683288574, -0.9627028107643127, -0.17097005248069763, 0.20969565212726593, 0.0747634768486023, -0.06364904344081879, 0.1789761632680893, -0.7748749638514958, -0.06645760721293814, -0.0566270475349252,-0.6260554637019649,-0.7794036865234375,0.015228271484375,0.1392364501953125
20220111-1114,2022-01-11 11:14:38Z,u01, 13,40,movements,el-ex, rt, d,75405.71491354167, -1.8011004952261167, 0.1863427232434544, -3.112889001340089, 0.11441537737846375, -0.3417105972766876, -0.5086945295333862, -0.9567422270774841, -0.1852661818265915, 0.22432182729244232, -0.24384957551956177, -0.3047240376472473, 0.14472706615924835, -0.7793600441622316, -0.06898433667762627, -0.0640263249793514,-0.6194671417615099,-1.1640625,-0.4938201904296875,0.41827392578125
20220111-1114,2022-01-11 11:14:38Z,u01, 14,40,movements,el-ex, rt, d,75405.73985754167, -1.810532353962312, 0.1968311663958686, -3.101360384692379, 0.3329504132270813, -0.33854082226753235, -0.5919790267944336, -0.9526441097259521, -0.1955626755952835, 0.23286141455173492, 0.15657782554626465, 0.2579100728034973, -0.14873981475830078, -0.7814045437632369, -0.07640446949671725, -0.06491183188686245,-0.6159186136416164,-0.918609619140625,-0.0815277099609375,0.1624298095703125
20220111-1114,2022-01-11 11:14:38Z,u01, 15,40,movements,el-ex, rt, d,75405.76480154168, -1.8237921656748233, 0.2109394928029385, -3.0957756142361914, -0.02585941180586815, -0.5878329277038574, -0.5702923536300659, -0.9467070698738098, -0.2093786597251892, 0.24475742876529694, 0.1744750738143921, 0.1904425323009491, -0.1516636610031128, -0.7845897479400369, -0.08244780649901184, -0.06926845858212827,-0.6105924467563572,-0.7523345947265625,0.0529327392578125,0.0804290771484375
20220111-1114,2022-01-11 11:14:38Z,u01, 16,40,movements,el-ex, rt, d,75405.78974554167, -1.8389652179731615, 0.22500007820155668, -3.095969091149298, -0.3740476071834564, -0.6410426497459412, -0.4971156120300293, -0.939952552318573, -0.22310644388198853, 0.2582874596118927, 0.011745274066925049, -0.12303915619850159, 0.16592201590538025, -0.788502691849123, -0.08606530017869235, -0.07551750500785054,-0.6042791124028019,-0.8862762451171875,-0.244384765625,0.2359619140625
20220111-1114,2022-01-11 11:14:38Z,u01, 17,40,movements,el-ex, rt, d,75405.81468854166, -1.852728162459541, 0.23757734714750925, -3.0982899466302203, -0.045584481209516525, -0.3878861963748932, -0.4474326968193054, -0.9335398077964783, -0.23534871637821198, 0.2703970670700073, -0.18943089246749878, -0.11302471160888672, 0.12082293629646301, -0.7920798734293271, -0.08836292446735133, -0.08180487596423108,-0.5984225029015466,-1.08001708984375,-0.4262847900390625,0.4441375732421875
20220111-1114,2022-01-11 11:14:38Z,u01, 18,40,movements,el-ex, rt, d,75405.83963254167, -1.862729883901104, 0.24851146499986845, -3.089978876438964, 0.29538461565971375, -0.3349795341491699, -0.6121374368667603, -0.9282686114311218, -0.24596142768859863, 0.2789630591869354, 0.1087648868560791, 0.22707107663154602, -0.2270679473876953, -0.7940750382139885, -0.09447941104599, -0.08413812696390777,-0.5945075844169996,-0.937957763671875,-0.0478515625,0.1162109375
20220111-1114,2022-01-11 11:14:38Z,u01, 19,40,movements,el-ex, rt, d,75405.86457654167, -1.8752789060321784, 0.26329492370262936, -3.080890512957876, -0.21301116049289703, -0.5250262022018433, -0.6270538568496704, -0.921125054359436, -0.2602633237838745, 0.28946778178215027, 0.18464434146881104, 0.1055850088596344, -0.12009537220001221, -0.7964627977845748, -0.10188674272526138, -0.087973994061122,-0.5895139140721768,-0.7435302734375,-0.11895751953125,0.0719146728515625
20220111-1114,2022-01-11 11:14:38Z,u01, 20,40,movements,el-ex, rt, d,75405.88952054168, -1.888367865522141, 0.2794666282915421, -3.082559797848692, -0.03865490108728409, -0.3557969033718109, -0.6665928959846497, -0.9131391644477844, -0.2758430242538452, 0.30014556646347046, -0.2151566743850708, -0.2619224786758423, 0.14457178115844727, -0.7993637870493899, -0.10531060376457657, -0.0956321175071109,-0.5837650809817072,-0.93634033203125,-0.537933349609375,0.5672454833984375
20220111-1114,2022-01-11 11:14:38Z,u01, 21,40,movements,el-ex, rt, d,75405.91446354167, -1.8956009700179977, 0.29189214682808556, -3.075422755380021, 0.27275609970092773, -0.18011590838432312, -0.5351999998092651, -0.9076257348060608, -0.28776484727859497, 0.3056250214576721, -0.06693774461746216, 0.18812498450279236, -0.08380809426307678, -0.800253539148968, -0.11138575960313651, -0.09894744221707302,-0.5808586710721613,-1.0531463623046875,-0.174102783203125,0.280975341796875
20220111-1114,2022-01-11 11:14:38Z,u01, 22,40,movements,el-ex, rt, d,75405.93940754166, -1.9051662780679437, 0.3050124640691176, -3.06389402274501, 0.14799794554710388, -0.29834213852882385, -0.7019836902618408, -0.9010167121887207, -0.3003050684928894, 0.3130266070365906, 0.12893730401992798, 0.12443232536315918, -0.24237850308418274, -0.8014295261078859, -0.11926447346927249, -0.10145572195224428,-0.5772290677387361,-0.8073883056640625,-0.0943450927734375,0.095123291015625
20220111-1114,2022-01-11 11:14:38Z,u01, 23,40,movements,el-ex, rt, d,75405.96435154167, -1.9157502687437464, 0.32195589767734406, -3.0603331685104265, -0.2616988718509674, -0.4590124487876892, -0.6336415410041809, -0.89273601770401, -0.31642255187034607, 0.32077836990356445, 0.19943785667419434, 0.030900150537490845, 0.0008157193660736084, -0.802983960476072, -0.12492377951396172, -0.10793505513888996,-0.5726785146377198,-0.6995697021484375,-0.2277069091796875,0.2371673583984375
20220111-1114,2022-01-11 11:14:38Z,u01, 24,40,movements,el-ex, rt, d,75405.98929554167, -1.9287727807183688, 0.3385090707275453, -3.0546579139395003, 0.15386803448200226, -0.3545093238353729, -0.7750195860862732, -0.8834560513496399, -0.332081139087677, 0.3304959237575531, -0.05999487638473511, 0.022785484790802002, 0.05056166648864746, -0.8050210953140664, -0.13110681589321493, -0.11387123798214505,-0.5672612938584306,-0.858062744140625,-0.4876556396484375,0.4616546630859375
20220111-1114,2022-01-11 11:14:38Z,u01, 25,40,movements,el-ex, rt, d,75406.01423854167, -1.9421327124805998, 0.3510074139579707, -3.0388580504730704, 0.5521204471588135, -0.32403966784477234, -0.6521246433258057, -0.8750259876251221, -0.3438439667224884, 0.3407363295555115, 0.012934684753417969, 0.23964163661003113, -0.1607588827610016, -0.8066753955176424, -0.14015338126017024, -0.11540868935497445,-0.5624169349209479,-0.892486572265625,-0.115753173828125,0.21905517578125
20220111-1114,2022-01-11 11:14:38Z,u01, 26,40,movements,el-ex, rt, d,75406.03918254167, -1.956816416266291, 0.3621589562748621, -3.0248717608909295, 0.07350678741931915, -0.45761486887931824, -0.5602220296859741, -0.8663220405578613, -0.35429397225379944, 0.3520820438861847, 0.0828137993812561, -0.06887796521186829, -0.11042872071266174, -0.8087911228396939, -0.14797953174513395, -0.1171170683449822,-0.5569941959863673,-0.79150390625,-0.3097991943359375,0.22705078125
20220111-1114,2022-01-11 11:14:38Z,u01, 27,40,movements,el-ex, rt, d,75406.06412654168, -1.9707534362017618, 0.37672385920635004, -3.021386513778355, -0.20427942276000977, -0.5453892350196838, -0.610676109790802, -0.8564868569374084, -0.3678760528564453, 0.36207354068756104, 0.08172190189361572, -0.0194682776927948, 0.011339426040649414, -0.8110447660561351, -0.15245707491139648, -0.12318458093168796,-0.551170318100244,-0.771484375,-0.422119140625,0.344329833984375
20220111-1114,2022-01-11 11:14:38Z,u01, 28,40,movements,el-ex, rt, d,75406.08906954167, -1.9857098134289777, 0.3894226344730825, -3.0149595439579326, 0.2443220019340515, -0.3942573368549347, -0.5512986779212952, -0.8466323018074036, -0.3796543478965759, 0.372929185628891, -0.09837496280670166, 0.018478810787200928, 0.13062596321105957, -0.8134268143273404, -0.15748464569282156, -0.12782118083550245,-0.5451578741581257,-0.87982177734375,-0.35699462890625,0.5033111572265625
20220111-1114,2022-01-11 11:14:38Z,u01, 29,40,movements,el-ex, rt, d,75406.11401354166, -1.999051652772185, 0.3981464849916967, -3.001253498816965, 0.3653765618801117, -0.2592930793762207, -0.5021329522132874, -0.83853679895401, -0.38771048188209534, 0.3828013241291046, -0.10384607315063477, -0.002334773540496826, -0.049549400806427, -0.8150746585113129, -0.16448089342583638, -0.12878907435583875,-0.54038207319983,-0.9536895751953125,-0.3790130615234375,0.38677978515625
20220111-1114,2022-01-11 11:14:38Z,u01, 30,40,movements,el-ex, rt, d,75406.13895754167, -2.009979556567814, 0.4064308836333815, -2.9905310646579326, -0.002628955990076065, -0.3224380910396576, -0.4069426357746124, -0.8313677310943604, -0.39533349871635437, 0.3905625343322754, 0.009544610977172852, -0.06331515312194824, -0.04574453830718994, -0.8162645046296368, -0.17027484634173456, -0.13026072009614958,-0.5364241540599363,-0.8446044921875,-0.4303741455078125,0.2982940673828125
20220111-1114,2022-01-11 11:14:38Z,u01, 31,40,movements,el-ex, rt, d,75406.16390154167, -2.0177594253605537, 0.41621197336893145, -2.9910034542051105, -0.21807175874710083, -0.28576475381851196, -0.274681031703949, -0.8247775435447693, -0.40429872274398804, 0.39532825350761414, -0.03662681579589844, -0.07900813221931458, 0.15005123615264893, -0.8173504131749285, -0.17205356689137258, -0.13512792669451706,-0.5329880701940888,-0.8508148193359375,-0.46759033203125,0.481048583984375
20220111-1114,2022-01-11 11:14:38Z,u01, 32,40,movements,el-ex, rt, d,75406.18884454167, -2.023168709755943, 0.42358887971664444, -2.9891772792727305, 0.08567384630441666, -0.09832143783569336, -0.290729820728302, -0.8199223875999451, -0.41103479266166687, 0.398469477891922, -0.04346579313278198, -0.013998806476593018, 0.10413974523544312, -0.8178364406350309, -0.17429368803880885, -0.13818816870798217,-0.5307253189424417,-0.8926544189453125,-0.4476776123046875,0.52142333984375
20220111-1114,2022-01-11 11:14:38Z,u01, 33,40,movements,el-ex, rt, d,75406.21378854167, -2.028033697495037, 0.4273606810527726, -2.980896278308878, 0.2127174437046051, -0.022977078333497047, -0.2575845718383789, -0.8165769577026367, -0.4144703149795532, 0.40176624059677124, -0.005261242389678955, -0.042118340730667114, -0.004107058048248291, -0.8179825489725737, -0.17829096985514642, -0.13799816739941345,-0.529219504037128,-0.826446533203125,-0.4464111328125,0.4284515380859375
20220111-1114,2022-01-11 11:14:38Z,u01, 34,40,movements,el-ex, rt, d,75406.23873254168, -2.0298633680909712, 0.43162062075824564, -2.9762340556527644, -0.06581105291843414, 0.01476297527551651, -0.20151133835315704, -0.8142504096031189, -0.41834333539009094, 0.40247368812561035, -0.009846210479736328, -0.09906691312789917, 0.011451363563537598, -0.8175738995837918, -0.18113464095412085, -0.13871036609012186,-0.5286989619073493,-0.8192291259765625,-0.510986328125,0.4165191650390625
20220111-1114,2022-01-11 11:14:38Z,u01, 35,40,movements,el-ex, rt, d,75406.26367654167, -2.0276036863304525, 0.4375424105319546, -2.9791389260993513, -0.2581055760383606, 0.07781297713518143, -0.13475260138511658, -0.8129202127456665, -0.42371466755867004, 0.3995329737663269, -0.026435256004333496, -0.04746145009994507, 0.06686711311340332, -0.8165744179301366, -0.18158388039187773, -0.1417482537408211,-0.5292834277640495,-0.8349761962890625,-0.47821044921875,0.457275390625
20220111-1114,2022-01-11 11:14:38Z,u01, 36,40,movements,el-ex, rt, d,75406.28861954166, -2.0229950746802947, 0.44179272966650535, -2.9827317558742723, -0.06491789221763611, 0.17204567790031433, -0.05263649672269821, -0.813125491142273, -0.4275607466697693, 0.39499178528785706, -0.061370909214019775, -0.019460707902908325, 0.08955097198486328, -0.8151991840273245, -0.1815108340263255, -0.14405539251377109,-0.530803241182533,-0.8592987060546875,-0.4286651611328125,0.519073486328125
20220111-1114,2022-01-11 11:14:38Z,u01, 37,40,movements,el-ex, rt, d,75406.31356354167, -2.018330297412556, 0.4428306702015714, -2.981280821931628, 0.08595823496580124, 0.2385540008544922, -0.05769690126180649, -0.814558744430542, -0.4284988045692444, 0.39100223779678345, -0.05355954170227051, -0.016172796487808228, -0.028163552284240723, -0.8137091631859461, -0.18269786457764547, -0.14367717071244918,-0.5327811261230995,-0.874664306640625,-0.4363861083984375,0.38739013671875
20220111-1114,2022-01-11 11:14:38Z,u01, 38,40,movements,el-ex, rt, d,75406.33850816668, -2.0128977878545555, 0.4439732182926496, -2.9811138229488052, -0.12854674458503723, 0.19235187768936157, -0.025746691972017288, -0.8162277340888977, -0.4295308589935303, 0.38636165857315063, -0.03405296802520752, -0.05049532651901245, -0.01766371726989746, -0.8121140105474204, -0.1834438832193681, -0.14361046892809484,-0.5349721076327293,-0.8466033935546875,-0.47174072265625,0.358428955078125
20220111-1114,2022-01-11 11:14:38Z,u01, 39,40,movements,el-ex, rt, d,75406.36345116668, -2.005895625134913, 0.4462110587714168, -2.9868570979745535, -0.26041102409362793, 0.16632799804210663, 0.0479658767580986, -0.8180392980575562, -0.43155068159103394, 0.38023069500923157, -0.0436091423034668, -0.03115677833557129, 0.034792959690093994, -0.8105079810648865, -0.18218717003454932, -0.14543873594855802,-0.5373379651463042,-0.8586578369140625,-0.4536895751953125,0.39501953125
20220111-1114,2022-01-11 11:14:38Z,u01, 40,40,movements,el-ex, rt, d,75406.38839516666, -1.9992494505776586, 0.44639403216319395, -2.992481683819007, -0.13409776985645294, 0.18529649078845978, 0.09004022926092148, -0.8204767107963562, -0.431715726852417, 0.37475281953811646, -0.08967965841293335, -0.04963809251785278, 0.03155818581581116, -0.8092078639069937, -0.18044124889064028, -0.14642626745965157,-0.539613743829009,-0.8955078125,-0.4945220947265625,0.43072509765625
20220111-1114,2022-01-11 11:14:39Z,u01, 41,40,movements,el-ex, rt, d,75406.41333916667, -1.9930072981111484, 0.4448768420107505, -2.9944255212148336, -0.0011208076030015945, 0.22253841161727905, 0.0670963004231453, -0.8233963251113892, -0.4303467273712158, 0.3698919117450714, -0.12345725297927856, -0.05854484438896179, -0.04091253876686096, -0.8078650747078224, -0.17972195830539506, -0.1457630890357732,-0.5420397638998216,-0.937103271484375,-0.4931793212890625,0.34259033203125
20220111-1114,2022-01-11 11:14:39Z,u01, 42,40,movements,el-ex, rt, d,75406.43828316667, -1.986762351313896, 0.44439764102008994, -2.996801389852338, -0.16205579042434692, 0.1910184919834137, 0.05245150625705719, -0.8258789777755737, -0.42991411685943604, 0.3648260533809662, -0.11258244514465332, -0.02186816930770874, -0.03148266673088074, -0.8064355039203287, -0.1790944023850407, -0.14565057522317684,-0.54440148310508,-0.9431915283203125,-0.46588134765625,0.325714111328125
20220111-1114,2022-01-11 11:14:39Z,u01, 43,40,movements,el-ex, rt, d,75406.46322616667, -1.9802841240386508, 0.44486167131099685, -3.0029344226314527, -0.15524935722351074, 0.16420432925224304, 0.08781309425830841, -0.8280418515205383, -0.4303330183029175, 0.35938867926597595, -0.13645094633102417, -0.10689842700958252, 0.05282735824584961, -0.8051634697836401, -0.17721774718439381, -0.1469371646501079,-0.5465483780573401,-0.9520111083984375,-0.507781982421875,0.4085540771484375
20220111-1114,2022-01-11 11:14:39Z,u01, 44,40,movements,el-ex, rt, d,75406.48817016667, -1.974706827843794, 0.44454285528589266, -3.006705928538181, -0.05327678844332695, 0.14660216867923737, 0.0762198194861412, -0.830159604549408, -0.4300452172756195, 0.35481885075569153, -0.2152659296989441, -0.07897281646728516, 0.008874386548995972, -0.8040048006395841, -0.17602756475317233, -0.1473462235410688,-0.5485250839730534,-1.019683837890625,-0.5183868408203125,0.3883819580078125
20220111-1114,2022-01-11 11:14:39Z,u01, 45,40,movements,el-ex, rt, d,75406.51311416666, -1.970597531895444, 0.44322295805525325, -3.0076397157276302, -0.01710360310971737, 0.13427279889583588, 0.05729805678129196, -0.8321326375007629, -0.42885321378707886, 0.3516250550746918, -0.24713677167892456, -0.061198025941848755, -0.03224337100982666, -0.8031029100883652, -0.17560819780980436, -0.14670042202886874,-0.5501512890373921,-1.079986572265625,-0.4869384765625,0.3268890380859375
20220111-1114,2022-01-11 11:14:39Z,u01, 46,40,movements,el-ex, rt, d,75406.53805816667, -1.9674364372236839, 0.4425764657534173, -3.00978934347209, -0.0925082117319107, 0.03618697449564934, 0.02986590377986431, -0.8334954380989075, -0.4282691180706024, 0.3490998446941376, -0.21232664585113525, -0.1212151050567627, 0.008306622505187988, -0.8024913749223148, -0.17480707561564113, -0.14675071668497697,-0.5512841541092819,-1.053497314453125,-0.54107666015625,0.3450469970703125
20220111-1114,2022-01-11 11:14:39Z,u01, 47,40,movements,el-ex, rt, d,75406.56300116667, -1.9665696323105573, 0.4427240275219733, -3.0110399816780693, 0.001753208227455616, 0.004404610022902489, -0.014612282626330853, -0.8337395787239075, -0.42840245366096497, 0.34835293889045715, -0.2164313793182373, -0.09826996922492981, 0.015386015176773071, -0.8023455311659078, -0.17440791031351005, -0.14708019483047055,-0.55153512162672,-1.04766845703125,-0.5328369140625,0.3594818115234375
20220111-1114,2022-01-11 11:14:39Z,u01, 48,40,movements,el-ex, rt, d,75406.58794516667, -1.9675629775539765, 0.44261361021339535, -3.009831450508479, 0.060793064534664154, -0.050120480358600616, -0.02996174432337284, -0.8334367275238037, -0.42830267548561096, 0.34919920563697815, -0.2163221836090088, -0.10606014728546143, 0.027570724487304688, -0.8025259017070223, -0.17479069463544722, -0.14678855860397197,-0.5512291013801596,-1.0422515869140625,-0.5440216064453125,0.3869476318359375
20220111-1114,2022-01-11 11:14:39Z,u01, 49,40,movements,el-ex, rt, d,75406.61288916667, -1.9696806324588425, 0.44274703200045573, -3.007857887306163, 0.0845804437994957, -0.04012370854616165, -0.04357735067605972, -0.8326425552368164, -0.4284232258796692, 0.35094112157821655, -0.22848403453826904, -0.07731398940086365, -0.017735034227371216, -0.802921795250188, -0.17546266692100682, -0.14648504449576114,-0.550519293322998,-1.065460205078125,-0.507568359375,0.3430328369140625
20220111-1114,2022-01-11 11:14:39Z,u01, 50,40,movements,el-ex, rt, d,75406.63783316668, -1.9712155249163288, 0.4431765369778021, -3.006581858441469, -0.05496303364634514, -0.04652508348226547, -0.015736335888504982, -0.8319334387779236, -0.42881128191947937, 0.3521469831466675, -0.15399789810180664, -0.10019567608833313, 0.03878307342529297, -0.8031849768045468, -0.1759755149966068, -0.14644478081058265,-0.5499821740774109,-1.009613037109375,-0.5055084228515625,0.341796875
20220111-1114,2022-01-11 11:14:39Z,u01, 51,40,movements,el-ex, rt, d,75406.66277616668, -1.9719203184755767, 0.44407742851869764, -3.008171447354669, -0.015258464962244034, -0.04459582269191742, -0.0038780118338763714, -0.8313292264938354, -0.4296249747276306, 0.35258233547210693, -0.1385042667388916, -0.09214940667152405, 0.009981721639633179, -0.8034197145587121, -0.17552186782949314, -0.14731281665357743,-0.5495524134490366,-0.9735565185546875,-0.5308380126953125,0.3726806640625
20220111-1114,2022-01-11 11:14:39Z,u01, 52,40,movements,el-ex, rt, d,75406.68772016666, -1.973297851794874, 0.443757145237875, -3.0065399569401614, 0.11673624813556671, -0.021318593993782997, -0.01830342411994934, -0.8309691548347473, -0.42933574318885803, 0.35378098487854004, -0.11676943302154541, -0.030320048332214355, 0.02742922306060791, -0.8036898068190794, -0.1759920176276305, -0.14685448723119046,-0.549129522529348,-0.9536285400390625,-0.4758758544921875,0.3784637451171875
20220111-1114,2022-01-11 11:14:39Z,u01, 53,40,movements,el-ex, rt, d,75406.71266416667, -1.9742689881401405, 0.4427205859752385, -3.004053598860661, 0.024404991418123245, 0.015781370922923088, 0.021675951778888702, -0.8310340046882629, -0.42839935421943665, 0.35476231575012207, -0.10352098941802979, -0.06212490797042847, 0.04529249668121338, -0.803851009623171, -0.17664857266458583, -0.14583242068851154,-0.5489550814488688,-0.9415283203125,-0.484619140625,0.3958587646484375
20220111-1114,2022-01-11 11:14:39Z,u01, 54,40,movements,el-ex, rt, d,75406.73760716667, -1.9731595904946646, 0.4421036997732325, -3.0051087137253605, -0.05180755630135536, 0.045926086604595184, 0.04800089821219444, -0.8316700458526611, -0.42784184217453003, 0.3539435863494873, -0.09229528903961182, -0.056044816970825195, 0.020217031240463257, -0.8037071393393149, -0.1761437564799619, -0.14577125622765288,-0.5493440477499969,-0.9209136962890625,-0.510498046875,0.4009857177734375
20220111-1114,2022-01-11 11:14:39Z,u01, 55,40,movements,el-ex, rt, d,75406.76255116667, -1.970254219940111, 0.44111786607284686, -3.007138302609694, -0.08013639599084854, 0.11457092314958572, 0.08256686478853226, -0.8330830335617065, -0.426950603723526, 0.3516896367073059, -0.08569437265396118, -0.02846318483352661, 0.013803929090499878, -0.8031944347083155, -0.17528124612025314, -0.14566990896126372,-0.550395646477662,-0.9217529296875,-0.459197998046875,0.3661041259765625
20220111-1114,2022-01-11 11:14:39Z,u01, 56,40,movements,el-ex, rt, d,75406.78749516667, -1.965082780865923, 0.4398676511003945, -3.0113363172042686, -0.14494147896766663, 0.1662660837173462, 0.1157035157084465, -0.8353830575942993, -0.4258197247982025, 0.3475815951824188, -0.07883214950561523, -0.04517340660095215, 0.04786518216133118, -0.802270951625726, -0.17364364727798226, -0.14586414109467355,-0.5522073363665447,-0.909576416015625,-0.4825439453125,0.4098052978515625
20220111-1114,2022-01-11 11:14:39Z,u01, 57,40,movements,el-ex, rt, d,75406.81243916666, -1.9587013988380588, 0.4376203683917001, -3.015321839350038, -0.03916899114847183, 0.2074180543422699, 0.1577841192483902, -0.838467538356781, -0.4237852990627289, 0.3426046669483185, -0.06463903188705444, -0.02521979808807373, 0.024308055639266968, -0.8010914510562737, -0.17191513502164413, -0.14549741402919109,-0.5545521526872418,-0.9069061279296875,-0.4540863037109375,0.3750762939453125
20220111-1114,2022-01-11 11:14:39Z,u01, 58,40,movements,el-ex, rt, d,75406.83738216668, -1.9521738785276397, 0.43356023928240484, -3.018070087562342, -0.03926366567611694, 0.22381459176540375, 0.2094486504793167, -0.8422760963439941, -0.4201042950153351, 0.33776190876960754, -0.07013833522796631, -0.05416932702064514, 0.041464656591415405, -0.7999445826025141, -0.17020465180470085, -0.14404718365100844,-0.5571080424931469,-0.9051361083984375,-0.4788818359375,0.4101409912109375
20220111-1114,2022-01-11 11:14:39Z,u01, 59,40,movements,el-ex, rt, d,75406.86232616667, -1.9448794279365782, 0.4288773059530441, -3.0214931641530325, -0.05189620330929756, 0.2552995979785919, 0.2272210568189621, -0.8465395569801331, -0.41585004329681396, 0.3323243260383606, -0.04976165294647217, -0.021024316549301147, -0.01588764786720276, -0.7986888966966605, -0.16810178328058006, -0.14248033141010744,-0.5599438876350498,-0.903961181640625,-0.4358062744140625,0.327728271484375
20220111-1114,2022-01-11 11:14:39Z,u01, 60,40,movements,el-ex, rt, d,75406.88727016667, -1.9365193768067375, 0.424528642273364, -3.026771634853233, -0.16566118597984314, 0.253383070230484, 0.2609533369541168, -0.8509690165519714, -0.41189131140708923, 0.32587936520576477, -0.05317533016204834, -0.05630943179130554, 0.003832489252090454, -0.7972315984545932, -0.16541299181658087, -0.14149963044661606,-0.5630614489221374,-0.889862060546875,-0.4640655517578125,0.3338165283203125
20220111-1114,2022-01-11 11:14:39Z,u01, 61,40,movements,el-ex, rt, d,75406.91221416667, -1.9263724370659296, 0.4190794555187737, -3.033960472930015, -0.15754443407058716, 0.3023098111152649, 0.35025277733802795, -0.8563232421875, -0.4069197475910187, 0.31800466775894165, -0.0571136474609375, -0.03459331393241882, 0.012927889823913574, -0.7955061044196607, -0.16177877768569543, -0.14049435183521392,-0.5667971875099164,-0.91741943359375,-0.4516448974609375,0.330078125
20220111-1114,2022-01-11 11:14:39Z,u01, 62,40,movements,el-ex, rt, d,75406.93715716667, -1.916004410687225, 0.41006192143022985, -3.0411788169223106, -0.07896177470684052, 0.29763561487197876, 0.500414252281189, -0.8629921078681946, -0.398666113615036, 0.31033843755722046, -0.048125505447387695, 0.028258979320526123, -0.006108731031417847, -0.7940239660494502, -0.15714696098546793, -0.1380817775360638,-0.5707575706575212,-0.9027099609375,-0.3817596435546875,0.3170013427734375
20220111-1114,2022-01-11 11:14:39Z,u01, 63,40,movements,el-ex, rt, d,75406.96210116667, -1.9052618076881225, 0.3986117922388933, -3.0492449214512125, -0.20103944838047028, 0.2977193295955658, 0.5572019815444946, -0.8705310821533203, -0.3881393373012543, 0.30252864956855774, -0.05251884460449219, -0.03282013535499573, 0.029182076454162598, -0.792663001422404, -0.15149154034998008, -0.13495718787065406,-0.5749106645374213,-0.9192352294921875,-0.391448974609375,0.312255859375
20220111-1114,2022-01-11 11:14:39Z,u01, 64,40,movements,el-ex, rt, d,75406.98704516666, -1.8931366281243114, 0.3872855552191671, -3.0599868161816177, -0.190187469124794, 0.3479427993297577, 0.567415177822113, -0.8782485723495483, -0.377676397562027, 0.29332512617111206, -0.05192708969116211, -0.0032591819763183594, -0.009893208742141724, -0.7909983350923232, -0.14485925119128307, -0.13261860273433654,-0.5794390543645831,-0.9440460205078125,-0.41668701171875,0.305389404296875
20220111-1114,2022-01-11 11:14:39Z,u01, 65,40,movements,el-ex, rt, d,75407.01198916667, -1.8804083477140803, 0.3742476523714496, -3.0692797555344895, -0.22247929871082306, 0.40191933512687683, 0.6242879033088684, -0.8865258097648621, -0.36557236313819885, 0.2835994064807892, -0.05297297239303589, -0.03767159581184387, 0.039306968450546265, -0.7890953509077808, -0.13830483202192617, -0.12921527391061668,-0.5843831126790513,-0.930816650390625,-0.40838623046875,0.3314056396484375
20220111-1114,2022-01-11 11:14:39Z,u01, 66,40,movements,el-ex, rt, d,75407.03693216667, -1.8646399399379925, 0.3611571845136915, -3.0818694750432147, -0.29972538352012634, 0.47654610872268677, 0.6518124341964722, -0.8953911662101746, -0.3533570170402527, 0.27094849944114685, 0.005132555961608887, 0.04635021090507507, -0.03526142239570618, -0.7863998539206045, -0.13057383078878004, -0.12664969134977808,-0.5903265761554737,-0.934295654296875,-0.3247833251953125,0.2466888427734375
20220111-1114,2022-01-11 11:14:39Z,u01, 67,40,movements,el-ex, rt, d,75407.06187616667, -1.8483423383965722, 0.34840959086257917, -3.094801654874787, -0.3101159632205963, 0.49458077549934387, 0.6229695677757263, -0.9039469957351685, -0.34140339493751526, 0.25753384828567505, 0.023346900939941406, 0.03804337978363037, 0.059543758630752563, -0.7833838215187443, -0.12278727396775829, -0.12441550181971636,-0.5964510824281049,-0.869964599609375,-0.29608154296875,0.308990478515625
20220111-1114,2022-01-11 11:14:39Z,u01, 68,40,movements,el-ex, rt, d,75407.08682016667, -1.8318234488750758, 0.3344919667243647, -3.1040186155145215, -0.012091966345906258, 0.5700388550758362, 0.6398399472236633, -0.9125801920890808, -0.32828933000564575, 0.24376992881298065, 0.03292614221572876, 0.032390862703323364, 0.014057785272598267, -0.7800091056899698, -0.11606358511670856, -0.12072276597047149,-0.602943731323067,-0.893096923828125,-0.302093505859375,0.2921142578125
20220111-1114,2022-01-11 11:14:39Z,u01, 69,40,movements,el-ex, rt, d,75407.11176316667, -1.8161555167043122, 0.31882566317052247, -3.106990503497415, -0.012595303356647491, 0.5989307165145874, 0.6399728655815125, -0.9211634993553162, -0.3134516179561615, 0.23066334426403046, 0.06241428852081299, 0.024556994438171387, -0.0077630579471588135, -0.7765209696264406, -0.11111641404636341, -0.11460922437181958,-0.6095350130975131,-0.86419677734375,-0.2934112548828125,0.2409210205078125
20220111-1114,2022-01-11 11:14:39Z,u01, 70,40,movements,el-ex, rt, d,75407.13670716668, -1.7995005420706922, 0.3034882538009097, -3.1147089680249884, -0.26502665877342224, 0.5703021883964539, 0.6822614073753357, -0.9294507503509521, -0.2988508641719818, 0.21635471284389496, 0.08010077476501465, 0.02547439932823181, 0.020614147186279297, -0.7728388209029484, -0.10439114549589018, -0.11011353623243103,-0.6161960695336488,-0.832275390625,-0.28717041015625,0.194305419921875
20220111-1114,2022-01-11 11:14:39Z,u01, 71,40,movements,el-ex, rt, d,75407.16165116667, -1.7817535753415312, 0.28785180748989625, -3.124243581301854, -0.09357816725969315, 0.6454923152923584, 0.6872532963752747, -0.9375988245010376, -0.28389307856559753, 0.20078058540821075, 0.029075443744659424, 0.05757477879524231, 0.008905619382858276, -0.7687718851916916, -0.0968508061257497, -0.10613247489650829,-0.623173692568747,-0.897064208984375,-0.25872802734375,0.2404327392578125
20220111-1114,2022-01-11 11:14:39Z,u01, 72,40,movements,el-ex, rt, d,75407.18659516667, -1.7656386932522388, 0.27077910005461514, -3.1258608937483294, 0.16833341121673584, 0.5826903581619263, 0.6814027428627014, -0.9453303813934326, -0.2674822211265564, 0.18655720353126526, 0.1320369839668274, 0.1407427191734314, -0.09743070602416992, -0.7647647523059082, -0.09172498846703014, -0.09932143273903477,-0.6299655619207762,-0.8424224853515625,-0.1216278076171875,0.083251953125
20220111-1114,2022-01-11 11:14:39Z,u01, 73,40,movements,el-ex, rt, d,75407.21153816667, -1.751774745546729, 0.25431271402130573, -3.1267708892801678, -0.14257334172725677, 0.5030530095100403, 0.6293107867240906, -0.9520297646522522, -0.25158029794692993, 0.17420290410518646, 0.12820780277252197, 0.08495429158210754, -0.08516800403594971, -0.7612879748448695, -0.08684510272863755, -0.09269771495608331,-0.635850340678993,-0.824554443359375,-0.193756103515625,0.0892181396484375
20220111-1114,2022-01-11 11:14:39Z,u01, 74,40,movements,el-ex, rt, d,75407.23648216667, -1.7396005757598636, 0.23925270905993984, -3.136561376676462, -0.3309921622276306, 0.35335826873779297, 0.6681079268455505, -0.9577064514160156, -0.23697668313980103, 0.163218155503273, 0.056369900703430176, 0.006065458059310913, 0.08675120770931244, -0.7585425869308637, -0.07888108095357255, -0.0895893775911284,-0.6405970250018684,-0.8141021728515625,-0.194732666015625,0.189666748046875
20220111-1114,2022-01-11 11:14:39Z,u01, 75,40,movements,el-ex, rt, d,75407.26142616667, -1.7277161237348608, 0.22273434076507864, 3.1415605723650004, 0.22331225872039795, 0.5544975996017456, 0.6453773975372314, -0.9633140563964844, -0.22089724242687225, 0.15241612493991852, -0.07065212726593018, -0.09863707423210144, 0.06489945948123932, -0.7556448954654401, -0.0721724092825079, -0.08451389395844616,-0.6454838900322049,-1.0122833251953125,-0.3341217041015625,0.25445556640625
20220111-1114,2022-01-11 11:14:39Z,u01, 76,40,movements,el-ex, rt, d,75407.28637016666, -1.713835334772701, 0.20711287975507678, -3.1332808714073717, 0.2691327929496765, 0.5376883745193481, 0.5537077188491821, -0.9686341881752014, -0.20563533902168274, 0.13950520753860474, 0.19745510816574097, 0.15721923112869263, -0.1468447595834732, -0.7514910451871604, -0.07080827086373653, -0.07542379525079768,-0.6515815704501542,-0.896820068359375,-0.1110687255859375,-0.0182647705078125
20220111-1114,2022-01-11 11:14:39Z,u01, 77,40,movements,el-ex, rt, d,75407.31131316668, -1.704388146370382, 0.19201413800216266, -3.1355695021455623, -0.3189341127872467, 0.35053032636642456, 0.6492642760276794, -0.9728755354881287, -0.19083639979362488, 0.13074694573879242, 0.08423411846160889, -0.07951882481575012, -0.01661132276058197, -0.7490667868378037, -0.06536375314742182, -0.07018229460016612,-0.6555158376489356,-0.8182830810546875,-0.243133544921875,0.113555908203125
20220111-1114,2022-01-11 11:14:39Z,u01, 78,40,movements,el-ex, rt, d,75407.336256625, -1.6929355987064219, 0.17479746827488316, 3.1349907344728978, -0.3294244110584259, 0.34382399916648865, 0.8032155632972717, -0.9774254560470581, -0.17390869557857513, 0.11997924745082855, 0.019097328186035156, -0.07699157297611237, 0.1102757379412651, -0.7462727865770075, -0.05537644802560171, -0.06755212350239487,-0.6598840786515063,-0.947265625,-0.22344970703125,0.18341064453125
20220111-1114,2022-01-11 11:14:39Z,u01, 79,40,movements,el-ex, rt, d,75407.361200625, -1.6803360466090063, 0.15575646689968875, 3.1318992570455566, 0.2719561457633972, 0.6253417730331421, 0.7254600524902344, -0.9819735884666443, -0.15512745082378387, 0.10799740999937057, -0.02908909320831299, 0.023413613438606262, -0.07339046895503998, -0.742740836765317, -0.048319303614483666, -0.061165498050886946,-0.6650264165000619,-1.0368499755859375,-0.193115234375,0.091339111328125
20220111-1114,2022-01-11 11:14:39Z,u01, 80,40,movements,el-ex, rt, d,75407.386143625, -1.667960826076209, 0.1383174597114569, 3.133387615025739, -0.13764247298240662, 0.3334568738937378, 0.6651010513305664, -0.985777735710144, -0.13787683844566345, 0.09608516842126846, 0.25666701793670654, 0.11974939703941345, -0.0834662914276123, -0.7390256375839146, -0.04340151499423617, -0.05392853916666612,-0.6701113259256801,-0.75030517578125,0.04180908203125,-0.0300140380859375
20220111-1114,2022-01-11 11:14:40Z,u01, 81,40,movements,el-ex, rt, d,75407.411087625, -1.6594459464171645, 0.12302308898243854, 3.12105963476507, -0.5767763257026672, 0.2822910249233246, 0.6557867527008057, -0.9885451197624207, -0.12271300703287125, 0.08786443620920181, 0.07410109043121338, -0.12548650801181793, 0.020839102566242218, -0.7367363718376881, -0.03393725226957539, -0.0522662814235082,-0.6733023505219413,-0.8672027587890625,-0.20367431640625,0.1044921875
20220111-1114,2022-01-11 11:14:40Z,u01, 82,40,movements,el-ex, rt, d,75407.43603162501, -1.648774556865046, 0.10847675881655572, 3.1099211060693226, -0.07334287464618683, 0.44743743538856506, 0.5761479735374451, -0.9911013245582581, -0.10826414078474045, 0.07744135707616806, 0.03886127471923828, 0.04118649661540985, 0.04578853398561478, -0.7335432903898376, -0.02519759874360139, -0.05052995100766078,-0.6772932313703108,-0.9791412353515625,-0.1579437255859375,0.1233978271484375
20220111-1114,2022-01-11 11:14:40Z,u01, 83,40,movements,el-ex, rt, d,75407.460975625, -1.6367694062175708, 0.09363649156967996, 3.110381165101789, 0.14988937973976135, 0.4861927628517151, 0.6167690753936768, -0.993453323841095, -0.09349972009658813, 0.06563642621040344, 0.11093080043792725, 0.04578549414873123, 0.0656500980257988, -0.7296532376847293, -0.02060015393293385, -0.0448155504566774,-0.6820361092030885,-0.8987884521484375,-0.0006256103515625,0.135223388671875
20220111-1114,2022-01-11 11:14:40Z,u01, 84,40,movements,el-ex, rt, d,75407.48591862501, -1.625752546164741, 0.07891311016362307, 3.11251382518419, 0.09142053872346878, 0.352123498916626, 0.534671425819397, -0.9953827857971191, -0.07883123308420181, 0.05475761368870735, 0.20342129468917847, 0.0331159308552742, -0.07682193070650101, -0.7260196299165229, -0.016562109439777817, -0.03863198842017712,-0.6863880940827811,-0.8309783935546875,-0.074615478515625,0.0117645263671875
20220111-1114,2022-01-11 11:14:40Z,u01, 85,40,movements,el-ex, rt, d,75407.510862625, -1.6186065065196384, 0.06819570737975904, 3.1112716576114807, -0.08835282176733017, 0.2639683485031128, 0.35701754689216614, -0.9965354800224304, -0.0681428611278534, 0.047680873423814774, 0.1141045093536377, 0.00018018484115600586, -0.003201603889465332, -0.723659338003759, -0.012553887164185373, -0.03512694031155905,-0.6891484520835282,-0.852020263671875,-0.0395660400390625,0.0406494140625
20220111-1114,2022-01-11 11:14:40Z,u01, 86,40,movements,el-ex, rt, d,75407.535806625, -1.6112832592089217, 0.060125390159019215, 3.1090808100802554, 0.02523200400173664, 0.3183680772781372, 0.303790420293808, -0.9973750710487366, -0.060089170932769775, 0.04040273651480675, 0.0454249382019043, -0.008651681244373322, 0.10161077976226807, -0.7211924829831582, -0.009097815999981773, -0.032931404375975915,-0.6918917656784085,-0.9357147216796875,-0.0787811279296875,0.1058197021484375
20220111-1114,2022-01-11 11:14:40Z,u01, 87,40,movements,el-ex, rt, d,75407.56075062501, -1.603131767859792, 0.05267771353383732, 3.1134412986621625, 0.2797022759914398, 0.30631598830223083, 0.2619255483150482, -0.9980907440185547, -0.05265335366129875, 0.03228495642542839, 0.08477604389190674, 0.02619463950395584, 0.026476498693227768, -0.7183836751925754, -0.00820814226475225, -0.028706065211603182,-0.6950060295559262,-0.92889404296875,-0.032928466796875,0.0704803466796875
20220111-1114,2022-01-11 11:14:40Z,u01, 88,40,movements,el-ex, rt, d,75407.585693625, -1.5970309488021859, 0.04724681238394132, 3.1186760381250624, 0.13633686304092407, 0.1914735734462738, 0.1738998293876648, -0.9985403418540955, -0.04722923785448074, 0.026202339679002762, 0.08762121200561523, 0.0054201483726501465, 0.00825190544128418, -0.716262997522606, -0.008275752955159754, -0.024912125520339556,-0.697336492336558,-0.91461181640625,-0.0568084716796875,0.022003173828125
20220111-1114,2022-01-11 11:14:40Z,u01, 89,40,movements,el-ex, rt, d,75407.61063762501, -1.593956578763236, 0.04383663958254437, 3.120535961059976, 0.015337793156504631, 0.05925973877310753, 0.11266564577817917, -0.9987713694572449, -0.043822601437568665, 0.02313593402504921, 0.09647345542907715, 0.07707151770591736, 0.023571133613586426, -0.7151973994566097, -0.007787580405636596, -0.023030955453696322,-0.6984995135195746,-0.9024810791015625,0.026123046875,0.034759521484375
20220111-1114,2022-01-11 11:14:40Z,u01, 90,40,movements,el-ex, rt, d,75407.635581625, -1.5922366774547176, 0.04138944446250124, 3.1207574817233374, 0.022548168897628784, 0.09413222968578339, 0.08747267723083496, -0.9989139437675476, -0.04137762635946274, 0.021420346572995186, 0.04020422697067261, 0.0011249780654907227, 0.07170391082763672, -0.7146053058050744, -0.007030688998232115, -0.022072812143402787,-0.6991441986185595,-0.95013427734375,-0.0326080322265625,0.0869293212890625
20220111-1114,2022-01-11 11:14:40Z,u01, 91,40,movements,el-ex, rt, d,75407.660525625, -1.5900539878069166, 0.03894405226297942, 3.122916011488139, 0.10984452068805695, 0.07115274667739868, 0.07329493761062622, -0.9990564584732056, -0.03893420845270157, 0.01924186944961548, 0.07271069288253784, -0.04956674203276634, 0.044005751609802246, -0.7138433771559947, -0.006969028838716418, -0.020437223725986442,-0.6999723787901495,-0.9334869384765625,-0.0797882080078125,0.0645294189453125
20220111-1114,2022-01-11 11:14:40Z,u01, 92,40,movements,el-ex, rt, d,75407.685468625, -1.5901369797316416, 0.03788845704459769, 3.1244601570752613, 0.025598986074328423, -0.08903032541275024, -0.0527791753411293, -0.9990953207015991, -0.03787939250469208, 0.019325565546751022, 0.12887144088745117, -0.00045069679617881775, 0.005515692755579948, -0.7138709011114693, -0.007149777321436068, -0.01952044350115789,-0.6999686161698995,-0.8919830322265625,-0.073089599609375,0.03314208984375
20220111-1114,2022-01-11 11:14:40Z,u01, 93,40,movements,el-ex, rt, d,75407.710412625, -1.594932633699267, 0.04125707427920426, 3.124645396392396, -0.0031291646882891655, -0.2490132749080658, -0.19878904521465302, -0.9988579154014587, -0.04124537110328674, 0.024113424122333527, 0.11308532953262329, 0.004563245922327042, 0.03580772876739502, -0.7155327115644473, -0.008345680081801643, -0.02067765468514543,-0.698223167426492,-0.87396240234375,-0.018524169921875,0.0469512939453125
20220111-1114,2022-01-11 11:14:40Z,u01, 94,40,movements,el-ex, rt, d,75407.73535662501, -1.601119498492851, 0.0474894585446374, 3.1253316233182247, 0.14509308338165283, -0.19729220867156982, -0.25515079498291016, -0.9984134435653687, -0.047471608966588974, 0.030284345149993896, 0.04150426387786865, -0.06500092148780823, 0.07527589797973633, -0.7176543285459922, -0.010697539718414584, -0.022700179089088668,-0.6959472596247543,-0.9638671875,-0.1482086181640625,0.1344757080078125
20220111-1114,2022-01-11 11:14:40Z,u01, 95,40,movements,el-ex, rt, d,75407.760299625, -1.6067090600383351, 0.0547186816868806, 3.1336192884255687, 0.35821065306663513, -0.2621815502643585, -0.3545522689819336, -0.997859537601471, -0.054691381752491, 0.03585127741098404, 0.13610410690307617, 0.014957480132579803, -0.016930457204580307, -0.7194898382019107, -0.01612488013439728, -0.0224545037344962,-0.6939526131324895,-0.887420654296875,-0.054107666015625,0.043212890625
20220111-1114,2022-01-11 11:14:40Z,u01, 96,40,movements,el-ex, rt, d,75407.78524362501, -1.617189294741884, 0.06512680584988575, 3.137206199396031, -0.16038718819618225, -0.5556900501251221, -0.4943002462387085, -0.9968063235282898, -0.06508077681064606, 0.04627801105380058, 0.20696568489074707, 0.02551475167274475, 0.09337031841278076, -0.7229815792613838, -0.020895953808245604, -0.025063112801899212,-0.6900962476817645,-0.7615509033203125,0.027252197265625,0.0171356201171875
20220111-1114,2022-01-11 11:14:40Z,u01, 97,40,movements,el-ex, rt, d,75407.810187625, -1.6301302765663837, 0.07918854816417413, 3.130759076521984, -0.05986810848116875, -0.4301146864891052, -0.557498037815094, -0.9951120615005493, -0.07910580933094025, 0.059113312512636185, 0.012125611305236816, -0.06504398584365845, 0.13790810108184814, -0.7273362664851539, -0.023208022584518706, -0.03251960133693371,-0.6851174030345684,-0.9474945068359375,-0.1389923095703125,0.2223968505859375
20220111-1114,2022-01-11 11:14:40Z,u01, 98,40,movements,el-ex, rt, d,75407.835131625, -1.6382425175911262, 0.09479573628978667, -3.1367565232975334, 1.0669211149215698, -0.19337671995162964, -0.8316214680671692, -0.9932466149330139, -0.09465382248163223, 0.06709246337413788, 0.07933694124221802, 0.030154958367347717, -0.14123500883579254, -0.7296452260076324, -0.03411858067113421, -0.032963915196859095,-0.6821781031091532,-1.0079193115234375,-0.0984039306640625,0.000885009765625
20220111-1114,2022-01-11 11:14:40Z,u01, 99,40,movements,el-ex, rt, d,75407.860074625, -1.6489682740416889, 0.1177237866085869, -3.11203474315105, 0.44729381799697876, -0.5137069225311279, -0.9930993914604187, -0.9900456666946411, -0.11745205521583557, 0.07755183428525925, 0.24489814043045044, 0.19701141119003296, -0.07059396803379059, -0.7322558136995763, -0.050767497935485795, -0.033170384695905775,-0.6783241594869704,-0.7692413330078125,0.0589141845703125,-0.0552978515625
20220111-1114,2022-01-11 11:14:40Z,u01, 100,40,movements,el-ex, rt, d,75407.885018625, -1.6624294235731258, 0.14032671353950224, -3.114870646529195, -0.23096522688865662, -0.4183766543865204, -0.7476662397384644, -0.9860162734985352, -0.13986662030220032, 0.09060546010732651, -0.16866213083267212, -0.38260960578918457, 0.2401134967803955, -0.7362358945199007, -0.057091485429171196, -0.04280346748005526,-0.6729525887166061,-0.9656219482421875,-0.3399810791015625,0.456024169921875
20220111-1114,2022-01-11 11:14:40Z,u01, 101,40,movements,el-ex, rt, d,75407.90996262501, -1.6682850210577476, 0.15225220236568032, -3.1085775128268676, 0.6033488512039185, -0.08567874133586884, -0.33907803893089294, -0.9837385416030884, -0.15166465938091278, 0.0962083712220192, -0.0854446291923523, 0.04135890305042267, -0.054139986634254456, -0.7376314246616892, -0.063277698504702, -0.04526868334049994,-0.6707059468154147,-1.1418914794921875,-0.2499847412109375,0.10638427734375
20220111-1114,2022-01-11 11:14:40Z,u01, 102,40,movements,el-ex, rt, d,75407.934906625, -1.6752975418511482, 0.16262847911697473, -3.0974514398975943, -0.06257385015487671, -0.4301398992538452, -0.5671406984329224, -0.9814218878746033, -0.16191256046295166, 0.10293474793434143, 0.243949294090271, 0.31495821475982666, -0.1695852130651474, -0.7392365053217087, -0.07068779231994993, -0.04562113053526884,-0.6681701766031907,-0.786376953125,0.171356201171875,-0.16180419921875
20220111-1114,2022-01-11 11:14:40Z,u01, 103,40,movements,el-ex, rt, d,75407.95984962501, -1.6880029555124192, 0.1775278615201016, -3.1035775812490245, -0.35487571358680725, -0.5063558220863342, -0.5783331394195557, -0.9775301218032837, -0.17659683525562286, 0.11510055512189865, -0.006036043167114258, -0.15631942451000214, 0.15198920667171478, -0.7431118658177842, -0.07304130749961663, -0.05365535970665247,-0.6630012891031789,-0.88128662109375,-0.2363433837890625,0.1883697509765625
20220111-1114,2022-01-11 11:14:40Z,u01, 104,40,movements,el-ex, rt, d,75407.984793625, -1.6957896406007784, 0.18772094296255834, -3.1040207668425843, 0.22804869711399078, -0.20439887046813965, -0.28140395879745483, -0.9747675657272339, -0.18662036955356598, 0.1224779337644577, -0.03814131021499634, 0.015050560235977173, 0.015385150909423828, -0.7452921347876589, -0.0760171109605493, -0.05789661450365674,-0.6598552527632177,-1.1431427001953125,-0.361358642578125,0.251556396484375
20220111-1114,2022-01-11 11:14:40Z,u01, 105,40,movements,el-ex, rt, d,75408.009737625, -1.7053739823574754, 0.19560026870203603, -3.0959737092978354, 0.10900735855102539, -0.5169347524642944, -0.462932825088501, -0.9720615148544312, -0.19435539841651917, 0.13161326944828033, 0.22543388605117798, 0.23886528611183167, -0.17919030785560608, -0.7477922580296634, -0.08132266598757681, -0.058577277682721196,-0.6563245402591273,-0.7917022705078125,0.0064697265625,-0.0178070068359375
20220111-1114,2022-01-11 11:14:40Z,u01, 106,40,movements,el-ex, rt, d,75408.034680625, -1.720976971323101, 0.20906389232997202, -3.0993764457747046, -0.6354532241821289, -0.7675451040267944, -0.4928009510040283, -0.9672148823738098, -0.2075442671775818, 0.14635895192623138, 0.17328476905822754, -0.02580845355987549, 0.09488238394260406, -0.7524187524252505, -0.08393744118618479, -0.06540242755924519,-0.6500331613701358,-0.7241668701171875,-0.0102386474609375,0.042755126953125
20220111-1114,2022-01-11 11:14:40Z,u01, 107,40,movements,el-ex, rt, d,75408.059624625, -1.7376099945018468, 0.22304022213817964, -3.112377456637182, 0.019318420439958572, -0.6511059999465942, -0.42242172360420227, -0.9616919755935669, -0.2211955487728119, 0.16192814707756042, -0.11718058586120605, -0.354167640209198, 0.16027627885341644, -0.7576839711486718, -0.08294015742524374, -0.07559283559391228,-0.6429008491337691,-1.0067138671875,-0.5133209228515625,0.3866729736328125
20220111-1114,2022-01-11 11:14:40Z,u01, 108,40,movements,el-ex, rt, d,75408.08456862501, -1.7539794882750475, 0.2298316072075905, -3.0948762895273942, 0.971503734588623, -0.49170926213264465, -0.39590078592300415, -0.9574134945869446, -0.22781355679035187, 0.17737044394016266, 0.08522117137908936, 0.31037887930870056, -0.18690729141235352, -0.7618257320296968, -0.09114150050841902, -0.07329394948446671,-0.6371363638627033,-1.0682525634765625,-0.1485137939453125,0.0897979736328125
20220111-1114,2022-01-11 11:14:40Z,u01, 109,40,movements,el-ex, rt, d,75408.109512625, -1.7746759667337062, 0.2391966696141573, -3.079496345632629, 0.06324829161167145, -0.7951492071151733, -0.5055204033851624, -0.9514065980911255, -0.2369222491979599, 0.19670549035072327, 0.2749846577644348, 0.3310232162475586, -0.15655973553657532, -0.7671446193213703, -0.0992062513013835, -0.07300722244492452,-0.6295371870345329,-0.690155029296875,0.1987457275390625,0.02093505859375
20220111-1114,2022-01-11 11:14:40Z,u01, 110,40,movements,el-ex, rt, d,75408.13445562501, -1.7927105434958328, 0.25334590343922103, -3.0882239013114123, -0.42509424686431885, -0.7953932881355286, -0.4382157623767853, -0.9443398714065552, -0.2506444454193115, 0.21307161450386047, -0.04560452699661255, -0.391979455947876, 0.10713398456573486, -0.7724173199261963, -0.0995353851656241, -0.08211129786793031,-0.6218696912819262,-0.8767547607421875,-0.45068359375,0.3704681396484375
20220111-1114,2022-01-11 11:14:40Z,u01, 111,40,movements,el-ex, rt, d,75408.159399625, -1.8087068044006218, 0.26492264131901855, -3.089534918979292, 0.2795839011669159, -0.6158791184425354, -0.39102980494499207, -0.9379280805587769, -0.26183462142944336, 0.22745053470134735, -0.057280778884887695, 0.04012438654899597, -0.04054567217826843, -0.7767510045269324, -0.1018977171398851, -0.08783047719240994,-0.6152727942684025,-1.0406036376953125,-0.3505859375,0.225677490234375
20220111-1114,2022-01-11 11:14:40Z,u01, 112,40,movements,el-ex, rt, d,75408.184343625, -1.8271221946924856, 0.27401146601327303, -3.077189763204977, 0.1889578253030777, -0.6643455624580383, -0.5039684176445007, -0.931239902973175, -0.27059540152549744, 0.24406979978084564, 0.0823325514793396, 0.2959250211715698, -0.07434643805027008, -0.7811727720612842, -0.10864622029901871, -0.08858512278784902,-0.6083729474840511,-0.86956787109375,0.05816650390625,0.1539764404296875
20220111-1114,2022-01-11 11:14:40Z,u01, 113,40,movements,el-ex, rt, d,75408.20928762501, -1.8436476951407248, 0.2851797747098269, -3.076984063556063, -0.4168092906475067, -0.6638935208320618, -0.3848220407962799, -0.9241117238998413, -0.2813299596309662, 0.25859448313713074, 0.03922390937805176, -0.09464660286903381, 0.03400793671607971, -0.7854342551101923, -0.11131161674344342, -0.0938362818363449,-0.6015792120868477,-0.8660888671875,-0.28857421875,0.2186431884765625
20220111-1114,2022-01-11 11:14:40Z,u01, 114,40,movements,el-ex, rt, d,75408.234230625, -1.8588485603195999, 0.29703662579588563, -3.0798587956492893, -0.1316479593515396, -0.6004519462585449, -0.4545235335826874, -0.9168112277984619, -0.29268789291381836, 0.27164456248283386, -0.07961809635162354, -0.04396674036979675, 0.05850979685783386, -0.7893449569566742, -0.11294610008730277, -0.10024928672094535,-0.5950863102055481,-0.9564666748046875,-0.5499725341796875,0.3227996826171875
20220111-1114,2022-01-11 11:14:40Z,u01, 115,40,movements,el-ex, rt, d,75408.25917462501, -1.8735216130357129, 0.30613088867558136, -3.0737091772481033, 0.26702964305877686, -0.42917656898498535, -0.4217355251312256, -0.9101483225822449, -0.30137166380882263, 0.28426194190979004, -0.08837145566940308, 0.18192589282989502, 0.017327994108200073, -0.7927003953272396, -0.11729043855805593, -0.10289626343674527,-0.5893057523012353,-0.9940643310546875,-0.1490325927734375,0.2934417724609375
20220111-1114,2022-01-11 11:14:40Z,u01, 116,40,movements,el-ex, rt, d,75408.284118625, -1.885462828264394, 0.3137527930263494, -3.065110949573411, 0.09667325764894485, -0.3499978184700012, -0.3745628595352173, -0.9044787287712097, -0.3086303770542145, 0.2943902611732483, -0.02708566188812256, -0.021432459354400635, -0.05111941695213318, -0.795135620750729, -0.12228848125393754, -0.1041383669965538,-0.584773557815961,-0.9683380126953125,-0.2520751953125,0.27227783203125
20220111-1114,2022-01-11 11:14:40Z,u01, 117,40,movements,el-ex, rt, d,75408.309061625, -1.8956327315878456, 0.3224950261742578, -3.061773736672137, -0.04356706887483597, -0.3918145000934601, -0.3888262212276459, -0.898846447467804, -0.3169339597225189, 0.30270054936408997, 0.03126239776611328, -0.0789094865322113, -0.047375380992889404, -0.7972322628800734, -0.12558262278320298, -0.1073082188911599,-0.580632872142817,-0.8740386962890625,-0.393157958984375,0.2516021728515625
20220111-1114,2022-01-11 11:14:40Z,u01, 118,40,movements,el-ex, rt, d,75408.334005625, -1.9060095337651024, 0.3318064766977273, -3.0592212264524217, 0.028038274496793747, -0.36785030364990234, -0.3776007294654846, -0.8928316235542297, -0.32575151324272156, 0.31102699041366577, -0.033636271953582764, 0.05753251910209656, 0.05281877517700195, -0.7993468255553846, -0.12867844960682356, -0.11098188106761023,-0.5763415474075857,-0.8942718505859375,-0.2960357666015625,0.34356689453125
20220111-1114,2022-01-11 11:14:40Z,u01, 119,40,movements,el-ex, rt, d,75408.35894975, -1.9155304531931556, 0.3396282449407058, -3.0552558052139327, 0.10403590649366379, -0.26432672142982483, -0.2968791127204895, -0.8874044418334961, -0.33313658833503723, 0.31864240765571594, -0.11026078462600708, 0.025733083486557007, 0.07355409860610962, -0.8011960626430801, -0.131932066276634, -0.11362491334631064,-0.5725102818780979,-0.9857177734375,-0.26763916015625,0.3935699462890625
20220111-1114,2022-01-11 11:14:40Z,u01, 120,40,movements,el-ex, rt, d,75408.38389375001, -1.9234557626259834, 0.34569304693645664, -3.0492289148470353, 0.16511479020118713, -0.23810794949531555, -0.3172262907028198, -0.8829389810562134, -0.3388487994670868, 0.32496148347854614, -0.02875828742980957, 0.01932978630065918, -0.09005263447761536, -0.8025560761578031, -0.13558940479065384, -0.11489239165891404,-0.5694900409541299,-0.9666595458984375,-0.3459930419921875,0.2878875732421875
20220111-1114,2022-01-11 11:14:41Z,u01, 121,40,movements,el-ex, rt, d,75408.40883675001, -1.931992069144466, 0.3527367169434341, -3.0435140357772146, 0.055029578506946564, -0.2966844439506531, -0.30706390738487244, -0.8778782486915588, -0.34546732902526855, 0.33163484930992126, 0.023355722427368164, 0.07788929343223572, -0.06097465753555298, -0.8039907422958239, -0.1393424287481398, -0.1167188126106016,-0.5661794085827445,-0.8582000732421875,-0.250152587890625,0.2263031005859375
20220111-1114,2022-01-11 11:14:41Z,u01, 122,40,movements,el-ex, rt, d,75408.43378075, -1.9389696072841591, 0.3607488445206641, -3.0422664703286912, -0.23433378338813782, -0.2473110407590866, -0.295955091714859, -0.8729327321052551, -0.3529749810695648, 0.3367452621459961, -0.03423285484313965, -0.01958361268043518, 0.1279306709766388, -0.8051782238033978, -0.14163563508017368, -0.12011965885927273,-0.5632039861549152,-0.8976287841796875,-0.34832763671875,0.3493804931640625
20220111-1114,2022-01-11 11:14:41Z,u01, 123,40,movements,el-ex, rt, d,75408.45872475, -1.9444445634955807, 0.36822609497499764, -3.0424619205091243, 0.05766517296433449, -0.16159002482891083, -0.2815822660923004, -0.8685941100120544, -0.35996100306510925, 0.3405463993549347, -0.11037904024124146, -0.002480924129486084, 0.06989961862564087, -0.8060690017662349, -0.14326884279909802, -0.12361447029883885,-0.5607549248669951,-0.96319580078125,-0.3916168212890625,0.4376220703125
20220111-1114,2022-01-11 11:14:41Z,u01, 124,40,movements,el-ex, rt, d,75408.48366875, -1.9508795583152418, 0.372275186024797, -3.0334834554499013, 0.29540249705314636, -0.12719130516052246, -0.30098631978034973, -0.8650243878364563, -0.36373570561408997, 0.3455852270126343, -0.05237984657287598, -0.018237590789794922, -0.03294798731803894, -0.806851181100237, -0.14759331968491457, -0.12322427686098786,-0.558590341478737,-0.9353179931640625,-0.3921661376953125,0.34161376953125
20220111-1114,2022-01-11 11:14:41Z,u01, 125,40,movements,el-ex, rt, d,75408.50861175, -1.9571381592897708, 0.37730915845140994, -3.0264171961979587, 0.058834366500377655, -0.16549594700336456, -0.26639413833618164, -0.8611375093460083, -0.36842024326324463, 0.35029786825180054, -0.019264042377471924, 0.019665390253067017, -0.0788441002368927, -0.807602204682489, -0.15141866387862046, -0.12378358051018301,-0.5563529978136617,-0.88836669921875,-0.355621337890625,0.2787017822265625
20220111-1114,2022-01-11 11:14:41Z,u01, 126,40,movements,el-ex, rt, d,75408.53355575001, -1.9617399971311535, 0.3825459134173889, -3.0255603321478115, -0.14637307822704315, -0.17506781220436096, -0.16469407081604004, -0.8577207922935486, -0.3732835650444031, 0.3535168766975403, -0.034201085567474365, -0.08977487683296204, 0.10420092940330505, -0.8083222635128304, -0.1528841512429423, -0.1260431241465944,-0.5543957183381519,-0.86444091796875,-0.39825439453125,0.4026947021484375
20220111-1114,2022-01-11 11:14:41Z,u01, 127,40,movements,el-ex, rt, d,75408.55849975001, -1.9651819344714185, 0.3869696599550918, -3.0261571658669855, 0.06503497064113617, -0.12483327090740204, -0.14969287812709808, -0.8549662232398987, -0.37738388776779175, 0.355829119682312, -0.031249046325683594, -0.040691763162612915, 0.012395888566970825, -0.8088999815828946, -0.15360787115198643, -0.12828775373859008,-0.5528361283763493,-0.90423583984375,-0.450958251953125,0.4034881591796875
20220111-1114,2022-01-11 11:14:41Z,u01, 128,40,movements,el-ex, rt, d,75408.58344275001, -1.9709882163534285, 0.389330421985534, -3.0189057808631556, 0.24790087342262268, -0.13360878825187683, -0.22481465339660645, -0.8520625233650208, -0.37956902384757996, 0.3604390025138855, 0.040447771549224854, 0.03884035348892212, -0.08726105093955994, -0.809711956566318, -0.15679940399819303, -0.12770780735970969,-0.550882049403987,-0.8229827880859375,-0.338043212890625,0.2897186279296875
20220111-1114,2022-01-11 11:14:41Z,u01, 129,40,movements,el-ex, rt, d,75408.60838675, -1.9767639658738352, 0.39365380724158344, -3.0128914331813363, 0.00650322251021862, -0.15488411486148834, -0.2491225153207779, -0.8484510779380798, -0.3835653066635132, 0.36470285058021545, 0.07800441980361938, 0.10510772466659546, -0.1182887852191925, -0.8103999867134591, -0.16001028195900008, -0.12829197499613101,-0.5488074809828936,-0.7881317138671875,-0.2980804443359375,0.2500457763671875
20220111-1114,2022-01-11 11:14:41Z,u01, 130,40,movements,el-ex, rt, d,75408.63333075, -1.9797513367739714, 0.4002011068050139, -3.013895850396193, -0.27946406602859497, -0.14165273308753967, -0.22309944033622742, -0.8450353741645813, -0.38960355520248413, 0.3662293553352356, 0.07286453247070312, -0.054213494062423706, 0.08575114607810974, -0.8106481404885477, -0.16113432921290305, -0.13150588108052216,-0.5473494413185844,-0.737335205078125,-0.3488311767578125,0.3859100341796875
20220111-1114,2022-01-11 11:14:41Z,u01, 131,40,movements,el-ex, rt, d,75408.65827475, -1.9811549787803975, 0.40864676271898914, -3.018361768942295, -0.1333092749118805, -0.1023162454366684, -0.2380850464105606, -0.8414732217788696, -0.3973678946495056, 0.3660893738269806, 0.011212050914764404, 0.042921483516693115, 0.03393492102622986, -0.8105420691970893, -0.16145043270194592, -0.1363213670572873,-0.5462341366485625,-0.826080322265625,-0.4006500244140625,0.4295806884765625
20220111-1114,2022-01-11 11:14:41Z,u01, 132,40,movements,el-ex, rt, d,75408.68321775, -1.9853872821137852, 0.4128887870569558, -3.0123463259613183, 0.21049293875694275, -0.057634323835372925, -0.2550624907016754, -0.8383657932281494, -0.4012570381164551, 0.3689650893211365, 0.04034656286239624, 0.07178929448127747, -0.08106237649917603, -0.8107729674146336, -0.16471108717106098, -0.13677500552853533,-0.5448026502927659,-0.806243896484375,-0.3062591552734375,0.2843017578125
20220111-1114,2022-01-11 11:14:41Z,u01, 133,40,movements,el-ex, rt, d,75408.70816175001, -1.9879807129760514, 0.4171074304805037, -3.0111670639774517, -0.18501804769039154, -0.11011563986539841, -0.10673348605632782, -0.8358513712882996, -0.40511757135391235, 0.370449036359787, 0.028615593910217285, -0.07178065180778503, 0.05919268727302551, -0.8109447985639655, -0.16611156812074473, -0.1384096783424656,-0.5437079495642724,-0.796417236328125,-0.4396820068359375,0.418365478515625
20220111-1114,2022-01-11 11:14:41Z,u01, 134,40,movements,el-ex, rt, d,75408.73310575, -1.9876369333543622, 0.4208799349042084, -3.0163471356579032, -0.17253203690052032, -0.05989368259906769, -0.0037883962504565716, -0.8345751762390137, -0.4085637629032135, 0.3695402145385742, -0.04373598098754883, -0.04289799928665161, 0.06048285961151123, -0.8108877742440361, -0.16501855266646764, -0.1413459539571321,-0.5433702423772276,-0.86993408203125,-0.473846435546875,0.46453857421875
20220111-1114,2022-01-11 11:14:41Z,u01, 135,40,movements,el-ex, rt, d,75408.75804875001, -1.9885908231577234, 0.42071180949078235, -3.0158355082905417, 0.16154107451438904, -0.0040832823142409325, 0.0066752964630723, -0.8342851400375366, -0.40841028094291687, 0.3703640401363373, -0.06143641471862793, 0.0017024874687194824, -0.018542200326919556, -0.8111221360616024, -0.1651148262976187, -0.14121632884455507,-0.5430248709349756,-0.895904541015625,-0.4066162109375,0.3671417236328125
20220111-1114,2022-01-11 11:14:41Z,u01, 136,40,movements,el-ex, rt, d,75408.78299275, -1.9912155994962961, 0.41907192108535873, -3.012253770762462, 0.04513716697692871, -0.03024577721953392, 0.059109605848789215, -0.8339201807975769, -0.4069128632545471, 0.3728252947330475, -0.0014373064041137695, -0.043816447257995605, -0.045036137104034424, -0.811708666270065, -0.16595688279805193, -0.13978465165488949,-0.5422614284689586,-0.8546295166015625,-0.459259033203125,0.3268280029296875
20220111-1114,2022-01-11 11:14:41Z,u01, 137,40,movements,el-ex, rt, d,75408.80793675, -1.9909573442043205, 0.4185802602570669, -3.0164299751883545, -0.21549482643604279, -0.03035123646259308, 0.1601901650428772, -0.834199070930481, -0.4064636826515198, 0.3726915419101715, -0.005217373371124268, -0.15402212738990784, 0.08054018020629883, -0.8120344333228817, -0.16415189836975347, -0.1406923154875024,-0.5420884141220899,-0.831268310546875,-0.522796630859375,0.4330902099609375
20220111-1114,2022-01-11 11:14:41Z,u01, 138,40,movements,el-ex, rt, d,75408.83288075001, -1.9893104958396108, 0.41612438068669344, -3.0207613958430364, 0.03453858569264412, -0.0012663230299949646, 0.15216578543186188, -0.8357213139533997, -0.4042186141014099, 0.3717218041419983, -0.04300189018249512, -0.04480183124542236, -0.00899001955986023, -0.8121940936136598, -0.16186926171449162, -0.14071831260207435,-0.542528729189249,-0.867523193359375,-0.532989501953125,0.401214599609375
20220111-1114,2022-01-11 11:14:41Z,u01, 139,40,movements,el-ex, rt, d,75408.85782375, -1.9879505091931708, 0.41176786050869413, -3.0198845963715746, 0.04454341530799866, 0.06055709719657898, 0.1956152617931366, -0.8378281593322754, -0.4002300500869751, 0.37129488587379456, -0.04599142074584961, 0.013404488563537598, -0.05337810516357422, -0.8121991239282336, -0.16118318636222506, -0.1385717141838719,-0.5432774973658817,-0.8917236328125,-0.39593505859375,0.313385009765625
20220111-1114,2022-01-11 11:14:41Z,u01, 140,40,movements,el-ex, rt, d,75408.88276775001, -1.9847092633803718, 0.4112874834662391, -3.027844827503956, -0.3727642893791199, 0.0035836920142173767, 0.22170265018939972, -0.8392030596733093, -0.3997897803783417, 0.3686545789241791, 0.0013734698295593262, -0.015905410051345825, -0.019594669342041016, -0.812001922828328, -0.15805113169946827, -0.14027869354711517,-0.5440537993958939,-0.8363494873046875,-0.40863037109375,0.346160888671875
20220111-1114,2022-01-11 11:14:41Z,u01, 141,40,movements,el-ex, rt, d,75408.90771175, -1.9801590162006701, 0.41161349966118305, -3.03670032681955, -0.16068659722805023, 0.12448594719171524, 0.15800176560878754, -0.8407521843910217, -0.4000885784626007, 0.3647802770137787, -0.02695399522781372, 0.054217636585235596, -0.014285951852798462, -0.8114229115232359, -0.1548644452560919, -0.14246866266340003,-0.545263660150486,-0.861724853515625,-0.35791015625,0.353546142578125
20220111-1114,2022-01-11 11:14:41Z,u01, 142,40,movements,el-ex, rt, d,75408.93265575, -1.9735031601772652, 0.41026760284408936, -3.0411785297451424, -0.12611816823482513, 0.19494746625423431, 0.07441965490579605, -0.8436562418937683, -0.39885473251342773, 0.359387069940567, -0.06871247291564941, -0.056162357330322266, 0.05160832405090332, -0.8100822515123571, -0.1531674916725555, -0.1426263645270772,-0.5476898623045706,-0.8909149169921875,-0.39520263671875,0.381866455078125
20220111-1114,2022-01-11 11:14:41Z,u01, 143,40,movements,el-ex, rt, d,75408.95759875, -1.9665279782454126, 0.4112066801237889, -3.0451719813571585, -0.09822112321853638, 0.2040797770023346, -0.012158844619989395, -0.8457965850830078, -0.39971572160720825, 0.3533492088317871, -0.11277592182159424, -0.06154227256774902, 0.05190888047218323, -0.8083805500536602, -0.15230065509557494, -0.1435749422532213,-0.5501924049198723,-0.9468231201171875,-0.47113037109375,0.4250946044921875
20220111-1114,2022-01-11 11:14:41Z,u01, 144,40,movements,el-ex, rt, d,75408.98254275, -1.9604801316576916, 0.4118393991093129, -3.044858788728152, 0.022383220493793488, 0.2790986895561218, -0.05265187472105026, -0.847683846950531, -0.400295615196228, 0.34813132882118225, -0.17035198211669922, 0.01539263129234314, -0.026857614517211914, -0.8066272155066702, -0.15303008214718689, -0.14328588726508912,-0.5526332111551032,-1.015472412109375,-0.38763427734375,0.329925537109375
20220111-1114,2022-01-11 11:14:41Z,u01, 145,40,movements,el-ex, rt, d,75409.00748675001, -1.9530496321647288, 0.4136722229681234, -3.0473440480113045, -0.24372512102127075, 0.23085400462150574, -0.021534103900194168, -0.8495650887489319, -0.40197449922561646, 0.3415488302707672, -0.15295261144638062, -0.018405139446258545, -0.015346527099609375, -0.8045796017368503, -0.1530557962678905, -0.14415399933443956,-0.555378411989249,-1.0026702880859375,-0.39752197265625,0.318572998046875
20220111-1114,2022-01-11 11:14:41Z,u01, 146,40,movements,el-ex, rt, d,75409.03242975, -1.9451560913508623, 0.416191196200266, -3.05357548725165, -0.1564996838569641, 0.2065952718257904, -0.01854417286813259, -0.8512895107269287, -0.4042797386646271, 0.3344608545303345, -0.1822340488433838, -0.07843205332756042, 0.05144906044006348, -0.8026114423287296, -0.15180680383847023, -0.14631226589972934,-0.5579984735424738,-1.0252838134765625,-0.4757232666015625,0.3917388916015625
20220111-1114,2022-01-11 11:14:41Z,u01, 147,40,movements,el-ex, rt, d,75409.05737375001, -1.940423690041329, 0.4167940317590907, -3.052794135844947, 0.1311016082763672, 0.18953824043273926, -0.06242747604846954, -0.8526353240013123, -0.40483102202415466, 0.3303403854370117, -0.17637169361114502, -0.059280335903167725, 0.020138651132583618, -0.8011705955986959, -0.15262982598340108, -0.14597852926526814,-0.5599286274175714,-1.03094482421875,-0.4614410400390625,0.36114501953125
20220111-1114,2022-01-11 11:14:41Z,u01, 148,40,movements,el-ex, rt, d,75409.08231775, -1.9374776726892216, 0.4169225941025505, -3.050316151666853, 0.010568106546998024, 0.10673624277114868, -0.042678602039813995, -0.8535560965538025, -0.4049485921859741, 0.32780835032463074, -0.16486108303070068, -0.1002088189125061, 0.020580261945724487, -0.8001423673149636, -0.15387126374306748, -0.14511037044352879,-0.561283070388134,-1.0237884521484375,-0.472137451171875,0.3401641845703125
20220111-1114,2022-01-11 11:14:41Z,u01, 149,40,movements,el-ex, rt, d,75409.10726175, -1.935521752820322, 0.4176279371563883, -3.0501264458695334, 0.03104325383901596, 0.06725268065929413, -0.06936807185411453, -0.853928804397583, -0.4055933952331543, 0.32603633403778076, -0.18759047985076904, -0.0375218391418457, 0.013380080461502075, -0.7995094351716758, -0.15428167868034998, -0.14519224049840274,-0.5620507654338441,-1.0364990234375,-0.46417236328125,0.343994140625
20220111-1114,2022-01-11 11:14:41Z,u01, 150,40,movements,el-ex, rt, d,75409.13220475, -1.9356263099065973, 0.4182000294549048, -3.0463356691848706, 0.16057226061820984, 0.04196896404027939, -0.1012609526515007, -0.8536776900291443, -0.406116247177124, 0.3260427415370941, -0.15874290466308594, -0.0277673602104187, 0.006369829177856445, -0.7991885901711594, -0.15594542420898705, -0.14436665065457052,-0.5622604865775684,-1.0251007080078125,-0.4258880615234375,0.3325958251953125
20220111-1114,2022-01-11 11:14:41Z,u01, 151,40,movements,el-ex, rt, d,75409.15714875, -1.9364959584621357, 0.419560365165412, -3.0431409493581367, 0.025661470368504524, -0.018551835790276527, -0.09856443852186203, -0.8528771996498108, -0.40735897421836853, 0.3265872001647949, -0.1509069800376892, -0.08220401406288147, 0.04130208492279053, -0.7990480628098391, -0.15753028935714014, -0.144088093552651,-0.5620898832529712,-1.0041046142578125,-0.48193359375,0.3693389892578125
20220111-1114,2022-01-11 11:14:41Z,u01, 152,40,movements,el-ex, rt, d,75409.18209275001, -1.9381892691525193, 0.42117473720087745, -3.0406295930711047, 0.13791963458061218, -0.021175183355808258, -0.1044008880853653, -0.8517081141471863, -0.4088328182697296, 0.32779428362846375, -0.18126612901687622, -0.0490986704826355, 0.006129026412963867, -0.799164183979981, -0.15885133459045042, -0.1441711073095457,-0.561531449545111,-1.0274658203125,-0.4692840576171875,0.3531036376953125
20220111-1114,2022-01-11 11:14:41Z,u01, 153,40,movements,el-ex, rt, d,75409.20703575, -1.9405220961518725, 0.42234891892038384, -3.0360622740569467, 0.11862832307815552, -0.02839002013206482, -0.09414006769657135, -0.8504928350448608, -0.4099040925502777, 0.3296065330505371, -0.15747225284576416, -0.0506824254989624, -0.00454866886138916, -0.7993357870548871, -0.1608277635442335, -0.1435523614779656,-0.5608826934352038,-1.0177459716796875,-0.4539947509765625,0.329681396484375
20220111-1114,2022-01-11 11:14:41Z,u01, 154,40,movements,el-ex, rt, d,75409.23197975001, -1.9418848458456088, 0.42403553631190405, -3.034732660615779, -0.036831602454185486, -0.04819574952125549, -0.05705587938427925, -0.8493973016738892, -0.4114419221878052, 0.3305140435695648, -0.14669638872146606, -0.08350735902786255, 0.06513091921806335, -0.7994398948971538, -0.16171850878997224, -0.14397430020069674,-0.5603697710619342,-0.993988037109375,-0.47802734375,0.3746337890625
20220111-1114,2022-01-11 11:14:41Z,u01, 155,40,movements,el-ex, rt, d,75409.25692375, -1.9431020216079031, 0.42488404911054817, -3.0336764355017043, 0.09131581336259842, -0.0035929279401898384, -0.028948411345481873, -0.8486689925193787, -0.41221514344215393, 0.3314206004142761, -0.15284156799316406, -0.05079752206802368, 0.0486147403717041, -0.7996090219584295, -0.1622828170288927, -0.14412166421565417,-0.5599273558800377,-1.0023651123046875,-0.46929931640625,0.3779449462890625
20220111-1114,2022-01-11 11:14:41Z,u01, 156,40,movements,el-ex, rt, d,75409.28186775, -1.9441729069934581, 0.42447071822899063, -3.0309248424644606, 0.060217052698135376, 0.012614870443940163, -0.011392520740628242, -0.8484720587730408, -0.4118385314941406, 0.33239132165908813, -0.12201738357543945, -0.05332562327384949, 0.010137796401977539, -0.7997270094794295, -0.16319428624059784, -0.14327066934076027,-0.5597122428445878,-0.9783935546875,-0.4664764404296875,0.3479766845703125
20220111-1114,2022-01-11 11:14:41Z,u01, 157,40,movements,el-ex, rt, d,75409.30681075, -1.942821567344881, 0.4242478135596562, -3.0319528870216725, -0.13701528310775757, 0.05091731622815132, 0.046113982796669006, -0.849005937576294, -0.4116353988647461, 0.3312777876853943, -0.095100998878479, -0.08728116750717163, 0.03249165415763855, -0.7994551878412341, -0.16281983475332756, -0.14335779314487346,-0.5601870667853157,-0.9486236572265625,-0.4965667724609375,0.3597564697265625
20220111-1114,2022-01-11 11:14:41Z,u01, 158,40,movements,el-ex, rt, d,75409.33175475, -1.9393378167556758, 0.42393607449744586, -3.0363568267529297, -0.11501944810152054, 0.10505245625972748, 0.0794341191649437, -0.8502745628356934, -0.4113512635231018, 0.3283642828464508, -0.11130374670028687, -0.025523066520690918, 0.06502243876457214, -0.7988668898615379, -0.16122604345745656, -0.14418372145032096,-0.5612742987897825,-0.9427947998046875,-0.4878387451171875,0.3850555419921875
20220111-1114,2022-01-11 11:14:41Z,u01, 159,40,movements,el-ex, rt, d,75409.35669862501, -1.9344012780485151, 0.42152130944400185, -3.03883195482095, -0.0008851513266563416, 0.2014799267053604, 0.15326572954654694, -0.8528111577033997, -0.40914908051490784, 0.3245152533054352, -0.11593884229660034, -0.02705395221710205, 0.07286930084228516, -0.7979211268253497, -0.1599359130622559, -0.14350424511123938,-0.5631597372950933,-0.972320556640625,-0.4298095703125,0.4129791259765625
20220111-1114,2022-01-11 11:14:41Z,u01, 160,40,movements,el-ex, rt, d,75409.381642625, -1.9274551543838716, 0.4179213979254011, -3.0414531985597764, -0.10896714776754379, 0.25231674313545227, 0.18214024603366852, -0.8564193248748779, -0.40586161613464355, 0.3190959095954895, -0.045085132122039795, -0.009009569883346558, 0.021709054708480835, -0.7965278644411427, -0.15840239923717014, -0.14223470345460945,-0.56588099882925,-0.925811767578125,-0.4214324951171875,0.34442138671875
20220111-1114,2022-01-11 11:14:42Z,u01, 161,40,movements,el-ex, rt, d,75409.40658562501, -1.9182642162938701, 0.4145650036824775, -3.0473819489523177, -0.17402061820030212, 0.3050621747970581, 0.20896568894386292, -0.8605920076370239, -0.402791827917099, 0.3116734027862549, -0.060276031494140625, -0.03078669309616089, 0.038958221673965454, -0.7947149624004788, -0.15577173319722848, -0.14184077850575957,-0.5692491136496406,-0.913818359375,-0.4391326904296875,0.360748291015625
20220111-1114,2022-01-11 11:14:42Z,u01, 162,40,movements,el-ex, rt, d,75409.431529625, -1.9072735224689192, 0.4104118915169393, -3.0533454621585148, -0.16723224520683289, 0.38521608710289, 0.24023965001106262, -0.8655370473861694, -0.3989870548248291, 0.3027459681034088, -0.04950213432312012, -0.026244908571243286, 0.06912592053413391, -0.7924363771739331, -0.15302803052049913, -0.14102551254993517,-0.573357558554834,-0.9218292236328125,-0.42266845703125,0.3605194091796875
20220111-1114,2022-01-11 11:14:42Z,u01, 163,40,movements,el-ex, rt, d,75409.456473625, -1.894301700335848, 0.4056417970115262, -3.0603199285466474, -0.1224030926823616, 0.4400295913219452, 0.2960126996040344, -0.8711857795715332, -0.3946085572242737, 0.292094886302948, -0.0505976676940918, -0.0026997923851013184, 0.08301186561584473, -0.7896803442546416, -0.14984124899031448, -0.14014067919876627,-0.578198186191438,-0.918304443359375,-0.40478515625,0.3912353515625
20220111-1114,2022-01-11 11:14:42Z,u01, 164,40,movements,el-ex, rt, d,75409.481416625, -1.8806033376881983, 0.3987013275582451, -3.06406738604944, -0.024244435131549835, 0.5161709785461426, 0.3268108367919922, -0.8776924014091492, -0.3882218599319458, 0.2809622585773468, 0.01491469144821167, 0.0379716157913208, -0.031313300132751465, -0.7866199625769996, -0.14734368725078484, -0.1374440435702896,-0.5836334223669417,-0.8983612060546875,-0.32122802734375,0.2635650634765625
20220111-1114,2022-01-11 11:14:42Z,u01, 165,40,movements,el-ex, rt, d,75409.506360625, -1.8656962723289912, 0.392118801161255, -3.070886265681638, -0.2829277217388153, 0.47465479373931885, 0.3261438310146332, -0.884209156036377, -0.38214725255966187, 0.268584668636322, 0.04460954666137695, 0.007452458143234253, -0.019927501678466797, -0.7833362482468414, -0.14379378143864135, -0.1357465744165083,-0.5893051574507834,-0.838165283203125,-0.376007080078125,0.2407684326171875
20220111-1114,2022-01-11 11:14:42Z,u01, 166,40,movements,el-ex, rt, d,75409.53130462501, -1.849772272114419, 0.38548334728700756, -3.079872290987184, -0.16717129945755005, 0.5239526033401489, 0.37285542488098145, -0.8907917141914368, -0.3760070502758026, 0.25516366958618164, 0.021498680114746094, 0.03271487355232239, 0.02042528986930847, -0.779834462725061, -0.13942753976624467, -0.1346616137277146,-0.5952178610637292,-0.869049072265625,-0.3556976318359375,0.282073974609375
20220111-1114,2022-01-11 11:14:42Z,u01, 167,40,movements,el-ex, rt, d,75409.556248625, -1.834068461820699, 0.3769053047842201, -3.0864668041857333, -0.13723507523536682, 0.5048220753669739, 0.4171329438686371, -0.89777010679245, -0.36804476380348206, 0.24197444319725037, 0.046619713306427, 0.019793450832366943, 0.0286247581243515, -0.7763111968164644, -0.13538150003033295, -0.1321893610366219,-0.6012808309726395,-0.8560028076171875,-0.3488311767578125,0.2832489013671875
20220111-1114,2022-01-11 11:14:42Z,u01, 168,40,movements,el-ex, rt, d,75409.58119162501, -1.8192010427859722, 0.36762885793947414, -3.09283018338853, -0.173862487077713, 0.4887312054634094, 0.4323759973049164, -0.9045388698577881, -0.35940372943878174, 0.22943024337291718, 0.06423741579055786, 0.10746589303016663, -0.07102884352207184, -0.7729954907422389, -0.13112242535718643, -0.1295007497161874,-0.6070538479797605,-0.85516357421875,-0.2638702392578125,0.181884765625
20220111-1114,2022-01-11 11:14:42Z,u01, 169,40,movements,el-ex, rt, d,75409.606135625, -1.804598682811516, 0.3573641746703823, -3.1027804044306597, -0.35909906029701233, 0.3863678276538849, 0.5263941287994385, -0.9113335013389587, -0.34980615973472595, 0.21704114973545074, 0.05598682165145874, -0.032197654247283936, -0.0015108585357666016, -0.7699768309283548, -0.12512495398256107, -0.1276144791608524,-0.6125307641843485,-0.842132568359375,-0.3560333251953125,0.2028045654296875
20220111-1114,2022-01-11 11:14:42Z,u01, 170,40,movements,el-ex, rt, d,75409.631079625, -1.7894480195937195, 0.34621579066923236, -3.1165452979691017, -0.36848628520965576, 0.4012850522994995, 0.5895159244537354, -0.9182669520378113, -0.33934056758880615, 0.2040427029132843, -0.00359266996383667, -0.04637104272842407, 0.03153763711452484, -0.7669681259440019, -0.11739355087291953, -0.12662739026385333,-0.6180162039627772,-0.9160919189453125,-0.3623199462890625,0.2483062744140625
20220111-1114,2022-01-11 11:14:42Z,u01, 171,40,movements,el-ex, rt, d,75409.656022625, -1.7754759816298094, 0.33332008154092285, -3.1268074208957484, -0.12361037731170654, 0.43790584802627563, 0.6023309230804443, -0.9252364039421082, -0.32718217372894287, 0.1920667141675949, -0.03008592128753662, 0.05313429236412048, -0.011692613363265991, -0.7641040044290206, -0.110355925612182, -0.12406678935632254,-0.623357162305885,-0.9559478759765625,-0.29644775390625,0.19598388671875
20220111-1114,2022-01-11 11:14:42Z,u01, 172,40,movements,el-ex, rt, d,75409.680966625, -1.762057669883648, 0.318894224089545, -3.1321072577955675, -0.139929860830307, 0.4688914120197296, 0.620155930519104, -0.9322672486305237, -0.3135167360305786, 0.1805131882429123, 0.016968846321105957, 0.0619451105594635, -0.02331721782684326, -0.7611212814494989, -0.10464696584750383, -0.11949490730851986,-0.6288595748292412,-0.933441162109375,-0.2137298583984375,0.1185760498046875
20220111-1114,2022-01-11 11:14:42Z,u01, 173,40,movements,el-ex, rt, d,75409.70591062501, -1.7474456221178705, 0.3047747305282768, 3.1407624475593297, -0.422465443611145, 0.4455639123916626, 0.6542100310325623, -0.9390697479248047, -0.30007830262184143, 0.1676333099603653, 0.008619368076324463, 0.01269426941871643, 0.035583123564720154, -0.7578793989770364, -0.09713634700247559, -0.11665079697148778,-0.634488669784709,-0.9191131591796875,-0.26495361328125,0.163299560546875
20220111-1114,2022-01-11 11:14:42Z,u01, 174,40,movements,el-ex, rt, d,75409.730854625, -1.7314895063078164, 0.2894896276808305, 3.1290905915939384, -0.11200910806655884, 0.6084826588630676, 0.6932392716407776, -0.9460423588752747, -0.2854631245136261, 0.15334473550319672, -0.08964788913726807, 0.014299184083938599, 0.008611917495727539, -0.7541837173289735, -0.08876535020322746, -0.11385655880767659,-0.6405968147846995,-1.0340118408203125,-0.3317718505859375,0.231109619140625
20220111-1114,2022-01-11 11:14:42Z,u01, 175,40,movements,el-ex, rt, d,75409.75579762501, -1.715290956284975, 0.2729744531972724, 3.1297076209216614, 0.16720528900623322, 0.6428236961364746, 0.6266342997550964, -0.95293790102005, -0.2695969343185425, 0.13866077363491058, 0.06411349773406982, 0.12834635376930237, -0.08763551712036133, -0.7497864523664591, -0.08456159925037021, -0.10675539560452851,-0.6475128559465468,-0.92901611328125,-0.1649017333984375,0.0556182861328125
20220111-1114,2022-01-11 11:14:42Z,u01, 176,40,movements,el-ex, rt, d,75409.780741625, -1.6989188657787542, 0.25705625212680394, 3.124958559429266, -0.35789355635643005, 0.5658060908317566, 0.7002825736999512, -0.9592152833938599, -0.25423464179039, 0.12357401102781296, 0.09919959306716919, -0.0720134973526001, 0.039344049990177155, -0.7454078560149088, -0.0784482759767699, -0.10169308724445925,-0.6541187816232186,-0.811614990234375,-0.2130126953125,0.1097564697265625
20220111-1114,2022-01-11 11:14:42Z,u01, 177,40,movements,el-ex, rt, d,75409.805685625, -1.6804162435095977, 0.23976147462322403, 3.113279312837596, -0.22134894132614136, 0.6447321772575378, 0.775861918926239, -0.965563952922821, -0.23747092485427856, 0.10627105087041855, 0.05505692958831787, -0.03367772698402405, 0.027166947722434998, -0.7404922955874618, -0.06933027333261471, -0.09844113730280141,-0.6611911292193144,-0.920257568359375,-0.2997894287109375,0.1476593017578125
20220111-1114,2022-01-11 11:14:42Z,u01, 178,40,movements,el-ex, rt, d,75409.830628625, -1.6648333105991313, 0.22151312079532248, 3.109951037861599, 0.03806557506322861, 0.5473465323448181, 0.6815261244773865, -0.9712558388710022, -0.21970602869987488, 0.09160414338111877, 0.13473856449127197, 0.08713766932487488, -0.08440208435058594, -0.7361136755715274, -0.0627592894635624, -0.0923166922113316,-0.6675893313616215,-0.850006103515625,-0.1628265380859375,0.027374267578125
20220111-1114,2022-01-11 11:14:42Z,u01, 179,40,movements,el-ex, rt, d,75409.855572625, -1.6520313892363458, 0.20505541329011112, 3.1066813176955774, -0.1683036834001541, 0.42338496446609497, 0.6784784197807312, -0.9758211374282837, -0.20362141728401184, 0.0794457271695137, 0.12181723117828369, -0.0012583732604980469, -0.034340858459472656, -0.7324750809256018, -0.05659609964741602, -0.08700756169857232,-0.6728349785978314,-0.83746337890625,-0.1540679931640625,0.0256500244140625
20220111-1114,2022-01-11 11:14:42Z,u01, 180,40,movements,el-ex, rt, d,75409.88051662501, -1.6404267698554515, 0.1889101955087886, 3.100307984721927, -0.15947918593883514, 0.3884998857975006, 0.6719435453414917, -0.9798293709754944, -0.18778859078884125, 0.06833642721176147, 0.04817354679107666, -0.02592599391937256, 0.05541229248046875, -0.7292043063321797, -0.049287869252500116, -0.08297250292541081,-0.677456527774564,-0.9222564697265625,-0.2316741943359375,0.0559844970703125
20220111-1114,2022-01-11 11:14:42Z,u01, 181,40,movements,el-ex, rt, d,75409.905460625, -1.6300759355966543, 0.17226579148408952, 3.099020552949532, 0.1566154658794403, 0.46349862217903137, 0.6723753809928894, -0.9834684133529663, -0.1714150458574295, 0.0583680085837841, -0.005606293678283691, 0.00970238447189331, 0.04305708408355713, -0.7261452965222157, -0.04355470345268647, -0.07713531759623748,-0.6818109366885148,-0.9828948974609375,-0.181121826171875,0.126220703125
20220111-1114,2022-01-11 11:14:42Z,u01, 182,40,movements,el-ex, rt, d,75409.93040362501, -1.6193904333977016, 0.15534275333329917, 3.1037475001195007, 0.168201744556427, 0.39023253321647644, 0.6543411016464233, -0.9867921471595764, -0.15471874177455902, 0.047990065068006516, 0.16472506523132324, 0.09581981599330902, -0.10583627969026566, -0.722777359141424, -0.03984872937693906, -0.06918461026718059,-0.6864534392045902,-0.87945556640625,-0.059722900390625,-0.02252197265625
20220111-1114,2022-01-11 11:14:42Z,u01, 183,40,movements,el-ex, rt, d,75409.955347625, -1.6107072298444054, 0.13984562493315691, 3.101698566179722, -0.3540269434452057, 0.30479225516319275, 0.5983484983444214, -0.9894489049911499, -0.1393902450799942, 0.039510782808065414, 0.11888933181762695, -0.010786741971969604, -0.05914890766143799, -0.7201360837038822, -0.034050133869284294, -0.06415429265656258,-0.6900208728823336,-0.847137451171875,-0.1385650634765625,-0.0484466552734375
20220111-1114,2022-01-11 11:14:42Z,u01, 184,40,movements,el-ex, rt, d,75409.980291625, -1.6013224921378502, 0.12526236321891787, 3.091416195528281, -0.2590135633945465, 0.3848855793476105, 0.6257610321044922, -0.9917026162147522, -0.12493504583835602, 0.030282285064458847, 0.005527138710021973, 0.05460730195045471, 0.07428610324859619, -0.7172769256975632, -0.025592077470360075, -0.062345335464894625,-0.693521348520564,-0.9642791748046875,-0.1144256591796875,0.097900390625
20220111-1114,2022-01-11 11:14:42Z,u01, 185,40,movements,el-ex, rt, d,75410.005234625, -1.5904429649199632, 0.10861706442918756, 3.0903931519316292, 0.07991838455200195, 0.4202467203140259, 0.6903334856033325, -0.9939152002334595, -0.10840361565351486, 0.01952960528433323, 0.06276285648345947, 0.05562347173690796, 0.04490816593170166, -0.713705161553375, -0.019741950868260805, -0.05664023655775835,-0.697873297164995,-0.951202392578125,-0.0438079833984375,0.07244873046875
20220111-1114,2022-01-11 11:14:42Z,u01, 186,40,movements,el-ex, rt, d,75410.030178625, -1.5803795069498925, 0.09184959273135795, 3.0914546941213037, 0.014083877205848694, 0.3861899971961975, 0.6033203601837158, -0.9957391619682312, -0.09172049909830093, 0.009542640298604965, 0.11442196369171143, 0.022552363574504852, -0.06160569190979004, -0.7103245062643508, -0.014505713654033026, -0.050228104036694976,-0.7019301301307143,-0.9134674072265625,-0.1142425537109375,-0.0087738037109375
20220111-1114,2022-01-11 11:14:42Z,u01, 187,40,movements,el-ex, rt, d,75410.05512262501, -1.5716582685255767, 0.07809551555473558, 3.0880036919454583, -0.289055734872818, 0.3024187386035919, 0.49315959215164185, -0.9969518184661865, -0.07801615446805954, 0.000859314575791359, 0.13392990827560425, -0.006548084318637848, 0.05781066417694092, -0.7073577148220306, -0.008644105847082417, -0.046527591747957675,-0.7052698746460248,-0.8571014404296875,-0.0438995361328125,0.03887939453125
20220111-1114,2022-01-11 11:14:42Z,u01, 188,40,movements,el-ex, rt, d,75410.080066625, -1.5628161339120468, 0.06522487304492548, 3.0763259526089968, -0.4886385202407837, 0.3370509445667267, 0.5141080021858215, -0.9978418350219727, -0.06517863273620605, -0.007963139563798904, 0.053750038146972656, -0.07039570808410645, 0.05950725078582764, -0.7042857387438808, -0.00016916728516908064, -0.04610270340662537,-0.7084180151968643,-0.9407501220703125,-0.167266845703125,0.1016998291015625
20220111-1114,2022-01-11 11:14:42Z,u01, 189,40,movements,el-ex, rt, d,75410.10500962501, -1.5538886541822639, 0.05270083671210802, 3.0699551538381558, -0.012450228445231915, 0.35727477073669434, 0.45686736702919006, -0.9984689354896545, -0.05267644673585892, -0.016883395612239838, 0.053003787994384766, 0.02322699874639511, 0.05039167404174805, -0.7010836734559989, 0.006323394569483387, -0.043986957947078964,-0.7116929799838426,-0.9416351318359375,-0.043975830078125,0.043365478515625
20220111-1114,2022-01-11 11:14:42Z,u01, 190,40,movements,el-ex, rt, d,75410.129953625, -1.545530199001982, 0.043030493753430786, 3.0724662425702753, 0.13764655590057373, 0.31142571568489075, 0.2896101474761963, -0.9987553954124451, -0.04301721602678299, -0.025240052491426468, 0.08341121673583984, -0.04740637168288231, -0.010908124968409538, -0.6980715255778521, 0.008724631204889699, -0.03974605817962701,-0.7148707515950505,-0.9262237548828125,-0.091094970703125,-0.0183868408203125
20220111-1114,2022-01-11 11:14:42Z,u01, 191,40,movements,el-ex, rt, d,75410.154897625, -1.5384120882710592, 0.03705801877593596, 3.0762511345824968, 0.1414114385843277, 0.2853586673736572, 0.19264915585517883, -0.9987894296646118, -0.037049535661935806, -0.032356347888708115, 0.08796185255050659, -0.049528807401657104, 0.02945709228515625, -0.6955093370715726, 0.009412149386249236, -0.03634504747496603,-0.7175354842182882,-0.9073638916015625,-0.081329345703125,-0.0101318359375
20220111-1114,2022-01-11 11:14:42Z,u01, 192,40,movements,el-ex, rt, d,75410.179840625, -1.5319746439693414, 0.031672330700078626, 3.0776264246383187, -0.035839371383190155, 0.22027260065078735, 0.23183012008666992, -0.9987455010414124, -0.031667035073041916, -0.03879247233271599, 0.1144832968711853, -0.023295138031244278, 0.07982325553894043, -0.6931724246399091, 0.010758918584484467, -0.034015689936075344,-0.719888375812819,-0.8871307373046875,-0.036102294921875,-0.0163116455078125
20220111-1114,2022-01-11 11:14:42Z,u01, 193,40,movements,el-ex, rt, d,75410.204784625, -1.5267837839793597, 0.026184317621108857, 3.077792735222632, 0.0727175921201706, 0.21126258373260498, 0.213667094707489, -0.9986890554428101, -0.026181325316429138, -0.04398324713110924, 0.07316732406616211, 0.04641446843743324, 0.06246155872941017, -0.6912667609595451, 0.012595296623824581, -0.032088417550995674,-0.7217768594230546,-0.9158477783203125,0.00408935546875,0.0186004638671875
20220111-1114,2022-01-11 11:14:42Z,u01, 194,40,movements,el-ex, rt, d,75410.22972862501, -1.5221324274995929, 0.021117542049941537, 3.0803563023961122, 0.07327846437692642, 0.131295308470726, 0.15455476939678192, -0.9985932111740112, -0.021115971729159355, -0.04863383620977402, 0.12931549549102783, 0.0323464572429657, 0.014866061508655548, -0.6895662539937664, 0.013470795895540066, -0.02944471739024468,-0.7234982465389925,-0.90777587890625,0.0079345703125,0.0016937255859375
20220111-1114,2022-01-11 11:14:42Z,u01, 195,40,movements,el-ex, rt, d,75410.254672625, -1.521251164530791, 0.018878663557059295, 3.0802273601591774, -0.1757606565952301, -0.03232477605342865, 0.033336203545331955, -0.9985949397087097, -0.01887754164636135, -0.04951607063412666, 0.13903683423995972, -0.021039456129074097, 0.06251645088195801, -0.6892293544033653, 0.01431300317390699, -0.028726259923538555,-0.7238320546446765,-0.8480224609375,-0.0025482177734375,-0.021240234375
20220111-1114,2022-01-11 11:14:42Z,u01, 196,40,movements,el-ex, rt, d,75410.27961562501, -1.5229621521183396, 0.01963227256788448, 3.07356904994551, -0.13906407356262207, -0.0972772091627121, -0.11342161148786545, -0.998663604259491, -0.01963101141154766, -0.047806717455387115, 0.09738802909851074, 0.011940598487854004, 0.037842631340026855, -0.6898035547100785, 0.01636144845822818, -0.03138136485643861,-0.7231310436624743,-0.900665283203125,-0.0970458984375,0.0308074951171875
20220111-1114,2022-01-11 11:14:42Z,u01, 197,40,movements,el-ex, rt, d,75410.304559625, -1.5250317523225863, 0.023864746218267105, 3.0776055294044, 0.35490909218788147, -0.11194442957639694, -0.224008709192276, -0.998668372631073, -0.023862481117248535, -0.045735567808151245, 0.09879672527313232, 0.07308736443519592, 0.0029345788061618805, -0.6906162234841402, 0.013470293078719331, -0.03136674789588256,-0.7224151998467969,-0.91058349609375,0.061004638671875,-0.0381927490234375
20220111-1114,2022-01-11 11:14:42Z,u01, 198,40,movements,el-ex, rt, d,75410.329503625, -1.530736696997747, 0.03159638133328699, 3.0827303833291797, 0.04140517860651016, -0.31179696321487427, -0.38201579451560974, -0.9986990094184875, -0.03159112483263016, -0.040028925985097885, 0.10448825359344482, -0.05962589383125305, 0.08287549018859863, -0.6927514590144974, 0.008997383354595823, -0.03215771381689725,-0.7204028938185953,-0.8705291748046875,-0.05670166015625,0.0223388671875
20220111-1114,2022-01-11 11:14:42Z,u01, 199,40,movements,el-ex, rt, d,75410.354447, -1.5398962450718636, 0.042556387211709824, 3.0838394851864943, 0.19814270734786987, -0.4006986618041992, -0.4851377010345459, -0.9986177086830139, -0.04254354164004326, -0.0308671947568655, 0.09660971164703369, -0.007947772741317749, 0.0011429786682128906, -0.6960913209641169, 0.004824500739670723, -0.03552869418489574,-0.7170574320775549,-0.9038238525390625,-0.0597076416015625,-0.0040740966796875
20220111-1114,2022-01-11 11:14:42Z,u01, 200,40,movements,el-ex, rt, d,75410.37939100001, -1.5512154604525465, 0.056104773001495134, 3.0923775535179083, 0.38419273495674133, -0.5101300477981567, -0.5845955610275269, -0.9982350468635559, -0.05607534199953079, -0.019548805430531502, 0.21817535161972046, 0.0656425952911377, -0.08926165103912354, -0.7001555229756078, -0.002800131281175511, -0.03719335810901714,-0.7130154110065499,-0.853424072265625,-0.015625,-0.1095123291015625
20220111-1114,2022-01-11 11:14:43Z,u01, 201,40,movements,el-ex, rt, d,75410.404335, -1.5674267592783693, 0.07159173371353017, 3.092655988664032, -0.44976794719696045, -0.7681188583374023, -0.6279971599578857, -0.9974328279495239, -0.07153059542179108, -0.0033609301317483187, 0.22196584939956665, -0.058031804859638214, 0.09953701496124268, -0.7058712537619035, -0.008081342580098017, -0.04257388112806293,-0.7070134577854649,-0.7448272705078125,-0.0621337890625,0.02349853515625
20220111-1114,2022-01-11 11:14:43Z,u01, 202,40,movements,el-ex, rt, d,75410.429279, -1.584687722508207, 0.08616247820340797, 3.084717480550416, 0.13089045882225037, -0.5783826112747192, -0.5205020308494568, -0.9961942434310913, -0.08605590462684631, 0.013839418068528175, -0.02629721164703369, -0.030948489904403687, 0.0015566349029541016, -0.7119126689033497, -0.010003053523092997, -0.050599044502476376,-0.700371381248575,-0.982147216796875,-0.2610931396484375,0.1265106201171875
20220111-1114,2022-01-11 11:14:43Z,u01, 203,40,movements,el-ex, rt, d,75410.454222, -1.599660058254931, 0.09921334736981872, 3.1021458415935164, 0.721551239490509, -0.6139407753944397, -0.636989414691925, -0.9946678280830383, -0.09905066341161728, 0.028717800974845886, 0.15920346975326538, 0.13091105222702026, -0.18090903759002686, -0.7168974747595508, -0.02041840385530086, -0.04928430374307491,-0.6951345853992676,-0.89886474609375,0.0068359375,-0.1314849853515625
20220111-1114,2022-01-11 11:14:43Z,u01, 204,40,movements,el-ex, rt, d,75410.479166, -1.6222175930460772, 0.11764436477084866, 3.1056682365559802, -0.37884628772735596, -1.0267316102981567, -0.8514567613601685, -0.9917752742767334, -0.11737318336963654, 0.05104333534836769, -0.0056765079498291016, -0.10749560594558716, 0.08346271514892578, -0.7244076878780923, -0.027480351505136502, -0.05496605238067148,-0.6866273248035447,-0.824432373046875,-0.1453399658203125,0.0408782958984375
20220111-1114,2022-01-11 11:14:43Z,u01, 205,40,movements,el-ex, rt, d,75410.50411000001, -1.6456839281299738, 0.13734135407094092, 3.105141829185907, 0.4185362458229065, -0.7949861884117126, -0.7716209888458252, -0.9878070950508118, -0.13690999150276184, 0.07411310076713562, -0.11735641956329346, -0.05307719111442566, 0.03570437431335449, -0.7320829720718184, -0.03333277417463182, -0.06265924979547144,-0.6775081331788848,-1.1058349609375,-0.228668212890625,0.100860595703125
20220111-1114,2022-01-11 11:14:43Z,u01, 206,40,movements,el-ex, rt, d,75410.529053, -1.667586775310686, 0.15445688693167142, 3.1198359042251935, 0.4256492257118225, -0.8552219867706299, -0.6852865219116211, -0.9834704995155334, -0.1538434773683548, 0.09548893570899963, 0.18976926803588867, 0.1918531209230423, -0.1031336635351181, -0.7387993718505503, -0.043817283447458166, -0.06441548924647,-0.6694074115694697,-0.9091949462890625,-0.023284912109375,0.039581298828125
20220111-1114,2022-01-11 11:14:43Z,u01, 207,40,movements,el-ex, rt, d,75410.55399700001, -1.6917586930310757, 0.17039847508563352, 3.124911921552856, -0.3441641330718994, -0.9850119352340698, -0.5999202132225037, -0.9783160090446472, -0.1695750653743744, 0.1189199909567833, 0.247236967086792, 0.14830432832241058, -0.12246013432741165, -0.7462839264951395, -0.05020255508911248, -0.06920707928969255,-0.6601138600875398,-0.7284393310546875,0.0080108642578125,-0.0446929931640625
20220111-1114,2022-01-11 11:14:43Z,u01, 208,40,movements,el-ex, rt, d,75410.578941, -1.7145713469155752, 0.18685944332373725, 3.106601672667881, -0.811953604221344, -1.0190327167510986, -0.4944515824317932, -0.9724542498588562, -0.18577392399311066, 0.1407860517501831, -0.04095816612243652, -0.20042598247528076, 0.20342159271240234, -0.753724354604846, -0.047881313728075914, -0.08192592038306085,-0.6503038549121922,-0.8713836669921875,-0.2936248779296875,0.3076324462890625
20220111-1114,2022-01-11 11:14:43Z,u01, 209,40,movements,el-ex, rt, d,75410.603885, -1.7330729593701577, 0.19778591109493696, 3.1042392812143316, 0.4973490238189697, -0.47985780239105225, -0.4066252112388611, -0.9676222205162048, -0.19649888575077057, 0.15841548144817352, -0.20876944065093994, -0.008976012468338013, 0.005906358361244202, -0.7594290610783003, -0.04975178315318407, -0.08726233352456891,-0.6427888910587232,-1.1830902099609375,-0.2880096435546875,0.229644775390625
20220111-1114,2022-01-11 11:14:43Z,u01, 210,40,movements,el-ex, rt, d,75410.628828, -1.7480365160726905, 0.208382008114215, 3.1199166570523746, 0.2969915568828583, -0.5649266839027405, -0.5904179811477661, -0.9630398750305176, -0.2068771868944168, 0.17249946296215057, 0.16370820999145508, 0.24989169836044312, -0.09014785289764404, -0.7634334414131598, -0.058473178840675044, -0.08667377706572038,-0.6373679630208089,-0.904571533203125,0.0538482666015625,0.0510101318359375
20220111-1114,2022-01-11 11:14:43Z,u01, 211,40,movements,el-ex, rt, d,75410.653772, -1.763355272452803, 0.2234563601411826, 3.119714843069789, -0.6415965557098389, -0.6325368285179138, -0.5534458160400391, -0.9571146368980408, -0.22160136699676514, 0.18661318719387054, 0.102469801902771, -0.008119761943817139, 0.0783860832452774, -0.7677240250417511, -0.06250130210149007, -0.09296018479659518,-0.6309135069744262,-0.8196258544921875,-0.15545654296875,0.193115234375
20220111-1114,2022-01-11 11:14:43Z,u01, 212,40,movements,el-ex, rt, d,75410.67871600001, -1.7749254347470735, 0.23721732608610288, 3.1088136470863432, -0.0402107834815979, -0.3911808431148529, -0.37702465057373047, -0.9518150091171265, -0.23499879240989685, 0.19703754782676697, -0.19012224674224854, -0.19343751668930054, 0.1291036605834961, -0.7711449834826459, -0.062082091244112736, -0.10202476590745907,-0.6253576383815541,-1.0424957275390625,-0.48236083984375,0.4292449951171875
20220111-1114,2022-01-11 11:14:43Z,u01, 213,40,movements,el-ex, rt, d,75410.703659, -1.7827795520618444, 0.24388315694453475, 3.119950546177459, 0.639919102191925, -0.11646175384521484, -0.3652029037475586, -0.9486855864524841, -0.24147267639636993, 0.20417292416095734, -0.11717134714126587, 0.20474481582641602, -0.09170043468475342, -0.7729507994226319, -0.06806999198126834, -0.10137205570725205,-0.6226051828530665,-1.1258392333984375,-0.0942230224609375,0.16705322265625
20220111-1114,2022-01-11 11:14:43Z,u01, 214,40,movements,el-ex, rt, d,75410.72860300001, -1.7910997419561823, 0.25206540578880204, 3.1345381805211883, 0.1607533097267151, -0.28058838844299316, -0.5048883557319641, -0.9449942111968994, -0.24940462410449982, 0.21162013709545135, 0.14621198177337646, 0.1341244876384735, -0.1575736105442047, -0.7746341953728478, -0.07584150516357197, -0.10030170843488417,-0.6197817464026694,-0.835479736328125,-0.0472869873046875,0.0232696533203125
20220111-1114,2022-01-11 11:14:43Z,u01, 215,40,movements,el-ex, rt, d,75410.753547, -1.79980385797395, 0.2655247672284016, 3.130751571369782, -0.41858971118927, -0.42527318000793457, -0.4772956967353821, -0.9397619366645813, -0.26241567730903625, 0.2190554291009903, 0.03837960958480835, -0.11565130949020386, 0.10650597512722015, -0.7768078758873735, -0.07808481849122628, -0.10702173554001793,-0.6156448124055509,-0.8494720458984375,-0.3068084716796875,0.2743072509765625
20220111-1114,2022-01-11 11:14:43Z,u01, 216,40,movements,el-ex, rt, d,75410.77849000001, -1.80702562644705, 0.2773807219060501, 3.130028813417451, 0.1626068353652954, -0.1640583723783493, -0.41219818592071533, -0.935064971446991, -0.2738374173641205, 0.22509244084358215, -0.1722348928451538, 0.07190260291099548, 0.05966702103614807, -0.77844482820395, -0.08105473260280777, -0.11213512404568754,-0.6122740404360907,-1.10626220703125,-0.35833740234375,0.369842529296875
20220111-1114,2022-01-11 11:14:43Z,u01, 217,40,movements,el-ex, rt, d,75410.803434, -1.8141828151637416, 0.2846599796632538, -3.1392340146966715, 0.5246705412864685, -0.17297782003879547, -0.43312132358551025, -0.9314706325531006, -0.28083112835884094, 0.23129253089427948, 0.006406605243682861, 0.20217210054397583, -0.12619008123874664, -0.7796464262577112, -0.08830467027932881, -0.11101811836731318,-0.6099415340084897,-0.9799652099609375,-0.093719482421875,0.132965087890625
20220111-1114,2022-01-11 11:14:43Z,u01, 218,40,movements,el-ex, rt, d,75410.828378, -1.823590698319611, 0.29318745301727944, -3.13039940055666, -0.11853844672441483, -0.37731316685676575, -0.3838723301887512, -0.9269011616706848, -0.2890051305294037, 0.23943766951560974, 0.08273917436599731, -0.0558740496635437, -0.04528498649597168, -0.7816118059568622, -0.09381802805869127, -0.11209097713524607,-0.606396578907465,-0.8071136474609375,-0.2075653076171875,0.108642578125
20220111-1114,2022-01-11 11:14:43Z,u01, 219,40,movements,el-ex, rt, d,75410.85332200001, -1.8325169819059222, 0.3044403433912598, -3.1326822031419197, -0.13884149491786957, -0.3373759686946869, -0.43124979734420776, -0.9215270280838013, -0.29975929856300354, 0.24684466421604156, -0.06342780590057373, -0.08544880151748657, -0.009921550750732422, -0.7837369420210376, -0.09580572363108036, -0.11761278585243615,-0.602283072613795,-0.9571990966796875,-0.4192657470703125,0.2385711669921875
20220111-1114,2022-01-11 11:14:43Z,u01, 220,40,movements,el-ex, rt, d,75410.878265, -1.841503247252941, 0.31365829698236114, -3.12731716226103, 0.2964061200618744, -0.26698726415634155, -0.38595449924468994, -0.9165701866149902, -0.3085404932498932, 0.2543659508228302, -0.07294714450836182, 0.0467454195022583, 0.004682451486587524, -0.7855924001617778, -0.10013770677206596, -0.12006371918656555,-0.5986666740612041,-0.9970703125,-0.22442626953125,0.3040313720703125
20220111-1114,2022-01-11 11:14:43Z,u01, 221,40,movements,el-ex, rt, d,75410.90320900001, -1.850544417896462, 0.3204586256785254, -3.117232775823213, 0.24718305468559265, -0.24991102516651154, -0.3421832323074341, -0.9121950268745422, -0.31500187516212463, 0.2620568573474884, -0.002401411533355713, -0.03836113214492798, -0.07666268944740295, -0.78732514538456, -0.10558192810792555, -0.12019869188560758,-0.5954189716999652,-0.9447174072265625,-0.330291748046875,0.1901702880859375
20220111-1114,2022-01-11 11:14:43Z,u01, 222,40,movements,el-ex, rt, d,75410.928153, -1.859796191374609, 0.3281461487922933, -3.1117333093982196, -0.056143611669540405, -0.34986287355422974, -0.36776256561279297, -0.9073836803436279, -0.3222886621952057, 0.26978686451911926, 0.034657180309295654, -0.03432455658912659, -0.027797788381576538, -0.7892480860563388, -0.10945728126045157, -0.12210391359706063,-0.5917746591364904,-0.8499603271484375,-0.398773193359375,0.183685302734375
20220111-1114,2022-01-11 11:14:43Z,u01, 223,40,movements,el-ex, rt, d,75410.953096, -1.867912384104354, 0.33610397790352803, -3.111096145477597, -0.035052575170993805, -0.2598370909690857, -0.2643813192844391, -0.9026830196380615, -0.32981157302856445, 0.2763827443122864, -0.06991207599639893, 3.8683414459228516e-05, 0.06884726881980896, -0.7910439800929516, -0.11153827315336401, -0.12552015269861763,-0.5882628956595071,-0.9511566162109375,-0.3389739990234375,0.336273193359375
20220111-1114,2022-01-11 11:14:43Z,u01, 224,40,movements,el-ex, rt, d,75410.97804, -1.8742016800142718, 0.34177887843603577, -3.1085529194292865, 0.07270693778991699, -0.19532062113285065, -0.24092784523963928, -0.899126410484314, -0.3351636230945587, 0.2814907729625702, -0.047467827796936035, 0.057438433170318604, -0.01604902744293213, -0.7923350308817529, -0.11380063141747765, -0.12738345027374037,-0.5856859838273069,-0.970489501953125,-0.288543701171875,0.3083648681640625
20220111-1114,2022-01-11 11:14:43Z,u01, 225,40,movements,el-ex, rt, d,75411.002984, -1.8801552299548547, 0.34700647898875503, -3.1048711654935093, 0.038747482001781464, -0.189559206366539, -0.23845329880714417, -0.8957533240318298, -0.3400842547416687, 0.2863013744354248, 0.005448877811431885, 0.03883001208305359, -0.04888990521430969, -0.7934753030045446, -0.11639426470322728, -0.1287318082050005,-0.58333296156547,-0.9052276611328125,-0.2816009521484375,0.230804443359375
20220111-1114,2022-01-11 11:14:43Z,u01, 226,40,movements,el-ex, rt, d,75411.02792800001, -1.884111098478787, 0.35373527626955104, -3.1068749392155786, -0.2562798857688904, -0.1887335628271103, -0.2209615856409073, -0.8924166560173035, -0.34640422463417053, 0.2891307771205902, -0.03202176094055176, -0.08303910493850708, 0.16486382484436035, -0.794235518070596, -0.11728311331210717, -0.13222951278947126,-0.5813346387080851,-0.8848724365234375,-0.37890625,0.407989501953125
20220111-1114,2022-01-11 11:14:43Z,u01, 227,40,movements,el-ex, rt, d,75411.052871, -1.885643774795932, 0.3601880508610988, -3.107583564790057, 0.06989757716655731, 0.04579053074121475, -0.22048115730285645, -0.8898285627365112, -0.3524502217769623, 0.2897999882698059, -0.11371159553527832, 0.05786404013633728, 0.05973294377326965, -0.7942270892952353, -0.11875743622547735, -0.13509982554852376,-0.5803861434317334,-1.0064849853515625,-0.353729248046875,0.375213623046875
20220111-1114,2022-01-11 11:14:43Z,u01, 228,40,movements,el-ex, rt, d,75411.07781500001, -1.8864545641251003, 0.36402853438344634, -3.1003293862134287, 0.21474550664424896, 0.05327867716550827, -0.2391607165336609, -0.8883000612258911, -0.35604166984558105, 0.29009899497032166, 0.04967701435089111, 0.08718180656433105, -0.0630483627319336, -0.7937238292034217, -0.12268654066930673, -0.13457594125495084,-0.5803790434935934,-0.88275146484375,-0.232177734375,0.2447052001953125
20220111-1114,2022-01-11 11:14:43Z,u01, 229,40,movements,el-ex, rt, d,75411.102759, -1.886781256110274, 0.3685165309597598, -3.098118818613141, -0.20446240901947021, -0.01893213763833046, -0.1669624149799347, -0.8866774439811707, -0.3602319657802582, 0.28988969326019287, 0.06293171644210815, -0.05308285355567932, 0.03492403030395508, -0.7933236408335187, -0.12482967975942755, -0.13574561357643014,-0.5801967421515496,-0.8175506591796875,-0.37603759765625,0.2921295166015625
20220111-1114,2022-01-11 11:14:43Z,u01, 230,40,movements,el-ex, rt, d,75411.127702, -1.8855623566898503, 0.37408769288122806, -3.103367817422366, -0.1935110241174698, -0.02215043269097805, -0.1408473253250122, -0.8851079940795898, -0.3654234707355499, 0.2881828844547272, -0.03269284963607788, -0.04522106051445007, 0.044885843992233276, -0.7928482507179754, -0.12443107828410815, -0.13941375805863218,-0.5800623189809774,-0.889434814453125,-0.4836578369140625,0.3796234130859375
20220111-1114,2022-01-11 11:14:43Z,u01, 231,40,movements,el-ex, rt, d,75411.152646, -1.8856454404048621, 0.3767837094717471, -3.1009676711842804, 0.2288932204246521, 0.07872345298528671, -0.1217907965183258, -0.8841440677642822, -0.36793169379234314, 0.2879502773284912, -0.054515540599823, 0.04943501949310303, -0.04001036286354065, -0.7925031265096001, -0.12615045671024894, -0.13979720219091796,-0.5800702787143793,-0.9403228759765625,-0.32806396484375,0.2628021240234375
20220111-1114,2022-01-11 11:14:43Z,u01, 232,40,movements,el-ex, rt, d,75411.17759, -1.885792136775018, 0.3783340188495086, -3.0960162361768964, -0.009495783597230911, 0.03984715789556503, -0.1026432067155838, -0.8835585117340088, -0.36937281489372253, 0.28790295124053955, 0.04449295997619629, 0.019061565399169922, -0.0583651065826416, -0.7921030824698981, -0.12854640915825832, -0.1389880175174114,-0.580285145186938,-0.8699188232421875,-0.332733154296875,0.2118988037109375
20220111-1114,2022-01-11 11:14:43Z,u01, 233,40,movements,el-ex, rt, d,75411.20253400001, -1.8871758074398235, 0.38184580785008904, -3.0968870306336482, -0.11882077157497406, -0.06133824959397316, -0.11194689571857452, -0.8819210529327393, -0.3726339638233185, 0.28871986269950867, 0.03557705879211426, -0.05326932668685913, -0.044274091720581055, -0.7922690926676422, -0.1291108572374443, -0.14072941932287472,-0.5795129764248103,-0.8285064697265625,-0.4293060302734375,0.2415771484375
20220111-1114,2022-01-11 11:14:43Z,u01, 234,40,movements,el-ex, rt, d,75411.22747700001, -1.8875993050743194, 0.3837091841238721, -3.098190015439992, 0.0007031243294477463, -0.0755205824971199, -0.08201874792575836, -0.8811371922492981, -0.3743624985218048, 0.2888764441013336, -0.04227876663208008, 0.011188119649887085, -0.02671530842781067, -0.7923205683356332, -0.12909819972673647, -0.1418769652724918,-0.579165406137288,-0.91571044921875,-0.394287109375,0.2928619384765625
20220111-1114,2022-01-11 11:14:43Z,u01, 235,40,movements,el-ex, rt, d,75411.252421, -1.8881802559800933, 0.3843797881024201, -3.0975544060382, 0.0030676117166876793, -0.0847039595246315, -0.08239319175481796, -0.8807305693626404, -0.3749842643737793, 0.28930988907814026, -0.02866262197494507, 0.03755146265029907, -0.07861664891242981, -0.7923916486330371, -0.12950067914003704, -0.1419978124934341,-0.5789486690176957,-0.9186248779296875,-0.335296630859375,0.2208709716796875
20220111-1114,2022-01-11 11:14:43Z,u01, 236,40,movements,el-ex, rt, d,75411.277365, -1.8879632222391174, 0.3897315248790201, -3.10055443816265, -0.20073604583740234, -0.1180250346660614, -0.08266283571720123, -0.8788738250732422, -0.37994009256362915, 0.2884886860847473, -0.01603865623474121, -0.040378451347351074, 0.002831876277923584, -0.792073873135063, -0.1298588324120193, -0.14498465618007875,-0.5785627640037816,-0.880706787109375,-0.3634490966796875,0.2514190673828125
20220111-1114,2022-01-11 11:14:43Z,u01, 237,40,movements,el-ex, rt, d,75411.302308, -1.8889051752102284, 0.39398269406613184, -3.1036877874716584, 0.01416250690817833, -0.08100289106369019, -0.12388890236616135, -0.877059817314148, -0.3838690221309662, 0.288808673620224, -0.055572569370269775, 0.04269781708717346, -0.012853652238845825, -0.7921903075398142, -0.12976460887734914, -0.147644873831892,-0.577751303877341,-0.932098388671875,-0.3725128173828125,0.2918548583984375
20220111-1114,2022-01-11 11:14:43Z,u01, 238,40,movements,el-ex, rt, d,75411.327252, -1.8889232381852863, 0.3940174914848431, -3.099729994136212, 0.15869279205799103, -0.05467408895492554, -0.1716793179512024, -0.8770419955253601, -0.3839011490345001, 0.2888203561306, -0.004870176315307617, 0.06369549036026001, -0.06566071510314941, -0.7919342272986104, -0.13134063746290903, -0.14651631242428723,-0.5780335349303429,-0.8984527587890625,-0.2828826904296875,0.2132110595703125
20220111-1114,2022-01-11 11:14:43Z,u01, 239,40,movements,el-ex, rt, d,75411.352195625, -1.8885426754933747, 0.39790521902331505, -3.1014916023144785, -0.32740119099617004, -0.10263408720493317, -0.15825054049491882, -0.8757274746894836, -0.38748806715011597, 0.2880181074142456, -0.010716617107391357, -0.032510071992874146, 0.041251182556152344, -0.7916075668574072, -0.13178207595043306, -0.1485486135462329,-0.5778617999053091,-0.8807830810546875,-0.3979644775390625,0.298614501953125
20220111-1114,2022-01-11 11:14:43Z,u01, 240,40,movements,el-ex, rt, d,75411.377138625, -1.888633274639141, 0.4028482942192812, -3.106618164533651, -0.07923164963722229, -0.07521778345108032, -0.16632138192653656, -0.8738710880279541, -0.3920402228832245, 0.28749531507492065, -0.06704676151275635, 0.012310028076171875, 0.022822588682174683, -0.79154599479449, -0.13115866882634375, -0.1520021741817743,-0.5771894028896492,-0.9276885986328125,-0.43194580078125,0.3307952880859375
20220111-1114,2022-01-11 11:14:44Z,u01, 241,40,movements,el-ex, rt, d,75411.402082625, -1.8894953397686867, 0.4033367168535057, -3.103260355005808, 0.2032821625471115, -0.012121967040002346, -0.16885970532894135, -0.8734411001205444, -0.392489492893219, 0.28818854689598083, -0.07832586765289307, 0.014239400625228882, -0.012111425399780273, -0.7915312158134467, -0.13256171800341582, -0.15128439595471024,-0.5770777834550864,-0.94927978515625,-0.373809814453125,0.2764892578125
20220111-1114,2022-01-11 11:14:44Z,u01, 242,40,movements,el-ex, rt, d,75411.42702662501, -1.8906435268172779, 0.4051069907127985, -3.098854926261546, 0.009518753737211227, 0.0035000015050172806, -0.14599260687828064, -0.8724485635757446, -0.3941170871257782, 0.28897225856781006, -0.07071232795715332, -0.061342447996139526, 0.016859501600265503, -0.7914137841738828, -0.134723253432956, -0.15079501523737193,-0.5768662138427674,-0.94598388671875,-0.4337310791015625,0.3046875
20220111-1114,2022-01-11 11:14:44Z,u01, 243,40,movements,el-ex, rt, d,75411.451970625, -1.891017926115508, 0.40821198970458983, -3.0986013820657026, 0.0125369131565094, 0.020920272916555405, -0.11001437157392502, -0.8711746335029602, -0.39696887135505676, 0.288912296295166, -0.06939232349395752, -0.14519113302230835, 0.06841790676116943, -0.7912314286640271, -0.13567970153406766, -0.15198359977832543,-0.5765802359180549,-0.9384765625,-0.5278472900390625,0.3650360107421875
20220111-1114,2022-01-11 11:14:44Z,u01, 244,40,movements,el-ex, rt, d,75411.47691362501, -1.8909871681946802, 0.40909564865478315, -3.095323352236914, 0.22870706021785736, 0.06822580099105835, -0.0875348225235939, -0.870850145816803, -0.39777976274490356, 0.2887749671936035, -0.08328181505203247, -0.06569063663482666, -0.019518524408340454, -0.7909205779039516, -0.13723017091569334, -0.15138817650117392,-0.5767963287426268,-0.955841064453125,-0.465240478515625,0.310516357421875
20220111-1114,2022-01-11 11:14:44Z,u01, 245,40,movements,el-ex, rt, d,75411.501857625, -1.8910051257231164, 0.4090156118561459, -3.089038922068277, 0.1470944583415985, 0.09814821183681488, -0.0391487181186676, -0.8708754181861877, -0.3977063298225403, 0.2888007164001465, -0.08467578887939453, -0.11213564872741699, 0.0044731199741363525, -0.7904978673817564, -0.13969064303337209, -0.1495443468490023,-0.5772661436270129,-0.95977783203125,-0.4984130859375,0.2821502685546875
20220111-1114,2022-01-11 11:14:44Z,u01, 246,40,movements,el-ex, rt, d,75411.526801625, -1.889420583051253, 0.4095753887162288, -3.0868743242987695, 0.043201182037591934, 0.10472455620765686, -0.004432615824043751, -0.8711200952529907, -0.39821988344192505, 0.28735053539276123, -0.07507723569869995, -0.08815392851829529, 0.03578469157218933, -0.7898379977729442, -0.1408233123104089, -0.14903102129699516,-0.5780262607344171,-0.9488677978515625,-0.4862213134765625,0.3028411865234375
20220111-1114,2022-01-11 11:14:44Z,u01, 247,40,movements,el-ex, rt, d,75411.551744625, -1.8876762547722117, 0.40958722601567715, -3.0853806066343523, 0.058577872812747955, 0.0962091013789177, -0.012368302792310715, -0.8716156482696533, -0.39823073148727417, 0.2858291566371918, -0.10064387321472168, -0.05887678265571594, 0.04022049903869629, -0.7892270112500264, -0.14154609423744374, -0.14848058044276888,-0.5788254414252025,-0.9605560302734375,-0.46337890625,0.3191680908203125
20220111-1114,2022-01-11 11:14:44Z,u01, 248,40,movements,el-ex, rt, d,75411.576688625, -1.886960028735006, 0.4091154339903073, -3.0829185358863764, 0.1034996435046196, 0.0933927446603775, -7.894635200500488e-05, -0.87199866771698, -0.39779791235923767, 0.28526318073272705, -0.14364159107208252, -0.05953848361968994, 0.009521245956420898, -0.7888875449433539, -0.1424360851275655, -0.1475291201598799,-0.5793129854253106,-1.0054931640625,-0.473907470703125,0.3137054443359375
20220111-1114,2022-01-11 11:14:44Z,u01, 249,40,movements,el-ex, rt, d,75411.60163262501, -1.886208548921504, 0.40846760113087827, -3.0810435246919194, 0.007301870733499527, 0.06306199729442596, 0.03203185275197029, -0.8724575042724609, -0.3972034752368927, 0.28468769788742065, -0.157129168510437, -0.09605205059051514, 0.04522249102592468, -0.7885947068611157, -0.14304625147522498, -0.14667438264850727,-0.5797781497882796,-1.023101806640625,-0.4813232421875,0.325653076171875
