SessionID,LoggingTime,UID,RecNo,Hertz,Activity,MoveType,Wrist,Side,TimeStamp,DMRoll,DMPitch,DMYaw,DMRotX,DMRotY,DMRotZ,DMGrvX,DMGrvY,DMGrvZ,DMUAccelX,DMUAccelY,DMUAccelZ,DMQuatX,DMQuatY,DMQuatW,DMQuatZ,AccelroX,AceelroY,AceelroZ
20220111-1129,2022-01-11 11:29:29Z,u01, 1,40,movements,el-ex, rt, d,76269.14553875, -1.92037430147172, 0.40062573360071607, 2.8593028290228717, -0.036711424589157104, -0.0006422121077775955, 0.0375160314142704, -0.8651235103607178, -0.3899945914745331, 0.3153810501098633, -0.20578402280807495, -0.05133533477783203, 0.02517959475517273, -0.8109812119795944, 0.0, -0.24044614048111204,-0.5333807496020397,-1.0549163818359375,-0.450408935546875,0.3435516357421875
20220111-1129,2022-01-11 11:29:29Z,u01, 2,40,movements,el-ex, rt, d,76269.17047975, -1.918480292667576, 0.39921063937307244, 2.856461708397589, -0.1013709157705307, -0.03250972926616669, 0.10916638374328613, -0.8662374019622803, -0.38869115710258484, 0.3139296770095825, -0.2638437747955322, -0.04093527793884277, 0.01965785026550293, -0.8105325792929043, 0.0013340805278223566, -0.24065404133838966,-0.5339669823901912,-1.1317901611328125,-0.4334564208984375,0.334442138671875
20220111-1129,2022-01-11 11:29:29Z,u01, 3,40,movements,el-ex, rt, d,76269.19542075001, -1.9187045674260368, 0.39691589294223273, 2.8514875756912854, -0.19435305893421173, -0.18769027292728424, 0.18029887974262238, -0.867003321647644, -0.386575847864151, 0.3144272565841675, -0.194413423538208, -0.1357477903366089, 0.045756369829177856, -0.8106770551337887, 0.004042786759532513, -0.24108848400500169,-0.5335379595275829,-0.973052978515625,-0.5568084716796875,0.33428955078125
20220111-1129,2022-01-11 11:29:29Z,u01, 4,40,movements,el-ex, rt, d,76269.22036175, -1.9222141050724868, 0.3961865766197403, 2.8471219710458495, -0.07984278351068497, -0.21250200271606445, 0.054283030331134796, -0.8661590218544006, -0.38590312004089355, 0.31756508350372314, -0.3143678307533264, -0.09493190050125122, 0.08148267865180969, -0.8116285874379049, 0.006448559878783788, -0.24195805323227507,-0.5316708118224571,-1.1904144287109375,-0.47637939453125,0.403717041015625
20220111-1129,2022-01-11 11:29:29Z,u01, 5,40,movements,el-ex, rt, d,76269.24530125, -1.9277170357201971, 0.3948755905181594, 2.845662549023203, -0.045827291905879974, -0.2900708019733429, 0.054151736199855804, -0.8648716807365417, -0.38469335436820984, 0.3225031793117523, -0.2737698554992676, -0.10050567984580994, 0.0716770589351654, -0.8131335718259194, 0.008085760618013027, -0.24181433776137737,-0.5294094435551318,-1.148590087890625,-0.485931396484375,0.4027862548828125
20220111-1129,2022-01-11 11:29:29Z,u01, 6,40,movements,el-ex, rt, d,76269.27024225, -1.9345664028354985, 0.39524760471773773, 2.8430349161944126, -0.12910743057727814, -0.3219446837902069, -0.01347158383578062, -0.8625085949897766, -0.3850367069244385, 0.3283684253692627, -0.25121527910232544, -0.09526422619819641, 0.03810182213783264, -0.8149151117597957, 0.009877686747964687, -0.2426223205821599,-0.5262606487107268,-1.1126556396484375,-0.479217529296875,0.3666839599609375
20220111-1129,2022-01-11 11:29:29Z,u01, 7,40,movements,el-ex, rt, d,76269.29518325001, -1.9407752322103007, 0.3963012829943686, 2.840822454533385, -0.07300761342048645, -0.2553101181983948, -0.010579789988696575, -0.8600742220878601, -0.38600894808769226, 0.3335702419281006, -0.18335217237472534, -0.13111132383346558, 0.050493329763412476, -0.8164918503905337, 0.011232738390731134, -0.24358232992022966,-0.5233377539702531,-1.055267333984375,-0.5110321044921875,0.376251220703125
20220111-1129,2022-01-11 11:29:29Z,u01, 8,40,movements,el-ex, rt, d,76269.32012425, -1.9464010875503954, 0.39689137038992656, 2.839519156799556, -0.062258630990982056, -0.24188418686389923, -0.014209546148777008, -0.8579719662666321, -0.38655322790145874, 0.3383199870586395, -0.14593416452407837, -0.13943243026733398, 0.03829726576805115, -0.8179297776020544, 0.012282763568678245, -0.2441207399930098,-0.5208118357793337,-1.00335693359375,-0.520355224609375,0.3734588623046875
20220111-1129,2022-01-11 11:29:29Z,u01, 9,40,movements,el-ex, rt, d,76269.34506525, -1.9508528408661352, 0.397279128405423, 2.8387469048988816, 0.020909758284687996, -0.12211278080940247, 0.012925135903060436, -0.8563181757926941, -0.3869108259677887, 0.3420805037021637, -0.16202282905578613, -0.001623690128326416, -0.0029387474060058594, -0.8190667917999898, 0.013032244370613899, -0.24444550736852622,-0.5188507577583076,-1.02081298828125,-0.3958740234375,0.3431396484375
20220111-1129,2022-01-11 11:29:29Z,u01, 10,40,movements,el-ex, rt, d,76269.37000625, -1.952650638125639, 0.3960704159013737, 2.8389335257330495, -0.037720732390880585, -0.04834175482392311, 0.053238339722156525, -0.8561351299285889, -0.3857959508895874, 0.34379342198371887, -0.10207098722457886, -0.029700815677642822, -0.031446248292922974, -0.8195815810913755, 0.013518421141694159, -0.24391014950595138,-0.5182770029685126,-0.9535675048828125,-0.417877197265625,0.309326171875
20220111-1129,2022-01-11 11:29:29Z,u01, 11,40,movements,el-ex, rt, d,76269.39494725001, -1.9516977633444137, 0.3962349465704256, 2.8340974013202733, -0.24010290205478668, -0.025176849216222763, 0.0861850380897522, -0.8564035296440125, -0.38594773411750793, 0.3429539203643799, -0.059825897216796875, -0.07257887721061707, 0.0026574432849884033, -0.8192934453844288, 0.015336657642496476, -0.24523464286100696,-0.5180569586529022,-0.913909912109375,-0.44793701171875,0.343231201171875
20220111-1129,2022-01-11 11:29:29Z,u01, 12,40,movements,el-ex, rt, d,76269.41988825, -1.9489644419009393, 0.3962891485210952, 2.8279770260852546, -0.12683159112930298, 0.06311865895986557, 0.08227524906396866, -0.8573180437088013, -0.3859977424144745, 0.3406040072441101, -0.0849577784538269, -0.02290719747543335, 0.007265627384185791, -0.81853287927196, 0.017490990598242495, -0.24686423882090824,-0.5184167215497817,-0.9425811767578125,-0.405059814453125,0.3494415283203125
20220111-1129,2022-01-11 11:29:29Z,u01, 13,40,movements,el-ex, rt, d,76269.44482925, -1.9458990812364476, 0.3941792139750845, 2.8269666895991215, 0.08273091167211533, 0.14421957731246948, 0.0975998118519783, -0.8591141700744629, -0.38405048847198486, 0.3382721245288849, -0.06837606430053711, 0.038148969411849976, -0.006851315498352051, -0.8178064888432909, 0.018127593059242553, -0.2463270641275425,-0.5197950491626527,-0.9303741455078125,-0.3529205322265625,0.3330841064453125
20220111-1129,2022-01-11 11:29:29Z,u01, 14,40,movements,el-ex, rt, d,76269.46977025, -1.9420451757089483, 0.3903634704194656, 2.828824929164907, 0.12282213568687439, 0.20106926560401917, 0.14131559431552887, -0.8617706298828125, -0.38052457571029663, 0.33548781275749207, -0.055389225482940674, 0.013382911682128906, -0.01685398817062378, -0.8169580396079827, 0.017985139928897775, -0.24438386324900258,-0.5220464408804254,-0.915771484375,-0.3687744140625,0.3152618408203125
20220111-1129,2022-01-11 11:29:29Z,u01, 15,40,movements,el-ex, rt, d,76269.49471125001, -1.9361891664153346, 0.3869105047795758, 2.827953986470673, -0.0841066762804985, 0.21316269040107727, 0.17147937417030334, -0.8649425506591797, -0.37732911109924316, 0.3309030830860138, -0.028398454189300537, 0.006632119417190552, -0.022614747285842896, -0.8155396894012041, 0.01861598430616135, -0.24331494997981323,-0.5247343906184324,-0.8949127197265625,-0.374359130859375,0.3074493408203125
20220111-1129,2022-01-11 11:29:29Z,u01, 16,40,movements,el-ex, rt, d,76269.51965225, -1.92868081532561, 0.3826744216462067, 2.822963170426324, -0.11809393018484116, 0.24240738153457642, 0.2594696879386902, -0.8688921928405762, -0.37340277433395386, 0.32495659589767456, -0.02644789218902588, -0.00448116660118103, 0.033701092004776, -0.8136578961615109, 0.02095525361399353, -0.2430494553679952,-0.5276823821086294,-0.89642333984375,-0.3792724609375,0.360748291015625
20220111-1129,2022-01-11 11:29:29Z,u01, 17,40,movements,el-ex, rt, d,76269.54459425001, -1.9202465772432171, 0.37603446856018485, 2.8183860554427214, -0.00988976564258337, 0.2998836040496826, 0.2853482663631439, -0.8739122748374939, -0.3672349154949188, 0.31845855712890625, -0.03491652011871338, 0.029390066862106323, 0.025672823190689087, -0.8115829481261964, 0.023714784759724383, -0.24177190612233443,-0.5313351803423225,-0.90960693359375,-0.3454742431640625,0.3515167236328125
20220111-1129,2022-01-11 11:29:29Z,u01, 18,40,movements,el-ex, rt, d,76269.56953525, -1.9114077323339909, 0.3689817049761041, 2.8159436430793305, 0.023475781083106995, 0.318646639585495, 0.3204050660133362, -0.8791120648384094, -0.36066585779190063, 0.31157922744750977, -0.00049591064453125, 0.031045585870742798, 0.0009052455425262451, -0.8094006681422087, 0.02569390779009295, -0.23979566288157064,-0.5354514265463659,-0.8770904541015625,-0.3342132568359375,0.3119964599609375
20220111-1129,2022-01-11 11:29:29Z,u01, 19,40,movements,el-ex, rt, d,76269.59447625, -1.9019277729430717, 0.36090325584723104, 2.811979162241114, -0.08654552698135376, 0.31486785411834717, 0.3929530382156372, -0.8847530484199524, -0.353119432926178, 0.30416885018348694, 0.03453332185745239, -0.03829902410507202, 0.0067746639251708984, -0.8070132822449178, 0.028530389423848668, -0.23786370259344344,-0.5397558814011212,-0.8516845703125,-0.3875732421875,0.2951812744140625
20220111-1129,2022-01-11 11:29:29Z,u01, 20,40,movements,el-ex, rt, d,76269.61941725001, -1.8913551728187648, 0.35172462630546075, 2.80536034928556, -0.09889443963766098, 0.3678600490093231, 0.46656712889671326, -0.8909578919410706, -0.3445173501968384, 0.2958067059516907, 0.011273503303527832, -0.0013993382453918457, 0.0474090576171875, -0.8042619820283052, 0.03264988592448714, -0.23627898464196065,-0.5443058129622156,-0.881256103515625,-0.3422698974609375,0.345855712890625
20220111-1129,2022-01-11 11:29:29Z,u01, 21,40,movements,el-ex, rt, d,76269.64435825, -1.8791372272281246, 0.3406934602731655, 2.800427611224238, -0.03541559725999832, 0.4479903280735016, 0.4831348955631256, -0.8980721831321716, -0.3341407775878906, 0.2860352098941803, 0.058930397033691406, 0.0874825119972229, -0.0107211172580719, -0.8010539750734967, 0.03647109499588841, -0.2336005012725437,-0.5499210462437544,-0.8538818359375,-0.256805419921875,0.2806549072265625
20220111-1129,2022-01-11 11:29:29Z,u01, 22,40,movements,el-ex, rt, d,76269.66929925, -1.867490577269562, 0.32902239154485596, 2.7958733399237454, -0.04806464537978172, 0.3576042950153351, 0.5007816553115845, -0.9050105810165405, -0.3231180012226105, 0.2766779065132141, 0.11460518836975098, 0.020032674074172974, -0.00511738657951355, -0.797937422813833, 0.040432897369233445, -0.23061428079195145,-0.5554080708949012,-0.7936248779296875,-0.3056182861328125,0.271636962890625
20220111-1129,2022-01-11 11:29:29Z,u01, 23,40,movements,el-ex, rt, d,76269.69424025, -1.8555202913822868, 0.316422302837233, 2.7897310132232684, -0.05050656571984291, 0.468872606754303, 0.5928025245666504, -0.9120926260948181, -0.31116849184036255, 0.26694753766059875, 0.006239414215087891, -0.059726834297180176, 0.015248268842697144, -0.7946201815182696, 0.04530488279102407, -0.22777817956094742,-0.5609306972883004,-0.89959716796875,-0.37506103515625,0.2908935546875
20220111-1129,2022-01-11 11:29:29Z,u01, 24,40,movements,el-ex, rt, d,76269.71918125001, -1.8407381306328447, 0.3022863796264929, 2.7842299709017677, -0.02368563786149025, 0.5375813245773315, 0.5937041640281677, -0.9200867414474487, -0.29770368337631226, 0.25458383560180664, 0.07162177562713623, 0.04922962188720703, 0.006036043167114258, -0.7904308661466957, 0.05010956289008722, -0.2243128941528716,-0.5677955755461113,-0.8436126708984375,-0.24066162109375,0.259552001953125
20220111-1129,2022-01-11 11:29:29Z,u01, 25,40,movements,el-ex, rt, d,76269.74412225, -1.8262876675105402, 0.28809058412589406, 2.778229814009302, -0.070015549659729, 0.47956761717796326, 0.6318060755729675, -0.927665114402771, -0.2841220200061798, 0.242305725812912, 0.1491159200668335, 0.08461335301399231, -0.0008660554885864258, -0.7861959081475888, 0.055216427669728174, -0.22103892515459572,-0.5744465985536501,-0.77935791015625,-0.1790924072265625,0.2395477294921875
20220111-1129,2022-01-11 11:29:29Z,u01, 26,40,movements,el-ex, rt, d,76269.76906325, -1.8125488094658901, 0.2744203021341105, 2.7711244911276127, -0.21424046158790588, 0.48646262288093567, 0.6003507375717163, -0.9345904588699341, -0.27098897099494934, 0.23044657707214355, 0.10030090808868408, 0.013329088687896729, 0.030005455017089844, -0.7820081903706155, 0.06071639089758135, -0.21834394293413223,-0.5806053918450478,-0.8388824462890625,-0.261688232421875,0.2658843994140625
20220111-1129,2022-01-11 11:29:29Z,u01, 27,40,movements,el-ex, rt, d,76269.79400425, -1.7974895928733061, 0.2604166163343896, 2.7630193512611547, -0.08266929537057877, 0.5477011203765869, 0.644611656665802, -0.9415602684020996, -0.2574831545352936, 0.21717843413352966, 0.052064478397369385, 0.005331695079803467, 0.033538565039634705, -0.7772730370088006, 0.0666021192473622, -0.21594583527713473,-0.5871780650092326,-0.8853912353515625,-0.260498046875,0.2563018798828125
20220111-1129,2022-01-11 11:29:30Z,u01, 28,40,movements,el-ex, rt, d,76269.81894525001, -1.781746873577043, 0.24453195326391985, 2.7603773395148075, 0.031212564557790756, 0.6036326289176941, 0.6123538613319397, -0.9487423300743103, -0.2421022355556488, 0.20316024124622345, 0.0898405909538269, 0.06276573240756989, -0.03288760781288147, -0.7723656692515335, 0.07093231893035479, -0.21135002117561616,-0.5947695898508014,-0.85443115234375,-0.173370361328125,0.167724609375
20220111-1129,2022-01-11 11:29:30Z,u01, 29,40,movements,el-ex, rt, d,76269.84388625, -1.7667472306634318, 0.2306873024437106, 2.754594482159798, -0.2390575110912323, 0.494342178106308, 0.5528831481933594, -0.9548791646957397, -0.2286466658115387, 0.18954159319400787, 0.13246113061904907, 0.07235099375247955, -0.00048545002937316895, -0.7674631987274039, 0.07596735113052278, -0.20849842444943914,-0.6014627417346919,-0.81121826171875,-0.1452484130859375,0.1766204833984375
20220111-1129,2022-01-11 11:29:30Z,u01, 30,40,movements,el-ex, rt, d,76269.86882725, -1.7521806059798746, 0.21851832194582083, 2.745689671845809, -0.20756734907627106, 0.5346382260322571, 0.5348436832427979, -0.9602046012878418, -0.21678341925144196, 0.17610153555870056, 0.05874598026275635, -0.033109694719314575, 0.035964950919151306, -0.7624756397511009, 0.0817414451732067, -0.20727852215990494,-0.6074411159591858,-0.9053497314453125,-0.2525482177734375,0.2105865478515625
20220111-1129,2022-01-11 11:29:30Z,u01, 31,40,movements,el-ex, rt, d,76269.89376825001, -1.7366452562795336, 0.2056071645750565, 2.7394917506394982, -0.052111487835645676, 0.5594672560691833, 0.5576163530349731, -0.9655046463012695, -0.20416156947612762, 0.161612406373024, 0.08578979969024658, -0.0359811931848526, -0.006476417183876038, -0.7571650179563345, 0.08664488857448543, -0.20509426810140893,-0.6141091450277887,-0.8870849609375,-0.2348785400390625,0.1735382080078125
20220111-1129,2022-01-11 11:29:30Z,u01, 32,40,movements,el-ex, rt, d,76269.91870925, -1.7221246550553675, 0.1933850128336377, 2.7374021191532765, 0.07164214551448822, 0.5783482789993286, 0.4503791034221649, -0.9701440930366516, -0.19218190014362335, 0.14794132113456726, 0.08815550804138184, 0.03863269090652466, -0.065940722823143, -0.7522539902714288, 0.08991435524530211, -0.20192625192354294,-0.620689286096861,-0.880279541015625,-0.14776611328125,0.0797271728515625
20220111-1129,2022-01-11 11:29:30Z,u01, 33,40,movements,el-ex, rt, d,76269.94365025, -1.7082037074929728, 0.18330273205577968, 2.736020891899437, -0.0933898463845253, 0.46495458483695984, 0.39193251729011536, -0.9739793539047241, -0.18227796256542206, 0.1346806436777115, 0.1809038519859314, 0.12939104437828064, -0.008032798767089844, -0.747540315990681, 0.09232442896365223, -0.1993355712931752,-0.6268372846386011,-0.8035430908203125,-0.030914306640625,0.1097564697265625
20220111-1129,2022-01-11 11:29:30Z,u01, 34,40,movements,el-ex, rt, d,76269.96859125, -1.6966684301802868, 0.1739677007864618, 2.729582749895773, -0.30898094177246094, 0.3919313848018646, 0.45514383912086487, -0.9771137237548828, -0.17309151589870453, 0.12364505231380463, 0.09597963094711304, -0.08794061839580536, 0.08962692320346832, -0.7432921172134099, 0.09664034536003879, -0.1985379333102128,-0.631474611177621,-0.889434814453125,-0.2720184326171875,0.215728759765625
20220111-1129,2022-01-11 11:29:30Z,u01, 35,40,movements,el-ex, rt, d,76269.99353225001, -1.6836784031234378, 0.16131879666280066, 2.724092019526941, 0.032929472625255585, 0.6039766669273376, 0.5735483765602112, -0.9807344675064087, -0.16062001883983612, 0.11117997020483017, -0.04346591234207153, -0.08370368182659149, 0.011958234012126923, -0.7384268882531606, 0.10156632061614113, -0.19638198604324533,-0.6370589049707003,-1.0334930419921875,-0.29705810546875,0.14666748046875
20220111-1129,2022-01-11 11:29:30Z,u01, 36,40,movements,el-ex, rt, d,76270.01847325, -1.6697729925779436, 0.14751826279819896, 2.7267263484589934, 0.13352981209754944, 0.47390592098236084, 0.4806271493434906, -0.9842978715896606, -0.146983802318573, 0.09774190187454224, 0.13445961475372314, 0.12435507774353027, -0.06817054748535156, -0.7335460945488353, 0.10383197193687188, -0.1913209148352839,-0.6438364428770628,-0.842010498046875,-0.014617919921875,0.0318145751953125
20220111-1129,2022-01-11 11:29:30Z,u01, 37,40,movements,el-ex, rt, d,76270.04341425, -1.659486513718378, 0.1364992165841299, 2.725718808840409, -0.17290718853473663, 0.3402611315250397, 0.4357614815235138, -0.9868045449256897, -0.13607573509216309, 0.08775008469820023, 0.09112894535064697, -0.009859323501586914, 0.05876469612121582, -0.729689374050443, 0.1069039661653855, -0.18826598410986897,-0.6485991412228765,-0.8717041015625,-0.106597900390625,0.117767333984375
20220111-1129,2022-01-11 11:29:30Z,u01, 38,40,movements,el-ex, rt, d,76270.06835525, -1.6486992127410378, 0.12503428260711497, 2.7181765591962868, -0.21814170479774475, 0.490019828081131, 0.5332890152931213, -0.9891840815544128, -0.12470874935388565, 0.07721656560897827, -0.04832196235656738, -0.17573675513267517, 0.1064990758895874, -0.7252286062381332, 0.11247999904059153, -0.18724719119781214,-0.6529395972924011,-1.041259765625,-0.30157470703125,0.171966552734375
20220111-1129,2022-01-11 11:29:30Z,u01, 39,40,movements,el-ex, rt, d,76270.09329625001, -1.6349591966150698, 0.11202929399846909, 2.7153281602310875, 0.06935033202171326, 0.5105471014976501, 0.4772000014781952, -0.9916863441467285, -0.1117951050400734, 0.06371690332889557, 0.11247503757476807, 0.07373971492052078, -0.06341195851564407, -0.7199020984700834, 0.11661655160715262, -0.18438041957710763,-0.6588970316005536,-0.907684326171875,-0.0654449462890625,0.00457763671875
20220111-1129,2022-01-11 11:29:30Z,u01, 40,40,movements,el-ex, rt, d,76270.11823825, -1.624180122752447, 0.10111851602350566, 2.714689115686712, -0.061220962554216385, 0.3508749306201935, 0.38897061347961426, -0.9934744834899902, -0.10094628483057022, 0.05308587849140167, 0.18497240543365479, 0.08007226139307022, -0.021073106676340103, -0.7157156825179534, 0.1195575220610815, -0.18139659019060697,-0.663741117689451,-0.8071746826171875,-0.029296875,0.0338287353515625
20220111-1129,2022-01-11 11:29:30Z,u01, 41,40,movements,el-ex, rt, d,76270.14317925001, -1.6166250956339705, 0.09387649136856117, 2.7088285761222246, -0.36856985092163086, 0.20644879341125488, 0.24921484291553497, -0.9945513606071472, -0.09373866766691208, 0.045611001551151276, 0.15608108043670654, -0.03213106840848923, 0.09412884712219238, -0.7124401817925484, 0.123428066900371, -0.18127080145481964,-0.6665847696762279,-0.8249664306640625,-0.109039306640625,0.1283721923828125
20220111-1129,2022-01-11 11:29:30Z,u01, 42,40,movements,el-ex, rt, d,76270.16812025, -1.6103560546353364, 0.08789613288077737, 2.7021964541176335, -0.10985707491636276, 0.2535385489463806, 0.23548837006092072, -0.9953603148460388, -0.08778300136327744, 0.0393967367708683, 0.10244643688201904, -0.09594810754060745, 0.06547677516937256, -0.7095803975202358, 0.12725575636886238, -0.18179239601465588,-0.6687699106644499,-0.89093017578125,-0.1783447265625,0.09869384765625
20220111-1129,2022-01-11 11:29:30Z,u01, 43,40,movements,el-ex, rt, d,76270.19306125, -1.6051188077433276, 0.08299632585606213, 2.7005652423473574, -0.07668996602296829, 0.12431737780570984, 0.12051963061094284, -0.9959708452224731, -0.08290107548236847, 0.034197621047496796, 0.22338783740997314, -0.023559488356113434, -0.02545451745390892, -0.70742447917165, 0.12903261910493957, -0.18097022791343864,-0.6709329244228315,-0.7779083251953125,-0.1140594482421875,0.009246826171875
20220111-1129,2022-01-11 11:29:30Z,u01, 44,40,movements,el-ex, rt, d,76270.21800225001, -1.6031924871369128, 0.0819624375061569, 2.697690507815781, -0.14765548706054688, -0.05032048374414444, -0.059394463896751404, -0.996120035648346, -0.08187069743871689, 0.03228176012635231, 0.26578855514526367, 0.08209960907697678, -0.049112316220998764, -0.706527839753303, 0.13022784370100077, -0.1817008720552677,-0.6714491477890466,-0.72589111328125,0.007293701171875,-0.015380859375
20220111-1129,2022-01-11 11:29:30Z,u01, 45,40,movements,el-ex, rt, d,76270.24294441668, -1.6061272437486087, 0.08456676307568613, 2.6925723229719525, -0.19252929091453552, -0.15539085865020752, -0.13797517120838165, -0.9958043694496155, -0.08446600288152695, 0.03519732877612114, 0.1636664867401123, -0.11203666776418686, 0.11006617546081543, -0.7073392354372443, 0.131414877126104, -0.1841287843821091,-0.6696997666186577,-0.7945709228515625,-0.14471435546875,0.14495849609375
20220111-1129,2022-01-11 11:29:30Z,u01, 46,40,movements,el-ex, rt, d,76270.26788541667, -1.6089430941679193, 0.08946606991752516, 2.689220316509606, -0.023984011262655258, -0.15160156786441803, -0.2595709562301636, -0.9952760934829712, -0.08934676647186279, 0.03798499330878258, 0.10079050064086914, -0.0745478942990303, 0.03397536650300026, -0.7083655485982162, 0.13118973371959464, -0.1867658802350235,-0.6679267430778983,-0.888336181640625,-0.1497344970703125,0.0650634765625
20220111-1129,2022-01-11 11:29:30Z,u01, 47,40,movements,el-ex, rt, d,76270.29282641667, -1.6149320561186609, 0.09834344084563154, 2.6940965641561943, 0.2750231921672821, -0.2955304980278015, -0.4578838050365448, -0.9941989779472351, -0.0981849953532219, 0.04390821233391762, 0.21413922309875488, 0.160028874874115, -0.09082913398742676, -0.7112149278166968, 0.12699382696363937, -0.18784004830701567,-0.6654035856508627,-0.7906036376953125,0.0480804443359375,-0.0389404296875
20220111-1129,2022-01-11 11:29:30Z,u01, 48,40,movements,el-ex, rt, d,76270.31776741667, -1.6255288543805966, 0.11117235581475032, 2.695518745600113, -0.2677953541278839, -0.575676441192627, -0.5866960883140564, -0.9923384189605713, -0.1109434962272644, 0.054367486387491226, 0.24889975786209106, 0.0830351784825325, 0.04249512776732445, -0.715557593885645, 0.12313031268242336, -0.191179451057379,-0.6605047819413012,-0.7488555908203125,-0.0488128662109375,0.1112518310546875
20220111-1129,2022-01-11 11:29:30Z,u01, 49,40,movements,el-ex, rt, d,76270.34270841668, -1.6378674369382644, 0.1256934490289238, 2.689236870475185, -0.1360432356595993, -0.3590172231197357, -0.49743932485580444, -0.9898802638053894, -0.12536273896694183, 0.06649210304021835, -0.11008000373840332, -0.09769022464752197, 0.06949400901794434, -0.7200290615857236, 0.12167252008551965, -0.19756924802114104,-0.654003297240816,-1.0831756591796875,-0.2859344482421875,0.164215087890625
20220111-1129,2022-01-11 11:29:30Z,u01, 50,40,movements,el-ex, rt, d,76270.36764941667, -1.6471567342064344, 0.13737707105968153, 2.6981625497703026, 0.5482961535453796, -0.37817099690437317, -0.5313203930854797, -0.9876920580863953, -0.13694536685943604, 0.07556749880313873, 0.08156406879425049, 0.24624411761760712, -0.13030099868774414, -0.7241951933404154, 0.11543427342630747, -0.19821042591268861,-0.6503298351422236,-0.8906707763671875,0.121612548828125,-0.0587615966796875
20220111-1129,2022-01-11 11:29:30Z,u01, 51,40,movements,el-ex, rt, d,76270.39259041667, -1.660679220787822, 0.1508618099503283, 2.707040013782125, 0.008823403157293797, -0.5816529393196106, -0.6717464327812195, -0.9846509695053101, -0.15029020607471466, 0.08874239027500153, 0.14518874883651733, -0.012582078576087952, -0.05120588093996048, -0.7297148747702982, 0.10902933345193999, -0.1993353448739667,-0.6448985716278905,-0.816925048828125,-0.1021728515625,0.0311279296875
20220111-1129,2022-01-11 11:29:30Z,u01, 52,40,movements,el-ex, rt, d,76270.41753141666, -1.6755618815675835, 0.16906497098086148, 2.703141270648736, -0.33244481682777405, -0.6526492834091187, -0.6953115463256836, -0.9803379774093628, -0.16826072335243225, 0.1030830666422844, 0.03960299491882324, -0.08672885596752167, -0.017466053366661072, -0.7350694114718725, 0.10589850664144862, -0.2062398061165602,-0.6371214533654164,-0.945465087890625,-0.252197265625,0.094512939453125
20220111-1129,2022-01-11 11:29:30Z,u01, 53,40,movements,el-ex, rt, d,76270.44247241667, -1.6897578228797272, 0.1854690386508201, 2.7047227966036016, 0.3099873960018158, -0.397879034280777, -0.6124542355537415, -0.9759033918380737, -0.1844075471162796, 0.1166456937789917, -0.131716787815094, -0.025629624724388123, 0.04993437975645065, -0.7403029435719797, 0.10136271067636954, -0.2108436567207695,-0.6302554962522781,-1.095458984375,-0.2297821044921875,0.1881561279296875
20220111-1129,2022-01-11 11:29:30Z,u01, 54,40,movements,el-ex, rt, d,76270.46741341667, -1.6999427890261487, 0.19766084867226794, 2.716978766578044, 0.4067695438861847, -0.338329017162323, -0.5386864542961121, -0.9723629355430603, -0.1963762640953064, 0.12628008425235748, 0.03364217281341553, 0.12531611323356628, -0.1192612498998642, -0.7445324037538901, 0.09386981303939823, -0.21085698362102276,-0.6264178258843118,-0.921783447265625,-0.06585693359375,-0.001556396484375
20220111-1129,2022-01-11 11:29:30Z,u01, 55,40,movements,el-ex, rt, d,76270.49235441667, -1.712535373209838, 0.21174139752824442, 2.724445626349917, 0.001951415091753006, -0.5501348972320557, -0.6412782073020935, -0.967862069606781, -0.21016272902488708, 0.1381099671125412, 0.18241602182388306, 0.09813271462917328, -0.1488523632287979, -0.749230549831224, 0.08779842919593345, -0.21301729197866107,-0.6209416447132865,-0.781097412109375,-0.08819580078125,-0.0337677001953125
20220111-1129,2022-01-11 11:29:30Z,u01, 56,40,movements,el-ex, rt, d,76270.51729541668, -1.7271946483277252, 0.2279502222371195, 2.7208351335551915, -0.2902652323246002, -0.6514223217964172, -0.5848705172538757, -0.9622419476509094, -0.22598125040531158, 0.1517321914434433, 0.06540673971176147, -0.053376585245132446, 0.07797347009181976, -0.7540311231281934, 0.08545853013715865, -0.21934671628799435,-0.6132053478566611,-0.90985107421875,-0.2912139892578125,0.24078369140625
20220111-1129,2022-01-11 11:29:30Z,u01, 57,40,movements,el-ex, rt, d,76270.54223641667, -1.739402332889643, 0.24169727307770658, 2.7209907290715276, 0.10265785455703735, -0.35618501901626587, -0.4953983426094055, -0.9571648836135864, -0.23935091495513916, 0.16293062269687653, -0.0955083966255188, 0.02731482684612274, 0.0006129592657089233, -0.7580842058645842, 0.08230215504052912, -0.22376646966261532,-0.6070117107316779,-1.080841064453125,-0.252685546875,0.184844970703125
20220111-1129,2022-01-11 11:29:30Z,u01, 58,40,movements,el-ex, rt, d,76270.56717741667, -1.7509962746953749, 0.25389393324221043, 2.7303990700614964, 0.2775982618331909, -0.4516661763191223, -0.5930505394935608, -0.9522685408592224, -0.2511749565601349, 0.1734805703163147, 0.10949522256851196, 0.14611828327178955, -0.14407707750797272, -0.7622000425775534, 0.07610114259002887, -0.22489872560571741,-0.6022293423789329,-0.831695556640625,-0.1031494140625,0.0312347412109375
20220111-1129,2022-01-11 11:29:30Z,u01, 59,40,movements,el-ex, rt, d,76270.59211841667, -1.7662395485920277, 0.2677164621314205, 2.737153016638884, -0.038720548152923584, -0.5574312210083008, -0.5938234329223633, -0.9460172653198242, -0.2645299434661865, 0.18728338181972504, 0.023043692111968994, -0.0508996844291687, -0.014935508370399475, -0.7672195419541883, 0.07082275253249631, -0.22736954623786026,-0.5955344815029483,-0.8889007568359375,-0.30810546875,0.1557769775390625
20220111-1129,2022-01-11 11:29:30Z,u01, 60,40,movements,el-ex, rt, d,76270.61705941668, -1.7787925723876037, 0.28097582734264387, 2.7375994299858, 0.011792893521487713, -0.43174585700035095, -0.475881963968277, -0.9400772452354431, -0.2772933542728424, 0.19840194284915924, -0.07904207706451416, -0.029072612524032593, 0.07234981656074524, -0.7710985235867509, 0.06788254762315987, -0.23167129097069966,-0.5891752934971145,-1.023956298828125,-0.30255126953125,0.2660675048828125
20220111-1129,2022-01-11 11:29:30Z,u01, 61,40,movements,el-ex, rt, d,76270.64200041667, -1.7893238234666649, 0.29120146401202973, 2.744394672197022, 0.2623046040534973, -0.32699471712112427, -0.4615158140659332, -0.9351186156272888, -0.2871033251285553, 0.2076653391122818, -0.009308874607086182, 0.10883492231369019, -0.06433963775634766, -0.7744879641887872, 0.06325393206941354, -0.23310099378526505,-0.5846633708266652,-0.9699859619140625,-0.180023193359375,0.1528778076171875
20220111-1129,2022-01-11 11:29:30Z,u01, 62,40,movements,el-ex, rt, d,76270.66694141667, -1.8010459736744102, 0.3013635547061206, 2.7515321628777514, -0.027122315019369125, -0.4422726035118103, -0.4356323480606079, -0.9297313094139099, -0.29682257771492004, 0.21793526411056519, 0.05872923135757446, 0.006600469350814819, -0.0735110193490982, -0.7781554656130856, 0.05866602247461111, -0.234427694646804,-0.5797205588177943,-0.870819091796875,-0.2999267578125,0.157867431640625
20220111-1129,2022-01-11 11:29:30Z,u01, 63,40,movements,el-ex, rt, d,76270.69188241666, -1.8122944608101357, 0.3114801537330138, 2.752291007611545, 0.002348724752664566, -0.3824133276939392, -0.37689265608787537, -0.924258291721344, -0.3064678907394409, 0.22764956951141357, -0.09600555896759033, -0.20187866687774658, 0.12792593240737915, -0.7814265838386308, 0.05654449046951304, -0.2376442657609221,-0.5741955682852546,-0.9933624267578125,-0.5048828125,0.344512939453125
20220111-1129,2022-01-11 11:29:30Z,u01, 64,40,movements,el-ex, rt, d,76270.71682441667, -1.8196243494274829, 0.318793212892131, 2.756062849549879, 0.1814630925655365, -0.11367402225732803, -0.2717342674732208, -0.9203676581382751, -0.3134208023548126, 0.2338598072528839, -0.1731991171836853, -0.0317787230014801, 0.127559632062912, -0.783612747307701, 0.053674624263202464, -0.23908788100512263,-0.5708825784428044,-1.091949462890625,-0.332611083984375,0.3553466796875
20220111-1129,2022-01-11 11:29:30Z,u01, 65,40,movements,el-ex, rt, d,76270.74176541668, -1.823080920449297, 0.32207713011421885, 2.7654213425595393, 0.35277560353279114, 0.04053691774606705, -0.16173155605793, -0.9185522794723511, -0.3165375590324402, 0.2367815524339676, -0.02018362283706665, 0.017343252897262573, -0.048335686326026917, -0.78482497357552, 0.04940179309528148, -0.23755586893943015,-0.5702423689409241,-0.9631500244140625,-0.2715301513671875,0.197906494140625
20220111-1129,2022-01-11 11:29:30Z,u01, 66,40,movements,el-ex, rt, d,76270.76670641667, -1.8245774325452155, 0.3254188506868617, 2.769879221982114, -0.1578117161989212, -0.06163971871137619, -0.20600441098213196, -0.9171679615974426, -0.31970569491386414, 0.23788903653621674, 0.03356194496154785, -0.11671093106269836, -0.031254738569259644, -0.7853371624872815, 0.0467980717223791, -0.23749983829323668,-0.5697800596915137,-0.886199951171875,-0.437255859375,0.206573486328125
20220111-1129,2022-01-11 11:29:30Z,u01, 67,40,movements,el-ex, rt, d,76270.79164741667, -1.8244106094875545, 0.33176143532566615, 2.7648390847724884, -0.07807756960391998, -0.02247440814971924, -0.17155715823173523, -0.9152263402938843, -0.32570892572402954, 0.23722247779369354, -0.07842612266540527, -0.011998593807220459, 0.08829310536384583, -0.7851248626643322, 0.046799444708761406, -0.24131007819192676,-0.5684700650941334,-0.98388671875,-0.3400726318359375,0.3143310546875
20220111-1129,2022-01-11 11:29:31Z,u01, 68,40,movements,el-ex, rt, d,76270.81658841667, -1.8249048843265174, 0.33541144719009375, 2.7698985504368934, 0.23412328958511353, 0.06458772718906403, -0.21436886489391327, -0.9139522314071655, -0.3291577100753784, 0.23737439513206482, -0.05742239952087402, 0.061777979135513306, 0.01821020245552063, -0.7853492729410001, 0.04374604296677842, -0.24122494289376092,-0.5684394136951012,-0.964080810546875,-0.2611541748046875,0.2478179931640625
20220111-1129,2022-01-11 11:29:31Z,u01, 69,40,movements,el-ex, rt, d,76270.84152941668, -1.8269540386339427, 0.3393501415717743, 2.7757294597587117, 0.16951069235801697, -0.10556736588478088, -0.2022486925125122, -0.9122025966644287, -0.3328743577003479, 0.23891636729240417, 0.07403731346130371, 0.028278440237045288, 0.008352160453796387, -0.7860145922895075, 0.040487626979741065, -0.24099853131241822,-0.5678569404237532,-0.832672119140625,-0.27044677734375,0.247589111328125
20220111-1129,2022-01-11 11:29:31Z,u01, 70,40,movements,el-ex, rt, d,76270.86647041667, -1.8306854861969912, 0.34379864637749974, 2.779300420327671, -0.03110497258603573, -0.06725911796092987, -0.2019730508327484, -0.9098647236824036, -0.3370658755302429, 0.2419356405735016, -0.03520369529724121, -0.024796336889266968, 0.009559661149978638, -0.7870904341206755, 0.03816370400247804, -0.24157864594943515,-0.5662790692692957,-0.94873046875,-0.35638427734375,0.2501373291015625
20220111-1129,2022-01-11 11:29:31Z,u01, 71,40,movements,el-ex, rt, d,76270.89141141667, -1.8322117146425898, 0.34853591946833046, 2.7805344198387156, 0.04488992691040039, -0.05139999836683273, -0.21284407377243042, -0.9079416394233704, -0.34152212738990784, 0.24290858209133148, 0.02911168336868286, 0.09877011179924011, -0.05400490760803223, -0.7874826127996601, 0.03640636822665133, -0.24297651150040067,-0.5652504646236305,-0.8942718505859375,-0.2484130859375,0.18731689453125
20220111-1129,2022-01-11 11:29:31Z,u01, 72,40,movements,el-ex, rt, d,76270.91635241667, -1.8354412432195295, 0.3528486655275333, 2.7843443929751293, 0.04080943018198013, -0.08445276319980621, -0.26826632022857666, -0.9057222604751587, -0.3455723822116852, 0.24545195698738098, 0.04062527418136597, 0.06693166494369507, -0.05827261507511139, -0.7883982159967525, 0.0339739662319985, -0.24346151332809435,-0.5639152354176766,-0.867401123046875,-0.2781829833984375,0.1862335205078125
20220111-1129,2022-01-11 11:29:31Z,u01, 73,40,movements,el-ex, rt, d,76270.94129341668, -1.8382353816031616, 0.35820872201556425, 2.786090372147335, 0.03608398512005806, -0.09746456146240234, -0.21390841901302338, -0.9032337069511414, -0.35059720277786255, 0.24748872220516205, 0.03551197052001953, -0.019230157136917114, -0.013312280178070068, -0.7891269842030594, 0.03198383757990142, -0.2449357645344307,-0.5623719271092946,-0.8680267333984375,-0.3622283935546875,0.2401123046875
20220111-1129,2022-01-11 11:29:31Z,u01, 74,40,movements,el-ex, rt, d,76270.96623441667, -1.841461307668566, 0.3610486561000786, 2.788617670995442, 0.11407475173473358, -0.15780013799667358, -0.18845051527023315, -0.9014672636985779, -0.3532554805278778, 0.2501339018344879, 0.03597366809844971, 0.008422136306762695, -0.008648544549942017, -0.7900227415538122, 0.03051256380959816, -0.24524247849305494,-0.5610606389665642,-0.86614990234375,-0.343841552734375,0.23980712890625
20220111-1129,2022-01-11 11:29:31Z,u01, 75,40,movements,el-ex, rt, d,76270.99117541667, -1.8453245537321614, 0.36148202206938135, 2.7934337715765696, 0.14584550261497498, -0.16750170290470123, -0.17302168905735016, -0.9003469347953796, -0.35366085171699524, 0.25357314944267273, 0.03175556659698486, 0.09005004167556763, -0.07411465048789978, -0.7911690853308642, 0.028949020327637354, -0.24399829374459447,-0.5600698702810541,-0.8751220703125,-0.270172119140625,0.1765899658203125
20220111-1129,2022-01-11 11:29:31Z,u01, 76,40,movements,el-ex, rt, d,76271.01611641668, -1.8504174783632565, 0.362615239128233, 2.7957302310346566, -0.008979396894574165, -0.2152911275625229, -0.059466972947120667, -0.8986578583717346, -0.3547206223011017, 0.25804439187049866, 0.054663896560668945, -0.02745094895362854, -0.006274610757827759, -0.7926035647463927, 0.028315777787067786, -0.24371081563922117,-0.5581959098922504,-0.84375,-0.3896484375,0.249176025390625
20220111-1129,2022-01-11 11:29:31Z,u01, 77,40,movements,el-ex, rt, d,76271.04105741667, -1.8553026043849101, 0.3642849341137291, 2.7935709598902796, -0.022185014560818672, -0.2444092035293579, 0.013814564794301987, -0.8968172073364258, -0.35628125071525574, 0.26226484775543213, 0.0065888166427612305, -0.07815176248550415, 0.03773811459541321, -0.7938993254238783, 0.02926229347072634, -0.2448728319725695,-0.5557922010914544,-0.8773040771484375,-0.431732177734375,0.31048583984375
20220111-1129,2022-01-11 11:29:31Z,u01, 78,40,movements,el-ex, rt, d,76271.06599841667, -1.8597405176363961, 0.36184572405303156, 2.795732883472088, 0.2409762442111969, -0.14459805190563202, 0.07012883573770523, -0.8964744210243225, -0.3540010452270508, 0.2664889693260193, -0.019739389419555664, -0.015383630990982056, -0.009439647197723389, -0.7952128040605809, 0.029682951308360905, -0.24328373560848693,-0.5545884450949422,-0.9149932861328125,-0.367462158203125,0.252960205078125
20220111-1129,2022-01-11 11:29:31Z,u01, 79,40,movements,el-ex, rt, d,76271.09093941667, -1.8643926983775154, 0.3566647064010437, 2.8022826374908854, 0.26382875442504883, -0.13886626064777374, 0.0715244710445404, -0.8969687223434448, -0.34915077686309814, 0.2711838185787201, 0.0328635573387146, -0.06018140912055969, -0.05003836750984192, -0.7967052421792353, 0.02920040584742578, -0.23943202460619575,-0.5541482791442504,-0.8651885986328125,-0.406951904296875,0.221160888671875
20220111-1129,2022-01-11 11:29:31Z,u01, 80,40,movements,el-ex, rt, d,76271.11588041668, -1.8694861092894814, 0.352726559290083, 2.8063823405788115, 0.12326059490442276, -0.14416328072547913, 0.1290455460548401, -0.8968830704689026, -0.3454577922821045, 0.2761514186859131, 0.05291938781738281, -0.0818798840045929, -0.0179271399974823, -0.798256815778991, 0.029355825138442482, -0.23672173290755885,-0.553070612265687,-0.84393310546875,-0.42645263671875,0.2665863037109375
20220111-1129,2022-01-11 11:29:31Z,u01, 81,40,movements,el-ex, rt, d,76271.14082141667, -1.8732814789751249, 0.3491807495936111, 2.807251180763478, 0.05352020263671875, -0.09621080756187439, 0.13868926465511322, -0.896992027759552, -0.34212809801101685, 0.2799164950847626, -0.04545170068740845, -0.01578199863433838, 0.08862873911857605, -0.7993915408452532, 0.030519116305284255, -0.235069804249559,-0.5520722605496456,-0.924560546875,-0.3789825439453125,0.37548828125
20220111-1129,2022-01-11 11:29:31Z,u01, 82,40,movements,el-ex, rt, d,76271.16576241667, -1.8733890176773613, 0.3448137360645645, 2.809967536262097, 0.32094812393188477, 0.07021690905094147, 0.1752908080816269, -0.8983798027038574, -0.3380213975906372, 0.2804555892944336, -0.06356489658355713, 0.02076062560081482, -0.006636828184127808, -0.7995511595843712, 0.030752845965277276, -0.23264619752039534,-0.5528543776781947,-0.9593963623046875,-0.3198699951171875,0.2691802978515625
20220111-1129,2022-01-11 11:29:31Z,u01, 83,40,movements,el-ex, rt, d,76271.19070341667, -1.8733968674988244, 0.33947598651956057, 2.8161644178778356, 0.16840627789497375, 0.0918532982468605, 0.1269683539867401, -0.9000871777534485, -0.3329930305480957, 0.2809963524341583, -0.00894010066986084, -0.04960593581199646, -0.010763347148895264, -0.7997535758984821, 0.02987307214701157, -0.2288849092012353,-0.5541783385890959,-0.908111572265625,-0.37384033203125,0.25018310546875
20220111-1129,2022-01-11 11:29:31Z,u01, 84,40,movements,el-ex, rt, d,76271.21564441668, -1.870571382050523, 0.3365234980059963, 2.816523004181436, -0.05050469934940338, 0.15321692824363708, 0.09500176459550858, -0.9018126726150513, -0.33020758628845215, 0.27874109148979187, -0.04142451286315918, -0.046455591917037964, 0.053213685750961304, -0.7990325350945, 0.03029115397685661, -0.22769547302118295,-0.5556834695748483,-0.9452056884765625,-0.3708648681640625,0.3303985595703125
20220111-1129,2022-01-11 11:29:31Z,u01, 85,40,movements,el-ex, rt, d,76271.24058541667, -1.8646772888614187, 0.3340623631902658, 2.8145758574614845, -0.034924011677503586, 0.27458488941192627, 0.07346531003713608, -0.9042150378227234, -0.3278835117816925, 0.273655503988266, -0.05331963300704956, 0.02507290244102478, 0.038996875286102295, -0.7974072115751555, 0.03113657975319628, -0.22738553780662157,-0.5580931491547516,-0.961822509765625,-0.3065185546875,0.32489013671875
20220111-1129,2022-01-11 11:29:31Z,u01, 86,40,movements,el-ex, rt, d,76271.26552691667, -1.8565357079684441, 0.3330716767950994, 2.8145696252434944, 0.05723527446389198, 0.31762516498565674, 0.01972285658121109, -0.9067244529724121, -0.326947420835495, 0.266376256942749, -0.03689444065093994, 0.004468202590942383, 0.012310177087783813, -0.7951459631448301, 0.030512699370382923, -0.22713434427051946,-0.5614462690687345,-0.9445953369140625,-0.3225860595703125,0.2819061279296875
20220111-1129,2022-01-11 11:29:31Z,u01, 87,40,movements,el-ex, rt, d,76271.29046791667, -1.8497814753597797, 0.33321167383659084, 2.8169231221158486, 0.0970478355884552, 0.3225454092025757, 0.014738548547029495, -0.9084588885307312, -0.32707974314689636, 0.2602333724498749, -0.06622684001922607, -0.00461578369140625, 0.019063234329223633, -0.7932773844367408, 0.028769492727649282, -0.22662536812100464,-0.5643795575231793,-0.9705047607421875,-0.338165283203125,0.278045654296875
20220111-1129,2022-01-11 11:29:31Z,u01, 88,40,movements,el-ex, rt, d,76271.31540891668, -1.8424729645518199, 0.33265545888417997, 2.8166251758803513, -0.08476114273071289, 0.25706490874290466, 0.05557353049516678, -0.9105114936828613, -0.3265540599822998, 0.2536357641220093, -0.1004900336265564, 0.01380997896194458, 0.03298521041870117, -0.7912149030400522, 0.02822864681293563, -0.22660245945621074,-0.5673036098097219,-1.0146636962890625,-0.31475830078125,0.2860870361328125
20220111-1129,2022-01-11 11:29:31Z,u01, 89,40,movements,el-ex, rt, d,76271.34035091667, -1.836091816064942, 0.3318851853387539, 2.814288423296031, -0.08543621748685837, 0.1922404170036316, 0.05013915151357651, -0.9123538732528687, -0.32582592964172363, 0.24788638949394226, -0.17326313257217407, -0.03205367922782898, 0.009803876280784607, -0.7893805088187537, 0.02866366631358397, -0.22706557034406297,-0.5696471949394515,-1.078399658203125,-0.3534393310546875,0.2552642822265625
20220111-1129,2022-01-11 11:29:31Z,u01, 90,40,movements,el-ex, rt, d,76271.36529191668, -1.8313692638813777, 0.3316963476802779, 2.8111402926888576, -0.1288439780473709, 0.1090121865272522, 0.02624720148742199, -0.9135738015174866, -0.32564738392829895, 0.24359086155891418, -0.20132482051849365, -0.07849687337875366, 0.0604403018951416, -0.7879908341219044, 0.029425805604706534, -0.227960660458508,-0.5711728726664912,-1.1178436279296875,-0.4068756103515625,0.304840087890625
20220111-1129,2022-01-11 11:29:31Z,u01, 91,40,movements,el-ex, rt, d,76271.39023291667, -1.8295836005697756, 0.3320681024861556, 2.810262985083419, 0.08693931251764297, 0.046900875866413116, -0.0190126895904541, -0.9138903617858887, -0.32599884271621704, 0.24192817509174347, -0.2705732583999634, -0.06021633744239807, 0.013961583375930786, -0.7874621144692491, 0.029453400843040156, -0.22837787771291204,-0.5717337463639743,-1.174530029296875,-0.3924102783203125,0.263275146484375
20220111-1129,2022-01-11 11:29:31Z,u01, 92,40,movements,el-ex, rt, d,76271.41517391667, -1.8300439598972404, 0.3323345553631135, 2.8136086735227455, 0.07171694189310074, 0.014367695897817612, -0.03493013605475426, -0.9136947393417358, -0.32625073194503784, 0.2423265427350998, -0.2785659432411194, -0.08176922798156738, 0.011808380484580994, -0.7876377948355127, 0.028106492828085916, -0.22751519121306965,-0.5719033608955648,-1.1923980712890625,-0.4121856689453125,0.2562713623046875
20220111-1129,2022-01-11 11:29:31Z,u01, 93,40,movements,el-ex, rt, d,76271.44011491667, -1.8313129548929394, 0.3340556510533695, 2.8134625032721354, -0.07594554871320724, -0.06637442111968994, -0.06568551808595657, -0.9128426909446716, -0.3278771638870239, 0.243340864777565, -0.29331880807876587, -0.12053284049034119, 0.01721811294555664, -0.7879712621227546, 0.027779864555134204, -0.22818877972320892,-0.5711912477195153,-1.2025604248046875,-0.4575042724609375,0.265625
20220111-1129,2022-01-11 11:29:31Z,u01, 94,40,movements,el-ex, rt, d,76271.46505591668, -1.8332025176907452, 0.33616776244142, 2.813710387927895, 0.053898002952337265, -0.07429585605859756, -0.09891178458929062, -0.9117102026939392, -0.32987180352211, 0.24488505721092224, -0.28215253353118896, -0.08983638882637024, 0.02160950005054474, -0.7884795359090264, 0.027249741469530797, -0.22888942539959356,-0.5702340977415794,-1.1920166015625,-0.419464111328125,0.2662353515625
20220111-1129,2022-01-11 11:29:31Z,u01, 95,40,movements,el-ex, rt, d,76271.48999691667, -1.8360661745792508, 0.3384857808409158, 2.8161509598017482, 0.06916514039039612, -0.09430812299251556, -0.117779940366745, -0.9102650284767151, -0.33205917477607727, 0.24729378521442413, -0.22665202617645264, -0.09839126467704773, 0.025014400482177734, -0.7892881947587205, 0.02590443148531607, -0.22903207396232136,-0.5691198285097498,-1.1435699462890625,-0.430816650390625,0.27325439453125
20220111-1129,2022-01-11 11:29:31Z,u01, 96,40,movements,el-ex, rt, d,76271.51493791667, -1.8395661153531317, 0.3413097835231329, 2.8188400457604907, 0.0669749528169632, -0.10985805094242096, -0.15719152987003326, -0.9084861278533936, -0.3347216248512268, 0.2502281069755554, -0.1882849931716919, -0.0706738531589508, 0.0014348924160003662, -0.7902655753764587, 0.024379683697878962, -0.22929221528119445,-0.5677243183112455,-1.09442138671875,-0.4021453857421875,0.2509918212890625
20220111-1129,2022-01-11 11:29:31Z,u01, 97,40,movements,el-ex, rt, d,76271.53987891666, -1.8432851242342332, 0.34467559808739645, 2.821196816366804, 0.006499261595308781, -0.11502477526664734, -0.1357085406780243, -0.9064589738845825, -0.3378913700580597, 0.25330036878585815, -0.13956135511398315, -0.07356178760528564, 0.023127615451812744, -0.7912826178194223, 0.02284743616919388, -0.22985538049327886,-0.5661414571977591,-1.04815673828125,-0.40081787109375,0.2692108154296875
20220111-1129,2022-01-11 11:29:31Z,u01, 98,40,movements,el-ex, rt, d,76271.56481991668, -1.8462678004210131, 0.3475699720230733, 2.8219269531756472, 0.04030659422278404, -0.10214313864707947, -0.11461903899908066, -0.9047547578811646, -0.34061408042907715, 0.2557358741760254, -0.13066089153289795, -0.09769457578659058, 0.030686616897583008, -0.7920751546013851, 0.022020294830919274, -0.23071326652885438,-0.5647153542273815,-1.03411865234375,-0.4362030029296875,0.282989501953125
20220111-1129,2022-01-11 11:29:31Z,u01, 99,40,movements,el-ex, rt, d,76271.58976091667, -1.8492688161050372, 0.3499385327159938, 2.8251204697208636, 0.1427752822637558, -0.04454834759235382, -0.11604656279087067, -0.9032048583030701, -0.3428400754928589, 0.2582273781299591, -0.11048221588134766, -0.009210675954818726, 0.021481245756149292, -0.7929049808461786, 0.020380963163017463, -0.23067991099136884,-0.5636248520315504,-1.0188140869140625,-0.3488006591796875,0.282379150390625
20220111-1129,2022-01-11 11:29:31Z,u01, 100,40,movements,el-ex, rt, d,76271.61470191667, -1.851207563379973, 0.35145469330912216, 2.8286449001946563, 0.04086242988705635, -0.02954290248453617, -0.06373448669910431, -0.9022020697593689, -0.3442639410495758, 0.25983384251594543, -0.06883668899536133, -0.05171683430671692, 0.02098870277404785, -0.7934516361884276, 0.018746450497685196, -0.23024454717374263,-0.563090116564927,-0.968170166015625,-0.399749755859375,0.2826385498046875
20220111-1129,2022-01-11 11:29:31Z,u01, 101,40,movements,el-ex, rt, d,76271.63964291668, -1.8515178493738322, 0.35295465083427835, 2.8281998603109457, -0.06332536041736603, 0.007886495441198349, -0.022011809051036835, -0.9016242027282715, -0.3456718325614929, 0.25997042655944824, -0.06096118688583374, -0.025925427675247192, 0.03635513782501221, -0.7935003587307038, 0.018503866878218977, -0.23093736645495316,-0.5627456505217686,-0.9648284912109375,-0.379180908203125,0.2906951904296875
20220111-1129,2022-01-11 11:29:31Z,u01, 102,40,movements,el-ex, rt, d,76271.66458391667, -1.85113297672235, 0.3525518732754371, 2.8287603603463523, 0.08242581784725189, 0.05773521214723587, 0.020139839500188828, -0.9018579125404358, -0.3452938497066498, 0.25966188311576843, -0.057462096214294434, -0.04751315712928772, 0.04572737216949463, -0.7934065049473893, 0.01835924937604405, -0.23062999870308604,-0.5630086911453607,-0.9593048095703125,-0.3925018310546875,0.305084228515625
20220111-1129,2022-01-11 11:29:31Z,u01, 103,40,movements,el-ex, rt, d,76271.68952491667, -1.850021404632501, 0.3509366632807616, 2.83194085903173, 0.1435401439666748, 0.09259992092847824, 0.041921235620975494, -0.9026810526847839, -0.34377753734588623, 0.25881266593933105, -0.021376073360443115, 0.01490485668182373, 0.0015632212162017822, -0.7931591741358262, 0.017460057113634353, -0.2291295409638854,-0.5639976432686189,-0.928955078125,-0.345489501953125,0.26568603515625
20220111-1129,2022-01-11 11:29:31Z,u01, 104,40,movements,el-ex, rt, d,76271.71446591667, -1.8481397436824165, 0.34852876186358406, 2.8351072289578134, 0.1320735663175583, 0.15632230043411255, 0.11477852612733841, -0.9039599895477295, -0.3415153920650482, 0.25733956694602966, -0.025315523147583008, -0.018378406763076782, 0.009368658065795898, -0.7927106574493877, 0.01672113343223497, -0.22733566747891812,-0.5653748607439358,-0.9294586181640625,-0.362884521484375,0.2687530517578125
20220111-1129,2022-01-11 11:29:31Z,u01, 105,40,movements,el-ex, rt, d,76271.73940691668, -1.84603799833021, 0.3443009416556121, 2.8394527513277645, 0.24469052255153656, 0.16248859465122223, 0.12275522947311401, -0.905880331993103, -0.3375387191772461, 0.25582924485206604, 0.029033899307250977, -0.033127784729003906, -0.035141557455062866, -0.7922481426350291, 0.016047003604169663, -0.22451387793695138,-0.5671674916251255,-0.88580322265625,-0.38519287109375,0.2261962890625
20220111-1129,2022-01-11 11:29:31Z,u01, 106,40,movements,el-ex, rt, d,76271.76434791667, -1.843667569179566, 0.3385077212390737, 2.84630614144135, 0.5573248863220215, 0.014138597995042801, 0.34810400009155273, -0.9083520174026489, -0.33207985758781433, 0.2542039155960083, 0.060176968574523926, -0.013684242963790894, 0.03620123863220215, -0.7917587741194757, 0.014832365243335532, -0.2203789637086391,-0.5695007990904044,-0.8390350341796875,-0.356170654296875,0.297882080078125
20220111-1129,2022-01-11 11:29:31Z,u01, 107,40,movements,el-ex, rt, d,76271.78928891667, -1.8416030129163143, 0.33219636499733446, 2.853510229936506, 0.1342458724975586, 0.20661576092243195, 0.18391306698322296, -0.9108763337135315, -0.3261201083660126, 0.2528836727142334, -0.06580835580825806, 0.07337349653244019, 0.07087710499763489, -0.7913625829806372, 0.013678611191419943, -0.21593286813132415,-0.5717789953868941,-0.9781341552734375,-0.248687744140625,0.33001708984375
20220111-1129,2022-01-11 11:29:32Z,u01, 108,40,movements,el-ex, rt, d,76271.81422991666, -1.8366655665019134, 0.32628670260738446, 2.8590034081364895, 0.33656996488571167, 0.34589987993240356, 0.1234758123755455, -0.9139573574066162, -0.3205278515815735, 0.24888524413108826, -0.1331007480621338, 0.166215717792511, 0.029236555099487305, -0.7901134347458874, 0.01278208101528111, -0.21213770568848747,-0.574939115428688,-1.0480499267578125,-0.1465301513671875,0.272613525390625
20220111-1129,2022-01-11 11:29:32Z,u01, 109,40,movements,el-ex, rt, d,76271.83917091668, -1.827410374571381, 0.32081780420637207, 2.8617324381540095, 0.04597356542944908, 0.39055290818214417, 0.2619597315788269, -0.9179035425186157, -0.3153427541255951, 0.24085718393325806, -0.017841815948486328, 0.03635105490684509, 0.050387173891067505, -0.7875751783274954, 0.012406738057046729, -0.20932651354362058,-0.5794427328026918,-0.9515838623046875,-0.218353271484375,0.282470703125
20220111-1129,2022-01-11 11:29:32Z,u01, 110,40,movements,el-ex, rt, d,76271.86411191667, -1.8175532387919136, 0.3144627523239219, 2.85789653268079, -0.10602284967899323, 0.3398096561431885, 0.314018189907074, -0.9221577644348145, -0.3093056082725525, 0.23228253424167633, -0.0451275110244751, -0.1318565309047699, 0.02896299958229065, -0.7848062719150113, 0.01484526625582383, -0.20809729590995305,-0.5835702877791048,-0.9709625244140625,-0.444671630859375,0.257476806640625
20220111-1129,2022-01-11 11:29:32Z,u01, 111,40,movements,el-ex, rt, d,76271.88905291667, -1.8074534989020496, 0.3073957918657455, 2.855266066302387, 0.09532663971185684, 0.4087753891944885, 0.3065512180328369, -0.9265584349632263, -0.30257752537727356, 0.22346417605876923, -0.03427225351333618, 0.012034952640533447, 0.014298081398010254, -0.7819477988622703, 0.017021493944955834, -0.20627595465280613,-0.5879779848698108,-0.970855712890625,-0.302581787109375,0.23455810546875
20220111-1129,2022-01-11 11:29:32Z,u01, 112,40,movements,el-ex, rt, d,76271.91399391668, -1.797275373444806, 0.29901148411716044, 2.8559106464680615, 0.014203253202140331, 0.423401415348053, 0.34686556458473206, -0.9312242865562439, -0.29457569122314453, 0.21458426117897034, -0.006229877471923828, 0.02670767903327942, 0.012390121817588806, -0.7790735446682427, 0.01834513317445835, -0.20301561037912336,-0.5928680118821448,-0.936492919921875,-0.267852783203125,0.2315216064453125
20220111-1129,2022-01-11 11:29:32Z,u01, 113,40,movements,el-ex, rt, d,76271.93893491667, -1.7850652034822019, 0.29032532510133824, 2.8518299610342734, -0.13799810409545898, 0.47419673204421997, 0.41205155849456787, -0.9362397789955139, -0.28626394271850586, 0.20373451709747314, -0.002633392810821533, 0.028588801622390747, 0.03175422549247742, -0.7755051064251568, 0.021426428720101143, -0.2010903778547038,-0.5980763136081001,-0.9436187744140625,-0.2603302001953125,0.230560302734375
20220111-1129,2022-01-11 11:29:32Z,u01, 114,40,movements,el-ex, rt, d,76271.96387591667, -1.7712013386732088, 0.2795932329160198, 2.8466692194996335, -0.09215401113033295, 0.5113555788993835, 0.47760745882987976, -0.9419309496879578, -0.2759647071361542, 0.19133606553077698, 0.03375840187072754, 0.011651992797851562, -0.00903940200805664, -0.771376141007484, 0.025433825129139054, -0.19879318734393378,-0.6039976935046608,-0.906097412109375,-0.2646942138671875,0.183013916015625
20220111-1129,2022-01-11 11:29:32Z,u01, 115,40,movements,el-ex, rt, d,76271.98881691667, -1.75724314163012, 0.26841162123801127, 2.84123343194878, -0.14003661274909973, 0.5012302398681641, 0.4858517348766327, -0.9474830627441406, -0.26520025730133057, 0.1787310540676117, 0.05763620138168335, 0.012652039527893066, -0.012532457709312439, -0.7671262161059873, 0.029713599399024737, -0.1964784152689796,-0.6099432516081175,-0.8880462646484375,-0.249603271484375,0.15850830078125
20220111-1129,2022-01-11 11:29:32Z,u01, 116,40,movements,el-ex, rt, d,76272.01375791668, -1.742386378377273, 0.2566197409404785, 2.835264834938058, -0.13822007179260254, 0.576263964176178, 0.5431206226348877, -0.953048825263977, -0.25381243228912354, 0.16515780985355377, 0.03129589557647705, 0.02546471357345581, 0.02824711799621582, -0.7624957414536835, 0.03433871126373639, -0.19418603376417587,-0.6162084294564779,-0.9233856201171875,-0.2285308837890625,0.1959075927734375
20220111-1129,2022-01-11 11:29:32Z,u01, 117,40,movements,el-ex, rt, d,76272.03869991667, -1.7259938317357968, 0.2426590526567163, 2.831706019333431, 0.024750271812081337, 0.6392209529876709, 0.5880274772644043, -0.9590355157852173, -0.24028462171554565, 0.15004654228687286, 0.06651854515075684, 0.06320641934871674, -0.05472506582736969, -0.7573175448793313, 0.03864467614742656, -0.19045609764114188,-0.6234606094364201,-0.911102294921875,-0.2021942138671875,0.1181793212890625
20220111-1129,2022-01-11 11:29:32Z,u01, 118,40,movements,el-ex, rt, d,76272.06364091668, -1.7103227552148474, 0.22856320811617548, 2.827858986184465, -0.21201783418655396, 0.502417802810669, 0.5849813222885132, -0.9645276069641113, -0.22657833993434906, 0.13545724749565125, 0.1661573052406311, 0.11137448251247406, -0.029363051056861877, -0.7522364268764565, 0.043231725862255876, -0.18683104953965118,-0.6303693463066357,-0.797027587890625,-0.12286376953125,0.1143646240234375
20220111-1129,2022-01-11 11:29:32Z,u01, 119,40,movements,el-ex, rt, d,76272.08858191667, -1.695918344187615, 0.21479490283616723, 2.8168025187936245, -0.4069831073284149, 0.49959877133369446, 0.6376447081565857, -0.9693820476531982, -0.21314704418182373, 0.12192798405885696, 0.02310842275619507, -0.06343373656272888, 0.03166674077510834, -0.7472656917876694, 0.05057647442777902, -0.18566735722845437,-0.6360530689807286,-0.9297637939453125,-0.272369384765625,0.1587371826171875
20220111-1129,2022-01-11 11:29:32Z,u01, 120,40,movements,el-ex, rt, d,76272.11352291667, -1.6808800532686772, 0.19905752029033955, 2.8084833796700734, -0.06833133846521378, 0.5140678882598877, 0.6674613356590271, -0.9743197560310364, -0.19774554669857025, 0.10769212245941162, 0.07032811641693115, 0.051001787185668945, -0.020701885223388672, -0.741982428587162, 0.0575164002635834, -0.1830500412394023,-0.6423757235559394,-0.8968353271484375,-0.141357421875,0.089691162109375
20220111-1129,2022-01-11 11:29:32Z,u01, 121,40,movements,el-ex, rt, d,76272.13846391666, -1.6684414841054072, 0.18346830869975184, 2.8066479996951736, -0.05466832220554352, 0.47654858231544495, 0.6072988510131836, -0.9785333275794983, -0.18244075775146484, 0.09585387259721756, 0.10241943597793579, 0.06915953755378723, -0.03617691993713379, -0.7375957524088778, 0.06228518045916176, -0.17841398446780024,-0.6482603903189076,-0.8796844482421875,-0.112060546875,0.0494384765625
20220111-1129,2022-01-11 11:29:32Z,u01, 122,40,movements,el-ex, rt, d,76272.16340491668, -1.656798002316882, 0.16835266861333345, 2.7996940710876013, -0.39571529626846313, 0.34832262992858887, 0.669320285320282, -0.9822185635566711, -0.16755853593349457, 0.08468131721019745, 0.15323901176452637, -0.021299466490745544, 0.06088734418153763, -0.7332080873545149, 0.068895282776893, -0.1756511280245777,-0.6533039425003321,-0.8305511474609375,-0.2039337158203125,0.163787841796875
20220111-1129,2022-01-11 11:29:32Z,u01, 123,40,movements,el-ex, rt, d,76272.18834591667, -1.6450619090938454, 0.1511359746777823, 2.789494590319433, -0.2353714555501938, 0.49694159626960754, 0.7676308155059814, -0.98587566614151, -0.15056125819683075, 0.07335153222084045, 0.004781365394592285, -0.023816168308258057, 0.027585268020629883, -0.7284793780486369, 0.07741810825202528, -0.17329401766862376,-0.6582502724779113,-0.995635986328125,-0.217315673828125,0.1096343994140625
20220111-1129,2022-01-11 11:29:32Z,u01, 124,40,movements,el-ex, rt, d,76272.21328691667, -1.6326516283686923, 0.1332497920788483, 2.7887060925441243, 0.02782914973795414, 0.45202741026878357, 0.6433266997337341, -0.9892399907112122, -0.13285581767559052, 0.06126789748668671, 0.14344525337219238, 0.11922971904277802, -0.06454872339963913, -0.7237339715860862, 0.08272295081743253, -0.1677098908074385,-0.6642586320798765,-0.842071533203125,-0.0055999755859375,-0.0020751953125
20220111-1129,2022-01-11 11:29:32Z,u01, 125,40,movements,el-ex, rt, d,76272.23822791668, -1.6220591721601554, 0.11770468150504422, 2.784463554932881, -0.4189465343952179, 0.35968855023384094, 0.6600655913352966, -0.9917762279510498, -0.1174330785870552, 0.05088585242629051, 0.1428382396697998, -0.020765751600265503, 0.09985554218292236, -0.7194292709055331, 0.0886817351778863, -0.16408749903979042,-0.669053314330613,-0.835418701171875,-0.100830078125,0.101531982421875
20220111-1129,2022-01-11 11:29:32Z,u01, 126,40,movements,el-ex, rt, d,76272.263167625, -1.6102852606057683, 0.10029865305701897, 2.7721329801076866, -0.35200223326683044, 0.5557997822761536, 0.733679473400116, -0.9941984415054321, -0.10013057291507721, 0.03928025811910629, -0.023272693157196045, -0.2255530059337616, 0.14873838424682617, -0.7141535499406712, 0.09810624671643275, -0.16265649529673182,-0.6737229191448199,-1.0250091552734375,-0.3130950927734375,0.1773223876953125
20220111-1129,2022-01-11 11:29:32Z,u01, 127,40,movements,el-ex, rt, d,76272.288108625, -1.5964839563567186, 0.08324612705325014, 2.7710103044860372, 0.24102821946144104, 0.4989040493965149, 0.5966760516166687, -0.9962083697319031, -0.08315001428127289, 0.025595860555768013, 0.2191392183303833, 0.16928589344024658, -0.074241042137146, -0.7086129659103154, 0.10327436777803056, -0.15776581185718058,-0.6799353533316048,-0.8050689697265625,0.0760650634765625,-0.0460357666015625
20220111-1129,2022-01-11 11:29:32Z,u01, 128,40,movements,el-ex, rt, d,76272.31304962501, -1.585982266085035, 0.07010966501300556, 2.773113678738372, -0.1925317794084549, 0.386105477809906, 0.47437164187431335, -0.9974283576011658, -0.07005224376916885, 0.015148051083087921, 0.185965895652771, -0.06538475304841995, 0.027515413239598274, -0.704472908700656, 0.10626356987852043, -0.15302221596450316,-0.6848432061848987,-0.819305419921875,-0.148681640625,0.046295166015625
20220111-1129,2022-01-11 11:29:32Z,u01, 129,40,movements,el-ex, rt, d,76272.337990625, -1.5767186286702575, 0.05898706043003348, 2.7629896472406257, -0.42935091257095337, 0.3421719968318939, 0.4354483485221863, -0.9982431530952454, -0.05895286053419113, 0.005911966785788536, 0.1403025984764099, -0.06000464782118797, 0.134834885597229, -0.7001375964790769, 0.11297490550603057, -0.15314614670313353,-0.6881788940884123,-0.85711669921875,-0.13677978515625,0.1357269287109375
20220111-1129,2022-01-11 11:29:32Z,u01, 130,40,movements,el-ex, rt, d,76272.362931625, -1.5676155220207946, 0.048841534530970995, 2.756047090066062, -0.10351359099149704, 0.3562014698982239, 0.37476709485054016, -0.9988024234771729, -0.04882211983203888, -0.0031770062632858753, 0.13056212663650513, -0.0005705654621124268, 0.060900866985321045, -0.6960108305227459, 0.11823882916130801, -0.1525626415415755,-0.6916018390435983,-0.866241455078125,-0.046142578125,0.0486297607421875
20220111-1129,2022-01-11 11:29:32Z,u01, 131,40,movements,el-ex, rt, d,76272.38787262501, -1.5592836484103725, 0.040751335271284196, 2.755531542944229, -0.008693072944879532, 0.29516342282295227, 0.2760605216026306, -0.9991035461425781, -0.040740057826042175, -0.011502865701913834, 0.1746254563331604, -0.036911871284246445, 0.020276546478271484, -0.692604082617683, 0.12061571951636013, -0.15045498529891416,-0.6950645309608905,-0.823760986328125,-0.0594635009765625,0.0035400390625
20220111-1129,2022-01-11 11:29:32Z,u01, 132,40,movements,el-ex, rt, d,76272.41281362501, -1.552941287106745, 0.036094895520779165, 2.7526454953075286, -0.19489280879497528, 0.213897243142128, 0.14208824932575226, -0.9991891980171204, -0.03608705848455429, -0.017842458561062813, 0.1447582244873047, -0.0217895470559597, 0.04587268829345703, -0.6899321869970144, 0.12276949022025807, -0.15024837436711636,-0.697385483786323,-0.85516357421875,-0.05609130859375,0.0271148681640625
20220111-1129,2022-01-11 11:29:32Z,u01, 133,40,movements,el-ex, rt, d,76272.437754625, -1.5485311583203223, 0.03400062615636748, 2.749695928459868, -0.04729123041033745, 0.15713728964328766, 0.029492195695638657, -0.9991742372512817, -0.033994074910879135, -0.02225046046078205, 0.1400892734527588, 0.03730526939034462, -0.009579537436366081, -0.6880782610545992, 0.12418968083846826, -0.15083383633502406,-0.6988378219062137,-0.871368408203125,-0.0169830322265625,-0.01629638671875
20220111-1129,2022-01-11 11:29:32Z,u01, 134,40,movements,el-ex, rt, d,76272.462695625, -1.5475941253458463, 0.035586758832081435, 2.749684739690481, 0.031262997537851334, -0.07253178209066391, -0.15072225034236908, -0.9990977644920349, -0.03557924926280975, -0.023185428231954575, 0.20707517862319946, 0.08767279982566833, -0.04720354080200195, -0.6878510463594705, 0.12356465489598606, -0.15143753680536126,-0.6990416815344963,-0.7917022705078125,0.0468292236328125,-0.0684967041015625
20220111-1129,2022-01-11 11:29:32Z,u01, 135,40,movements,el-ex, rt, d,76272.48763662501, -1.5515247157453205, 0.04155073948284982, 2.7468777397681055, -0.22850137948989868, -0.22100067138671875, -0.30990904569625854, -0.9989513158798218, -0.0415387861430645, -0.01925378479063511, 0.10460329055786133, -0.09272328019142151, 0.08067023754119873, -0.6894268695910386, 0.12273426140422011, -0.1542126857230709,-0.6970260457095345,-0.87408447265625,-0.12744140625,0.059326171875
20220111-1129,2022-01-11 11:29:32Z,u01, 136,40,movements,el-ex, rt, d,76272.512577625, -1.5567653195720759, 0.04920857525817642, 2.744416830202977, 0.1700097918510437, -0.20693333446979523, -0.2894969582557678, -0.9986911416053772, -0.04918871819972992, -0.01401356142014265, 0.07266581058502197, 0.04081165790557861, -0.010034441947937012, -0.6915768224229711, 0.12130423634116566, -0.15736853399192802,-0.6944363545031162,-0.921478271484375,-0.005584716796875,-0.0328216552734375
20220111-1129,2022-01-11 11:29:32Z,u01, 137,40,movements,el-ex, rt, d,76272.537518625, -1.5642133224095884, 0.05679942877829561, 2.747950442041109, -0.061304088681936264, -0.4169309735298157, -0.32583361864089966, -0.9983656406402588, -0.05676889419555664, -0.006572340615093708, 0.19155728816986084, -0.006631374359130859, -0.05476808547973633, -0.6948292184080422, 0.11800926669927586, -0.1583014958988494,-0.6915394062450044,-0.8145751953125,-0.0551605224609375,-0.07440185546875
20220111-1129,2022-01-11 11:29:32Z,u01, 138,40,movements,el-ex, rt, d,76272.562459625, -1.5764523439931206, 0.06564753956233224, 2.7386086347837733, -0.49754297733306885, -0.5113569498062134, -0.38881564140319824, -0.9978300929069519, -0.06560039520263672, 0.005643804557621479, 0.08146345615386963, -0.12363908439874649, 0.14734065532684326, -0.6990146395220443, 0.11916558204026956, -0.16383797383421436,-0.6858099643904172,-0.9325103759765625,-0.195526123046875,0.15496826171875
20220111-1129,2022-01-11 11:29:32Z,u01, 139,40,movements,el-ex, rt, d,76272.58740062501, -1.586557371425932, 0.07509244053188403, 2.733977245540945, 0.2680928707122803, -0.31368547677993774, -0.37865811586380005, -0.9970580339431763, -0.0750218853354454, 0.015715977177023888, 0.021075427532196045, 0.1501256823539734, -0.1137843132019043, -0.7027451869480523, 0.1183519790039313, -0.16808346519155704,-0.6810946723386843,-1.000274658203125,0.0469818115234375,-0.0644683837890625
20220111-1129,2022-01-11 11:29:32Z,u01, 140,40,movements,el-ex, rt, d,76272.612341625, -1.5959300719944154, 0.08585157991011538, 2.7430653028144403, 0.17432105541229248, -0.4453509449958801, -0.5069661736488342, -0.9960023760795593, -0.0857461541891098, 0.025038542225956917, 0.17152416706085205, 0.0950540229678154, -0.1740407943725586, -0.707054380114665, 0.11222020748132105, -0.168187618010628,-0.6776383240529,-0.8167877197265625,-0.0009613037109375,-0.1443023681640625
20220111-1129,2022-01-11 11:29:32Z,u01, 141,40,movements,el-ex, rt, d,76272.637282625, -1.609938201165798, 0.10023068836286408, 2.7392166886251332, -0.3753097951412201, -0.6239457130432129, -0.6177432537078857, -0.9942188858985901, -0.10006295144557953, 0.038935475051403046, 0.09613245725631714, -0.06067313253879547, 0.08218860626220703, -0.712322316965792, 0.10983922237904198, -0.17371752458263118,-0.6710844548657011,-0.867584228515625,-0.15185546875,0.093719482421875
20220111-1129,2022-01-11 11:29:32Z,u01, 142,40,movements,el-ex, rt, d,76272.66222362501, -1.6226899471578682, 0.11575624684885773, 2.733586434726934, 0.02308269590139389, -0.4330367147922516, -0.5843977928161621, -0.9919705390930176, -0.11549790948629379, 0.051523201167583466, 0.03879976272583008, 0.085865318775177, 0.041249990463256836, -0.7170551003379505, 0.10767350228687989, -0.18033582547150454,-0.664618205181274,-0.9467315673828125,-0.0178375244140625,0.08062744140625
20220111-1129,2022-01-11 11:29:32Z,u01, 143,40,movements,el-ex, rt, d,76272.68716462501, -1.6339659960678203, 0.13035726782464246, 2.7399180995560495, 0.21233680844306946, -0.4566338360309601, -0.6481905579566956, -0.98953777551651, -0.1299883872270584, 0.062592051923275, 0.30071038007736206, 0.1814105361700058, -0.1768500804901123, -0.721805475293801, 0.10145384130154111, -0.1827782712767106,-0.6597696288649195,-0.721099853515625,0.0554351806640625,-0.102996826171875
20220111-1129,2022-01-11 11:29:32Z,u01, 144,40,movements,el-ex, rt, d,76272.712105625, -1.6490932613415636, 0.1461922580580984, 2.7398141471694197, -0.38892418146133423, -0.7262289524078369, -0.677949070930481, -0.9863017201423645, -0.14567206799983978, 0.07738259434700012, 0.3726087212562561, 0.07955577969551086, -0.13455750048160553, -0.7274461555315759, 0.0975366051974112, -0.1876483937347492,-0.6527607345260624,-0.6207427978515625,-0.073394775390625,-0.0490570068359375
20220111-1129,2022-01-11 11:29:32Z,u01, 145,40,movements,el-ex, rt, d,76272.737047625, -1.667099454976486, 0.16626035882959805, 2.722343379642475, -0.8836568593978882, -0.8471053838729858, -0.7520689368247986, -0.9816408157348633, -0.16549544036388397, 0.09482841938734055, 0.04301172494888306, -0.09898512065410614, 0.10078906267881393, -0.7332311637741603, 0.09892557005306918, -0.19953427106697022,-0.6424731756355893,-0.8946685791015625,-0.240936279296875,0.1875762939453125
20220111-1129,2022-01-11 11:29:32Z,u01, 146,40,movements,el-ex, rt, d,76272.761988625, -1.6825258576355875, 0.18784950550291202, 2.7064489627392567, -0.4244418442249298, -0.7274346351623535, -0.83470219373703, -0.9762824773788452, -0.18674667179584503, 0.10953576117753983, 0.01944965124130249, 0.017038464546203613, -0.035118818283081055, -0.738195425589218, 0.0991735509522772, -0.2115091218522346,-0.6328474983421621,-0.943328857421875,-0.1625823974609375,0.0642547607421875
20220111-1129,2022-01-11 11:29:32Z,u01, 147,40,movements,el-ex, rt, d,76272.786929625, -1.70311832162508, 0.21048139615685146, 2.7059610675493917, -0.02201184257864952, -0.9042444825172424, -0.8994671106338501, -0.96938157081604, -0.20893070101737976, 0.1290244162082672, 0.18474411964416504, 0.04158759117126465, -0.07806026935577393, -0.745424060852176, 0.09410195195257737, -0.21873987918224277,-0.6226079246617209,-0.7822113037109375,-0.1421661376953125,0.0227508544921875
20220111-1129,2022-01-11 11:29:33Z,u01, 148,40,movements,el-ex, rt, d,76272.81187062501, -1.7262391604556806, 0.23090575334700036, 2.7044068893772146, -0.29794421792030334, -0.9239036440849304, -0.718233585357666, -0.9617224931716919, -0.2288593351840973, 0.1507086604833603, 0.06800001859664917, -0.09668688476085663, 0.06878887116909027, -0.7530930384796355, 0.09058258227855764, -0.2254851153734513,-0.6113935320414149,-0.905731201171875,-0.33447265625,0.2264862060546875
20220111-1129,2022-01-11 11:29:33Z,u01, 149,40,movements,el-ex, rt, d,76272.836811625, -1.7451340560970894, 0.2479997549762497, 2.6977505840915113, -0.2795075476169586, -0.670320451259613, -0.5502172708511353, -0.9547107815742493, -0.24546539783477783, 0.16814912855625153, -0.155869722366333, -0.05687224864959717, 0.06007649004459381, -0.7589606371075243, 0.0897402632547204, -0.2328252187743251,-0.6014298680906723,-1.100830078125,-0.3197784423828125,0.2567291259765625
20220111-1129,2022-01-11 11:29:33Z,u01, 150,40,movements,el-ex, rt, d,76272.861752625, -1.7598480364330726, 0.2620501191636455, 2.701855786512998, 0.31337493658065796, -0.52081298828125, -0.6328628659248352, -0.9486520290374756, -0.25906121730804443, 0.18151190876960754, -0.06314301490783691, 0.08894100785255432, -0.13944363594055176, -0.7638473401686193, 0.08540019441600971, -0.2360520405084074,-0.5945783987786958,-1.0004425048828125,-0.1638336181640625,0.039886474609375
20220111-1129,2022-01-11 11:29:33Z,u01, 151,40,movements,el-ex, rt, d,76272.886693625, -1.7775840050242602, 0.2762724832069005, 2.712815483707508, 0.17317122220993042, -0.6366998553276062, -0.6049332022666931, -0.941582202911377, -0.2727713882923126, 0.19753120839595795, -0.01726478338241577, -0.0504554808139801, 0.009728774428367615, -0.7697791095652584, 0.07877642633768078, -0.23727832152474534,-0.5873102382620214,-0.9354705810546875,-0.29095458984375,0.170135498046875
20220111-1129,2022-01-11 11:29:33Z,u01, 152,40,movements,el-ex, rt, d,76272.91163462501, -1.792754076407453, 0.2880473904908585, 2.7161108148697295, -0.08870205283164978, -0.49309346079826355, -0.3557630777359009, -0.9352794289588928, -0.2840805947780609, 0.21107009053230286, -0.14324229955673218, -0.1335829198360443, 0.17487025260925293, -0.7744798918278106, 0.07560384557177235, -0.2400566560550706,-0.5803772301303745,-1.08197021484375,-0.42022705078125,0.3929595947265625
20220111-1129,2022-01-11 11:29:33Z,u01, 153,40,movements,el-ex, rt, d,76272.936575625, -1.8021669966603509, 0.2966512386176998, 2.7155295820188967, -0.01334961038082838, -0.26416805386543274, -0.33159589767456055, -0.9308374524116516, -0.2923193573951721, 0.2192956656217575, -0.16211891174316406, 0.05254286527633667, 0.02960546314716339, -0.7772589153603828, 0.0742725355081329, -0.2430448143334381,-0.5755703321017558,-1.109466552734375,-0.2652740478515625,0.28070068359375
20220111-1129,2022-01-11 11:29:33Z,u01, 154,40,movements,el-ex, rt, d,76272.961516625, -1.810348432691903, 0.305615819226216, 2.720591805586949, 0.1643747240304947, -0.34064632654190063, -0.46971753239631653, -0.926429271697998, -0.3008805215358734, 0.22627297043800354, -0.026405751705169678, 0.13225573301315308, -0.11166442930698395, -0.7798496082509019, 0.07050583982582054, -0.24461129975519316,-0.5718642402605949,-0.9455413818359375,-0.169281005859375,0.11529541015625
20220111-1129,2022-01-11 11:29:33Z,u01, 155,40,movements,el-ex, rt, d,76272.98645762501, -1.821933259579836, 0.3153347272984538, 2.727792003803336, 0.09626656770706177, -0.37081634998321533, -0.3831867575645447, -0.9208698868751526, -0.3101347088813782, 0.23625224828720093, -0.03297221660614014, -0.027054011821746826, 0.0673365592956543, -0.7834264281609553, 0.06609956911647269, -0.24577252301998642,-0.5669830328134483,-0.9417724609375,-0.3150482177734375,0.2693634033203125
20220111-1129,2022-01-11 11:29:33Z,u01, 156,40,movements,el-ex, rt, d,76273.011398625, -1.8304617539108963, 0.32262969291740257, 2.7304949732577835, -0.026877736672759056, -0.24974557757377625, -0.2586650848388672, -0.9166106581687927, -0.3170616626739502, 0.24350984394550323, -0.06492632627487183, -0.11612007021903992, 0.12321975827217102, -0.7859256367421245, 0.06384208576889344, -0.24744897136904992,-0.5630401338397579,-0.9800567626953125,-0.433837890625,0.3630523681640625
20220111-1129,2022-01-11 11:29:33Z,u01, 157,40,movements,el-ex, rt, d,76273.036339625, -1.8372069996317952, 0.32904473346343227, 2.7322571497209442, 0.12558786571025848, -0.2431214302778244, -0.29037076234817505, -0.9129661917686462, -0.32313916087150574, 0.24914637207984924, 0.0018943548202514648, 0.05455401539802551, -0.022507786750793457, -0.7878623308619124, 0.062017188760623176, -0.2491371492495487,-0.5597834529622916,-0.9160003662109375,-0.2897491455078125,0.2457427978515625
20220111-1129,2022-01-11 11:29:33Z,u01, 158,40,movements,el-ex, rt, d,76273.061280625, -1.8451720741707964, 0.3356215980336393, 2.739717430526272, 0.20710477232933044, -0.23488013446331024, -0.338418573141098, -0.9088873267173767, -0.3293561637401581, 0.255828857421875, 0.025555968284606934, 0.1294965147972107, -0.028473109006881714, -0.7902809135753257, 0.058056112471168986, -0.24927786921894882,-0.5567280668430903,-0.88153076171875,-0.200408935546875,0.2274017333984375
20220111-1129,2022-01-11 11:29:33Z,u01, 159,40,movements,el-ex, rt, d,76273.08622162501, -1.8539080593056483, 0.34107810951968953, 2.7473355680067884, 0.1462218314409256, -0.23703810572624207, -0.26346123218536377, -0.9048784971237183, -0.33450329303741455, 0.26325303316116333, 0.0015888214111328125, -0.034835636615753174, 0.025259941816329956, -0.7928805685683329, 0.054469479267254706, -0.2489678721837169,-0.5535236062611251,-0.8939971923828125,-0.3651885986328125,0.2795867919921875
20220111-1129,2022-01-11 11:29:33Z,u01, 160,40,movements,el-ex, rt, d,76273.111162625, -1.859780641691929, 0.34623646289855003, 2.7502227787512505, 0.007108292542397976, -0.16330289840698242, -0.2018924206495285, -0.9016509056091309, -0.3393600285053253, 0.2680671215057373, -0.013311684131622314, 0.00011143088340759277, 0.043013542890548706, -0.794530006449978, 0.05249410293779749, -0.24995764999443584,-0.5508969577431371,-0.91387939453125,-0.3353424072265625,0.30841064453125
20220111-1129,2022-01-11 11:29:33Z,u01, 161,40,movements,el-ex, rt, d,76273.136103625, -1.86451269211764, 0.3509008312920373, 2.753772349064263, 0.15906992554664612, -0.11783035844564438, -0.2333785891532898, -0.8988475799560547, -0.3437438905239105, 0.27186957001686096, 0.008207380771636963, 0.0668884813785553, -0.017002135515213013, -0.795869350406142, 0.05026697393180951, -0.25062127021135594,-0.5488662453766122,-0.8955078125,-0.2752227783203125,0.266021728515625
20220111-1129,2022-01-11 11:29:33Z,u01, 162,40,movements,el-ex, rt, d,76273.161044625, -1.8692437968142854, 0.35559765486484596, 2.7595218605771072, 0.12970702350139618, -0.12764111161231995, -0.24869754910469055, -0.8959982991218567, -0.34815070033073425, 0.2756413221359253, 0.03717261552810669, 0.03960272669792175, -0.037695884704589844, -0.79724333868603, 0.04715625850471733, -0.25070742476143826,-0.5471061342299844,-0.85601806640625,-0.312103271484375,0.236968994140625
20220111-1129,2022-01-11 11:29:33Z,u01, 163,40,movements,el-ex, rt, d,76273.18598562501, -1.8744312023308978, 0.3607454166764214, 2.7635708413213305, 0.09249889105558395, -0.13854628801345825, -0.21808430552482605, -0.8928343057632446, -0.35297176241874695, 0.2797459065914154, 0.01783430576324463, -0.046488046646118164, 0.045937538146972656, -0.7986736394600114, 0.044647204408622965, -0.2514341314541487,-0.5448925404176819,-0.864959716796875,-0.3903656005859375,0.3257598876953125
20220111-1129,2022-01-11 11:29:33Z,u01, 164,40,movements,el-ex, rt, d,76273.210926625, -1.8788196051339632, 0.3646837492507036, 2.7676557620103552, 0.13962022960186005, -0.09909442067146301, -0.16218023002147675, -0.8902665376663208, -0.3566538691520691, 0.2832376956939697, -0.02246856689453125, -0.010899841785430908, 0.03351929783821106, -0.7998887896468772, 0.04238838197836753, -0.2517229516507259,-0.5431544305654746,-0.915191650390625,-0.3651123046875,0.3149566650390625
20220111-1129,2022-01-11 11:29:33Z,u01, 165,40,movements,el-ex, rt, d,76273.235867625, -1.8825837466576942, 0.3661581737308393, 2.7747440068745926, 0.2776305377483368, -0.023618899285793304, -0.11677820235490799, -0.8886924386024475, -0.35803094506263733, 0.28642508387565613, -0.01728278398513794, 0.023695647716522217, -0.022158294916152954, -0.8010278798919417, 0.039583865759126646, -0.25028324020296744,-0.542351956843991,-0.91644287109375,-0.336639404296875,0.2719879150390625
20220111-1129,2022-01-11 11:29:33Z,u01, 166,40,movements,el-ex, rt, d,76273.26080829167, -1.885298562307899, 0.3676922493154409, 2.779645808797792, 0.022248530760407448, -0.04760552570223808, -0.09513582289218903, -0.8873883485794067, -0.3594628870487213, 0.2886664569377899, 0.013074994087219238, 0.0159417986869812, -0.019410133361816406, -0.8018271798832708, 0.03750209705197177, -0.24948739555179258,-0.541685144327467,-0.8739166259765625,-0.3459625244140625,0.2731475830078125
20220111-1129,2022-01-11 11:29:33Z,u01, 167,40,movements,el-ex, rt, d,76273.28574929167, -1.8874493085185793, 0.3699289925512935, 2.7798667671695436, -0.021482937037944794, -0.051963191479444504, -0.056322310119867325, -0.8859991431236267, -0.3615492284297943, 0.29032325744628906, -0.005297183990478516, -0.0186234712600708, 0.028966784477233887, -0.8023660933231547, 0.03701726172205916, -0.25024125154160254,-0.540571615058333,-0.886932373046875,-0.3754425048828125,0.3067169189453125
20220111-1129,2022-01-11 11:29:33Z,u01, 168,40,movements,el-ex, rt, d,76273.31069029168, -1.8879310109340806, 0.367539145789983, 2.7819536916411094, 0.20628677308559418, 0.010344792157411575, 0.07248746603727341, -0.8866776823997498, -0.3593200147151947, 0.29101863503456116, -0.04973900318145752, -0.0664764940738678, 0.04601731896400452, -0.8025858424557167, 0.03694980606378351, -0.24875529837222668,-0.5409357721411503,-0.93804931640625,-0.4276123046875,0.3334808349609375
20220111-1129,2022-01-11 11:29:33Z,u01, 169,40,movements,el-ex, rt, d,76273.33563229167, -1.8860823677932022, 0.3612591532630324, 2.7846650014016183, 0.15211522579193115, -0.006300364620983601, 0.1912592500448227, -0.8893418312072754, -0.3534523844718933, 0.2900729775428772, -0.003358304500579834, -0.022188425064086914, -0.01669672131538391, -0.8022657314928163, 0.03749908311144201, -0.2456545112179978,-0.5427866183968343,-0.902099609375,-0.3870086669921875,0.28021240234375
20220111-1129,2022-01-11 11:29:33Z,u01, 170,40,movements,el-ex, rt, d,76273.36057329168, -1.8872200151119993, 0.3568783846942115, 2.784771633370205, -0.04825076833367348, -0.07373586297035217, 0.234495148062706, -0.8904744386672974, -0.34935101866722107, 0.29156363010406494, 0.03248792886734009, 0.01733499765396118, -0.037413328886032104, -0.8026635892166034, 0.03889697892209848, -0.24392766815847633,-0.5428789668265441,-0.8576812744140625,-0.3297119140625,0.2584686279296875
20220111-1129,2022-01-11 11:29:33Z,u01, 171,40,movements,el-ex, rt, d,76273.38551429167, -1.8905457845450582, 0.35472900207198094, 2.7809008604627237, -0.10606066882610321, -0.09229116886854172, 0.2570531666278839, -0.8902104496955872, -0.3473362624645233, 0.29475879669189453, -0.004870116710662842, -0.019057750701904297, 0.002741575241088867, -0.8035282213541632, 0.0414945957064034, -0.24408669963759858,-0.541333759824642,-0.8872528076171875,-0.3671722412109375,0.2984619140625
20220111-1129,2022-01-11 11:29:33Z,u01, 172,40,movements,el-ex, rt, d,76273.41045529167, -1.8902486202281827, 0.3512890086861684, 2.7765171746518944, -0.024853767827153206, -0.054099977016448975, 0.31557974219322205, -0.8914273381233215, -0.34410837292671204, 0.2948678135871887, -0.006964504718780518, -0.042274653911590576, 0.01473286747932434, -0.8034157254822176, 0.04423889964249589, -0.2439614653921468,-0.5413400193691995,-0.89678955078125,-0.389739990234375,0.3077392578125
20220111-1129,2022-01-11 11:29:33Z,u01, 173,40,movements,el-ex, rt, d,76273.43539629166, -1.888597718428466, 0.3463328488252115, 2.7726035066399968, -0.03818049281835556, -0.07718665897846222, 0.26783648133277893, -0.8935217261314392, -0.3394506871700287, 0.2939249575138092, -0.05032581090927124, 0.007968813180923462, 0.029042303562164307, -0.802960793876214, 0.0470791628810433, -0.2431608135432798,-0.5421348729851767,-0.927154541015625,-0.3398895263671875,0.3115081787109375
20220111-1129,2022-01-11 11:29:33Z,u01, 174,40,movements,el-ex, rt, d,76273.46033729168, -1.8882775711649638, 0.340756931708718, 2.769490328345817, -0.056299839168787, 0.060644976794719696, 0.22273768484592438, -0.8953999280929565, -0.33420059084892273, 0.29422515630722046, -0.13615500926971436, -0.018613040447235107, 0.06501227617263794, -0.8028811480623083, 0.0499444267212239, -0.24187722802908732,-0.5425704045536673,-1.0348358154296875,-0.3533782958984375,0.3581695556640625
20220111-1129,2022-01-11 11:29:33Z,u01, 175,40,movements,el-ex, rt, d,76273.48527829167, -1.8845649506625173, 0.33624643387931147, 2.7666269945477637, -0.005597082432359457, 0.1438073068857193, 0.17884939908981323, -0.8979108333587646, -0.3299460709095001, 0.2913611829280853, -0.13526159524917603, -0.047663092613220215, 0.03477996587753296, -0.8018592014283881, 0.051984692325383886, -0.24102312230730324,-0.5442675049076424,-1.0349884033203125,-0.3675994873046875,0.334930419921875
20220111-1129,2022-01-11 11:29:33Z,u01, 176,40,movements,el-ex, rt, d,76273.51021929167, -1.879825330792825, 0.33274063343331123, 2.7651860677789113, -0.06380203366279602, 0.19575341045856476, 0.12550021708011627, -0.9003782272338867, -0.32663455605506897, 0.28745225071907043, -0.1470765471458435, -0.08098870515823364, 0.06555959582328796, -0.8005706257307609, 0.05303576928922926, -0.24020020270538944,-0.5464226357708438,-1.0497589111328125,-0.408355712890625,0.3551177978515625
20220111-1129,2022-01-11 11:29:33Z,u01, 177,40,movements,el-ex, rt, d,76273.53516029168, -1.873216130577516, 0.3315192045593379, 2.7612832732602968, -0.15957213938236237, 0.2353082001209259, 0.05031165853142738, -0.9026384949684143, -0.3254798948764801, 0.281613826751709, -0.22053039073944092, -0.019673854112625122, 0.07971403002738953, -0.7986694795347484, 0.05416612715493446, -0.2409799883580632,-0.5487455088816191,-1.113433837890625,-0.3545074462890625,0.3622283935546875
20220111-1129,2022-01-11 11:29:33Z,u01, 178,40,movements,el-ex, rt, d,76273.56010129167, -1.865839853693358, 0.33134287404985124, 2.7589315692885727, -0.002871569711714983, 0.297222763299942, -0.0027618813328444958, -0.9047463536262512, -0.32531315088272095, 0.2749648690223694, -0.2593315839767456, -0.03625917434692383, 0.052931129932403564, -0.7965786535156725, 0.05426678168010762, -0.2417597472704789,-0.5514253333804585,-1.16497802734375,-0.3638458251953125,0.3277740478515625
20220111-1129,2022-01-11 11:29:33Z,u01, 179,40,movements,el-ex, rt, d,76273.58504229167, -1.8589772696716704, 0.331667217878465, 2.759521253374504, -0.023020479828119278, 0.26045602560043335, -0.05313577130436897, -0.9065106511116028, -0.3256198465824127, 0.26871949434280396, -0.23278683423995972, -0.11300930380821228, 0.05452251434326172, -0.794694693983501, 0.05310457148432912, -0.24190391544631637,-0.5541865648960508,-1.14520263671875,-0.4340362548828125,0.3227691650390625
20220111-1129,2022-01-11 11:29:33Z,u01, 180,40,movements,el-ex, rt, d,76273.60998329167, -1.853455471016424, 0.33339508669711776, 2.758624905901837, -0.05595666170120239, 0.1925594061613083, -0.09853720664978027, -0.9074388742446899, -0.3272530436515808, 0.2635525166988373, -0.23269778490066528, -0.09410309791564941, 0.0780152976512909, -0.793123142994793, 0.05226794406537061, -0.2429514629801591,-0.5560559768049006,-1.1417694091796875,-0.4188690185546875,0.3434906005859375
20220111-1129,2022-01-11 11:29:33Z,u01, 181,40,movements,el-ex, rt, d,76273.63492429168, -1.8507041325804086, 0.3362189280581222, 2.760355302100802, 0.08145858347415924, 0.11373730003833771, -0.17310278117656708, -0.9072688817977905, -0.32992008328437805, 0.26079854369163513, -0.294528603553772, -0.03149956464767456, 0.05559229850769043, -0.7923762331463189, 0.05039021073464617, -0.24360617729518097,-0.5570069650517913,-1.19354248046875,-0.3701171875,0.3159942626953125
20220111-1129,2022-01-11 11:29:33Z,u01, 182,40,movements,el-ex, rt, d,76273.65986529167, -1.8497339750236423, 0.33957887092764094, 2.764064295643734, 0.07178602367639542, 0.049858514219522476, -0.17512646317481995, -0.906450629234314, -0.33309003710746765, 0.2596115171909332, -0.28652727603912354, -0.04905107617378235, 0.03173959255218506, -0.792163298307202, 0.047781522231333584, -0.24386351701842257,-0.557426932899252,-1.18994140625,-0.384246826171875,0.290496826171875
20220111-1129,2022-01-11 11:29:33Z,u01, 183,40,movements,el-ex, rt, d,76273.68480629167, -1.8507042377591159, 0.34377550861959866, 2.7653645775753892, -0.05553361773490906, -0.07295136153697968, -0.19529172778129578, -0.9048470258712769, -0.3370440900325775, 0.2601024806499481, -0.2223198413848877, -0.08173337578773499, 0.0004107058048248291, -0.7924172864664952, 0.04610941324974738, -0.2450606467728423,-0.5566813437813424,-1.130462646484375,-0.4170379638671875,0.25848388671875
20220111-1129,2022-01-11 11:29:33Z,u01, 184,40,movements,el-ex, rt, d,76273.70974729166, -1.8529202195776602, 0.34905404351997876, 2.7659807994531933, 0.005439423024654388, -0.09640748798847198, -0.22690562903881073, -0.9025468826293945, -0.342009037733078, 0.26160794496536255, -0.2055158019065857, -0.07667684555053711, 0.04689404368400574, -0.7929821263252412, 0.044534500264534815, -0.24682908592153072,-0.5552218844640234,-1.104736328125,-0.416656494140625,0.30963134765625
20220111-1129,2022-01-11 11:29:33Z,u01, 185,40,movements,el-ex, rt, d,76273.73468829168, -1.8568463714176857, 0.35432734587967607, 2.7698923359264827, 0.16120025515556335, -0.09728206694126129, -0.24774913489818573, -0.8997700810432434, -0.34695956110954285, 0.26463690400123596, -0.19390356540679932, -0.024256199598312378, 0.03451153635978699, -0.7940814959395968, 0.041869147597998646, -0.24764957119709474,-0.5534900005815119,-1.092041015625,-0.3735809326171875,0.3079681396484375
20220111-1129,2022-01-11 11:29:33Z,u01, 186,40,movements,el-ex, rt, d,76273.75962929167, -1.8605339006427284, 0.35851691018513476, 2.776435265932269, 0.18664269149303436, -0.032952215522527695, -0.21261204779148102, -0.8973873257637024, -0.3508858382701874, 0.26753541827201843, -0.1695224642753601, -0.039769649505615234, 0.013546586036682129, -0.7951657883232245, 0.03845869581871608, -0.24734989705246485,-0.5523136386286132,-1.0624237060546875,-0.394134521484375,0.2795867919921875
20220111-1129,2022-01-11 11:29:33Z,u01, 187,40,movements,el-ex, rt, d,76273.78457129168, -1.863500688316953, 0.362610160376313, 2.7811460874681444, 0.09224126487970352, -0.07588203251361847, -0.20950007438659668, -0.8952068090438843, -0.35471588373184204, 0.26977986097335815, -0.08707767724990845, -0.03278103470802307, -0.030476480722427368, -0.7959989123781943, 0.0357163430525545, -0.2475444556332333,-0.5512093377582605,-0.985687255859375,-0.3899383544921875,0.2492523193359375
20220111-1129,2022-01-11 11:29:34Z,u01, 188,40,movements,el-ex, rt, d,76273.80951229167, -1.8668398803715363, 0.3671878620044945, 2.7852315843568243, 0.13541753590106964, -0.06251503527164459, -0.22851897776126862, -0.8927385210990906, -0.35899215936660767, 0.27229103446006775, -0.09473395347595215, -0.012330412864685059, -0.039670974016189575, -0.7968991829045413, 0.03312420923894682, -0.2480971851482884,-0.5498201567447245,-0.9884185791015625,-0.374542236328125,0.232696533203125
20220111-1129,2022-01-11 11:29:34Z,u01, 189,40,movements,el-ex, rt, d,76273.83445329167, -1.8696375162244157, 0.3717345216943581, 2.7902928322018847, 0.08723915368318558, -0.0276234969496727, -0.2112293392419815, -0.8904042840003967, -0.3632320165634155, 0.27430418133735657, -0.08428150415420532, -0.06738626956939697, 0.012774497270584106, -0.797650841013261, 0.030086947017800014, -0.2483880105848984,-0.5487725602769818,-0.9823760986328125,-0.4252471923828125,0.280853271484375
20220111-1129,2022-01-11 11:29:34Z,u01, 190,40,movements,el-ex, rt, d,76273.85939429168, -1.8712134953725794, 0.37598627459625505, 2.792822693092607, 0.015145213343203068, -0.011554049327969551, -0.16463607549667358, -0.8884875178337097, -0.36719009280204773, 0.27524757385253906, -0.05645871162414551, 0.0004756748676300049, -0.011301189661026001, -0.7980225114828461, 0.027997355190424122, -0.2492859152796627,-0.5479349271745432,-0.943145751953125,-0.3621063232421875,0.2633819580078125
20220111-1129,2022-01-11 11:29:34Z,u01, 191,40,movements,el-ex, rt, d,76273.88433529167, -1.8712637337447722, 0.378055967975028, 2.7944973333426275, 0.016170131042599678, 0.03329464793205261, -0.04863329976797104, -0.8877459764480591, -0.3691144287586212, 0.2750667333602905, -0.030955195426940918, -0.014155805110931396, 0.027453899383544922, -0.7980098379117112, 0.02671440637605005, -0.24961246075697505,-0.5478688620475028,-0.9188690185546875,-0.3732757568359375,0.292327880859375
20220111-1129,2022-01-11 11:29:34Z,u01, 192,40,movements,el-ex, rt, d,76273.90927629167, -1.8693838811374794, 0.3788481729119932, 2.7929000192256095, -0.11855975538492203, 0.06433984637260437, 0.010507717728614807, -0.8879814743995667, -0.3698505759239197, 0.27331122756004333, -0.04408621788024902, -0.0016397833824157715, 0.013981044292449951, -0.7974541647812144, 0.026878657809732365, -0.25037604143788883,-0.5483211197774822,-0.933258056640625,-0.3647003173828125,0.2878570556640625
20220111-1129,2022-01-11 11:29:34Z,u01, 193,40,movements,el-ex, rt, d,76273.93421729167, -1.8657368795689753, 0.37840454083341746, 2.791080752083115, 0.009525012224912643, 0.14668698608875275, 0.05465393885970116, -0.8891293406486511, -0.3694383502006531, 0.2701186537742615, -0.019149959087371826, 0.06565120816230774, -0.004203826189041138, -0.7964390207597611, 0.027280133596421674, -0.25075664316220114,-0.5496013995539359,-0.9131927490234375,-0.303985595703125,0.2660675048828125
20220111-1129,2022-01-11 11:29:34Z,u01, 194,40,movements,el-ex, rt, d,76273.95915829168, -1.8611529131802376, 0.3760719207074608, 2.790037923496079, -0.06642185151576996, 0.16478629410266876, 0.11555131524801254, -0.8911817073822021, -0.36726975440979004, 0.26628613471984863, 0.014274239540100098, 0.013448923826217651, 0.053629547357559204, -0.7952162368538025, 0.027824455683143234, -0.2502242628426876,-0.5515839164438796,-0.8759002685546875,-0.35760498046875,0.3211517333984375
20220111-1129,2022-01-11 11:29:34Z,u01, 195,40,movements,el-ex, rt, d,76273.98409929167, -1.8563017454789768, 0.3734283863012806, 2.7861591815057705, -0.11270762234926224, 0.17512330412864685, 0.1919245719909668, -0.8933911323547363, -0.36480969190597534, 0.2622321546077728, 0.008335769176483154, -0.008771151304244995, 0.08191436529159546, -0.793878086479099, 0.029557836911238755, -0.2503668717488272,-0.5533535386889482,-0.8818511962890625,-0.3696746826171875,0.3461151123046875
20220111-1129,2022-01-11 11:29:34Z,u01, 196,40,movements,el-ex, rt, d,76274.00904029167, -1.85079333504405, 0.36520677196897744, 2.7842031278236514, 0.06040477007627487, 0.2666231095790863, 0.22723543643951416, -0.8976744413375854, -0.35714244842529297, 0.25812727212905884, -0.025222837924957275, 0.033976584672927856, 0.017339438199996948, -0.7924837580357424, 0.03214226504193979, -0.24789453346380738,-0.5563133999873362,-0.923919677734375,-0.316925048828125,0.271514892578125
20220111-1129,2022-01-11 11:29:34Z,u01, 197,40,movements,el-ex, rt, d,76274.03398129166, -1.845482036955657, 0.35708076851556375, 2.784732109552594, -0.020541343837976456, 0.29310640692710876, 0.24850396811962128, -0.9017964601516724, -0.349540650844574, 0.2541346549987793, 0.05118000507354736, 0.06679528951644897, -0.0190732479095459, -0.7911561894377779, 0.03375227211050874, -0.24477348948076486,-0.559480642439001,-0.8597412109375,-0.2807769775390625,0.2234649658203125
20220111-1129,2022-01-11 11:29:34Z,u01, 198,40,movements,el-ex, rt, d,76274.05892229168, -1.8404278279072026, 0.3520137746289873, 2.780132140551131, -0.23821941018104553, 0.25508537888526917, 0.35209253430366516, -0.9047648906707764, -0.3447887897491455, 0.2500421404838562, 0.04485583305358887, -0.019102782011032104, 0.05800211429595947, -0.7897397375106191, 0.036499561691274274, -0.24424531396745938,-0.5615363930906971,-0.8637847900390625,-0.3719329833984375,0.3154296875
20220111-1129,2022-01-11 11:29:34Z,u01, 199,40,movements,el-ex, rt, d,76274.08386329167, -1.830448385050331, 0.3435069024575674, 2.7727663935887605, -0.13919459283351898, 0.3629862070083618, 0.42316481471061707, -0.9100170135498047, -0.33679118752479553, 0.24174511432647705, -0.017152786254882812, -0.014771252870559692, 0.0357663631439209, -0.7868978699289668, 0.04079581515380182, -0.24332300280750618,-0.5656158812764526,-0.9315185546875,-0.3861083984375,0.272674560546875
20220111-1129,2022-01-11 11:29:34Z,u01, 200,40,movements,el-ex, rt, d,76274.10880429167, -1.8204594884897207, 0.3331583276084292, 2.769335865437304, 0.04762649163603783, 0.3290070593357086, 0.4274512827396393, -0.915714681148529, -0.3270293176174164, 0.23349182307720184, 0.06364858150482178, 0.03389272093772888, 0.004911333322525024, -0.7840909813942447, 0.04412755195563006, -0.24064122920863631,-0.5703909916387807,-0.850616455078125,-0.2901763916015625,0.2352752685546875
20220111-1129,2022-01-11 11:29:34Z,u01, 201,40,movements,el-ex, rt, d,76274.13374529168, -1.8111874053810642, 0.3223920930765645, 2.767246696822844, -0.010596368461847305, 0.3669341504573822, 0.45441147685050964, -0.921206533908844, -0.31683632731437683, 0.2258165031671524, 0.02531731128692627, 0.002764672040939331, -0.0067005157470703125, -0.7814618179332492, 0.04717707056117687, -0.23743791223327748,-0.5750781736146777,-0.8865509033203125,-0.315887451171875,0.2245941162109375
20220111-1129,2022-01-11 11:29:34Z,u01, 202,40,movements,el-ex, rt, d,76274.15868629167, -1.7996600275922205, 0.3113248810528253, 2.7627229338159016, -0.1083192378282547, 0.413707971572876, 0.4996664822101593, -0.9271067976951599, -0.30632010102272034, 0.21596497297286987, 0.03358268737792969, 0.021255403757095337, 0.02861809730529785, -0.77806047897112, 0.05103307743201463, -0.23491521623214884,-0.5803725471624586,-0.891082763671875,-0.284759521484375,0.24188232421875
20220111-1129,2022-01-11 11:29:34Z,u01, 203,40,movements,el-ex, rt, d,76274.18362729167, -1.7874170855783118, 0.3001305073800645, 2.755511914565346, -0.17137806117534637, 0.4111793637275696, 0.5198922157287598, -0.9329717755317688, -0.2956448793411255, 0.20532269775867462, 0.035923004150390625, -0.05201125144958496, 0.06932005286216736, -0.7742963568196017, 0.05591514765895694, -0.23320228602861318,-0.5856237628198377,-0.889678955078125,-0.3363800048828125,0.2837982177734375
20220111-1129,2022-01-11 11:29:34Z,u01, 204,40,movements,el-ex, rt, d,76274.20856929167, -1.7741900446286745, 0.2886217339625462, 2.7493215563898654, -0.07101882994174957, 0.5080941915512085, 0.4796939194202423, -0.9388763308525085, -0.28463125228881836, 0.19363915920257568, 0.016818344593048096, 0.06102898716926575, 0.012964710593223572, -0.7701754394615872, 0.060410053083772786, -0.23116999492815823,-0.5913888689624135,-0.9202423095703125,-0.2159271240234375,0.2032623291015625
20220111-1129,2022-01-11 11:29:34Z,u01, 205,40,movements,el-ex, rt, d,76274.23351029167, -1.760916757271705, 0.2766754844339042, 2.7462877122110347, 0.06270214915275574, 0.4816294312477112, 0.4994134306907654, -0.9446353912353516, -0.27315908670425415, 0.18179009854793549, 0.08577936887741089, 0.06289303302764893, -0.01665976643562317, -0.7660400683139074, 0.06385657912372061, -0.2281047945067797,-0.5975558219004521,-0.8563232421875,-0.1881866455078125,0.1808929443359375
20220111-1129,2022-01-11 11:29:34Z,u01, 206,40,movements,el-ex, rt, d,76274.258452375, -1.7478469244949628, 0.2651255686992583, 2.7424452497336165, -0.1775830239057541, 0.45831263065338135, 0.4998946785926819, -0.9499731659889221, -0.2620304524898529, 0.16997309029102325, 0.0812903642654419, 0.01647081971168518, 0.04473316669464111, -0.7618556025380715, 0.06754689726390245, -0.22547280046210696,-0.6034694731507576,-0.8676605224609375,-0.254364013671875,0.2202911376953125
20220111-1129,2022-01-11 11:29:34Z,u01, 207,40,movements,el-ex, rt, d,76274.28339337501, -1.7345832615696681, 0.25319807417943246, 2.7344734206250108, -0.18759708106517792, 0.463811457157135, 0.5495516061782837, -0.9551599621772766, -0.2505013346672058, 0.1578568071126938, 0.05109184980392456, -0.01832801103591919, 0.04564954340457916, -0.7573696555087096, 0.07293566891047876, -0.22402368030177297,-0.6090033442580848,-0.9000396728515625,-0.280853271484375,0.2186126708984375
20220111-1129,2022-01-11 11:29:34Z,u01, 208,40,movements,el-ex, rt, d,76274.308334375, -1.7219226981315958, 0.23981317244731953, 2.731588054339812, 0.12884041666984558, 0.48911771178245544, 0.5310919880867004, -0.9603106379508972, -0.23752115666866302, 0.14624331891536713, 0.06497067213058472, 0.03985883295536041, 0.0006223767995834351, -0.7531252242747347, 0.07696788310666602, -0.220543265653639,-0.6150113489615113,-0.893524169921875,-0.1956787109375,0.14471435546875
20220111-1129,2022-01-11 11:29:34Z,u01, 209,40,movements,el-ex, rt, d,76274.333275375, -1.7103112694448261, 0.22712310215923467, 2.7324603921771873, 0.03794080764055252, 0.444252610206604, 0.4855746924877167, -0.9648512005805969, -0.22517544031143188, 0.13549138605594635, 0.09976953268051147, 0.03013761341571808, -0.010644212365150452, -0.7492810624659073, 0.0795209642039314, -0.21615804082388476,-0.6209105281168149,-0.86785888671875,-0.179931640625,0.1206207275390625
20220111-1129,2022-01-11 11:29:34Z,u01, 210,40,movements,el-ex, rt, d,76274.35821637501, -1.69879066874203, 0.2146704000613448, 2.7295081808223993, -0.0897357240319252, 0.44453373551368713, 0.5596922039985657, -0.9690541625022888, -0.21302540600299835, 0.12471524626016617, 0.07878023386001587, -0.07136784493923187, 0.03389965742826462, -0.7452439307778056, 0.08348118372858382, -0.21307942699650032,-0.6262901977233762,-0.8935089111328125,-0.2929840087890625,0.1621551513671875
20220111-1129,2022-01-11 11:29:34Z,u01, 211,40,movements,el-ex, rt, d,76274.383157375, -1.6852426560444225, 0.20075298841466374, 2.725327172235041, -0.04313843324780464, 0.5193091034889221, 0.5481507778167725, -0.9735062718391418, -0.19940724968910217, 0.11190321296453476, 0.07303935289382935, 0.03282704949378967, -0.07348179817199707, -0.7403863089486187, 0.08820271774467875, -0.21000415731538324,-0.6324133511283467,-0.919525146484375,-0.2004852294921875,0.06109619140625
20220111-1129,2022-01-11 11:29:34Z,u01, 212,40,movements,el-ex, rt, d,76274.408098375, -1.6736254506258441, 0.18871714520759283, 2.7224302768991215, -0.054589126259088516, 0.3619612157344818, 0.47339102625846863, -0.9770570397377014, -0.18759897351264954, 0.10082554072141647, 0.14360690116882324, 0.1438215672969818, -0.052241697907447815, -0.7361638420591666, 0.09206284889044786, -0.20716655423394909,-0.6377061070692425,-0.8339080810546875,-0.046661376953125,0.054046630859375
20220111-1129,2022-01-11 11:29:34Z,u01, 213,40,movements,el-ex, rt, d,76274.433039375, -1.6640669120761848, 0.17659724204848495, 2.720503291819613, -0.08046699315309525, 0.3557029366493225, 0.5407260060310364, -0.9801682233810425, -0.1756807565689087, 0.09168688952922821, 0.05794227123260498, -0.017983734607696533, 0.0029021501541137695, -0.7325699022289798, 0.09583727897746835, -0.20393676515372808,-0.6423132629828866,-0.9221038818359375,-0.1806640625,0.098724365234375
20220111-1129,2022-01-11 11:29:34Z,u01, 214,40,movements,el-ex, rt, d,76274.45798037501, -1.6553868370414084, 0.16229166256242764, 2.7147087575646753, -0.24508696794509888, 0.2634832262992859, 0.6287261247634888, -0.9833308458328247, -0.1615801751613617, 0.08337942510843277, 0.06466025114059448, -0.048014476895332336, 0.009683720767498016, -0.7289113507427258, 0.10187225444389353, -0.2011776751257739,-0.6464036967491269,-0.9207611083984375,-0.2086944580078125,0.092498779296875
20220111-1129,2022-01-11 11:29:34Z,u01, 215,40,movements,el-ex, rt, d,76274.482921375, -1.6473228945193523, 0.14780238865035836, 2.7054597204472595, -0.35353389382362366, 0.254411518573761, 0.5587266087532043, -0.9862021803855896, -0.14726483821868896, 0.07561834156513214, 0.06315237283706665, 0.07988207042217255, -0.02909446507692337, -0.7251640480395267, 0.10929900842426143, -0.19949649223005073,-0.6499168243809256,-0.928955078125,-0.083587646484375,0.053253173828125
20220111-1129,2022-01-11 11:29:34Z,u01, 216,40,movements,el-ex, rt, d,76274.507862375, -1.6401206182075456, 0.13681866162080364, 2.695338017391323, -0.2959679663181305, 0.23136799037456512, 0.4074345529079437, -0.9882754683494568, -0.13639220595359802, 0.06862145662307739, 0.05462062358856201, 0.12677918374538422, -0.011538498103618622, -0.7217116494709466, 0.11594405744458275, -0.199341408190306,-0.6526502293738154,-0.9373016357421875,-0.0137939453125,0.054931640625
20220111-1129,2022-01-11 11:29:34Z,u01, 217,40,movements,el-ex, rt, d,76274.532803375, -1.632354856951902, 0.12685896096576266, 2.6907325103006623, -0.05670860409736633, 0.3076513707637787, 0.4383925497531891, -0.9900853633880615, -0.12651897966861725, 0.06102530285716057, 0.05180704593658447, -0.06310199201107025, -0.00877939909696579, -0.7183770285982223, 0.1201960735043297, -0.19782063207807934,-0.6560140339961898,-0.9507293701171875,-0.1709747314453125,0.060791015625
20220111-1129,2022-01-11 11:29:34Z,u01, 218,40,movements,el-ex, rt, d,76274.557745375, -1.6251900649785131, 0.11615448992192728, 2.6861028385339476, -0.3287176787853241, 0.19581738114356995, 0.4380003809928894, -0.9917925596237183, -0.11589347571134567, 0.05400057137012482, 0.11667060852050781, -0.05540165305137634, -0.0003355741500854492, -0.7151442639510751, 0.12477567134627604, -0.1960455658319939,-0.6592160396518376,-0.8728485107421875,-0.169769287109375,0.058563232421875
20220111-1129,2022-01-11 11:29:34Z,u01, 219,40,movements,el-ex, rt, d,76274.58268637501, -1.619144969628353, 0.1053908068908595, 2.6741111629946017, -0.4268312156200409, 0.24101923406124115, 0.4539729654788971, -0.9932893514633179, -0.10519581288099289, 0.04806164652109146, -0.0010037422180175781, -0.05360238254070282, 0.09352444857358932, -0.711742379845056, 0.13211210327923384, -0.19664669801391838,-0.6612859759528259,-0.974822998046875,-0.1768035888671875,0.1527557373046875
20220111-1129,2022-01-11 11:29:34Z,u01, 220,40,movements,el-ex, rt, d,76274.60762737501, -1.610512270091033, 0.0947130877129031, 2.670430710854782, 0.20737971365451813, 0.3892132043838501, 0.41678938269615173, -0.9947330951690674, -0.0945715457201004, 0.03952754661440849, 0.024518251419067383, 0.13494634628295898, -0.0066907405853271484, -0.7079634364160272, 0.13620406129141643, -0.19474219881238256,-0.6650652142443804,-0.9620819091796875,0.0478057861328125,0.024627685546875
20220111-1129,2022-01-11 11:29:34Z,u01, 221,40,movements,el-ex, rt, d,76274.632568375, -1.6025433575087384, 0.08475748923164651, 2.67812132295086, 0.251196950674057, 0.2540425956249237, 0.3687320947647095, -0.9959082007408142, -0.08465604484081268, 0.031627755612134933, 0.20678460597991943, -0.01527375727891922, -0.09449410438537598, -0.7051848597217732, 0.1361182980337815, -0.189273205439257,-0.6695982656407552,-0.7949676513671875,-0.049652099609375,-0.074462890625
20220111-1129,2022-01-11 11:29:34Z,u01, 222,40,movements,el-ex, rt, d,76274.657509375, -1.5984242076271837, 0.0758795385713636, 2.674823569497068, -0.4489912986755371, 0.10609108954668045, 0.35686251521110535, -0.9967420697212219, -0.07580674439668655, 0.02754487842321396, 0.11531811952590942, -0.18893322348594666, 0.03196430206298828, -0.7029885587919632, 0.1399268584125859, -0.18759497528374192,-0.671591932203339,-0.8902435302734375,-0.26690673828125,0.0678863525390625
20220111-1129,2022-01-11 11:29:34Z,u01, 223,40,movements,el-ex, rt, d,76274.68245037501, -1.5936624579476046, 0.06671575964001958, 2.662740467200015, -0.2586514949798584, 0.23413394391536713, 0.4156306982040405, -0.9975143671035767, -0.06666627526283264, 0.02281327173113823, -0.01737809181213379, -0.07455381751060486, 0.08488309383392334, -0.6998865746989255, 0.14685168712701369, -0.18883750256631873,-0.6730034594678085,-1.0133056640625,-0.15087890625,0.131195068359375
20220111-1129,2022-01-11 11:29:34Z,u01, 224,40,movements,el-ex, rt, d,76274.707391375, -1.5870689597083962, 0.056848894074054364, 2.6624343336591574, 0.13895460963249207, 0.22654074430465698, 0.3633430004119873, -0.9982522130012512, -0.05681827664375305, 0.016245625913143158, 0.08035993576049805, 0.014078475534915924, -0.04773998260498047, -0.6969265426753937, 0.14972042905720434, -0.18603466407241315,-0.6762160428991624,-0.909332275390625,-0.0397491455078125,-0.0377960205078125
20220111-1129,2022-01-11 11:29:34Z,u01, 225,40,movements,el-ex, rt, d,76274.732332375, -1.5833317261898845, 0.049819734025124504, 2.663936432779279, -0.08109760284423828, 0.08782307058572769, 0.1688038855791092, -0.9986806511878967, -0.049799129366874695, 0.012519516982138157, 0.16140049695968628, 0.03798884525895119, -0.0470198392868042, -0.6952545120340107, 0.15126441065429197, -0.18339193331901638,-0.6783122664594251,-0.8336944580078125,-0.017333984375,-0.0486602783203125
20220111-1129,2022-01-11 11:29:34Z,u01, 226,40,movements,el-ex, rt, d,76274.757273375, -1.5818557194792333, 0.047380631455903655, 2.658284196325122, -0.31579700112342834, 0.004251612350344658, 0.04256325587630272, -0.9988166093826294, -0.047362904995679855, 0.011046755127608776, 0.13371968269348145, -0.030899401754140854, 0.0510869026184082, -0.6941391346840606, 0.15392933244324908, -0.1845845583565287,-0.6785315771875071,-0.8684234619140625,-0.0871124267578125,0.0722198486328125
20220111-1129,2022-01-11 11:29:34Z,u01, 227,40,movements,el-ex, rt, d,76274.78221437501, -1.5809561380607344, 0.046693315222740096, 2.6525798942488388, -0.10844539850950241, 0.04481182247400284, 0.012166735716164112, -0.9988583326339722, -0.04667634889483452, 0.01014856155961752, 0.092135488986969, -0.13316375017166138, 0.05886673927307129, -0.6933393191953082, 0.15606046646077582, -0.1863536268169623,-0.6783788634263279,-0.9137115478515625,-0.20770263671875,0.0906982421875
20220111-1129,2022-01-11 11:29:35Z,u01, 228,40,movements,el-ex, rt, d,76274.807155375, -1.580581871582485, 0.04783125960489197, 2.654924409980066, 0.26337769627571106, -0.028426971286535263, -0.1170027032494545, -0.9988083839416504, -0.04781302437186241, 0.009774195961654186, 0.19178640842437744, 0.051841385662555695, -0.05428421497344971, -0.6934819460280099, 0.15482211901123438, -0.18597731778084528,-0.6786200913926029,-0.8012542724609375,0.0140228271484375,-0.04876708984375
20220111-1129,2022-01-11 11:29:35Z,u01, 229,40,movements,el-ex, rt, d,76274.832096375, -1.5835150774640523, 0.05353015759425187, 2.661829296022267, 0.20683202147483826, -0.18253737688064575, -0.3638174533843994, -0.9984868764877319, -0.05350459739565849, 0.012700190767645836, 0.22965753078460693, 0.12601441144943237, -0.013386962935328484, -0.6954333728642279, 0.15073990564436668, -0.18536650988603912,-0.6777087897025389,-0.760955810546875,0.0807342529296875,-0.0146636962890625
20220111-1129,2022-01-11 11:29:35Z,u01, 230,40,movements,el-ex, rt, d,76274.85703737501, -1.5900548987074896, 0.06427433951480185, 2.6648334817344335, 0.083669014275074, -0.3060376048088074, -0.4859080910682678, -0.9977499842643738, -0.06423009186983109, 0.019217615947127342, 0.16521525382995605, 0.003271251916885376, -0.017508745193481445, -0.6986504143073666, 0.1466165288900339, -0.18755663075681434,-0.6746952179849904,-0.8370208740234375,-0.072601318359375,0.001739501953125
20220111-1129,2022-01-11 11:29:35Z,u01, 231,40,movements,el-ex, rt, d,76274.88197837501, -1.5985489976788196, 0.07768059904095875, 2.6679127756549406, 0.11470319330692291, -0.35792165994644165, -0.58540278673172, -0.9966004490852356, -0.07760249823331833, 0.027665426954627037, 0.11421525478363037, -0.051318973302841187, -0.007661342620849609, -0.7026658496194609, 0.1417512510068925, -0.1905269727028342,-0.6707210507680916,-0.8882598876953125,-0.14788818359375,0.0210418701171875
20220111-1129,2022-01-11 11:29:35Z,u01, 232,40,movements,el-ex, rt, d,76274.906919375, -1.6090788166925738, 0.0932134289301057, 2.672819242554797, 0.1720673143863678, -0.460951030254364, -0.6831881999969482, -0.9949292540550232, -0.09307850152254105, 0.03810698539018631, 0.17745494842529297, 0.07963550090789795, -0.03626084327697754, -0.7075526305732482, 0.13573049951775262, -0.19352551096541643,-0.6659537333481651,-0.815185546875,-0.0068511962890625,0.004302978515625
20220111-1129,2022-01-11 11:29:35Z,u01, 233,40,movements,el-ex, rt, d,76274.93186137501, -1.622296075971841, 0.11128144034960226, 2.6762753955428447, 0.04939509928226471, -0.5302757024765015, -0.7651947736740112, -0.992496907711029, -0.11105190217494965, 0.05115857720375061, 0.11476564407348633, 0.09315338730812073, 0.025638699531555176, -0.7132807355722783, 0.12965292543929346, -0.1977735011605763,-0.6597774419050123,-0.8602142333984375,-0.0153656005859375,0.06903076171875
20220111-1129,2022-01-11 11:29:35Z,u01, 234,40,movements,el-ex, rt, d,76274.956802375, -1.635806802824245, 0.12940943056325416, 2.6814650282528296, 0.3432076573371887, -0.4747922718524933, -0.731173038482666, -0.9895434379577637, -0.12904854118824005, 0.06442147493362427, 0.03799015283584595, 0.009282335638999939, 0.0025186464190483093, -0.7190823823734533, 0.12300919913943531, -0.20153621312342362,-0.653584235005452,-0.95513916015625,-0.12738037109375,0.0626220703125
20220111-1129,2022-01-11 11:29:35Z,u01, 235,40,movements,el-ex, rt, d,76274.981743375, -1.6486198005256298, 0.1470484460850631, 2.6897088151518145, 0.15277880430221558, -0.5440611243247986, -0.7065766453742981, -0.9862136244773865, -0.14651907980442047, 0.07690589874982834, 0.10994726419448853, 0.015049383044242859, -0.004197962582111359, -0.724663716015262, 0.11539257449425633, -0.2042692779479161,-0.647935944183859,-0.8903350830078125,-0.120452880859375,0.057373046875
20220111-1129,2022-01-11 11:29:35Z,u01, 236,40,movements,el-ex, rt, d,76275.00668437501, -1.6633633963010173, 0.16428229905600358, 2.6908261969723584, -0.17583878338336945, -0.5857748985290527, -0.6237814426422119, -0.9823123216629028, -0.16354434192180634, 0.0911903828382492, 0.04218780994415283, 0.025711745023727417, 0.04853415489196777, -0.7302962727694833, 0.11073637158927307, -0.20914179868724703,-0.6408310780034991,-0.9458465576171875,-0.1384429931640625,0.1474456787109375
20220111-1129,2022-01-11 11:29:35Z,u01, 237,40,movements,el-ex, rt, d,76275.031625375, -1.6764998125694477, 0.17893564493855427, 2.6886464467553624, -0.04712405055761337, -0.48173946142196655, -0.5512610673904419, -0.9785414338111877, -0.17798231542110443, 0.10382220149040222, -0.03502368927001953, -0.003948226571083069, -0.027223214507102966, -0.735008250851304, 0.10804616141638529, -0.21429729536949835,-0.634165274658895,-1.0200347900390625,-0.190399169921875,0.1070556640625
20220111-1129,2022-01-11 11:29:35Z,u01, 238,40,movements,el-ex, rt, d,76275.056566375, -1.6896145718708935, 0.19302431285375396, 2.6928230574854015, 0.17165325582027435, -0.5390294194221497, -0.6485658288002014, -0.9745089411735535, -0.1918279081583023, 0.11633743345737457, 0.06757235527038574, 0.1268102526664734, -0.15057826042175293, -0.7399369928390007, 0.10325678404412941, -0.2172866577611007,-0.628186121967227,-0.8992919921875,-0.0572052001953125,-0.03326416015625
20220111-1129,2022-01-11 11:29:35Z,u01, 239,40,movements,el-ex, rt, d,76275.081507375, -1.7064950423988046, 0.20899353039477275, 2.694724977469859, -0.17871500551700592, -0.7254437804222107, -0.5615225434303284, -0.9692471623420715, -0.2074754387140274, 0.13233889639377594, 0.032266080379486084, 0.03260974586009979, 0.07119797170162201, -0.7458810802300282, 0.09915071389367247, -0.221535754883038,-0.6202840879929883,-0.9055328369140625,-0.122528076171875,0.1657562255859375
20220111-1129,2022-01-11 11:29:35Z,u01, 240,40,movements,el-ex, rt, d,76275.10644837501, -1.7221004793242323, 0.2210035308651962, 2.692938376521147, -0.05757686123251915, -0.5376358032226562, -0.3978614807128906, -0.9645311832427979, -0.21920885145664215, 0.1470615118741989, -0.10344666242599487, -0.12026861310005188, 0.10426592826843262, -0.750996799114918, 0.09764509265555638, -0.22562598672597514,-0.6128312655579017,-1.068572998046875,-0.3395233154296875,0.2427215576171875
20220111-1129,2022-01-11 11:29:35Z,u01, 241,40,movements,el-ex, rt, d,76275.131389375, -1.7351583841169707, 0.23158345002331734, 2.6943932257077634, 0.10353546589612961, -0.5252313017845154, -0.4906611740589142, -0.960186779499054, -0.22951899468898773, 0.15925495326519012, 0.057217538356781006, 0.146221324801445, -0.10626138746738434, -0.7553632742043689, 0.09515145886929571, -0.2283651146312639,-0.6068128309059876,-0.9308319091796875,-0.1096954345703125,0.0664825439453125
20220111-1129,2022-01-11 11:29:35Z,u01, 242,40,movements,el-ex, rt, d,76275.156330375, -1.7513524613762128, 0.24380119358379082, 2.702211610999727, 0.2627905607223511, -0.6238632798194885, -0.5500383377075195, -0.9546521902084351, -0.24139314889907837, 0.17426615953445435, 0.10075497627258301, 0.11028963327407837, -0.06064938008785248, -0.7609289910158044, 0.09011188778019968, -0.22968264131931931,-0.6000940595409869,-0.8564453125,-0.1426849365234375,0.1231231689453125
20220111-1129,2022-01-11 11:29:35Z,u01, 243,40,movements,el-ex, rt, d,76275.18127137501, -1.7678331781552652, 0.25521821713581655, 2.706932133543364, -0.0069878846406936646, -0.5339234471321106, -0.37606513500213623, -0.9488859176635742, -0.25245657563209534, 0.18942323327064514, -0.1002320647239685, -0.10107430815696716, 0.1484825611114502, -0.7663012560016099, 0.08656788097743462, -0.23170963966768446,-0.5929578690801851,-1.0271453857421875,-0.3268280029296875,0.323516845703125
20220111-1129,2022-01-11 11:29:35Z,u01, 244,40,movements,el-ex, rt, d,76275.20621237501, -1.7783660306541629, 0.2635021749510658, 2.7087219451939273, -0.014448197558522224, -0.31430426239967346, -0.3356146514415741, -0.9447590708732605, -0.2604634463787079, 0.19896914064884186, -0.11485689878463745, -0.04414772987365723, 0.06810520589351654, -0.769641098962063, 0.0844816668973411, -0.23376597130348623,-0.5881060742741155,-1.052764892578125,-0.2919769287109375,0.2567291259765625
20220111-1129,2022-01-11 11:29:35Z,u01, 245,40,movements,el-ex, rt, d,76275.231153375, -1.787943205838891, 0.27240989526935566, 2.7138921315145392, 0.2142043262720108, -0.362922340631485, -0.4573650062084198, -0.9405073523521423, -0.26905325055122375, 0.2074999362230301, 0.05885457992553711, 0.15343746542930603, -0.11059153079986572, -0.7728006508265235, 0.08080299534280422, -0.23513072625940185,-0.5839208641581269,-0.8949737548828125,-0.1231536865234375,0.0918121337890625
20220111-1129,2022-01-11 11:29:35Z,u01, 246,40,movements,el-ex, rt, d,76275.25609550001, -1.7995726571892594, 0.282790523400109, 2.7212723635425022, 0.060492053627967834, -0.4129371643066406, -0.4473532438278198, -0.9352600574493408, -0.27903640270233154, 0.21777808666229248, 0.07039189338684082, 0.06373494863510132, -0.03435230255126953, -0.7765975678825211, 0.0760608971056827, -0.23636138976944876,-0.5790027954191044,-0.8675537109375,-0.227020263671875,0.1952667236328125
20220111-1129,2022-01-11 11:29:35Z,u01, 247,40,movements,el-ex, rt, d,76275.2810365, -1.8097948993657802, 0.2920056942697691, 2.7234405919208373, 0.031673189252614975, -0.28223374485969543, -0.3206954300403595, -0.9304471015930176, -0.28787359595298767, 0.22670860588550568, -0.08481162786483765, -0.14269888401031494, 0.0877901166677475, -0.7797072034126545, 0.07355937786526551, -0.2387691916656027,-0.5741383827577233,-1.000396728515625,-0.433502197265625,0.32366943359375
20220111-1129,2022-01-11 11:29:35Z,u01, 248,40,movements,el-ex, rt, d,76275.3059775, -1.8166603396376755, 0.2989857992541277, 2.7273366319907786, 0.1890740543603897, -0.24074262380599976, -0.3192254900932312, -0.9268972277641296, -0.29455116391181946, 0.23259642720222473, -0.024167895317077637, -0.016392439603805542, -0.03856584429740906, -0.7818570753994929, 0.07069458738567741, -0.24000030761197907,-0.5710530914294731,-0.943939208984375,-0.30535888671875,0.1841278076171875
20220111-1129,2022-01-11 11:29:35Z,u01, 249,40,movements,el-ex, rt, d,76275.33091850001, -1.8259738525593774, 0.30603750852925143, 2.7350697271540008, 0.1845979243516922, -0.3158779442310333, -0.3517449200153351, -0.92265784740448, -0.3012826442718506, 0.24068854749202728, 0.06448841094970703, 0.07771092653274536, -0.07468834519386292, -0.7847980513027781, 0.06660551517798319, -0.24010870930799413,-0.5674534336251539,-0.8600006103515625,-0.2193145751953125,0.15728759765625
20220111-1129,2022-01-11 11:29:35Z,u01, 250,40,movements,el-ex, rt, d,76275.3558595, -1.8356177830189992, 0.3140360063737342, 2.739225191866474, -0.05916566774249077, -0.3486490547657013, -0.34240400791168213, -0.9179386496543884, -0.30889976024627686, 0.24893659353256226, 0.0445561408996582, 0.05204859375953674, -0.06082642078399658, -0.787663426402939, 0.06367589630741421, -0.2416132401325049,-0.5631648988590461,-0.8758087158203125,-0.2586212158203125,0.1954498291015625
