SessionID,LoggingTime,UID,RecNo,Hertz,Activity,MoveType,Wrist,Side,TimeStamp,DMRoll,DMPitch,DMYaw,DMRotX,DMRotY,DMRotZ,DMGrvX,DMGrvY,DMGrvZ,DMUAccelX,DMUAccelY,DMUAccelZ,DMQuatX,DMQuatY,DMQuatW,DMQuatZ,AccelroX,AceelroY,AceelroZ
20220111-1122,2022-01-11 11:22:23Z,u01, 1,40,movements,el-ex, rt, d,75849.721047625, -1.8026291280890356, 0.2953462423670212, 2.9072172389748783, 0.10645631700754166, -0.33322641253471375, -0.6084487438201904, -0.9311071038246155, -0.2910711169242859, 0.21981340646743774, 0.007950067520141602, 0.13425645232200623, -0.07827240228652954, -0.7809652392836449, 0.0, -0.18635344026005984,-0.596125817747508,-0.92315673828125,-0.1568145751953125,0.14154052734375
20220111-1122,2022-01-11 11:22:23Z,u01, 2,40,movements,el-ex, rt, d,75849.74598962501, -1.8141354774870537, 0.3090762238844371, 2.91275388499628, 0.06695657968521118, -0.45055705308914185, -0.5111908912658691, -0.92454993724823, -0.30417877435684204, 0.22952759265899658, 0.03659522533416748, 0.15641266107559204, -0.03485563397407532, -0.7840505195863435, -0.005345956269544483, -0.18995012010366605,-0.5908935984336188,-0.8946380615234375,-0.201629638671875,0.2174835205078125
20220111-1122,2022-01-11 11:22:23Z,u01, 3,40,movements,el-ex, rt, d,75849.77093162501, -1.8263371933579717, 0.3200546963540394, 2.916388664706925, -0.03939632326364517, 0.1947495937347412, -0.8175840377807617, -0.9183942079544067, -0.31461846828460693, 0.23993276059627533, 0.31678587198257446, -0.055407166481018066, -0.05583512783050537, -0.7873281418750717, -0.008987741592014598, -0.19311828821035582,-0.585439273970946,-0.6016082763671875,-0.370025634765625,0.1840972900390625
20220111-1122,2022-01-11 11:22:23Z,u01, 4,40,movements,el-ex, rt, d,75849.795873625, -1.8374995899709083, 0.3320244442573043, 2.9174814931634607, -0.08327633142471313, -0.48089471459388733, -0.5107653141021729, -0.9119603037834167, -0.3259575664997101, 0.2491585910320282, 0.0715215802192688, 0.001570969820022583, 0.010103777050971985, -0.7902123501229171, -0.011989190162312313, -0.19744653296935274,-0.5800306434629416,-0.880218505859375,-0.312164306640625,0.256317138671875
20220111-1122,2022-01-11 11:22:23Z,u01, 5,40,movements,el-ex, rt, d,75849.820814875, -1.8505282650364339, 0.34396253875119936, 2.9213087152403165, 0.13120844960212708, -0.45086243748664856, -0.49031856656074524, -0.9048323035240173, -0.337220162153244, 0.25992584228515625, 0.01954782009124756, 0.02052396535873413, -0.015555977821350098, -0.7935441869030938, -0.01582868856436498, -0.20102515927342454,-0.574130728027889,-0.885284423828125,-0.3166961669921875,0.2443695068359375
20220111-1122,2022-01-11 11:22:23Z,u01, 6,40,movements,el-ex, rt, d,75849.845756875, -1.8636232838046802, 0.3550567368574108, 2.9281393872945296, 0.09200131148099899, -0.44534316658973694, -0.4770929217338562, -0.8977136015892029, -0.34764355421066284, 0.2706553339958191, 0.024682044982910156, 0.04538220167160034, -0.005304604768753052, -0.796809320187783, -0.020556788036217966, -0.20347887704196455,-0.5685672385561251,-0.8706207275390625,-0.3119659423828125,0.2842559814453125
20220111-1122,2022-01-11 11:22:23Z,u01, 7,40,movements,el-ex, rt, d,75849.870698875, -1.876687224542774, 0.36574477959573815, 2.9333216012058574, 0.027699656784534454, -0.4131599962711334, -0.44422370195388794, -0.890507161617279, -0.3576449155807495, 0.2812245488166809, -0.04418516159057617, 0.035989612340927124, 0.030787557363510132, -0.8000083546754418, -0.024472667168460027, -0.20630718553424068,-0.5628721917994839,-0.9346923828125,-0.3216552734375,0.31201171875
20220111-1122,2022-01-11 11:22:23Z,u01, 8,40,movements,el-ex, rt, d,75849.89564087501, -1.8878320356568379, 0.3753470252890822, 2.9364181867410033, -0.06426535546779633, -0.42128729820251465, -0.35402950644493103, -0.8840138912200928, -0.36659541726112366, 0.29004743695259094, -0.0013468265533447266, 0.05704036355018616, 0.005286812782287598, -0.8026663880398395, -0.02739315053160757, -0.20932400397863402,-0.5578170400514607,-0.86712646484375,-0.3222198486328125,0.311798095703125
20220111-1122,2022-01-11 11:22:23Z,u01, 9,40,movements,el-ex, rt, d,75849.920582875, -1.8997426796036292, 0.383575686269418, 2.938832127306494, 0.11157578229904175, -0.41534513235092163, -0.3662591278553009, -0.8776121139526367, -0.3742386996746063, 0.29957115650177, -0.007977664470672607, -0.05561670660972595, 0.02666214108467102, -0.8055520260490696, -0.029521355079482003, -0.2120395237817684,-0.552497818281978,-0.885589599609375,-0.4298553466796875,0.32623291015625
20220111-1122,2022-01-11 11:22:23Z,u01, 10,40,movements,el-ex, rt, d,75849.945524875, -1.9112724729807868, 0.39214271301152426, 2.945014127963971, 0.09868015348911285, -0.3580414950847626, -0.38389766216278076, -0.8710454702377319, -0.38216936588287354, 0.30858761072158813, -0.010179996490478516, 0.05634850263595581, -0.022836029529571533, -0.8081994631296661, -0.0332782073207783, -0.21388115835057386,-0.5476869661810317,-0.86529541015625,-0.31689453125,0.2887725830078125
20220111-1122,2022-01-11 11:22:23Z,u01, 11,40,movements,el-ex, rt, d,75849.970467875, -1.922457705355966, 0.40003862150245695, 2.9516042333928785, 0.09436716884374619, -0.34450146555900574, -0.39589864015579224, -0.864679753780365, -0.3894539177417755, 0.3172617256641388, 0.012613654136657715, 0.005878448486328125, 0.017608046531677246, -0.8107159255193535, -0.03702094306434378, -0.21539017252824025,-0.5431172913362701,-0.8520660400390625,-0.383575439453125,0.334869384765625
20220111-1122,2022-01-11 11:22:23Z,u01, 12,40,movements,el-ex, rt, d,75849.995409875, -1.9322961319734513, 0.40876933688024897, 2.955353971204234, 0.017281968146562576, -0.32101529836654663, -0.3389629125595093, -0.8583032488822937, -0.3974803686141968, 0.32453829050064087, 0.0218316912651062, 0.008076071739196777, 0.014390319585800171, -0.8128168757786748, -0.03997342847942864, -0.21801515334481097,-0.5387024537689886,-0.826141357421875,-0.398590087890625,0.3388519287109375
20220111-1122,2022-01-11 11:22:23Z,u01, 13,40,movements,el-ex, rt, d,75850.020351875, -1.9419382992416943, 0.41565812794043505, 2.9599792716890354, 0.0745852068066597, -0.3344336152076721, -0.3046720623970032, -0.8525621891021729, -0.4037921130657196, 0.3317980468273163, 0.07984185218811035, 0.010893523693084717, 0.014286994934082031, -0.8149054999227432, -0.04275566508921835, -0.21970338969907285,-0.5346321395518467,-0.7727203369140625,-0.3928985595703125,0.3460845947265625
20220111-1122,2022-01-11 11:22:23Z,u01, 14,40,movements,el-ex, rt, d,75850.04529387501, -1.952154973097052, 0.42309512927785964, 2.962809569204281, -0.040151067078113556, -0.32480278611183167, -0.29466572403907776, -0.8463172316551208, -0.41058462858200073, 0.33936387300491333, 0.017703890800476074, 0.0032512247562408447, 0.0648876428604126, -0.8171095502798523, -0.04487666168913018, -0.22212987404244264,-0.530072190850824,-0.8565521240234375,-0.4264068603515625,0.42913818359375
20220111-1122,2022-01-11 11:22:23Z,u01, 15,40,movements,el-ex, rt, d,75850.070235875, -1.9588800108263222, 0.4293240436724112, 2.966271083550699, 0.02363114431500435, -0.13727861642837524, -0.2777827978134155, -0.8416321873664856, -0.41625627875328064, 0.34407317638397217, -0.020275771617889404, 0.024593651294708252, 0.015988796949386597, -0.818413536639971, -0.04728507357906303, -0.22385175190778553,-0.5271185428222018,-0.861907958984375,-0.39166259765625,0.3600616455078125
20220111-1122,2022-01-11 11:22:23Z,u01, 16,40,movements,el-ex, rt, d,75850.095177875, -1.964141680005329, 0.4358383966981017, 2.969540306767937, 0.030024893581867218, -0.16753019392490387, -0.27511823177337646, -0.8372877836227417, -0.42217057943344116, 0.3474500775337219, 0.0562819242477417, 0.07271376252174377, -0.018531203269958496, -0.8192926363967994, -0.04984596909636241, -0.2257195422440418,-0.524714969591058,-0.77899169921875,-0.3623046875,0.339599609375
20220111-1122,2022-01-11 11:22:23Z,u01, 17,40,movements,el-ex, rt, d,75850.120119875, -1.9689389070827423, 0.4412911910451916, 2.9715341697880775, -0.05911513790488243, -0.16046197712421417, -0.1736641228199005, -0.8334770202636719, -0.4271073043346405, 0.35056501626968384, 0.0392264723777771, 0.0019668638706207275, 0.003210306167602539, -0.8201321217386149, -0.05163146009339398, -0.22749796773724565,-0.5224579635044463,-0.79425048828125,-0.425140380859375,0.3537750244140625
20220111-1122,2022-01-11 11:22:23Z,u01, 18,40,movements,el-ex, rt, d,75850.14506187501, -1.9724267711645953, 0.44561144073984393, 2.9708527832781906, -0.1653127521276474, -0.15897047519683838, -0.12598221004009247, -0.8305432796478271, -0.4310096800327301, 0.35274538397789, 0.029548168182373047, -0.01376885175704956, -0.001167207956314087, -0.8207638784104957, -0.05214733510435898, -0.2294937202391223,-0.520538401788352,-0.8031005859375,-0.4435272216796875,0.3682403564453125
20220111-1122,2022-01-11 11:22:23Z,u01, 19,40,movements,el-ex, rt, d,75850.170003875, -1.9747461115396918, 0.44891086558838394, 2.9685200457182708, -0.02713533118367195, -0.0783984586596489, -0.06519269943237305, -0.8284105658531189, -0.43398457765579224, 0.3541097939014435, -0.010273516178131104, -0.043676555156707764, 0.04748675227165222, -0.8211993053099597, -0.05183236283236048, -0.23148001082912406,-0.5190012309592406,-0.83868408203125,-0.4776611328125,0.4015960693359375
20220111-1122,2022-01-11 11:22:23Z,u01, 20,40,movements,el-ex, rt, d,75850.194945875, -1.9757054178652498, 0.4500345893331119, 2.969234411699193, 0.09945832937955856, -0.0857982486486435, -0.07720242440700531, -0.8276216983795166, -0.43499669432640076, 0.35471197962760925, 0.010864496231079102, -0.02554410696029663, 0.03844642639160156, -0.8213514320240434, -0.05232412774912942, -0.23176923642380304,-0.5185819007281907,-0.805450439453125,-0.474212646484375,0.380767822265625
20220111-1122,2022-01-11 11:22:23Z,u01, 21,40,movements,el-ex, rt, d,75850.219887875, -1.9779048466264475, 0.4516671824419265, 2.9729268502397117, 0.03171383962035179, -0.023805320262908936, -0.04126320034265518, -0.8261861205101013, -0.43646612763404846, 0.3562496602535248, 0.032362937927246094, -0.03126147389411926, -0.02461487054824829, -0.8217086043779935, -0.05403512780455366, -0.23152441640196003,-0.5179494398754231,-0.7938232421875,-0.4677276611328125,0.331634521484375
20220111-1122,2022-01-11 11:22:23Z,u01, 22,40,movements,el-ex, rt, d,75850.24482987501, -1.9801580942027606, 0.4529848522583332, 2.9734428057749374, -0.06192590296268463, 0.020617138594388962, 0.01905832812190056, -0.8248533010482788, -0.43765130639076233, 0.35788124799728394, -0.021475493907928467, -0.03073251247406006, -0.025468111038208008, -0.8221842552004209, -0.05434774610434834, -0.2319798475593459,-0.5169573875065816,-0.86431884765625,-0.468902587890625,0.3477783203125
20220111-1122,2022-01-11 11:22:23Z,u01, 23,40,movements,el-ex, rt, d,75850.269772875, -1.9811472752910044, 0.45535532936519246, 2.9713721029313245, -0.19589515030384064, 0.04978247731924057, 0.04439830780029297, -0.8235451579093933, -0.43978145718574524, 0.35828208923339844, -0.07455670833587646, 0.02022576332092285, -0.0006309747695922852, -0.8223269870189465, -0.054031223444478915, -0.23349127263547623,-0.516082290744682,-0.898101806640625,-0.4195556640625,0.3576507568359375
20220111-1122,2022-01-11 11:22:23Z,u01, 24,40,movements,el-ex, rt, d,75850.29471487501, -1.9781965247839477, 0.4570854328976232, 2.9672775193901555, -0.018297631293535233, 0.06988980621099472, 0.09871474653482437, -0.8238986730575562, -0.44133460521698, 0.35554835200309753, -0.0953516960144043, -0.027033895254135132, 0.001644909381866455, -0.8215517200745363, -0.0531690231497452, -0.2351619019301759,-0.5166475385632605,-0.9236602783203125,-0.4775390625,0.34967041015625
20220111-1122,2022-01-11 11:22:23Z,u01, 25,40,movements,el-ex, rt, d,75850.319656875, -1.9750204165541545, 0.4565360722067467, 2.965874705172895, -0.020389078184962273, 0.050518911331892014, 0.07137113064527512, -0.8252468109130859, -0.44084158539772034, 0.3530251681804657, -0.08213233947753906, -0.08073437213897705, 0.024340391159057617, -0.8208063861592834, -0.05281537170908934, -0.2352209550329746,-0.5178403818280686,-0.907379150390625,-0.521575927734375,0.3773651123046875
20220111-1122,2022-01-11 11:22:23Z,u01, 26,40,movements,el-ex, rt, d,75850.344598875, -1.9731239628516433, 0.45558706580175773, 2.964182376464412, -0.024410517886281013, 0.036408282816410065, 0.03149202838540077, -0.8262996077537537, -0.4399895668029785, 0.3516232371330261, -0.14330506324768066, -0.12093886733055115, 0.08308485150337219, -0.8204261344338419, -0.052082374759795436, -0.2352307170293848,-0.5185124610849579,-0.9955291748046875,-0.558074951171875,0.4387664794921875
20220111-1122,2022-01-11 11:22:23Z,u01, 27,40,movements,el-ex, rt, d,75850.369540875, -1.970773498312336, 0.4547807104166296, 2.963522100513151, 0.06429804861545563, 0.12133248895406723, 0.02870875969529152, -0.8274499773979187, -0.43926531076431274, 0.3498179614543915, -0.259113073348999, -0.03581702709197998, 0.0399375855922699, -0.8198896173500433, -0.05186524083438898, -0.23501923330562602,-0.5194776362530754,-1.0865631103515625,-0.4750823974609375,0.3897552490234375
20220111-1122,2022-01-11 11:22:23Z,u01, 28,40,movements,el-ex, rt, d,75850.39448287501, -1.967357463969584, 0.4534223321170161, 2.9645383501601636, 0.012247560545802116, 0.14231833815574646, 0.03079334832727909, -0.8291900157928467, -0.43804460763931274, 0.3472196161746979, -0.24354875087738037, -0.1077166199684143, 0.05272892117500305, -0.8190688941361066, -0.052306308789070444, -0.23412429776577845,-0.5211297818533056,-1.060760498046875,-0.5737152099609375,0.4019927978515625
20220111-1122,2022-01-11 11:22:23Z,u01, 29,40,movements,el-ex, rt, d,75850.419424875, -1.9637260468610263, 0.4536248595440301, 2.963555264057624, -0.07890362292528152, 0.11988447606563568, -0.03488146513700485, -0.8303632736206055, -0.4382266700267792, 0.3441721200942993, -0.23116010427474976, -0.17745020985603333, 0.089071124792099, -0.8181331351401189, -0.0523854613108935, -0.23436640616220636,-0.5224810180287713,-1.0615234375,-0.6156768798828125,0.4332427978515625
20220111-1122,2022-01-11 11:22:23Z,u01, 30,40,movements,el-ex, rt, d,75850.444366875, -1.9605706006368082, 0.45463117904222006, 2.9628901762750104, 0.03315700218081474, 0.11173386871814728, -0.039424020797014236, -0.8310367465019226, -0.4391309916973114, 0.3413824737071991, -0.2511622905731201, -0.1166551411151886, 0.09172326326370239, -0.8172559182951391, -0.052763639580577726, -0.2348576041746542,-0.5235940216912192,-1.0899200439453125,-0.54632568359375,0.43206787109375
20220111-1122,2022-01-11 11:22:23Z,u01, 31,40,movements,el-ex, rt, d,75850.469308875, -1.9579043518114732, 0.4536434704441229, 2.9649736141162055, 0.08187930285930634, 0.12054393440485, -0.041646361351013184, -0.8323453664779663, -0.43824338912963867, 0.33932915329933167, -0.2560182809829712, -0.1114392876625061, 0.06277084350585938, -0.8165696937498566, -0.053651737241687036, -0.2338480408139272,-0.5250244349604726,-1.0883636474609375,-0.5496826171875,0.402099609375
20220111-1122,2022-01-11 11:22:23Z,u01, 32,40,movements,el-ex, rt, d,75850.49425087501, -1.9554575462208612, 0.45378418435389534, 2.965973564667556, -0.025892268866300583, 0.08495645225048065, -0.02913742884993553, -0.8331159353256226, -0.43836987018585205, 0.3372683823108673, -0.19828665256500244, -0.11805713176727295, 0.03664860129356384, -0.8158899755762542, -0.054385046371640045, -0.23357505603634357,-0.5261260194009771,-1.0185699462890625,-0.559783935546875,0.3820953369140625
20220111-1122,2022-01-11 11:22:23Z,u01, 33,40,movements,el-ex, rt, d,75850.519192875, -1.953211414027357, 0.4552760530919454, 2.9642795587213264, -0.10160160809755325, 0.03580767661333084, -0.03266012668609619, -0.8332635760307312, -0.43971025943756104, 0.3351517617702484, -0.18475699424743652, -0.0848257839679718, 0.08470934629440308, -0.8152418741243533, -0.0543743552269515, -0.23455165108770032,-0.5266969082185904,-1.0180206298828125,-0.5245361328125,0.41986083984375
20220111-1122,2022-01-11 11:22:23Z,u01, 34,40,movements,el-ex, rt, d,75850.544134875, -1.9519406177150378, 0.45596833520034363, 2.963888384172644, 0.054193880409002304, 0.05150015652179718, -0.01574632152915001, -0.8334063291549683, -0.44033193588256836, 0.33397939801216125, -0.1963942050933838, -0.04743063449859619, 0.06900575757026672, -0.8148700103040104, -0.05455792943028337, -0.23489444811885737,-0.5271006734428048,-1.023956298828125,-0.4866180419921875,0.397674560546875
20220111-1122,2022-01-11 11:22:23Z,u01, 35,40,movements,el-ex, rt, d,75850.569076875, -1.9517833461021956, 0.4550047815531632, 2.9659292325429987, 0.07947826385498047, 0.01872609183192253, 0.016599498689174652, -0.8338521122932434, -0.43946659564971924, 0.33400586247444153, -0.12403357028961182, -0.09448421001434326, 0.07377037405967712, -0.8148390852164713, -0.05513793433219011, -0.23397025177522812,-0.5274988783986867,-0.9578857421875,-0.5339508056640625,0.40777587890625
20220111-1122,2022-01-11 11:22:23Z,u01, 36,40,movements,el-ex, rt, d,75850.594019875, -1.952480410333858, 0.4542482168187249, 2.9670944995810142, 0.046151597052812576, -0.01828518882393837, 0.005483465269207954, -0.8339277505874634, -0.43878689408302307, 0.33471089601516724, -0.11539798974990845, -0.06981921195983887, 0.034231871366500854, -0.8150430735319392, -0.055319410410995085, -0.23338224513624464,-0.5274254276038723,-0.9532470703125,-0.5005950927734375,0.358612060546875
20220111-1122,2022-01-11 11:22:23Z,u01, 37,40,movements,el-ex, rt, d,75850.618961875, -1.9532009216028485, 0.45305843920294436, 2.9684665520499354, 0.05907445400953293, -0.0015099365264177322, 0.04365162551403046, -0.8341699242591858, -0.437717467546463, 0.3355061411857605, -0.11814641952514648, -0.07192611694335938, 0.04095911979675293, -0.815277297937485, -0.05546171646328418, -0.23256846221905686,-0.527407795830624,-0.9523162841796875,-0.5096435546875,0.37646484375
20220111-1122,2022-01-11 11:22:24Z,u01, 38,40,movements,el-ex, rt, d,75850.64390387501, -1.9529252606465084, 0.4515896001837898, 2.967842342159089, -0.032131753861904144, 0.01872529275715351, 0.09115921705961227, -0.8348581194877625, -0.4363963305950165, 0.3355155885219574, -0.11571884155273438, -0.09200036525726318, 0.058939725160598755, -0.8153230439038205, -0.05482823748900617, -0.23214269395516038,-0.527590907392627,-0.950836181640625,-0.534332275390625,0.398468017578125
20220111-1122,2022-01-11 11:22:24Z,u01, 39,40,movements,el-ex, rt, d,75850.668845875, -1.9509113042628494, 0.4494002293400935, 2.9660726492812084, -0.015734437853097916, 0.08430769294500351, 0.1205681711435318, -0.8364173769950867, -0.43442538380622864, 0.33418723940849304, -0.10872745513916016, -0.03388217091560364, 0.05825391411781311, -0.814988968323211, -0.0537271629463677, -0.23168679727394342,-0.5284201070206201,-0.9451446533203125,-0.4683074951171875,0.3924407958984375
20220111-1122,2022-01-11 11:22:24Z,u01, 40,40,movements,el-ex, rt, d,75850.693787875, -1.947796675937475, 0.4458806329696364, 2.9645723426041104, 0.013361128978431225, 0.11476574093103409, 0.18813683092594147, -0.8388704657554626, -0.4312525689601898, 0.33214128017425537, -0.09270912408828735, -0.011130213737487793, 0.049923866987228394, -0.8144419282005642, -0.052487895619077796, -0.2306059026670103,-0.5298588302557703,-0.9335174560546875,-0.4591217041015625,0.38409423828125
20220111-1122,2022-01-11 11:22:24Z,u01, 41,40,movements,el-ex, rt, d,75850.718729875, -1.942667328103196, 0.441243325865328, 2.96155675262302, -0.09835487604141235, 0.1720743030309677, 0.23958031833171844, -0.842417299747467, -0.42706403136253357, 0.32855722308158875, -0.08080053329467773, -0.05244341492652893, 0.01719200611114502, -0.8134641292247753, -0.05054429911935354, -0.22943827784554946,-0.5320522773067679,-0.9232177734375,-0.4795074462890625,0.3457489013671875
20220111-1122,2022-01-11 11:22:24Z,u01, 42,40,movements,el-ex, rt, d,75850.74367187501, -1.9353742685716084, 0.43648695583204244, 2.9554282738402455, -0.14857028424739838, 0.19788825511932373, 0.27280479669570923, -0.8466793894767761, -0.42275840044021606, 0.323125422000885, -0.0540013313293457, -0.03445601463317871, 0.040110498666763306, -0.8119743555749372, -0.04754317903218758, -0.2290146904540044,-0.5347801759258486,-0.8975677490234375,-0.4566650390625,0.3686676025390625
20220111-1122,2022-01-11 11:22:24Z,u01, 43,40,movements,el-ex, rt, d,75850.768613875, -1.9271694688599863, 0.43069635317581106, 2.9494662121786823, -0.06429574638605118, 0.2688617706298828, 0.30864426493644714, -0.8515817523002625, -0.4175036549568176, 0.31701645255088806, -0.06637167930603027, -0.029960304498672485, 0.08648738265037537, -0.8102689001170265, -0.04441318049051274, -0.22814352919123934,-0.5379985066551718,-0.9179534912109375,-0.4474639892578125,0.40350341796875
20220111-1122,2022-01-11 11:22:24Z,u01, 44,40,movements,el-ex, rt, d,75850.793555875, -1.9177678332559613, 0.42331944262356286, 2.946146903351177, 0.03825266286730766, 0.3731081485748291, 0.32389339804649353, -0.8573978543281555, -0.4107891619205475, 0.31003525853157043, -0.06179177761077881, -0.005272358655929565, 0.04541864991188049, -0.8082399664333847, -0.04202131665264858, -0.2259383604191653,-0.5421572346525179,-0.9120330810546875,-0.413787841796875,0.3336029052734375
20220111-1122,2022-01-11 11:22:24Z,u01, 45,40,movements,el-ex, rt, d,75850.81849779167, -1.9063884169919272, 0.4164027774205084, 2.9429165728061153, -0.11069610714912415, 0.3942386507987976, 0.2824718654155731, -0.8635322451591492, -0.4044732451438904, 0.3011871874332428, 0.01717299222946167, 0.03516474366188049, -0.0074703991413116455, -0.8056014641941385, -0.03999836708535226, -0.22387582513611298,-0.5470704920619736,-0.8463592529296875,-0.3693084716796875,0.2937164306640625
20220111-1122,2022-01-11 11:22:24Z,u01, 46,40,movements,el-ex, rt, d,75850.84343979167, -1.8945281942173482, 0.41060303753749416, 2.938675262978816, 0.06898294389247894, 0.46553006768226624, 0.2613052427768707, -0.8692531585693359, -0.39916232228279114, 0.2916659414768219, -0.011621594429016113, -0.03623208403587341, 0.07108166813850403, -0.8027419212808948, -0.037926049955030794, -0.222547464180417,-0.5519419483491027,-0.90692138671875,-0.4434661865234375,0.3662567138671875
20220111-1122,2022-01-11 11:22:24Z,u01, 47,40,movements,el-ex, rt, d,75850.86838179168, -1.8814750931400455, 0.4024949294193331, 2.943340927683224, 0.4157429337501526, 0.7029259204864502, 0.2638164162635803, -0.8760389089584351, -0.3917151093482971, 0.2812751233577728, -0.05662423372268677, 0.008917808532714844, 0.07037928700447083, -0.7994550453031866, -0.038848418590455513, -0.21785008298144937,-0.5584836622859272,-0.9326629638671875,-0.3827972412109375,0.351654052734375
20220111-1122,2022-01-11 11:22:24Z,u01, 48,40,movements,el-ex, rt, d,75850.89332379166, -1.8668402797018198, 0.39280762151640614, 2.9515090400010506, 0.2810673713684082, 0.6915661692619324, 0.30339518189430237, -0.883649468421936, -0.3827837109565735, 0.26951920986175537, 0.044721245765686035, 0.0017412006855010986, 0.03092670440673828, -0.7956724674025337, -0.040803536977426336, -0.2115087602271563,-0.5661312351170713,-0.8323516845703125,-0.384918212890625,0.303466796875
20220111-1122,2022-01-11 11:22:24Z,u01, 49,40,movements,el-ex, rt, d,75850.91826579167, -1.8492555691195514, 0.38401116495423265, 2.9512711473245843, -0.08233354240655899, 0.7523335218429565, 0.40737470984458923, -0.8914551734924316, -0.3746424913406372, 0.25485536456108093, -0.01677858829498291, 0.03597363829612732, -0.005617856979370117, -0.7910969337157217, -0.03991638242992479, -0.20782863134995774,-0.5739161934108428,-0.908233642578125,-0.3386688232421875,0.249237060546875
20220111-1122,2022-01-11 11:22:24Z,u01, 50,40,movements,el-ex, rt, d,75850.94320879166, -1.8271367953361877, 0.3736307647964164, 2.9455728175876525, -0.11183233559131622, 0.804932177066803, 0.5008044242858887, -0.9005869030952454, -0.36499810218811035, 0.23604997992515564, 0.005918443202972412, 0.08901244401931763, -0.04563526809215546, -0.785283791444492, -0.036801588340432956, -0.20507590212513963,-0.5830256297618566,-0.874114990234375,-0.2523193359375,0.1740264892578125
20220111-1122,2022-01-11 11:22:24Z,u01, 51,40,movements,el-ex, rt, d,75850.96815079167, -1.806476422093814, 0.3616480690696126, 2.9407898878953005, -0.03059101477265358, 0.7262054085731506, 0.5079872608184814, -0.9094589352607727, -0.3538161814212799, 0.21840010583400726, 0.07758033275604248, 0.12281337380409241, -0.046967312693595886, -0.779800290926157, -0.03334006101006126, -0.20156313181816424,-0.5917535528402845,-0.831878662109375,-0.2310028076171875,0.1714324951171875
20220111-1122,2022-01-11 11:22:24Z,u01, 52,40,movements,el-ex, rt, d,75850.99309279167, -1.7872988751131604, 0.3491479104834605, 2.9356787020278534, -0.09488984197378159, 0.6784133911132812, 0.5481533408164978, -0.917728066444397, -0.3420972526073456, 0.20185422897338867, 0.06938505172729492, 0.006144464015960693, 0.05446326732635498, -0.774638300072116, -0.02937032205192691, -0.19806700487725593,-0.5998687629419686,-0.8723602294921875,-0.360870361328125,0.2548980712890625
20220111-1122,2022-01-11 11:22:24Z,u01, 53,40,movements,el-ex, rt, d,75851.01803479168, -1.767690107429085, 0.33631751716212527, 2.9310543973509335, 0.045741207897663116, 0.7418912649154663, 0.5345555543899536, -0.925737738609314, -0.3300131559371948, 0.1846645027399063, 0.02429431676864624, 0.07947909832000732, -0.01725997030735016, -0.7692100815386247, -0.025457842596682323, -0.19438597503942948,-0.6081791381198176,-0.9014434814453125,-0.2505340576171875,0.1674041748046875
20220111-1122,2022-01-11 11:22:24Z,u01, 54,40,movements,el-ex, rt, d,75851.04297679166, -1.7506698965720602, 0.3223150240742362, 2.932501835660991, 0.17500604689121246, 0.6681897044181824, 0.5298157930374146, -0.9332019686698914, -0.3167632222175598, 0.16969242691993713, 0.0899248719215393, 0.10008838772773743, -0.028212547302246094, -0.7644012824028247, -0.02317097884025021, -0.18852050536741566,-0.6161281885690877,-0.8449859619140625,-0.21441650390625,0.12933349609375
20220111-1122,2022-01-11 11:22:24Z,u01, 55,40,movements,el-ex, rt, d,75851.06791879167, -1.7349292621717731, 0.30907849127415515, 2.931687896420844, -0.03549925610423088, 0.561964750289917, 0.553087592124939, -0.9398115873336792, -0.30418092012405396, 0.15565431118011475, 0.0885542631149292, 0.07207944989204407, -0.04782010614871979, -0.7598847552953276, -0.020057775224599173, -0.1836984592680463,-0.6232397544215582,-0.85125732421875,-0.2321014404296875,0.1078338623046875
20220111-1122,2022-01-11 11:22:24Z,u01, 56,40,movements,el-ex, rt, d,75851.09286079167, -1.7195549768139649, 0.29489611750542805, 2.92770397703744, -0.02753826603293419, 0.6060413718223572, 0.6362748742103577, -0.9462652802467346, -0.2906404435634613, 0.1418127566576004, 0.002356290817260742, -0.044854581356048584, 0.05058576166629791, -0.755427938128259, -0.015329934947276691, -0.17958437857942117,-0.6299550509355833,-0.9542388916015625,-0.3522796630859375,0.1828765869140625
20220111-1122,2022-01-11 11:22:24Z,u01, 57,40,movements,el-ex, rt, d,75851.11780279168, -1.703750534977446, 0.2793605907611051, 2.9244784454314448, -0.0371573381125927, 0.5491975545883179, 0.6177717447280884, -0.9527489542961121, -0.2757410705089569, 0.12742368876934052, 0.08687359094619751, 0.02506965398788452, -0.03645038604736328, -0.750735227254649, -0.010414473680181002, -0.17481109294650637,-0.6369689729032644,-0.865875244140625,-0.25067138671875,0.090972900390625
20220111-1122,2022-01-11 11:22:24Z,u01, 58,40,movements,el-ex, rt, d,75851.14274479166, -1.6902504081151963, 0.26525086933720926, 2.9214323449694297, -0.11521635949611664, 0.4808136224746704, 0.550352156162262, -0.9581498503684998, -0.2621513605117798, 0.11500243097543716, 0.09746265411376953, 0.12561571598052979, -0.05244101583957672, -0.7466377594425129, -0.005768234407653949, -0.1705873229335662,-0.6429609416245476,-0.869720458984375,-0.1045379638671875,0.0782928466796875
20220111-1122,2022-01-11 11:22:24Z,u01, 59,40,movements,el-ex, rt, d,75851.16768679167, -1.6774576785321889, 0.2502170136852434, 2.9192152416152624, -0.0007641436532139778, 0.5310370326042175, 0.5897104144096375, -0.9633529186248779, -0.24761421978473663, 0.10314396768808365, 0.042805373668670654, 0.03844675421714783, -0.007043719291687012, -0.742678244404487, -0.0010044568643400864, -0.16582608767465848,-0.6487910966417113,-0.9205474853515625,-0.20916748046875,0.096099853515625
20220111-1122,2022-01-11 11:22:24Z,u01, 60,40,movements,el-ex, rt, d,75851.19262879167, -1.663533708118225, 0.23568469263753575, 2.915720633125352, -0.12692511081695557, 0.47584864497184753, 0.591461181640625, -0.9681766629219055, -0.23350881040096283, 0.09004445374011993, 0.10373562574386597, 0.030597388744354248, -0.03833198547363281, -0.7382451984561518, 0.004031454552828551, -0.16172727047678268,-0.6548452199673519,-0.84466552734375,-0.20416259765625,0.0618743896484375
20220111-1122,2022-01-11 11:22:24Z,u01, 61,40,movements,el-ex, rt, d,75851.21757079168, -1.6510836509038478, 0.22140030159183882, 2.910597279586237, -0.21197278797626495, 0.4976974427700043, 0.567947268486023, -0.9724484086036682, -0.21959595382213593, 0.07824347168207169, 0.026220262050628662, -0.04171082377433777, 0.054248929023742676, -0.7341843053320396, 0.009754134258756597, -0.15832166243243212,-0.6601611036615067,-0.94622802734375,-0.2613067626953125,0.1324920654296875
20220111-1122,2022-01-11 11:22:24Z,u01, 62,40,movements,el-ex, rt, d,75851.24251279166, -1.6364348805088555, 0.2071203411036515, 2.9060400583993222, 0.0268862247467041, 0.5543994903564453, 0.5985621213912964, -0.976519763469696, -0.20564264059066772, 0.06418956071138382, 0.07902830839157104, 0.04783622920513153, -0.009455926716327667, -0.7292911279984681, 0.015140315700646167, -0.1548203253071439,-0.6662851609252062,-0.8699798583984375,-0.153228759765625,0.057464599609375
20220111-1122,2022-01-11 11:22:24Z,u01, 63,40,movements,el-ex, rt, d,75851.26745579168, -1.622911986839855, 0.1934334130382693, 2.9058770592538172, -0.12725873291492462, 0.5148462057113647, 0.5093909502029419, -0.9800176620483398, -0.19222940504550934, 0.05112055689096451, 0.10338497161865234, 0.026839375495910645, 0.04186689108610153, -0.7247098461520942, 0.01886578951976492, -0.1501248794112659,-0.6722367798111774,-0.8766326904296875,-0.1653900146484375,0.092987060546875
20220111-1122,2022-01-11 11:22:24Z,u01, 64,40,movements,el-ex, rt, d,75851.29239779167, -1.6091303263567922, 0.18007603224868857, 2.900953479495307, -0.1635882556438446, 0.5455365180969238, 0.5402417778968811, -0.983107328414917, -0.17910437285900116, 0.03770490735769272, 0.06463503837585449, -0.011096403002738953, 0.02497851476073265, -0.7199063278476271, 0.024234951157013962, -0.1472132699756133,-0.6778464752767792,-0.9178924560546875,-0.1582183837890625,0.04107666015625
20220111-1122,2022-01-11 11:22:24Z,u01, 65,40,movements,el-ex, rt, d,75851.31733979167, -1.5959690120516499, 0.167141642359437, 2.8978479669676163, -0.12226450443267822, 0.4244100749492645, 0.48540571331977844, -0.9857521057128906, -0.16636450588703156, 0.0248192697763443, 0.17322146892547607, 0.08009129762649536, -0.012123584747314453, -0.715244713189801, 0.028890052817643785, -0.14389831382782764,-0.6832889615436356,-0.812530517578125,-0.086273193359375,0.0126953125
20220111-1122,2022-01-11 11:22:24Z,u01, 66,40,movements,el-ex, rt, d,75851.34228179167, -1.5849518643242557, 0.15634388822428458, 2.894070012348338, -0.16530412435531616, 0.4370531439781189, 0.382287859916687, -0.9877042174339294, -0.1557077318429947, 0.013982417993247509, 0.08304113149642944, -0.01818142831325531, 0.06115221977233887, -0.7112573979045993, 0.033228348486132875, -0.141588313305556,-0.6877220224277651,-0.9243621826171875,-0.1802520751953125,0.07379150390625
20220111-1122,2022-01-11 11:22:24Z,u01, 67,40,movements,el-ex, rt, d,75851.36722379168, -1.5730807752952776, 0.14804027120790564, 2.8915576654138393, 0.022937756031751633, 0.46172401309013367, 0.2932036817073822, -0.9890594482421875, -0.14750012755393982, 0.0022594593465328217, 0.0914764404296875, 0.009453848004341125, 0.059081196784973145, -0.7069787513396751, 0.03620462424649157, -0.1397721696958643,-0.6923395208230205,-0.8975830078125,-0.1380462646484375,0.06134033203125
20220111-1122,2022-01-11 11:22:24Z,u01, 68,40,movements,el-ex, rt, d,75851.39216579167, -1.5620871652738206, 0.14188106863524588, 2.8964203443706085, 0.2989218831062317, 0.49234044551849365, 0.20870229601860046, -0.9899145364761353, -0.14140553772449493, -0.008621543645858765, 0.0817263126373291, 0.0068534910678863525, 0.015274761244654655, -0.7031356081811251, 0.03591023259270121, -0.13614914027390923,-0.6969752431015332,-0.9101104736328125,-0.1348419189453125,-0.0108489990234375
20220111-1122,2022-01-11 11:22:24Z,u01, 69,40,movements,el-ex, rt, d,75851.41710779167, -1.5518205524132807, 0.13600712527281886, 2.902179660736825, 0.1434098780155182, 0.38891085982322693, 0.24789005517959595, -0.9905869364738464, -0.13558819890022278, -0.01879941113293171, 0.13704073429107666, -0.05146932601928711, -0.0022878646850585938, -0.6995390883871947, 0.035289632916110814, -0.13229374376166952,-0.7013544967129204,-0.853546142578125,-0.1870574951171875,-0.021087646484375
20220111-1122,2022-01-11 11:22:24Z,u01, 70,40,movements,el-ex, rt, d,75851.44204979167, -1.5439389665313255, 0.13007246289198876, 2.902084680362463, -0.08022667467594147, 0.26650241017341614, 0.23079201579093933, -0.9911949634552002, -0.1297059953212738, -0.026627283543348312, 0.13439863920211792, -0.0340360552072525, 0.024491431191563606, -0.6966512668674096, 0.03692385369698198, -0.1304316223896927,-0.7044865449304925,-0.8699951171875,-0.169342041015625,0.01507568359375
20220111-1122,2022-01-11 11:22:24Z,u01, 71,40,movements,el-ex, rt, d,75851.46699179168, -1.5362372805972917, 0.1240978945496045, 2.8995399758267975, -0.1035940870642662, 0.2886446416378021, 0.2448401153087616, -0.9917173981666565, -0.12377961724996567, -0.03428645804524422, 0.07417577505111694, 0.012741416692733765, 0.04260289669036865, -0.6937582990388133, 0.0394486193713901, -0.12943281013005947,-0.7073828872500421,-0.91754150390625,-0.1110382080078125,0.0083160400390625
20220111-1122,2022-01-11 11:22:24Z,u01, 72,40,movements,el-ex, rt, d,75851.49193379167, -1.529316496804417, 0.1178868923671026, 2.89720789052722, -0.13675446808338165, 0.22693514823913574, 0.2279851883649826, -0.9922054409980774, -0.1176140308380127, -0.04118013381958008, 0.07609808444976807, -0.0005042552947998047, -0.02121269702911377, -0.6911167421811234, 0.04204262149616045, -0.12828263901118586,-0.7100238627615955,-0.91326904296875,-0.1250152587890625,-0.073028564453125
20220111-1122,2022-01-11 11:22:24Z,u01, 73,40,movements,el-ex, rt, d,75851.51687579167, -1.5247310303614092, 0.11183103199198433, 2.8918649910716647, -0.29784515500068665, 0.09173565357923508, 0.2083602100610733, -0.9926992058753967, -0.11159808188676834, -0.0457613579928875, 0.09755760431289673, -0.04346168786287308, 0.02586425095796585, -0.6892198759850687, 0.04577427740709694, -0.1282233799546723,-0.7116455632218508,-0.8951416015625,-0.155059814453125,-0.0198974609375
20220111-1122,2022-01-11 11:22:24Z,u01, 74,40,movements,el-ex, rt, d,75851.54181779167, -1.5205775808151096, 0.1062918411655697, 2.885535991676449, -0.17711231112480164, 0.14219915866851807, 0.1896638125181198, -0.9931027889251709, -0.10609180480241776, -0.049914345145225525, 0.03694123029708862, -0.04049935191869736, 0.011615101248025894, -0.68744035507073, 0.04968487104063812, -0.12869784192757389,-0.7130175782890301,-0.92840576171875,-0.12286376953125,-0.0484466552734375
20220111-1122,2022-01-11 11:22:24Z,u01, 75,40,movements,el-ex, rt, d,75851.56675979168, -1.5175144641882712, 0.10270017133505399, 2.8830162940470454, -0.07049968093633652, 0.08209142088890076, 0.09228061139583588, -0.9933193922042847, -0.10251972824335098, -0.05297604948282242, 0.08218652009963989, 0.026134200394153595, -0.044954534620046616, -0.6861808233914575, 0.051651265191575924, -0.12845850041026857,-0.7141334072263866,-0.9111328125,-0.076385498046875,-0.097930908203125
20220111-1122,2022-01-11 11:22:24Z,u01, 76,40,movements,el-ex, rt, d,75851.59170179167, -1.5168448311158447, 0.10196402174993845, 2.8817004278333216, -0.07245713472366333, -0.041326191276311874, -0.036067839711904526, -0.9933589696884155, -0.10178743302822113, -0.053645260632038116, 0.10717397928237915, 0.06858427822589874, -0.054340846836566925, -0.6858858339220973, 0.052325831516662036, -0.1286968677794147,-0.714324857615029,-0.8799896240234375,-0.0337677001953125,-0.092742919921875
20220111-1122,2022-01-11 11:22:24Z,u01, 77,40,movements,el-ex, rt, d,75851.61664479168, -1.5181253022073886, 0.10300494950722955, 2.8788862120404706, -0.12990984320640564, -0.048889968544244766, -0.0688280463218689, -0.9933203458786011, -0.10282289981842041, -0.05236763507127762, 0.06924796104431152, -0.15173950791358948, 0.05128467455506325, -0.6862998106733023, 0.052997664031732394, -0.13001982340585083,-0.7136376958002592,-0.924072265625,-0.2545623779296875,-0.0010833740234375
20220111-1122,2022-01-11 11:22:25Z,u01, 78,40,movements,el-ex, rt, d,75851.64158679167, -1.519379785641964, 0.10573554360242603, 2.876485147802531, 0.07445929944515228, -0.08339062333106995, -0.16076642274856567, -0.9931010603904724, -0.10553863644599915, -0.05110686644911766, 0.08236497640609741, -0.06244535744190216, -0.018076173961162567, -0.686765121007966, 0.05291725318607993, -0.13176661071463697,-0.712875169329876,-0.909332275390625,-0.128387451171875,-0.0917816162109375
20220111-1122,2022-01-11 11:22:25Z,u01, 79,40,movements,el-ex, rt, d,75851.66652879167, -1.5218063219701243, 0.1104571503232692, 2.8819059963211617, 0.27991053462028503, -0.14487116038799286, -0.2099921703338623, -0.992713451385498, -0.11023267358541489, -0.04867197945713997, 0.079703688621521, 0.07884535938501358, -0.08575761318206787, -0.687904703204499, 0.049508883044339036, -0.13137183696404248,-0.7120937495949393,-0.9130096435546875,-0.0313873291015625,-0.134429931640625
20220111-1122,2022-01-11 11:22:25Z,u01, 80,40,movements,el-ex, rt, d,75851.69147079167, -1.5276418865273909, 0.1167435437884409, 2.8854723114324705, -0.08523179590702057, -0.28399980068206787, -0.2483942061662674, -0.9922685623168945, -0.11647854000329971, -0.0428473986685276, 0.09163373708724976, -0.029624365270137787, -0.0041340552270412445, -0.6902343993993016, 0.04639800907754166, -0.1320967859632169,-0.7099113986085713,-0.9069976806640625,-0.1810760498046875,-0.0055084228515625
20220111-1122,2022-01-11 11:22:25Z,u01, 81,40,movements,el-ex, rt, d,75851.71641279168, -1.5341706741267307, 0.12352225079392612, 2.878944805161411, -0.26550593972206116, -0.26207926869392395, -0.22262433171272278, -0.9917154312133789, -0.12320838123559952, -0.03633847460150719, 0.016465067863464355, -0.07147854566574097, 0.02425384521484375, -0.692570572614478, 0.04665580404646802, -0.1365622428380966,-0.7067674034618001,-0.975250244140625,-0.1946868896484375,-0.0120849609375
20220111-1122,2022-01-11 11:22:25Z,u01, 82,40,movements,el-ex, rt, d,75851.74135479167, -1.5398314003494522, 0.1292565093233351, 2.878956685408867, 0.19350409507751465, -0.2118915319442749, -0.22762608528137207, -0.991182804107666, -0.12889689207077026, -0.030701715499162674, 0.06309735774993896, 0.14600199460983276, -0.08746194839477539, -0.6947125381799999, 0.04498479432923458, -0.13838303569652266,-0.7044154702687628,-0.9224090576171875,0.0313873291015625,-0.1166839599609375
20220111-1122,2022-01-11 11:22:25Z,u01, 83,40,movements,el-ex, rt, d,75851.76629679167, -1.5462486356052454, 0.13443343143731784, 2.8818743346213798, -0.07163332402706146, -0.2971998453140259, -0.19331665337085724, -0.9906789660453796, -0.13402888178825378, -0.02432376705110073, 0.06215101480484009, -0.005054965615272522, 0.007203759625554085, -0.6971559955322058, 0.04256329594341157, -0.1389862663818907,-0.7020290674426705,-0.92852783203125,-0.1390838623046875,-0.017120361328125
20220111-1122,2022-01-11 11:22:25Z,u01, 84,40,movements,el-ex, rt, d,75851.79123879167, -1.5532734788058147, 0.13984495058937996, 2.874343568277016, -0.39883744716644287, -0.3282235860824585, -0.25362879037857056, -0.9900857210159302, -0.13938957452774048, -0.017350897192955017, -0.007198333740234375, -0.03315681219100952, 0.06813251972198486, -0.6995781891912456, 0.04375966747626148, -0.14332657685119182,-0.6986651996992677,-1.0026092529296875,-0.1318359375,0.0498504638671875
20220111-1122,2022-01-11 11:22:25Z,u01, 85,40,movements,el-ex, rt, d,75851.816181125, -1.5602017211467027, 0.14614081917721095, 2.869467590285481, -0.02343020774424076, -0.29377466440200806, -0.25581324100494385, -0.9892849922180176, -0.1456211805343628, -0.010481476783752441, 0.0470089316368103, 0.0732029527425766, -0.035416603088378906, -0.7020303136041138, 0.04373443083196027, -0.14703747108569298,-0.6954285212549669,-0.9422760009765625,-0.072418212890625,-0.0458984375
20220111-1122,2022-01-11 11:22:25Z,u01, 86,40,movements,el-ex, rt, d,75851.841123125, -1.5681028224195175, 0.1532038579638056, 2.8659414773750425, -0.2902727723121643, -0.3761906623840332, -0.31061649322509766, -0.9882836937904358, -0.15260523557662964, -0.002661952981725335, 0.056078433990478516, -0.08982643485069275, 0.029471993446350098, -0.7048508292628439, 0.043061955410537534, -0.15052204367938804,-0.6918628273327743,-0.92486572265625,-0.2379608154296875,0.0200347900390625
20220111-1122,2022-01-11 11:22:25Z,u01, 87,40,movements,el-ex, rt, d,75851.86606512501, -1.5779736784644212, 0.16189803882204165, 2.8589203054125054, -0.1611548513174057, -0.4768913984298706, -0.36550790071487427, -0.9868978261947632, -0.16119171679019928, 0.007083434145897627, 0.07500195503234863, 0.19489836692810059, 0.0052155256271362305, -0.7082884944547605, 0.04323338711311492, -0.155734039804729,-0.6871719627075216,-0.911895751953125,0.0337066650390625,0.012298583984375
20220111-1122,2022-01-11 11:22:25Z,u01, 88,40,movements,el-ex, rt, d,75851.891007125, -1.5879741251932884, 0.17148838434013464, 2.860739208025726, 0.1163395419716835, -0.3383900821208954, -0.43066975474357605, -0.985186755657196, -0.17064909636974335, 0.01692500337958336, -0.00040918588638305664, 0.07628871500492096, -0.016253231093287468, -0.7119423378531022, 0.04000761905575834, -0.1582292572461731,-0.6830089601243274,-0.96368408203125,-0.12835693359375,0.0168304443359375
20220111-1122,2022-01-11 11:22:25Z,u01, 89,40,movements,el-ex, rt, d,75851.915949125, -1.5988175429431957, 0.18302390787097186, 2.8633331398305497, 0.12417320162057877, -0.45403820276260376, -0.52521151304245, -0.9829118847846985, -0.18200379610061646, 0.02754959650337696, 0.05691695213317871, -0.15817563235759735, -0.0015940703451633453, -0.7158802869961118, 0.035919539082822693, -0.1611588160266041,-0.6784195611723481,-0.925994873046875,-0.340179443359375,0.0259552001953125
20220111-1122,2022-01-11 11:22:25Z,u01, 90,40,movements,el-ex, rt, d,75851.940891125, -1.6115036692045128, 0.19611872654614765, 2.871057254117669, 0.42408668994903564, -0.4278137683868408, -0.5285226106643677, -0.980017900466919, -0.1948639303445816, 0.03991597518324852, 0.0923072099685669, 0.10256350040435791, -0.08030569553375244, -0.7204722572377183, 0.029626242210667397, -0.1629249988192305,-0.6734223241249082,-0.87811279296875,-0.0481109619140625,-0.047637939453125
20220111-1122,2022-01-11 11:22:25Z,u01, 91,40,movements,el-ex, rt, d,75851.96583312501, -1.6247477273476083, 0.2079575101318134, 2.878240039105921, 0.017986107617616653, -0.5743847489356995, -0.45567062497138977, -0.9770311117172241, -0.2064618468284607, 0.052763402462005615, 0.16624003648757935, 0.0783032774925232, -0.05717277526855469, -0.725123665596247, 0.024028533184917322, -0.16450704579900283,-0.6682483634556684,-0.810791015625,-0.1281585693359375,-0.0044097900390625
20220111-1122,2022-01-11 11:22:25Z,u01, 92,40,movements,el-ex, rt, d,75851.990776125, -1.6398943263939239, 0.22012213981189083, 2.8729182550326673, -0.35311099886894226, -0.6930122971534729, -0.4918304979801178, -0.9735422730445862, -0.21834881603717804, 0.06737709045410156, 0.08549582958221436, -0.14180439710617065, 0.05991208553314209, -0.7301757269068111, 0.02306407743995431, -0.17040543819259876,-0.6612666840469071,-0.91485595703125,-0.391510009765625,0.15716552734375
20220111-1122,2022-01-11 11:22:25Z,u01, 93,40,movements,el-ex, rt, d,75852.01571812501, -1.6549372757426606, 0.23298468026460517, 2.8700503138313542, 0.13458941876888275, -0.5309581756591797, -0.5156490206718445, -0.9695396423339844, -0.23088258504867554, 0.08177104592323303, -0.008319973945617676, 0.008256793022155762, 0.010087251663208008, -0.7351481146730621, 0.021042189057335958, -0.1757618999699783,-0.6543870522872861,-0.9778594970703125,-0.222625732421875,0.09185791015625
20220111-1122,2022-01-11 11:22:25Z,u01, 94,40,movements,el-ex, rt, d,75852.040660125, -1.6688802343041882, 0.24537225488632014, 2.8789204567940527, 0.24669528007507324, -0.45062580704689026, -0.5669612884521484, -0.9653847813606262, -0.24291744828224182, 0.09499353170394897, 0.1135932207107544, 0.19292962551116943, -0.13834333419799805, -0.7397818133323988, 0.014820073592993144, -0.17718185218648536,-0.6489298904502694,-0.8238525390625,-0.03753662109375,-0.0467376708984375
20220111-1122,2022-01-11 11:22:25Z,u01, 95,40,movements,el-ex, rt, d,75852.065602125, -1.6806837889199167, 0.2608885282992587, 2.8756649086353234, -0.6644049882888794, -0.5596137642860413, -0.6182414293289185, -0.9603338837623596, -0.25793910026550293, 0.10595548152923584, 0.12235164642333984, 0.07753440737724304, 0.04376411437988281, -0.7435296740729053, 0.011889628938772434, -0.18373560585902857,-0.6428558542935281,-0.837982177734375,-0.1804046630859375,0.14971923828125
20220111-1122,2022-01-11 11:22:25Z,u01, 96,40,movements,el-ex, rt, d,75852.090544125, -1.689402903196835, 0.27762197193140087, 2.8575747122954107, -0.5480833649635315, -0.5284978747367859, -0.5193781852722168, -0.9549534320831299, -0.2740694582462311, 0.1137978732585907, -0.004992246627807617, -0.09264501929283142, 0.17712651193141937, -0.7461276697937003, 0.013872201367518489, -0.19549158154532836,-0.6363050616480208,-0.9691162109375,-0.404205322265625,0.2716217041015625
20220111-1122,2022-01-11 11:22:25Z,u01, 97,40,movements,el-ex, rt, d,75852.11548612501, -1.7030508679416512, 0.290872459137456, 2.8608034823412, 0.45874008536338806, -0.46541985869407654, -0.6301966309547424, -0.9496281743049622, -0.28678813576698303, 0.12633004784584045, -0.014788389205932617, 0.016997456550598145, -0.10920929908752441, -0.7503815947211101, 0.009617167478490507, -0.19917188351718915,-0.6302108385324532,-0.96441650390625,-0.2697906494140625,0.017120361328125
20220111-1122,2022-01-11 11:22:25Z,u01, 98,40,movements,el-ex, rt, d,75852.140428125, -1.7180263892848247, 0.3060760940057457, 2.8748702092288743, 0.3120405077934265, -0.42082762718200684, -0.6986305713653564, -0.9432074427604675, -0.301319420337677, 0.13988067209720612, 0.033783555030822754, 0.2208903431892395, -0.14978326857089996, -0.7549434853660466, 0.0008168613269325942, -0.20023991731467164,-0.6244707684833304,-0.897125244140625,-0.0764007568359375,0.0094451904296875
20220111-1122,2022-01-11 11:22:25Z,u01, 99,40,movements,el-ex, rt, d,75852.165370125, -1.7304486689912466, 0.3220840290115904, 2.880460803447222, -0.14741326868534088, -0.4652034342288971, -0.6385936141014099, -0.9365145564079285, -0.3165441155433655, 0.1508001685142517, 0.08522665500640869, 0.0654759407043457, -0.014630317687988281, -0.7585330178476613, -0.005267408257527972, -0.2043588112408334,-0.6187386925571428,-0.851287841796875,-0.251068115234375,0.13616943359375
20220111-1122,2022-01-11 11:22:25Z,u01, 100,40,movements,el-ex, rt, d,75852.190312125, -1.7406050631574788, 0.3385414022783127, 2.8729090519090583, -0.3258683383464813, -0.5007056593894958, -0.5684579014778137, -0.9296737313270569, -0.3321116268634796, 0.1594017893075943, -0.006971836090087891, -0.09681293368339539, 0.15401411056518555, -0.7613516369246075, -0.006676966906055626, -0.212735860672911,-0.6124073008295032,-0.983245849609375,-0.4768524169921875,0.299072265625
20220111-1122,2022-01-11 11:22:25Z,u01, 101,40,movements,el-ex, rt, d,75852.21525412501, -1.7508581396438676, 0.3529859527649116, 2.8770601754079506, 0.3501284420490265, -0.2827029526233673, -0.6476532816886902, -0.9231741428375244, -0.3457011878490448, 0.16804851591587067, -0.053342580795288086, 0.05073356628417969, -0.024371400475502014, -0.7641234298508346, -0.011817093709549698, -0.21681389501577236,-0.6074269769441762,-0.9765167236328125,-0.2949676513671875,0.1436767578125
20220111-1122,2022-01-11 11:22:25Z,u01, 102,40,movements,el-ex, rt, d,75852.240196125, -1.764718461326537, 0.36722196160700327, 2.8921087694382304, 0.3890440762042999, -0.40394720435142517, -0.649214506149292, -0.9158340692520142, -0.3590239882469177, 0.17986077070236206, 0.08313143253326416, 0.1497039496898651, -0.03972364962100983, -0.7677920974220893, -0.020632024417870043, -0.21761913335178631,-0.6022554204880992,-0.832366943359375,-0.222564697265625,0.1593780517578125
20220111-1122,2022-01-11 11:22:25Z,u01, 103,40,movements,el-ex, rt, d,75852.265138125, -1.7785534912299088, 0.38054837878161135, 2.9001946523396716, -0.010544703342020512, -0.44110703468322754, -0.5206605195999146, -0.9084957242012024, -0.3714296817779541, 0.19150984287261963, 0.025530457496643066, 0.015091121196746826, 0.00030878186225891113, -0.7713980402739791, -0.026457186894165874, -0.22029518577120122,-0.5964187453530616,-0.882965087890625,-0.3563385009765625,0.1918182373046875
20220111-1122,2022-01-11 11:22:25Z,u01, 104,40,movements,el-ex, rt, d,75852.290080125, -1.7900700820378148, 0.3929297537943325, 2.9011596452675925, -0.0773380845785141, -0.44630783796310425, -0.48328161239624023, -0.901671826839447, -0.3828965425491333, 0.20094387233257294, -0.007202744483947754, -0.0038375258445739746, 0.021483898162841797, -0.7743415686246177, -0.02944602019194148, -0.22477491613330686,-0.5907659658382749,-0.9153594970703125,-0.384979248046875,0.2327423095703125
20220111-1122,2022-01-11 11:22:25Z,u01, 105,40,movements,el-ex, rt, d,75852.31502212501, -1.8022100143622666, 0.40460472855752766, 2.9060126368083274, 0.2289678156375885, -0.3655239939689636, -0.5090974569320679, -0.894753634929657, -0.3936554491519928, 0.2108353227376938, -0.05631142854690552, 0.016305536031723022, 0.021708950400352478, -0.7773599818513379, -0.03360234083174718, -0.22789735373137077,-0.5853590579461085,-0.9510650634765625,-0.377349853515625,0.2325439453125
20220111-1122,2022-01-11 11:22:25Z,u01, 106,40,movements,el-ex, rt, d,75852.339964125, -1.8150764164150137, 0.41466561841984373, 2.9170661500694783, 0.31433454155921936, -0.3165166676044464, -0.4490230977535248, -0.8880789279937744, -0.402883917093277, 0.2213606834411621, -0.010450124740600586, 0.026159703731536865, -0.0004588663578033447, -0.7804586385709801, -0.03955571031919908, -0.22868399124010794,-0.580537127338044,-0.8823394775390625,-0.3953094482421875,0.217041015625
20220111-1122,2022-01-11 11:22:25Z,u01, 107,40,movements,el-ex, rt, d,75852.36490712501, -1.8259043301299136, 0.42317037364028215, 2.923973445278072, 0.09861990064382553, -0.32806214690208435, -0.32810908555984497, -0.8822824358940125, -0.4106532335281372, 0.23009054362773895, 0.026569664478302002, -0.10471236705780029, 0.0648164302110672, -0.7830338094780604, -0.04362713472971147, -0.23011631894743567,-0.5761954879565937,-0.855712890625,-0.5153656005859375,0.2949066162109375
20220111-1122,2022-01-11 11:22:25Z,u01, 108,40,movements,el-ex, rt, d,75852.389849125, -1.8346435708208244, 0.43024711971922613, 2.927602175638968, 0.04723760113120079, -0.2403918206691742, -0.27712512016296387, -0.8774104714393616, -0.417095422744751, 0.2370283007621765, -0.04196202754974365, -0.03364920616149902, 0.036684244871139526, -0.7850985191358594, -0.04620026921084852, -0.2319465059525636,-0.5724392658127169,-0.9263153076171875,-0.422515869140625,0.2744598388671875
20220111-1122,2022-01-11 11:22:25Z,u01, 109,40,movements,el-ex, rt, d,75852.414791125, -1.841911446162865, 0.436040195013796, 2.933226361410377, 0.18157470226287842, -0.15899643301963806, -0.2910919189453125, -0.8733222484588623, -0.42235350608825684, 0.24274781346321106, -0.023086071014404297, 0.055455803871154785, -0.06025227904319763, -0.7867280424119323, -0.04932438003633699, -0.2327111391211689,-0.5696243623396993,-0.8964080810546875,-0.3668975830078125,0.1824951171875
20220111-1122,2022-01-11 11:22:25Z,u01, 110,40,movements,el-ex, rt, d,75852.43973312501, -1.8480231912948009, 0.44140695211595354, 2.936859727994095, -0.0692741647362709, -0.21116988360881805, -0.18316148221492767, -0.8696295619010925, -0.4272119998931885, 0.24745680391788483, 0.028397083282470703, -0.055194735527038574, 0.015635639429092407, -0.7880731800202585, -0.05166300476621827, -0.23387313305079355,-0.5670759785684514,-0.847900390625,-0.5067596435546875,0.2707977294921875
20220111-1122,2022-01-11 11:22:25Z,u01, 111,40,movements,el-ex, rt, d,75852.46467512501, -1.8520055098428152, 0.44620762168292305, 2.9340562600374014, -0.15097595751285553, -0.21999160945415497, -0.14886823296546936, -0.8666568398475647, -0.4315475821495056, 0.250345915555954, -0.006557941436767578, -0.02171480655670166, 0.032506704330444336, -0.7889975720569259, -0.05153439548175215, -0.23659640730384818,-0.5646675000580945,-0.8732147216796875,-0.4532623291015625,0.2828521728515625
20220111-1122,2022-01-11 11:22:25Z,u01, 112,40,movements,el-ex, rt, d,75852.489617125, -1.8564185027992308, 0.45043950045563996, 2.9343488064428147, 0.10095196217298508, -0.10768064856529236, -0.1750408411026001, -0.8637834191322327, -0.43536123633384705, 0.25365114212036133, -0.05572640895843506, 0.07385000586509705, 0.03715130686759949, -0.7899874561689597, -0.05239643213172229, -0.2382407190624544,-0.5625085276505781,-0.92529296875,-0.3722991943359375,0.2932891845703125
20220111-1122,2022-01-11 11:22:25Z,u01, 113,40,movements,el-ex, rt, d,75852.514559125, -1.8599527699343126, 0.45366029084427295, 2.9390249595711166, 0.10161209851503372, -0.05385323613882065, -0.18300382792949677, -0.8615334033966064, -0.43825849890708923, 0.25630131363868713, -0.01430600881576538, -0.030811995267868042, 0.004410773515701294, -0.7906636508034471, -0.054787291914790315, -0.2382501631421529,-0.5613256425493564,-0.8758392333984375,-0.4690704345703125,0.260711669921875
20220111-1122,2022-01-11 11:22:25Z,u01, 114,40,movements,el-ex, rt, d,75852.53950112501, -1.8625819864867932, 0.457288748049393, 2.9419108498204447, 0.02101169154047966, -0.05850145220756531, -0.13845627009868622, -0.8593278527259827, -0.44151705503463745, 0.25810644030570984, 0.02224576473236084, -0.001842409372329712, -0.005923956632614136, -0.7910995688550787, -0.056698211435638635, -0.23889997737141733,-0.5602444446684895,-0.83038330078125,-0.43768310546875,0.2710418701171875
20220111-1122,2022-01-11 11:22:25Z,u01, 115,40,movements,el-ex, rt, d,75852.56444312501, -1.8641854717015, 0.45857688765970595, 2.942381659906579, -0.1093769446015358, -0.019593732431530952, -0.08993080258369446, -0.8583678007125854, -0.442672461271286, 0.25931933522224426, -0.00010716915130615234, -0.007736563682556152, 0.07219353318214417, -0.7914555639348089, -0.05707675108423388, -0.23930606153836118,-0.559529453652559,-0.8584747314453125,-0.450408935546875,0.331512451171875
20220111-1122,2022-01-11 11:22:25Z,u01, 116,40,movements,el-ex, rt, d,75852.589385125, -1.8636281675128823, 0.4593225905823492, 2.940420429476076, -0.07152806222438812, 0.013934466987848282, -0.08174711465835571, -0.8581957221031189, -0.4433410167694092, 0.2587455213069916, -0.02533400058746338, -0.017611801624298096, 0.04261589050292969, -0.7913092693563376, -0.056589725958563264, -0.24012382726754508,-0.5594353838829698,-0.8883209228515625,-0.439849853515625,0.29364013671875
20220111-1122,2022-01-11 11:22:25Z,u01, 117,40,movements,el-ex, rt, d,75852.614327125, -1.8632610176579194, 0.4618444920882852, 2.942055588014411, 0.14587533473968506, 0.051658615469932556, -0.0496683344244957, -0.85721755027771, -0.44560012221336365, 0.2581072747707367, -0.04045724868774414, 0.0430731475353241, -0.009464949369430542, -0.7910030909972188, -0.05803235055730155, -0.24061915993182098,-0.5595078731053464,-0.897674560546875,-0.40252685546875,0.2486419677734375
20220111-1122,2022-01-11 11:22:26Z,u01, 118,40,movements,el-ex, rt, d,75852.63926912501, -1.8652602260796387, 0.46230011014270356, 2.9451271047910406, -0.015627112239599228, 0.016539838165044785, 0.02605205774307251, -0.8565050959587097, -0.44600793719291687, 0.2597614824771881, -0.012330234050750732, -0.008734464645385742, 0.008061110973358154, -0.7914435230725334, -0.059142972712324215, -0.2399929263337209,-0.5590373034935514,-0.859130859375,-0.4679718017578125,0.262969970703125
20220111-1122,2022-01-11 11:22:26Z,u01, 119,40,movements,el-ex, rt, d,75852.66421112501, -1.8715930723163674, 0.4616177852668932, 2.94541142833751, -0.08879633247852325, -0.055512651801109314, 0.08381348848342896, -0.8551333546638489, -0.44539713859558105, 0.2652704417705536, -0.03901636600494385, -0.03154677152633667, 0.025241941213607788, -0.7932446768673527, -0.05829331555738271, -0.2398383314855078,-0.5566348882838141,-0.8941497802734375,-0.4769439697265625,0.2905120849609375
20220111-1122,2022-01-11 11:22:26Z,u01, 120,40,movements,el-ex, rt, d,75852.689153125, -1.8714550350823405, 0.45709041186462707, 2.942611979732966, -0.06321293860673904, -0.03707106038928032, 0.11791738867759705, -0.8570871949195862, -0.44133907556533813, 0.2657468616962433, -0.08354073762893677, -0.013662666082382202, 0.01577812433242798, -0.7935700380553473, -0.055857173766932444, -0.2388779448922639,-0.5568338310990482,-0.9385986328125,-0.4470062255859375,0.278411865234375
20220111-1122,2022-01-11 11:22:26Z,u01, 121,40,movements,el-ex, rt, d,75852.714095125, -1.8715312968052813, 0.4526784596356591, 2.940307806565524, 0.01631234399974346, -0.0877516120672226, 0.17100398242473602, -0.8589186668395996, -0.4373757839202881, 0.2663865089416504, -0.07421743869781494, -0.0404684841632843, -0.014555096626281738, -0.7939254458453133, -0.053625052967596676, -0.23782960387787322,-0.556995567362337,-0.933135986328125,-0.47784423828125,0.2518310546875
20220111-1122,2022-01-11 11:22:26Z,u01, 122,40,movements,el-ex, rt, d,75852.739038125, -1.8738225707619303, 0.4484879029566388, 2.940006659518805, 0.06179879978299141, -0.12235420197248459, 0.20127388834953308, -0.8600478768348694, -0.4336034655570984, 0.2688984274864197, -0.08112967014312744, -0.007573962211608887, -0.0016402900218963623, -0.7948245721233546, -0.05199147086316552, -0.23636528807850737,-0.5564912386969209,-0.9434967041015625,-0.4322509765625,0.2713623046875
20220111-1122,2022-01-11 11:22:26Z,u01, 123,40,movements,el-ex, rt, d,75852.763980125, -1.8762032965266264, 0.4433974753725888, 2.9381294405104343, -0.07658161222934723, -0.11907777935266495, 0.24955560266971588, -0.8614988327026367, -0.42901086807250977, 0.2716052532196045, -0.16889655590057373, -0.08113616704940796, 0.056260645389556885, -0.7958370510552882, -0.04945713904243526, -0.23499075896588645,-0.5558567292492541,-1.0303955078125,-0.5101470947265625,0.3278656005859375
20220111-1122,2022-01-11 11:22:26Z,u01, 124,40,movements,el-ex, rt, d,75852.78892212501, -1.8766978133520336, 0.437604928178274, 2.933446713839871, -0.06537895649671555, -0.09475499391555786, 0.2754855751991272, -0.8637195825576782, -0.42377129197120667, 0.2727750539779663, -0.19348549842834473, -0.11478757858276367, 0.02594655752182007, -0.7964219956281408, -0.045820568472970113, -0.2340748776186298,-0.5557170025319281,-1.0535888671875,-0.5272216796875,0.296234130859375
20220111-1122,2022-01-11 11:22:26Z,u01, 125,40,movements,el-ex, rt, d,75852.81386400001, -1.8785564166252777, 0.43120388599713444, 2.931383917230452, 0.0948767215013504, -0.11467710137367249, 0.25417304039001465, -0.8657786250114441, -0.41796478629112244, 0.27519598603248596, -0.21532171964645386, -0.10634240508079529, -0.009006083011627197, -0.7973447403921616, -0.04288771493130544, -0.2322237250098058,-0.555404500139074,-1.0811004638671875,-0.5243072509765625,0.2661895751953125
20220111-1122,2022-01-11 11:22:26Z,u01, 126,40,movements,el-ex, rt, d,75852.838806, -1.8809624497162054, 0.42523103231117954, 2.9318594163756497, 0.05184217542409897, -0.08486568182706833, 0.21730530261993408, -0.8674758672714233, -0.4125312566757202, 0.2780352830886841, -0.23736721277236938, -0.0993400514125824, 0.03863069415092468, -0.7983319295751392, -0.04103382539577838, -0.22983795311228236,-0.5551188134025151,-1.1041107177734375,-0.5272979736328125,0.3240203857421875
20220111-1122,2022-01-11 11:22:26Z,u01, 127,40,movements,el-ex, rt, d,75852.863748, -1.8819067209162488, 0.42075854158935166, 2.929634912472168, -0.0625646635890007, -0.09778966754674911, 0.16937273740768433, -0.868960976600647, -0.40845295786857605, 0.27941638231277466, -0.22927528619766235, -0.11593067646026611, 0.052462607622146606, -0.7988799885888218, -0.038716287016420436, -0.2287464448655247,-0.5549478062479584,-1.098236083984375,-0.524383544921875,0.331878662109375
20220111-1122,2022-01-11 11:22:26Z,u01, 128,40,movements,el-ex, rt, d,75852.88869, -1.8820817732013582, 0.41774377367307647, 2.927224728839869, 0.05914795398712158, -0.05714123696088791, 0.13988333940505981, -0.8700802326202393, -0.4056992828845978, 0.2799443304538727, -0.24701571464538574, -0.12413164973258972, 0.05245348811149597, -0.7991337594450862, -0.03684298828616389, -0.22825339094464486,-0.5549129253171092,-1.114501953125,-0.537322998046875,0.3241424560546875
20220111-1122,2022-01-11 11:22:26Z,u01, 129,40,movements,el-ex, rt, d,75852.91363200001, -1.8831614374579144, 0.4143869635903995, 2.9285477378598257, 0.049789343029260635, -0.040936172008514404, 0.0954226702451706, -0.87106853723526, -0.4026288688182831, 0.28130051493644714, -0.21398401260375977, -0.1029406487941742, 0.05701780319213867, -0.7995846583167261, -0.0362578017717462, -0.22660790578442241,-0.5549763531099532,-1.085052490234375,-0.5055694580078125,0.33831787109375
20220111-1122,2022-01-11 11:22:26Z,u01, 130,40,movements,el-ex, rt, d,75852.938574, -1.8839181156208042, 0.4115680965630668, 2.9281867294384543, 0.03580055758357048, -0.02244584448635578, 0.11292070895433426, -0.8719316124916077, -0.4000469744205475, 0.2823079824447632, -0.22129952907562256, -0.09207949042320251, 0.06655403971672058, -0.7999470160767929, -0.035196010158500435, -0.22563056088285818,-0.5549206192104463,-1.0984954833984375,-0.4830780029296875,0.3463897705078125
20220111-1122,2022-01-11 11:22:26Z,u01, 131,40,movements,el-ex, rt, d,75852.963516, -1.8840929904794077, 0.4085345869378155, 2.928920457199306, 0.08478091657161713, 0.015728503465652466, 0.10707806795835495, -0.873032808303833, -0.39726492762565613, 0.28283318877220154, -0.17999154329299927, -0.06561043858528137, 0.05199074745178223, -0.8001382266940177, -0.03457481516721511, -0.22425512292947222,-0.5552415345807562,-1.0530242919921875,-0.4628753662109375,0.3348236083984375
20220111-1122,2022-01-11 11:22:26Z,u01, 132,40,movements,el-ex, rt, d,75852.988458, -1.8839471921393587, 0.40591930081683847, 2.9290617900618163, -0.013485564850270748, 0.019267646595835686, 0.09904071688652039, -0.8740595579147339, -0.3948635160923004, 0.28302502632141113, -0.13622498512268066, -0.07220807671546936, 0.05016627907752991, -0.8002280507078114, -0.03387600696495069, -0.2232000262120909,-0.5555802605742186,-1.014129638671875,-0.45831298828125,0.3379058837890625
20220111-1122,2022-01-11 11:22:26Z,u01, 133,40,movements,el-ex, rt, d,75853.01340000001, -1.8826961465506493, 0.403129827389408, 2.929481907020015, 0.14169204235076904, 0.08184900134801865, 0.09897653013467789, -0.8754577040672302, -0.39229920506477356, 0.2822681665420532, -0.14735418558120728, -0.01186034083366394, 0.03287193179130554, -0.8000132555493888, -0.033359850783186595, -0.22198118946471135,-0.5564084253052317,-1.0228118896484375,-0.4041595458984375,0.3151397705078125
20220111-1122,2022-01-11 11:22:26Z,u01, 134,40,movements,el-ex, rt, d,75853.038342, -1.8813608879282924, 0.3996916698754118, 2.9314666127976436, 0.0017310045659542084, 0.06778711080551147, 0.11729016155004501, -0.8771130442619324, -0.38913434743881226, 0.28150951862335205, -0.0941089391708374, -0.020655721426010132, 0.0496523380279541, -0.7997792467996709, -0.03328536926328857, -0.2200736934096399,-0.5575060193394851,-0.9605255126953125,-0.4207305908203125,0.335784912109375
20220111-1122,2022-01-11 11:22:26Z,u01, 135,40,movements,el-ex, rt, d,75853.063284, -1.8787585848195254, 0.3978635208525575, 2.9273866131973243, -0.10455888509750366, 0.033714231103658676, 0.14355997741222382, -0.8785191774368286, -0.38744962215423584, 0.2794412672519684, -0.12128263711929321, -0.05374312400817871, 0.09195807576179504, -0.7992087725968547, -0.03140007651868143, -0.22046152642271716,-0.5582797791159493,-0.9998016357421875,-0.441192626953125,0.37139892578125
20220111-1122,2022-01-11 11:22:26Z,u01, 136,40,movements,el-ex, rt, d,75853.088226, -1.876377875949445, 0.39488828027184714, 2.927434488422891, 0.09675052762031555, 0.12385769933462143, 0.07735379785299301, -0.8802773952484131, -0.3847050666809082, 0.27769455313682556, -0.14563214778900146, 0.00392189621925354, 0.05346730351448059, -0.7986856040217292, -0.030798952671169055, -0.21925958833988107,-0.5595338963007452,-1.00848388671875,-0.3651275634765625,0.33837890625
20220111-1122,2022-01-11 11:22:26Z,u01, 137,40,movements,el-ex, rt, d,75853.11316800001, -1.87367756893562, 0.3937659684768249, 2.92574788267981, -0.25594910979270935, 0.0366942435503006, 0.032550837844610214, -0.8814356327056885, -0.3836688995361328, 0.2754451334476471, -0.09309756755828857, -0.026914656162261963, 0.12816548347473145, -0.7980082990702776, -0.030088453404341686, -0.219256727517795,-0.5605391612527124,-0.9745330810546875,-0.41058349609375,0.4036102294921875
20220111-1122,2022-01-11 11:22:26Z,u01, 138,40,movements,el-ex, rt, d,75853.13811100001, -1.8686458391915894, 0.3952009030994043, 2.9181349393268254, -0.14793279767036438, 0.18530841171741486, 0.023258468136191368, -0.882283091545105, -0.38499361276626587, 0.27084463834762573, -0.2133437991142273, -0.03311249613761902, 0.0967857837677002, -0.7966406408925244, -0.028035720256929464, -0.22187300653710515,-0.5615604909413547,-1.111602783203125,-0.4035491943359375,0.3332672119140625
20220111-1122,2022-01-11 11:22:26Z,u01, 139,40,movements,el-ex, rt, d,75853.16305300001, -1.8621382383780758, 0.3947424517254456, 2.9196833696524087, 0.16470207273960114, 0.3470839858055115, -0.02144082635641098, -0.8841957449913025, -0.384570449590683, 0.26514801383018494, -0.14896154403686523, -0.014019578695297241, 0.00453612208366394, -0.7948077034921799, -0.029235505337036283, -0.2211675274659609,-0.5643677150603535,-1.0331573486328125,-0.398590087890625,0.269683837890625
20220111-1122,2022-01-11 11:22:26Z,u01, 140,40,movements,el-ex, rt, d,75853.187995, -1.852878404753658, 0.39444489155348705, 2.9200783366485474, -0.13630346953868866, 0.4261923134326935, 0.03141726180911064, -0.8867229223251343, -0.3842957615852356, 0.25698110461235046, -0.11111027002334595, -0.015652328729629517, 0.034446895122528076, -0.792193717050756, -0.030325940180300714, -0.22080362739936982,-0.5681155060105076,-0.995697021484375,-0.3924407958984375,0.2847137451171875
20220111-1122,2022-01-11 11:22:26Z,u01, 141,40,movements,el-ex, rt, d,75853.212937, -1.8392786249943591, 0.3940641769911218, 2.9140953572471577, -0.1984044462442398, 0.4984981119632721, 0.1239800825715065, -0.8902769088745117, -0.3839442729949951, 0.24493731558322906, -0.08022803068161011, 0.011294037103652954, 0.04525473713874817, -0.7884206280514376, -0.029352509979408636, -0.22216195923388365,-0.5728661054630528,-0.9705047607421875,-0.372650146484375,0.290191650390625
20220111-1122,2022-01-11 11:22:26Z,u01, 142,40,movements,el-ex, rt, d,75853.23787900001, -1.8226832201826777, 0.3911601265219447, 2.9081916122260822, -0.17121869325637817, 0.6328216791152954, 0.20911481976509094, -0.8952949047088623, -0.3812611699104309, 0.23040665686130524, -0.051146745681762695, -0.04616802930831909, 0.056153759360313416, -0.7838494452911733, -0.027988902018752426, -0.22252239326078008,-0.5790341739787959,-0.928466796875,-0.4273223876953125,0.2661285400390625
20220111-1122,2022-01-11 11:22:26Z,u01, 143,40,movements,el-ex, rt, d,75853.26282100001, -1.8045115549287152, 0.38689120937812843, 2.903428569264838, -0.05643293261528015, 0.6776553392410278, 0.2257447987794876, -0.9009088277816772, -0.37731122970581055, 0.21447549760341644, 0.021376967430114746, 0.046210795640945435, -0.031018763780593872, -0.778792660028645, -0.026827946286804683, -0.22205280191568427,-0.5860502530950708,-0.8795318603515625,-0.3311004638671875,0.1834564208984375
20220111-1122,2022-01-11 11:22:26Z,u01, 144,40,movements,el-ex, rt, d,75853.287763, -1.7861230466681148, 0.3801709885296722, 2.903597180248868, 0.1492496281862259, 0.770094633102417, 0.30877864360809326, -0.9071568846702576, -0.3710792660713196, 0.19841112196445465, 0.04349410533905029, 0.040985822677612305, -0.061554670333862305, -0.7736189049204144, -0.026820718136926547, -0.21924306506318234,-0.5939083177545296,-0.848785400390625,-0.356414794921875,0.1438751220703125
20220111-1122,2022-01-11 11:22:26Z,u01, 145,40,movements,el-ex, rt, d,75853.312705, -1.7667504798549183, 0.37177806587880485, 2.901154775712813, -0.2687896490097046, 0.6921432614326477, 0.37584754824638367, -0.9138527512550354, -0.36327260732650757, 0.18140101432800293, 0.0748940110206604, -0.06565198302268982, 0.03774605691432953, -0.7681527283257175, -0.02533564602612337, -0.21660366350179877,-0.6019820593061307,-0.838958740234375,-0.428924560546875,0.219146728515625
20220111-1122,2022-01-11 11:22:26Z,u01, 146,40,movements,el-ex, rt, d,75853.33764700001, -1.7461947775112105, 0.36221541974646365, 2.893045129911756, -0.03383154794573784, 0.7804734706878662, 0.49494388699531555, -0.9207669496536255, -0.35434678196907043, 0.16317790746688843, 0.019247114658355713, 0.01520487666130066, -0.00201416015625, -0.7623197354613326, -0.021390989305879515, -0.21529760801349027,-0.6099657159742494,-0.9002685546875,-0.31103515625,0.138580322265625
20220111-1122,2022-01-11 11:22:26Z,u01, 147,40,movements,el-ex, rt, d,75853.36258900001, -1.726765527813589, 0.3485700247167105, 2.893960997769227, 0.13366663455963135, 0.7570986151695251, 0.5588477849960327, -0.9284537434577942, -0.3415541648864746, 0.14599595963954926, 0.14665430784225464, 0.02966451644897461, -0.0674891471862793, -0.7567180719526295, -0.01938401054063671, -0.20982889149567127,-0.6188489500915106,-0.78179931640625,-0.3118896484375,0.0785064697265625
20220111-1122,2022-01-11 11:22:26Z,u01, 148,40,movements,el-ex, rt, d,75853.387531, -1.708242133064572, 0.33494374626315476, 2.8884311023559763, -0.3436208963394165, 0.6076043248176575, 0.5843591094017029, -0.9355223178863525, -0.3287160396575928, 0.12939949333667755, 0.156683087348938, -0.017704308032989502, 0.0032761096954345703, -0.7513200000401977, -0.014764863539311224, -0.20644429265506659,-0.6266427984123348,-0.80859375,-0.3577117919921875,0.1567230224609375
20220111-1122,2022-01-11 11:22:26Z,u01, 149,40,movements,el-ex, rt, d,75853.412473, -1.6889897012116524, 0.3203121148395753, 2.880300772704217, 0.03492371365427971, 0.7259660959243774, 0.673060417175293, -0.9425156712532043, -0.31486281752586365, 0.11192075908184052, 0.03068065643310547, -0.008730441331863403, 0.053133994340896606, -0.745574950005806, -0.008852909327343172, -0.2036204650279186,-0.6344908361530499,-0.911834716796875,-0.3235931396484375,0.1650543212890625
20220111-1122,2022-01-11 11:22:26Z,u01, 150,40,movements,el-ex, rt, d,75853.43741500001, -1.6712128401410384, 0.3026851176702674, 2.8827995764706333, 0.20109224319458008, 0.736362099647522, 0.7094041705131531, -0.949731171131134, -0.2980843186378479, 0.0956905409693718, 0.09183621406555176, 0.002658933401107788, 0.016126148402690887, -0.7401440246093749, -0.005664944794195825, -0.19644703789334375,-0.6430889360002683,-0.838226318359375,-0.299041748046875,0.0896148681640625
20220111-1122,2022-01-11 11:22:26Z,u01, 151,40,movements,el-ex, rt, d,75853.46235700001, -1.6532164201451198, 0.28491745665068846, 2.8828932341516063, -0.0522824302315712, 0.6866098642349243, 0.7373784780502319, -0.9564270973205566, -0.2810782492160797, 0.07900779694318771, 0.19043594598770142, 0.001552492380142212, -0.07261396944522858, -0.7345078782813658, -0.001440249229125834, -0.19006043027499545,-0.6514392924293572,-0.7659912109375,-0.2795257568359375,0.0063934326171875
20220111-1122,2022-01-11 11:22:26Z,u01, 152,40,movements,el-ex, rt, d,75853.487299, -1.6345896953092687, 0.26717863334475966, 2.87702394275065, -0.289612352848053, 0.6564582586288452, 0.7449380159378052, -0.9625579714775085, -0.2640112340450287, 0.06148824840784073, 0.17015355825424194, -0.0014154613018035889, -0.01072191447019577, -0.7285046978526397, 0.005002956262719571, -0.18572890964424985,-0.6593640278249816,-0.794586181640625,-0.26605224609375,0.0699615478515625
20220111-1122,2022-01-11 11:22:26Z,u01, 153,40,movements,el-ex, rt, d,75853.512241, -1.6164536690999223, 0.24833468370077416, 2.8693406566973567, -0.23528459668159485, 0.6593928933143616, 0.7627109289169312, -0.9683130979537964, -0.24579006433486938, 0.04424135014414787, 0.11694884300231934, -0.041868656873703, 0.026163101196289062, -0.7224691823376919, 0.01260774766367695, -0.18174342490134937,-0.6669698793199323,-0.8513641357421875,-0.28765869140625,0.070404052734375
20220111-1122,2022-01-11 11:22:26Z,u01, 154,40,movements,el-ex, rt, d,75853.537184, -1.5984826016494986, 0.2298272947869405, 2.8645023437823864, -0.1299525499343872, 0.6468300223350525, 0.7237021327018738, -0.9733328223228455, -0.2278093695640564, 0.02695484831929207, 0.17259716987609863, 0.014247328042984009, -0.0403822660446167, -0.7163171560674647, 0.01916130940469085, -0.1770614226750164,-0.6746643994864898,-0.7844390869140625,-0.194244384765625,-0.0064849853515625
20220111-1122,2022-01-11 11:22:26Z,u01, 155,40,movements,el-ex, rt, d,75853.562126, -1.5825927275727556, 0.21159944131990424, 2.8616176072802517, -0.08623214066028595, 0.5986751914024353, 0.7262206077575684, -0.9776283502578735, -0.2100239396095276, 0.011533030308783054, 0.15493535995483398, -0.0683269053697586, 0.002673267386853695, -0.710726583186304, 0.025184107235807163, -0.1719076744719698,-0.6816753972350411,-0.82269287109375,-0.278350830078125,0.0142059326171875
20220111-1122,2022-01-11 11:22:26Z,u01, 156,40,movements,el-ex, rt, d,75853.58706800001, -1.567402457476221, 0.19407943097402364, 2.858243408556993, -0.21134819090366364, 0.5367938876152039, 0.7049833536148071, -0.9812201261520386, -0.192863330245018, -0.0033301457297056913, 0.13425040245056152, 0.015220493078231812, -0.010600745677947998, -0.7052356173003125, 0.03126741454118115, -0.16725127862865902,-0.6882530455194183,-0.841156005859375,-0.159393310546875,0.014190673828125
20220111-1122,2022-01-11 11:22:26Z,u01, 157,40,movements,el-ex, rt, d,75853.61201000001, -1.5532718207952865, 0.17659453944699208, 2.8522428191675573, -0.27707692980766296, 0.5149691104888916, 0.7226226925849915, -0.9842966794967651, -0.1756781041622162, -0.01725107803940773, 0.11785668134689331, -0.020214229822158813, 0.04847097396850586, -0.699927840172761, 0.03841196766502203, -0.16359291915676066,-0.6941635574589557,-0.8664398193359375,-0.195892333984375,0.031219482421875
20220111-1122,2022-01-11 11:22:27Z,u01, 158,40,movements,el-ex, rt, d,75853.636952, -1.5399922357918419, 0.1593861669625169, 2.8442575025254095, -0.36841481924057007, 0.42051613330841064, 0.6650752425193787, -0.9868565201759338, -0.15871217846870422, -0.030408836901187897, 0.12659651041030884, -0.015863627195358276, 0.012922650203108788, -0.6947340232979242, 0.04626249578313424, -0.16080715801391793,-0.6995323394592572,-0.856414794921875,-0.1624755859375,-0.023223876953125
20220111-1122,2022-01-11 11:22:27Z,u01, 159,40,movements,el-ex, rt, d,75853.661894, -1.5294134907992534, 0.1433201649991193, 2.836572509247416, -0.3189364969730377, 0.3316837549209595, 0.6345356702804565, -0.9888999462127686, -0.1428300142288208, -0.04094686359167099, 0.11512058973312378, 0.039970532059669495, 0.01656365767121315, -0.6903821493064375, 0.05384288976277185, -0.1583358859205951,-0.7038489095955835,-0.873779296875,-0.1028594970703125,-0.024383544921875
20220111-1122,2022-01-11 11:22:27Z,u01, 160,40,movements,el-ex, rt, d,75853.68683600001, -1.520139974967516, 0.12827146136965412, 2.831989464856513, -0.2074371874332428, 0.3299536108970642, 0.5490398406982422, -0.9905125498771667, -0.127920001745224, -0.05021871253848076, 0.09779679775238037, 0.035985782742500305, -0.0029578283429145813, -0.6864962537247651, 0.060112701448641004, -0.1551504380610771,-0.7078403578810266,-0.8917236328125,-0.0760650634765625,-0.0341949462890625
20220111-1122,2022-01-11 11:22:27Z,u01, 161,40,movements,el-ex, rt, d,75853.71177800001, -1.5118303994838822, 0.11471442160915679, 2.8260902337350826, -0.34097689390182495, 0.28101903200149536, 0.49313655495643616, -0.9917009472846985, -0.11446299403905869, -0.05854443088173866, 0.06341725587844849, 0.005271069705486298, 0.035656582564115524, -0.6828763868159221, 0.06638993899407691, -0.1529578693497749,-0.7112496570243765,-0.92828369140625,-0.10919189453125,-0.02288818359375
20220111-1122,2022-01-11 11:22:27Z,u01, 162,40,movements,el-ex, rt, d,75853.73672, -1.5055762879719574, 0.10174205557558486, 2.819317580823505, -0.26697614789009094, 0.13083818554878235, 0.4973495602607727, -0.9927136898040771, -0.1015666201710701, -0.0648367777466774, 0.13291138410568237, 0.037266090512275696, -0.05686699599027634, -0.6799002366519673, 0.07291966484706164, -0.1512500836628623,-0.7138219760847153,-0.841278076171875,-0.06768798828125,-0.12255859375
20220111-1122,2022-01-11 11:22:27Z,u01, 163,40,movements,el-ex, rt, d,75853.761662, -1.501969709707917, 0.09010624362781416, 2.8102260108452275, -0.5642805099487305, 0.08760036528110504, 0.40496522188186646, -0.9935852289199829, -0.08998436480760574, -0.0684932991862297, 0.07358700037002563, -0.03582435101270676, 0.07111812382936478, -0.6777617587575918, 0.07995217469834909, -0.15075281521147144,-0.7152064622395726,-0.9199981689453125,-0.1258087158203125,0.00262451171875
20220111-1122,2022-01-11 11:22:27Z,u01, 164,40,movements,el-ex, rt, d,75853.78660400001, -1.4967002767600304, 0.08133024942521815, 2.800659561611331, -0.04560258984565735, 0.31063807010650635, 0.2368452548980713, -0.9939597845077515, -0.08124061673879623, -0.07378356903791428, -0.02316063642501831, 0.028384126722812653, 0.07027442008256912, -0.675067859541776, 0.08597440779197851, -0.15147435215785543,-0.7169012196263713,-1.008575439453125,-0.00482177734375,-0.0491485595703125
20220111-1122,2022-01-11 11:22:27Z,u01, 165,40,movements,el-ex, rt, d,75853.81154600001, -1.4886432184269323, 0.07907416149312547, 2.80646874456986, 0.3192189633846283, 0.2600194215774536, 0.060654573142528534, -0.9935133457183838, -0.07899178564548492, -0.08180432766675949, 0.2085247039794922, 0.17814335227012634, -0.12222064286470413, -0.6723113734453732, 0.08423332381321919, -0.14898132222160904,-0.7202131340738077,-0.7849884033203125,0.099151611328125,-0.2040252685546875
20220111-1122,2022-01-11 11:22:27Z,u01, 166,40,movements,el-ex, rt, d,75853.83648825, -1.4837898741040147, 0.07814085453652879, 2.808595599841994, -0.15299732983112335, 0.16880986094474792, 0.0762934535741806, -0.9931775331497192, -0.07806135714054108, -0.08663157373666763, 0.11742973327636719, -0.04899859428405762, -0.0156325101852417, -0.67060573940525, 0.08349944333240011, -0.14810909074780804,-0.7220662213880349,-0.8939208984375,-0.140960693359375,-0.0851898193359375
20220111-1122,2022-01-11 11:22:27Z,u01, 167,40,movements,el-ex, rt, d,75853.86143025, -1.4795513143967287, 0.07675820065584339, 2.8066607468666986, 0.041789211332798004, 0.14096571505069733, -0.0009512645192444324, -0.9929080009460449, -0.07668285071849823, -0.09085016697645187, 0.10098588466644287, -0.014442652463912964, 0.03411829471588135, -0.6689259253914577, 0.08433872777296375, -0.14852968957611085,-0.7234391289052204,-0.8919219970703125,-0.09112548828125,-0.056732177734375
20220111-1122,2022-01-11 11:22:27Z,u01, 168,40,movements,el-ex, rt, d,75853.88637225001, -1.4771441398733385, 0.07787418687235036, 2.8092992580520297, 0.15597876906394958, 0.04061141610145569, -0.0756332278251648, -0.9926004409790039, -0.07779549807310104, -0.0932319313287735, 0.1219797134399414, -0.010018870234489441, -0.008894786238670349, -0.6682190420607312, 0.0828694564841096, -0.14804302943386805,-0.7243612235187287,-0.84832763671875,-0.0659027099609375,-0.1202850341796875
20220111-1122,2022-01-11 11:22:27Z,u01, 169,40,movements,el-ex, rt, d,75853.91131425, -1.4788224631420337, 0.08111331173079392, 2.812336972550999, 0.054993126541376114, -0.1374366730451584, -0.15206602215766907, -0.9924995303153992, -0.08102439343929291, -0.09154228866100311, 0.16528987884521484, 0.044387996196746826, -0.012430787086486816, -0.6691051140902253, 0.08079110009678814, -0.14794190897298043,-0.7237986633236595,-0.82720947265625,-0.0366363525390625,-0.103973388671875
20220111-1122,2022-01-11 11:22:27Z,u01, 170,40,movements,el-ex, rt, d,75853.93625625, -1.484012553969641, 0.08540343932667104, 2.8111691747052094, -0.07054528594017029, -0.3008928596973419, -0.21844543516635895, -0.9926057457923889, -0.08529965579509735, -0.08635897934436798, 0.18549209833145142, 0.03219904005527496, -0.022542700171470642, -0.671133951102939, 0.07999830360274857, -0.14957107859093577,-0.7216702981760306,-0.80096435546875,-0.0548553466796875,-0.117919921875
20220111-1122,2022-01-11 11:22:27Z,u01, 171,40,movements,el-ex, rt, d,75853.96119925, -1.4931716755146587, 0.09253502743858928, 2.810177299882981, 0.07646885514259338, -0.4089217185974121, -0.35074183344841003, -0.9927233457565308, -0.09240302443504333, -0.07721495628356934, 0.1363237500190735, 0.008876420557498932, -0.06516443938016891, -0.6747168254268601, 0.07842020782536446, -0.15192643834638425,-0.7180013052641474,-0.8563995361328125,-0.083526611328125,-0.1423797607421875
20220111-1122,2022-01-11 11:22:27Z,u01, 172,40,movements,el-ex, rt, d,75853.98614125, -1.5048735028020406, 0.10265833966783143, 2.811672455037319, -0.011660100892186165, -0.5432460308074951, -0.465085506439209, -0.9925746917724609, -0.10247811675071716, -0.06552828103303909, 0.1535547971725464, -0.020370393991470337, -0.03034234046936035, -0.6794049318722377, 0.0751318779459813, -0.1543097960065664,-0.7134092477973578,-0.851470947265625,-0.1287994384765625,-0.0742645263671875
20220111-1122,2022-01-11 11:22:27Z,u01, 173,40,movements,el-ex, rt, d,75854.01108325, -1.5182785543636872, 0.11445900088806012, 2.808028318583289, -0.10154738277196884, -0.5491244792938232, -0.4915536046028137, -0.9920872449874878, -0.11420924961566925, -0.052150167524814606, 0.09630453586578369, 0.10673241317272186, 0.024471037089824677, -0.6845236102174775, 0.07315971272710775, -0.15905446068564,-0.7076560138635074,-0.895782470703125,-0.007476806640625,-0.027679443359375
20220111-1122,2022-01-11 11:22:27Z,u01, 174,40,movements,el-ex, rt, d,75854.03602525001, -1.532841763266959, 0.1264545789544485, 2.8094506036763303, 0.23606307804584503, -0.5768417119979858, -0.4693640172481537, -0.9913008213043213, -0.12611782550811768, -0.0376424677670002, 0.09728837013244629, 0.11856472492218018, -0.05900632590055466, -0.6901769958934325, 0.0695304324088511, -0.16206991086120576,-0.7018223114419652,-0.9103240966796875,-0.0431671142578125,-0.1095733642578125
20220111-1122,2022-01-11 11:22:27Z,u01, 175,40,movements,el-ex, rt, d,75854.06096725, -1.548009641107369, 0.13899457083163397, 2.8146595959229312, 0.1706596463918686, -0.6018435955047607, -0.5285717844963074, -0.9900988936424255, -0.13854745030403137, -0.022564977407455444, 0.06936818361282349, -0.017092227935791016, -0.056231021881103516, -0.6961029180698859, 0.06448440356894225, -0.16398964631926616,-0.6959813960365242,-0.9207305908203125,-0.1556396484375,-0.07879638671875
20220111-1122,2022-01-11 11:22:27Z,u01, 176,40,movements,el-ex, rt, d,75854.08590925, -1.5652152296282729, 0.15353069536391326, 2.818270533815948, 0.11458970606327057, -0.6933302879333496, -0.647252082824707, -0.988222062587738, -0.15292824804782867, -0.005515420809388161, 0.07699757814407349, -0.021968036890029907, -0.05875420570373535, -0.7026400145232737, 0.059492013560678014, -0.16716681879942602,-0.6890668496691015,-0.9258270263671875,-0.171112060546875,-0.0462646484375
20220111-1122,2022-01-11 11:22:27Z,u01, 177,40,movements,el-ex, rt, d,75854.11085125, -1.5823692401950142, 0.1703768107911155, 2.819038706346418, -0.006840744987130165, -0.6875888705253601, -0.6722244024276733, -0.9854552149772644, -0.1695537120103836, 0.01140509732067585, 0.06814241409301758, 0.06619065999984741, 0.002801179885864258, -0.709017051452004, 0.05474823454685945, -0.17220440038826046,-0.681647518091766,-0.9173126220703125,-0.103363037109375,0.0142059326171875
20220111-1122,2022-01-11 11:22:27Z,u01, 178,40,movements,el-ex, rt, d,75854.13579325001, -1.5987821057711025, 0.18711807668152702, 2.821557616085425, 0.16869835555553436, -0.5904388427734375, -0.6697084307670593, -0.9821596741676331, -0.18602804839611053, 0.027493681758642197, 0.06084930896759033, 0.03945209085941315, -0.013333205133676529, -0.7150544769662706, 0.04943618103827324, -0.1767158474816754,-0.674555160574021,-0.913970947265625,-0.1511077880859375,0.019622802734375
20220111-1122,2022-01-11 11:22:27Z,u01, 179,40,movements,el-ex, rt, d,75854.16073525, -1.6149688996911533, 0.20303910635799927, 2.827398104758913, 0.17131291329860687, -0.5950389504432678, -0.6524399518966675, -0.9785029292106628, -0.20164693892002106, 0.04325112700462341, 0.05424755811691284, -0.028684526681900024, 0.006996389478445053, -0.7209395607097575, 0.043263298107375225, -0.1799264933183271,-0.667833028533666,-0.92425537109375,-0.2303314208984375,0.0502471923828125
20220111-1122,2022-01-11 11:22:27Z,u01, 180,40,movements,el-ex, rt, d,75854.18567725, -1.6305204411892469, 0.21939477829483978, 2.8303568577925273, 0.02205914631485939, -0.57622230052948, -0.6590791344642639, -0.9742891192436218, -0.21763895452022552, 0.05825784057378769, 0.007965326309204102, 0.03821083903312683, 0.03666745871305466, -0.7264202488109128, 0.03798081013129623, -0.18436114747920307,-0.6609705301400011,-0.97503662109375,-0.149139404296875,0.0962982177734375
20220111-1122,2022-01-11 11:22:27Z,u01, 181,40,movements,el-ex, rt, d,75854.21061925, -1.6451050260327746, 0.2354167844849009, 2.83502422849825, 0.26378053426742554, -0.4646364450454712, -0.6703193187713623, -0.9697338938713074, -0.2332482933998108, 0.07219259440898895, -0.03144115209579468, 0.12141662836074829, -0.04162883758544922, -0.731479151630009, 0.03216436543414569, -0.1882191144390275,-0.6545818884728267,-1.0011749267578125,-0.1118316650390625,0.0305633544921875
20220111-1122,2022-01-11 11:22:27Z,u01, 182,40,movements,el-ex, rt, d,75854.23556125001, -1.6588293578026045, 0.2517341400088428, 2.8441239755066436, 0.24190157651901245, -0.5010166168212891, -0.6855900287628174, -0.9647316336631775, -0.24908381700515747, 0.08514832705259323, 0.07004773616790771, 0.11779719591140747, -0.07594692707061768, -0.7361857884028582, 0.02458960410179084, -0.1908442652881838,-0.6488485025685393,-0.8760986328125,-0.167083740234375,0.03680419921875
20220111-1122,2022-01-11 11:22:27Z,u01, 183,40,movements,el-ex, rt, d,75854.26050325, -1.6735645669047323, 0.26860180063482697, 2.8468443324163, -0.13864411413669586, -0.6221309304237366, -0.6566300988197327, -0.9590563774108887, -0.26538363099098206, 0.09890898317098618, -0.010517776012420654, -0.08205905556678772, 0.09527470171451569, -0.7409999750139786, 0.01932691442000517, -0.19581682257288374,-0.6420292494887536,-0.969573974609375,-0.347442626953125,0.194183349609375
20220111-1122,2022-01-11 11:22:27Z,u01, 184,40,movements,el-ex, rt, d,75854.28544525, -1.6868123923263494, 0.2839600795984994, 2.846678611981734, 0.02843092381954193, -0.40870165824890137, -0.5694600343704224, -0.9535005688667297, -0.2801593244075775, 0.11112038791179657, -0.16196274757385254, -0.07241031527519226, 0.08054566383361816, -0.7451965302643226, 0.015566755342136807, -0.20125332264599233,-0.6355604404274635,-1.11114501953125,-0.2885284423828125,0.17205810546875
20220111-1122,2022-01-11 11:22:27Z,u01, 185,40,movements,el-ex, rt, d,75854.31038725, -1.6988805496680712, 0.2969447130511685, 2.8537015918892954, 0.27031636238098145, -0.4460415840148926, -0.5628478527069092, -0.948401927947998, -0.29260000586509705, 0.12214399874210358, 0.09896039962768555, 0.18539172410964966, -0.060757532715797424, -0.748982617714798, 0.009850826008515223, -0.20362347398004416,-0.6304486720220839,-0.8494415283203125,-0.107208251953125,0.0613861083984375
20220111-1122,2022-01-11 11:22:27Z,u01, 186,40,movements,el-ex, rt, d,75854.33532925001, -1.7137288668385855, 0.31120582369531613, 2.8606645363892786, 0.046700045466423035, -0.5661733746528625, -0.6476198434829712, -0.9422575235366821, -0.30620676279067993, 0.13560397922992706, 0.14698463678359985, 0.10924628376960754, -0.07095205783843994, -0.7535154600766424, 0.004054324326651815, -0.20654361166229995,-0.6241296893325641,-0.808868408203125,-0.2266998291015625,0.082244873046875
20220111-1122,2022-01-11 11:22:27Z,u01, 187,40,movements,el-ex, rt, d,75854.36027125, -1.7279726010865781, 0.3275389924745112, 2.8596725438097326, -0.2493298202753067, -0.5716156959533691, -0.6073175072669983, -0.9351657032966614, -0.3217138350009918, 0.148208349943161, 0.007934808731079102, -0.025744080543518066, 0.1587684154510498, -0.757696402033328, 0.0005783454820365019, -0.21276823424563035,-0.6169486976159899,-0.9272308349609375,-0.3474578857421875,0.306976318359375
20220111-1122,2022-01-11 11:22:27Z,u01, 188,40,movements,el-ex, rt, d,75854.38521325, -1.7409901424513359, 0.3416510205333033, 2.8601665916886976, 0.05700940638780594, -0.45818567276000977, -0.5213894844055176, -0.9285900592803955, -0.33504313230514526, 0.15958410501480103, -0.06361281871795654, -0.08382594585418701, 0.1013721227645874, -0.7614356608251144, -0.0027903969167460962, -0.21777002828582426,-0.6105607076028311,-0.987548828125,-0.396697998046875,0.230865478515625
20220111-1122,2022-01-11 11:22:27Z,u01, 189,40,movements,el-ex, rt, d,75854.41015625, -1.7548249945268695, 0.3534365787632082, 2.867681151005122, 0.3169248700141907, -0.48530784249305725, -0.534369945526123, -0.9223470687866211, -0.34612399339675903, 0.1716807633638382, 0.09466451406478882, 0.07434973120689392, -0.08273698389530182, -0.7653608955389396, -0.007942508245602498, -0.21984147572267287,-0.604838347421432,-0.8276824951171875,-0.2717742919921875,0.0889434814453125
20220111-1122,2022-01-11 11:22:27Z,u01, 190,40,movements,el-ex, rt, d,75854.43509825, -1.7714692704953818, 0.3654138946270164, 2.8779433677707282, 0.2061367630958557, -0.5526552796363831, -0.5385227799415588, -0.9152336120605469, -0.3573358952999115, 0.18616832792758942, 0.10737234354019165, 0.06508427858352661, -0.058268800377845764, -0.7699946655929546, -0.01387017994304135, -0.22126056552030238,-0.5982972986668682,-0.8289794921875,-0.315643310546875,0.14111328125
20220111-1122,2022-01-11 11:22:27Z,u01, 191,40,movements,el-ex, rt, d,75854.46004025001, -1.7859133144850885, 0.377071589210601, 2.882231772191392, -0.08601295948028564, -0.49062690138816833, -0.42077410221099854, -0.9083175659179688, -0.3681993782520294, 0.19846537709236145, -0.0034713149070739746, 0.005742132663726807, 0.0722106397151947, -0.7739010436974348, -0.01760283966556625, -0.22442109393813184,-0.5919480627737002,-0.9117889404296875,-0.362457275390625,0.2706756591796875
20220111-1122,2022-01-11 11:22:27Z,u01, 192,40,movements,el-ex, rt, d,75854.48498225001, -1.7981788737685727, 0.385771990260247, 2.883084272582174, 0.02654157765209675, -0.4558246433734894, -0.3234056532382965, -0.9026598930358887, -0.3762744963169098, 0.20886114239692688, -0.030537188053131104, -0.0925670862197876, 0.09254609048366547, -0.7772123119213911, -0.019276763719100254, -0.2275239116999734,-0.5863466917689274,-0.93695068359375,-0.4733734130859375,0.2731475830078125
20220111-1122,2022-01-11 11:22:27Z,u01, 193,40,movements,el-ex, rt, d,75854.50992425, -1.8102280981790198, 0.393149005004228, 2.8859166326725245, 0.10531571507453918, -0.4385488033294678, -0.29255223274230957, -0.8973568081855774, -0.3830990791320801, 0.2190578281879425, 0.019213318824768066, 0.014858603477478027, -0.010759681463241577, -0.7804327275819035, -0.021299592134068124, -0.22957870458347307,-0.5811754321231986,-0.878143310546875,-0.3682403564453125,0.2082977294921875
20220111-1122,2022-01-11 11:22:27Z,u01, 194,40,movements,el-ex, rt, d,75854.53486625, -1.8236842459445899, 0.3986031762394388, 2.892938737855355, 0.1793079525232315, -0.41637125611305237, -0.2614578604698181, -0.8922914862632751, -0.38813140988349915, 0.23058633506298065, 0.027545452117919922, 0.0007565319538116455, -0.047419458627700806, -0.7840333158869585, -0.024185295888433544, -0.2297503295282686,-0.5761264551330667,-0.8743438720703125,-0.3957977294921875,0.1875152587890625
20220111-1122,2022-01-11 11:22:27Z,u01, 195,40,movements,el-ex, rt, d,75854.55980825001, -1.8342926392239025, 0.40388668369902053, 2.895900952925169, -0.07201509177684784, -0.3468582332134247, -0.2064516246318817, -0.8878029584884644, -0.39299526810646057, 0.23950152099132538, -0.050719499588012695, -0.05907699465751648, 0.07457044720649719, -0.7868214080268017, -0.02574558096846319, -0.23102842395635548,-0.5717300589616873,-0.9385223388671875,-0.4520721435546875,0.3140716552734375
20220111-1122,2022-01-11 11:22:27Z,u01, 196,40,movements,el-ex, rt, d,75854.58475025001, -1.841341287239592, 0.4083357512969782, 2.89535423921922, 0.0026129772886633873, -0.23774337768554688, -0.12688349187374115, -0.8843992948532104, -0.39708244800567627, 0.24528364837169647, -0.09022557735443115, -0.053280800580978394, 0.05922117829322815, -0.788645846631949, -0.026068248684262718, -0.23296113491489243,-0.5684078921972755,-0.966278076171875,-0.437530517578125,0.284088134765625
20220111-1122,2022-01-11 11:22:27Z,u01, 197,40,movements,el-ex, rt, d,75854.60969225, -1.8483121450787015, 0.41038498177273847, 2.898578137894038, 0.13856002688407898, -0.22552692890167236, -0.09522037208080292, -0.881883442401886, -0.3989623785018921, 0.2512191832065582, -0.008985757827758789, -0.020929068326950073, -0.016920089721679688, -0.790488728095653, -0.027150682082998923, -0.23291804301137786,-0.5658089546634573,-0.890869140625,-0.419891357421875,0.2342987060546875
20220111-1122,2022-01-11 11:22:28Z,u01, 198,40,movements,el-ex, rt, d,75854.63463425, -1.8542064106512266, 0.41172574597886286, 2.90044384810567, -0.07708285003900528, -0.1787259876728058, -0.05332072824239731, -0.8798729181289673, -0.40019145607948303, 0.25626301765441895, -0.012979865074157715, -0.05909815430641174, -0.026495695114135742, -0.7920665033912093, -0.027607249712020998, -0.23298255900538295,-0.5635492452454157,-0.8938751220703125,-0.4629364013671875,0.2409210205078125
20220111-1122,2022-01-11 11:22:28Z,u01, 199,40,movements,el-ex, rt, d,75854.65957625001, -1.856081613479311, 0.41406602363855344, 2.8961348384118626, -0.1906769871711731, -0.10521809011697769, -0.04010972008109093, -0.8784897327423096, -0.4023350477218628, 0.257648229598999, -0.042271435260772705, -0.038750797510147095, 0.06832563877105713, -0.7925452003080058, -0.026385912554293012, -0.2351126172380228,-0.5620481182180255,-0.9207611083984375,-0.4410858154296875,0.3259735107421875
20220111-1122,2022-01-11 11:22:28Z,u01, 200,40,movements,el-ex, rt, d,75854.68451825001, -1.856004540156558, 0.41588731465450773, 2.8930365615901144, -0.04708763211965561, -0.006575467996299267, -0.0199429988861084, -0.8778050541877747, -0.40400177240371704, 0.2573739290237427, -0.07274127006530762, 0.0020852088928222656, 0.08230233192443848, -0.792480699485446, -0.025715866487618533, -0.23667588406913667,-0.56151379104092,-0.9536285400390625,-0.4083251953125,0.3328094482421875
20220111-1122,2022-01-11 11:22:28Z,u01, 201,40,movements,el-ex, rt, d,75854.70946025, -1.855113267195238, 0.4159412165859386, 2.8933610586222116, 0.033189427107572556, 0.05479534715414047, 0.0324670784175396, -0.8780131936073303, -0.4040510654449463, 0.25658535957336426, -0.04906511306762695, -0.035234272480010986, 0.0039435625076293945, -0.7922237317089732, -0.025966117875779293, -0.23659376050923586,-0.5618993714600136,-0.9270782470703125,-0.4392852783203125,0.260528564453125
20220111-1122,2022-01-11 11:22:28Z,u01, 202,40,movements,el-ex, rt, d,75854.73440225, -1.8535079566923756, 0.4160926533329041, 2.8913969660525285, -0.16351671516895294, 0.033397115767002106, 0.026728767901659012, -0.8783652186393738, -0.4041895866394043, 0.2551584839820862, -0.012595534324645996, -0.01803639531135559, -0.019760727882385254, -0.7917909137303499, -0.025424138959632026, -0.2371827743647587,-0.5622857705515232,-0.8887939453125,-0.410186767578125,0.235260009765625
20220111-1122,2022-01-11 11:22:28Z,u01, 203,40,movements,el-ex, rt, d,75854.75934425001, -1.8525666993537375, 0.41616188172851537, 2.8875697700880667, -0.11284520477056503, 0.07453935593366623, 0.03274631127715111, -0.8785780668258667, -0.40425291657447815, 0.254323810338974, -0.029823482036590576, 0.019868701696395874, 0.030695438385009766, -0.7915705191676252, -0.024041962564390895, -0.23827336092767007,-0.5621957615280527,-0.9084014892578125,-0.3843841552734375,0.2850189208984375
20220111-1122,2022-01-11 11:22:28Z,u01, 204,40,movements,el-ex, rt, d,75854.78428625001, -1.8505549645591741, 0.4155982837791731, 2.8866652543461586, 0.011076569557189941, 0.09322163462638855, -0.005157195031642914, -0.8793066143989563, -0.4037373661994934, 0.252618670463562, -0.06930172443389893, -0.03608196973800659, 0.020529240369796753, -0.7910405205917428, -0.02375344723026851, -0.23828963628604424,-0.5629465337400262,-0.964263916015625,-0.43756103515625,0.259033203125
20220111-1122,2022-01-11 11:22:28Z,u01, 205,40,movements,el-ex, rt, d,75854.80922825, -1.847703769537014, 0.4159740044039363, 2.8881558520945987, 0.08602484315633774, 0.13531289994716644, -0.010839847847819328, -0.8798773288726807, -0.4040810763835907, 0.2500690817832947, -0.06870049238204956, 0.003934592008590698, -0.030128508806228638, -0.7902023149912571, -0.024795902621164656, -0.23797760333368206,-0.564209349579706,-0.948577880859375,-0.400146484375,0.219940185546875
20220111-1122,2022-01-11 11:22:28Z,u01, 206,40,movements,el-ex, rt, d,75854.834170625, -1.8460886326351937, 0.4152907510338195, 2.8909740432324162, 0.11321868002414703, 0.0759657472372055, -0.02307194657623768, -0.880545437335968, -0.4034559726715088, 0.24872258305549622, -0.020775794982910156, -0.017961233854293823, -0.07175081968307495, -0.7897409712549343, -0.02589374727589344, -0.23690217977291078,-0.5652574915407387,-0.8995819091796875,-0.416015625,0.170745849609375
20220111-1122,2022-01-11 11:22:28Z,u01, 207,40,movements,el-ex, rt, d,75854.85911262501, -1.845522015093278, 0.4152656536451077, 2.892673755845567, 0.03371110558509827, 0.06583835184574127, -0.01678229123353958, -0.880696177482605, -0.40343302488327026, 0.24822640419006348, -0.041560351848602295, -0.031915485858917236, 0.00027857720851898193, -0.789559593994944, -0.026624257033331544, -0.23640465286506052,-0.5656852064464511,-0.9222564697265625,-0.4353485107421875,0.248504638671875
20220111-1122,2022-01-11 11:22:28Z,u01, 208,40,movements,el-ex, rt, d,75854.884055625, -1.843288946246371, 0.415104866513791, 2.8930031944857926, 0.03208241984248161, 0.07420859485864639, -0.009114052169024944, -0.8813108801841736, -0.4032858908176422, 0.2462766319513321, -0.07929110527038574, -0.02266329526901245, -0.02297911047935486, -0.7889302713305554, -0.026969308429093175, -0.23622051148683423,-0.5666231461739331,-0.963104248046875,-0.4268646240234375,0.220672607421875
20220111-1122,2022-01-11 11:22:28Z,u01, 209,40,movements,el-ex, rt, d,75854.90899762501, -1.8408016562889167, 0.4149955845165779, 2.893435286722462, 0.05184550583362579, 0.01778559945523739, -0.014751898124814034, -0.8819630146026611, -0.4031859040260315, 0.24409550428390503, -0.09560656547546387, -0.045941293239593506, -0.026962533593177795, -0.7882239430538043, -0.02740013268193886, -0.23602277079956716,-0.5676668058804882,-0.977569580078125,-0.449127197265625,0.217132568359375
20220111-1122,2022-01-11 11:22:28Z,u01, 210,40,movements,el-ex, rt, d,75854.933939625, -1.8408844009011296, 0.4147409904629525, 2.895772341339857, 0.13074608147144318, 0.011731235310435295, -0.018196363002061844, -0.8820416927337646, -0.4029528796672821, 0.2441958487033844, -0.12995171546936035, -0.02249261736869812, -0.024514704942703247, -0.7882263408929201, -0.02823402955333787, -0.2352640008081781,-0.5679374944917014,-1.01611328125,-0.42193603515625,0.2225494384765625
20220111-1122,2022-01-11 11:22:28Z,u01, 211,40,movements,el-ex, rt, d,75854.958881625, -1.8412684767531453, 0.4147276576989303, 2.8974070781621215, -0.06444458663463593, -0.014817553572356701, -0.0030016982927918434, -0.8819530606269836, -0.40294069051742554, 0.24453605711460114, -0.13853949308395386, -0.03553587198257446, 0.024202093482017517, -0.7883126967161167, -0.02882914342080961, -0.23480019711110275,-0.5679797163167799,-1.0204925537109375,-0.4384765625,0.26873779296875
20220111-1122,2022-01-11 11:22:28Z,u01, 212,40,movements,el-ex, rt, d,75854.983823625, -1.8410220895975526, 0.4153620043114515, 2.894598162727975, -0.07054176181554794, -0.06785014271736145, -0.015415225178003311, -0.8817669153213501, -0.40352118015289307, 0.24425049126148224, -0.19722801446914673, -0.1277136504650116, 0.06808212399482727, -0.788254013757742, -0.027943854405626134, -0.2358345236167733,-0.5676768835427639,-1.1038360595703125,-0.5357513427734375,0.3135223388671875
20220111-1122,2022-01-11 11:22:28Z,u01, 213,40,movements,el-ex, rt, d,75855.00876562501, -1.8427841085204908, 0.4163776166501455, 2.8954080693024355, 0.12907090783119202, -0.03082108497619629, -0.06507232785224915, -0.8809399008750916, -0.4044502377510071, 0.24569357931613922, -0.3072162866592407, -0.06046983599662781, 0.059345245361328125, -0.7886965673440423, -0.02836391998862009, -0.23601437951305426,-0.5669661484680175,-1.1881561279296875,-0.4649200439453125,0.3050384521484375
20220111-1122,2022-01-11 11:22:28Z,u01, 214,40,movements,el-ex, rt, d,75855.033707625, -1.8450419212764424, 0.4169160652770382, 2.8993957913026667, 0.09685005992650986, -0.05027960613369942, -0.05160671845078468, -0.8801730275154114, -0.4049426019191742, 0.24762289226055145, -0.2878262400627136, -0.10970580577850342, 0.08298967778682709, -0.7892536664822907, -0.029834486919939063, -0.23512147074327788,-0.5664861304185133,-1.1609039306640625,-0.5379791259765625,0.3317718505859375
20220111-1122,2022-01-11 11:22:28Z,u01, 215,40,movements,el-ex, rt, d,75855.058649625, -1.847309046598521, 0.4183950685213342, 2.9007800747505894, -0.011349709704518318, -0.0800837054848671, -0.09160300344228745, -0.8790323138237, -0.40629449486732483, 0.24945396184921265, -0.27749234437942505, -0.13926830887794495, 0.08599565923213959, -0.7898056228861748, -0.030562349785773213, -0.2353254969339393,-0.5655926690595876,-1.156524658203125,-0.545562744140625,0.33544921875
20220111-1122,2022-01-11 11:22:28Z,u01, 216,40,movements,el-ex, rt, d,75855.083591625, -1.8497280954716522, 0.42056440340615403, 2.9021649959397804, 0.0502961128950119, -0.07337247580289841, -0.10541834682226181, -0.8775767683982849, -0.4082757532596588, 0.25133633613586426, -0.25103944540023804, -0.10165771842002869, 0.08408266305923462, -0.7903651901165721, -0.03148065158571012, -0.23579611394718708,-0.5645635643839917,-1.118377685546875,-0.5104522705078125,0.3277435302734375
20220111-1122,2022-01-11 11:22:28Z,u01, 217,40,movements,el-ex, rt, d,75855.10853362501, -1.8521224698567527, 0.42221702775554043, 2.903807442622258, 0.06446579098701477, -0.07954022288322449, -0.052712928503751755, -0.8763232827186584, -0.4097837805747986, 0.25324925780296326, -0.21339845657348633, -0.1533724069595337, 0.08998227119445801, -0.7909350998523841, -0.03234650462918687, -0.23599965295736197,-0.5636308323746164,-1.0897216796875,-0.5631561279296875,0.343231201171875
20220111-1122,2022-01-11 11:22:28Z,u01, 218,40,movements,el-ex, rt, d,75855.133475625, -1.8548058048744211, 0.4229299775560299, 2.9060734891324684, 0.10973148047924042, -0.0478290319442749, -0.03187808766961098, -0.8753597140312195, -0.4104340374469757, 0.2555178105831146, -0.20480990409851074, -0.0846373438835144, 0.06078192591667175, -0.7916189424444326, -0.03314151887347183, -0.23567694322999186,-0.5627588176645121,-1.0708160400390625,-0.4852447509765625,0.3103485107421875
20220111-1122,2022-01-11 11:22:28Z,u01, 219,40,movements,el-ex, rt, d,75855.158417625, -1.8571307874504253, 0.42225635894226676, 2.909576616469819, 0.09620088338851929, -0.02748061716556549, 0.0017887959256768227, -0.8750283122062683, -0.40981966257095337, 0.2576303780078888, -0.11430573463439941, -0.06756681203842163, 0.012557357549667358, -0.7922471805789584, -0.034052708518272246, -0.23447381847039128,-0.5623227664161603,-0.9893341064453125,-0.477386474609375,0.2701873779296875
20220111-1122,2022-01-11 11:22:28Z,u01, 220,40,movements,el-ex, rt, d,75855.183359625, -1.8579151245373935, 0.42182754002257883, 2.9093327266459097, -0.10599009692668915, -0.03117481991648674, 0.027720659971237183, -0.8749945163726807, -0.4094284772872925, 0.25836634635925293, -0.09470152854919434, -0.10108479857444763, 0.06319770216941833, -0.7924929721783417, -0.03373527588014458, -0.2343920024133619,-0.5620296186892226,-0.9745330810546875,-0.4970550537109375,0.32110595703125
20220111-1122,2022-01-11 11:22:28Z,u01, 221,40,movements,el-ex, rt, d,75855.20830162501, -1.8569454321354781, 0.4215510739325368, 2.9066179208982845, -0.008425792679190636, 0.03288977965712547, 0.06990019977092743, -0.8753533363342285, -0.409176230430603, 0.2575497627258301, -0.12521135807037354, -0.023822546005249023, 0.05144110321998596, -0.7922791294512145, -0.032690376091443096, -0.23503336933709162,-0.5621251318797487,-1.0005645751953125,-0.4329986572265625,0.308990478515625
20220111-1122,2022-01-11 11:22:28Z,u01, 222,40,movements,el-ex, rt, d,75855.233243625, -1.8552357553497203, 0.41905417514917853, 2.90718985580432, 0.047330278903245926, 0.09096240997314453, 0.11070328950881958, -0.8767702579498291, -0.4068966507911682, 0.2563386857509613, -0.08157336711883545, -0.010690689086914062, 0.01886916160583496, -0.7919102116387745, -0.03236609228537507, -0.2338923303620407,-0.5631387099912784,-0.941497802734375,-0.426727294921875,0.269744873046875
20220111-1122,2022-01-11 11:22:28Z,u01, 223,40,movements,el-ex, rt, d,75855.258185625, -1.8523822377556005, 0.416473699693484, 2.9057433450980805, -0.05486083775758743, 0.10821536183357239, 0.11291790753602982, -0.8785037398338318, -0.404538094997406, 0.2541266679763794, -0.04468351602554321, -0.011538565158843994, -0.0019138157367706299, -0.7912525240694288, -0.03134927116063707, -0.2332709668035092,-0.5643770150887966,-0.923187255859375,-0.41607666015625,0.2522125244140625
20220111-1122,2022-01-11 11:22:28Z,u01, 224,40,movements,el-ex, rt, d,75855.283127625, -1.8477173990173628, 0.41416311189258287, 2.9038787569237114, -0.04578511416912079, 0.20895621180534363, 0.11504990607500076, -0.880576491355896, -0.4024239480495453, 0.2502807378768921, -0.052269697189331055, 0.0031166672706604004, -0.0037288665771484375, -0.7900713283178574, -0.030457681668096037, -0.2328463414249961,-0.5662529270081242,-0.9239349365234375,-0.4087677001953125,0.2688140869140625
20220111-1122,2022-01-11 11:22:28Z,u01, 225,40,movements,el-ex, rt, d,75855.30806962501, -1.841562871137562, 0.4101700641010221, 2.901137694220896, -0.02706768736243248, 0.22845467925071716, 0.21173503994941711, -0.8836415410041809, -0.39876529574394226, 0.24528436362743378, -0.04717528820037842, -0.0578082799911499, 0.032136112451553345, -0.7885481002761464, -0.02888041340560793, -0.23201582507681645,-0.5687940627721522,-0.930816650390625,-0.456573486328125,0.2774200439453125
20220111-1122,2022-01-11 11:22:28Z,u01, 226,40,movements,el-ex, rt, d,75855.333011625, -1.8339087278580457, 0.4044422744493667, 2.9006929068357072, 0.05394720286130905, 0.3358798027038574, 0.25495055317878723, -0.8876839280128479, -0.39350607991218567, 0.23910386860370636, -0.028484344482421875, 0.06705951690673828, -0.02657902240753174, -0.7866235556789152, -0.0278444370664786, -0.2298629761064642,-0.5723733789589114,-0.897369384765625,-0.31280517578125,0.208282470703125
20220111-1122,2022-01-11 11:22:28Z,u01, 227,40,movements,el-ex, rt, d,75855.35795462501, -1.8248525209869795, 0.3979192201720279, 2.898509869458288, -0.0928884819149971, 0.32340389490127563, 0.29295992851257324, -0.892278254032135, -0.38750097155570984, 0.231695294380188, 0.01592022180557251, -0.01725369691848755, -0.02695252001285553, -0.784327931721865, -0.026025829064623085, -0.22790178499026176,-0.5763794141771506,-0.8763580322265625,-0.404754638671875,0.204742431640625
20220111-1122,2022-01-11 11:22:28Z,u01, 228,40,movements,el-ex, rt, d,75855.382896625, -1.814177992105908, 0.3908309499128254, 2.893719593557964, -0.0803438276052475, 0.3724867105484009, 0.3517075777053833, -0.8973439335823059, -0.38095682859420776, 0.22281397879123688, -0.003794431686401367, -0.06783473491668701, 0.04528331756591797, -0.7815815704720562, -0.023178351411788423, -0.2264857083109103,-0.5807730934141099,-0.8994598388671875,-0.44879150390625,0.2805633544921875
20220111-1122,2022-01-11 11:22:28Z,u01, 229,40,movements,el-ex, rt, d,75855.407838625, -1.8041667215338741, 0.3824617049399897, 2.890629502844205, 0.054520487785339355, 0.36277568340301514, 0.3369908928871155, -0.9026000499725342, -0.3732054531574249, 0.214549258351326, -0.04094254970550537, 0.026464641094207764, 0.11041760444641113, -0.7790084897568303, -0.02050368779559869, -0.22413547744191628,-0.5852255021518595,-0.94354248046875,-0.34674072265625,0.3249664306640625
20220111-1122,2022-01-11 11:22:28Z,u01, 230,40,movements,el-ex, rt, d,75855.43278062501, -1.7943047259725449, 0.37338383361283717, 2.8937736663822107, 0.3608584403991699, 0.5308706760406494, 0.3318648636341095, -0.9079383611679077, -0.36476820707321167, 0.2063799947500229, -0.05988103151321411, 0.1135627031326294, 0.04947975277900696, -0.7763958628439713, -0.019986539770738554, -0.2197135006047972,-0.5903695876861383,-0.9466705322265625,-0.25189208984375,0.2213897705078125
20220111-1122,2022-01-11 11:22:28Z,u01, 231,40,movements,el-ex, rt, d,75855.45772262501, -1.7836393523363088, 0.36275222276800057, 2.902648863377113, 0.2878819406032562, 0.5685634016990662, 0.3490176498889923, -0.9138267636299133, -0.3548486828804016, 0.19749298691749573, 0.06934422254562378, -0.040674418210983276, -0.022611618041992188, -0.7734955343972714, -0.0212402512545663, -0.21299830030540992,-0.5965613079380626,-0.844482421875,-0.3955230712890625,0.1748809814453125
20220111-1122,2022-01-11 11:22:28Z,u01, 232,40,movements,el-ex, rt, d,75855.482664625, -1.7683868227013506, 0.3534324906394379, 2.899091658168082, -0.343968003988266, 0.5304187536239624, 0.4532475173473358, -0.9199353456497192, -0.3461201786994934, 0.1841735690832138, 0.060438334941864014, -0.032679229974746704, 0.07600435614585876, -0.7692485313790185, -0.018533346849772092, -0.21044461405725104,-0.603014359490781,-0.871002197265625,-0.3635711669921875,0.269378662109375
20220111-1122,2022-01-11 11:22:28Z,u01, 233,40,movements,el-ex, rt, d,75855.507606625, -1.751141491445583, 0.3425895941073602, 2.890004239266641, -0.012791079469025135, 0.6271465420722961, 0.5013169050216675, -0.9266121983528137, -0.3359273374080658, 0.16894564032554626, -0.010857164859771729, 0.1277821958065033, 0.007598847150802612, -0.7643909180277957, -0.013391835242164418, -0.20905228591117933,-0.6097739919620113,-0.937469482421875,-0.2081451416015625,0.176544189453125
20220111-1122,2022-01-11 11:22:28Z,u01, 234,40,movements,el-ex, rt, d,75855.53254862501, -1.7351521214470944, 0.329722641628593, 2.8908991499738055, 0.19910043478012085, 0.649182915687561, 0.5036246180534363, -0.9333823323249817, -0.3237806260585785, 0.15480320155620575, 0.05906879901885986, 0.18016484379768372, -0.0015129894018173218, -0.7597864711245353, -0.011230313653582291, -0.2039498678293395,-0.6172544627661257,-0.85498046875,-0.1727294921875,0.135955810546875
20220111-1122,2022-01-11 11:22:28Z,u01, 235,40,movements,el-ex, rt, d,75855.55749062501, -1.7190345987272773, 0.3169482076297349, 2.8887894290120624, -0.24675776064395905, 0.5809518694877625, 0.5389848947525024, -0.9397703409194946, -0.3116682171821594, 0.14033940434455872, 0.08195161819458008, -0.039604365825653076, 0.026622653007507324, -0.7550545312854986, -0.007896741409878894, -0.19985750303131697,-0.6244097278396572,-0.857818603515625,-0.3512725830078125,0.166961669921875
20220111-1122,2022-01-11 11:22:28Z,u01, 236,40,movements,el-ex, rt, d,75855.582432625, -1.7005922726340468, 0.3046677658372932, 2.8771468035368946, -0.3098953068256378, 0.6315098404884338, 0.552094042301178, -0.9459226131439209, -0.29997625946998596, 0.12347107380628586, 0.017013192176818848, -0.017772793769836426, 0.03961515426635742, -0.7494890290147318, -0.0013159826144063524, -0.1990118856574496,-0.631394439624853,-0.9359588623046875,-0.2943267822265625,0.152191162109375
20220111-1122,2022-01-11 11:22:28Z,u01, 237,40,movements,el-ex, rt, d,75855.607374625, -1.681946669614639, 0.29219612839786735, 2.8733276211010867, 0.07958868891000748, 0.7728601694107056, 0.4949837028980255, -0.9517045617103577, -0.288055956363678, 0.10622008144855499, 0.01565396785736084, 0.1510319709777832, -0.005389675498008728, -0.7437097580510622, 0.002415591641244441, -0.1957376858676051,-0.6392002509304158,-0.9360504150390625,-0.13702392578125,0.100830078125
20220111-1122,2022-01-11 11:22:29Z,u01, 238,40,movements,el-ex, rt, d,75855.63231662501, -1.6627680032905816, 0.2797087088168895, 2.873066701357736, -0.05151856690645218, 0.7330368757247925, 0.5089907050132751, -0.9570740461349487, -0.27607569098472595, 0.08827273547649384, 0.11220991611480713, 0.1266920566558838, -0.032379381358623505, -0.7376400546058988, 0.004849662204991889, -0.1913913354364594,-0.6474822484006939,-0.832427978515625,-0.19183349609375,0.0545654296875
20220111-1122,2022-01-11 11:22:29Z,u01, 239,40,movements,el-ex, rt, d,75855.65725862501, -1.6436406951860483, 0.2665948807545539, 2.8641100030717204, -0.4558679759502411, 0.6334973573684692, 0.6372302770614624, -0.962115466594696, -0.26344814896583557, 0.07020892202854156, 0.0683470368385315, -0.14161169528961182, 0.05271625518798828, -0.7314291252112108, 0.010765413865027607, -0.18973044540815953,-0.6549030881396227,-0.893768310546875,-0.405059814453125,0.1229248046875
20220111-1122,2022-01-11 11:22:29Z,u01, 240,40,movements,el-ex, rt, d,75855.682200625, -1.6247033166948865, 0.24885976602499904, 2.8544662608069933, -0.09203080832958221, 0.7074160575866699, 0.7885302305221558, -0.9677860736846924, -0.24629901349544525, 0.05222102627158165, -0.0007808208465576172, -0.16344526410102844, 0.08062242716550827, -0.7250970137041728, 0.018569709022507208, -0.18680693341155244,-0.6625652367322049,-0.9714813232421875,-0.3377685546875,0.1204833984375
20220111-1122,2022-01-11 11:22:29Z,u01, 241,40,movements,el-ex, rt, d,75855.707142625, -1.607541530868798, 0.2301485394226298, 2.8591107984655246, 0.36338338255882263, 0.7127507328987122, 0.6799280047416687, -0.9729753136634827, -0.22812214493751526, 0.03576827794313431, 0.13944870233535767, 0.18928849697113037, -0.07869088649749756, -0.7193116857754338, 0.021790755533706407, -0.1788940626385847,-0.6709044721869337,-0.833526611328125,-0.0388336181640625,-0.0429229736328125
20220111-1122,2022-01-11 11:22:29Z,u01, 242,40,movements,el-ex, rt, d,75855.73208462501, -1.593570061405608, 0.21318293685853773, 2.8623936289968706, -0.09309440106153488, 0.48038434982299805, 0.694466769695282, -0.9771091938018799, -0.2115718424320221, 0.0222562737762928, 0.20295441150665283, 0.11728775501251221, -0.07138919830322266, -0.7144845776808961, 0.02529673596696458, -0.172053232805856,-0.6776944173632946,-0.7982635498046875,-0.1756439208984375,-0.0198822021484375
20220111-1122,2022-01-11 11:22:29Z,u01, 243,40,movements,el-ex, rt, d,75855.75702662501, -1.5798301569263802, 0.19523961521823743, 2.855008712403097, -0.39864906668663025, 0.5279780626296997, 0.784102201461792, -0.9809613227844238, -0.19400160014629364, 0.008862079121172428, 0.009403586387634277, -0.16509878635406494, 0.031146764755249023, -0.7094639022900429, 0.03304558622524034, -0.1685597857247388,-0.6834886063448624,-0.9715576171875,-0.359100341796875,0.040008544921875
20220111-1122,2022-01-11 11:22:29Z,u01, 244,40,movements,el-ex, rt, d,75855.781968625, -1.5651804867154653, 0.17564268213415649, 2.8495129981285796, 0.0368228480219841, 0.5576333403587341, 0.7720741629600525, -0.9845990538597107, -0.1747409701347351, -0.005529408808797598, 0.05077630281448364, 0.0219547301530838, 0.03958737850189209, -0.7039745554038572, 0.04068317704161495, -0.16397650543416165,-0.6898380529032355,-0.926666259765625,-0.1131439208984375,0.0227203369140625
20220111-1122,2022-01-11 11:22:29Z,u01, 245,40,movements,el-ex, rt, d,75855.806910625, -1.5515055515011726, 0.15774093077913923, 2.8558901612351906, 0.3399518132209778, 0.6040897965431213, 0.6659134030342102, -0.9874011278152466, -0.15708759427070618, -0.019050097092986107, 0.10333728790283203, 0.10723713040351868, -0.08853930234909058, -0.698973905881723, 0.04370847279940693, -0.15592837071546456,-0.6965713227187422,-0.884063720703125,-0.0498504638671875,-0.1075897216796875
20220111-1122,2022-01-11 11:22:29Z,u01, 246,40,movements,el-ex, rt, d,75855.83185225, -1.5383996435713752, 0.14189780593042955, 2.8617251327230444, 0.0012871548533439636, 0.46742337942123413, 0.6074331402778625, -0.9894301295280457, -0.1414220929145813, -0.03206547349691391, 0.18742799758911133, 0.03166559338569641, -0.07769066095352173, -0.694132647902453, 0.04633713454543492, -0.1487838806697545,-0.7027775750010121,-0.80328369140625,-0.1783447265625,-0.0865478515625
20220111-1122,2022-01-11 11:22:29Z,u01, 247,40,movements,el-ex, rt, d,75855.85679425001, -1.527320506620158, 0.12752256805227077, 2.857199907654836, -0.2348848581314087, 0.4406869113445282, 0.5685039162635803, -0.9909427762031555, -0.12717722356319427, -0.043109215795993805, 0.03256875276565552, -0.08519460260868073, -0.01827656850218773, -0.689721284777062, 0.0522488471334267, -0.14577677603924016,-0.707321542796129,-0.9583740234375,-0.212371826171875,-0.0613861083984375
20220111-1122,2022-01-11 11:22:29Z,u01, 248,40,movements,el-ex, rt, d,75855.88173725, -1.5149858286221805, 0.11335406361092164, 2.8588461173101947, 0.2779519557952881, 0.536001443862915, 0.5370778441429138, -0.992035448551178, -0.1131114661693573, -0.0554235503077507, 0.04870647192001343, 0.04807848483324051, 0.015506867319345474, -0.6849540254948652, 0.055912507339697715, -0.14074386991918586,-0.7126732035850786,-0.9357757568359375,-0.05291748046875,-0.0489501953125
20220111-1122,2022-01-11 11:22:29Z,u01, 249,40,movements,el-ex, rt, d,75855.90667925001, -1.5040108034146373, 0.10128254039492796, 2.8654233499866857, 0.16431862115859985, 0.38387084007263184, 0.43371716141700745, -0.9926574230194092, -0.10110946744680405, -0.0663938894867897, 0.1306731104850769, 0.03635118156671524, -0.05901776999235153, -0.6808237343760087, 0.057289602989506694, -0.13464637168397758,-0.7176819149157215,-0.8619842529296875,-0.06475830078125,-0.1254119873046875
