SessionID,LoggingTime,UID,RecNo,Hertz,Activity,MoveType,Wrist,Side,TimeStamp,DMRoll,DMPitch,DMYaw,DMRotX,DMRotY,DMRotZ,DMGrvX,DMGrvY,DMGrvZ,DMUAccelX,DMUAccelY,DMUAccelZ,DMQuatX,DMQuatY,DMQuatW,DMQuatZ,AccelroX,AceelroY,AceelroZ
20220111-1135,2022-01-11 11:35:44Z,u01, 1,40,movements,el-ex, rt, d,76644.41162, -1.8630327644763018, 0.32960687857245513, 2.895560400111821, -0.16518275439739227, 0.039988238364458084, -0.308855801820755, -0.9060538411140442, -0.3236711025238037, 0.27258628606796265, -0.11907732486724854, -0.005811959505081177, 0.08173799514770508, -0.7976798543030351, 0.0, -0.20288283081382308,-0.5679307380906404,-0.9987640380859375,-0.29229736328125,0.335174560546875
20220111-1135,2022-01-11 11:35:44Z,u01, 2,40,movements,el-ex, rt, d,76644.43656, -1.8616140848821645, 0.3368354036170035, 2.894751556527026, -0.0034751417115330696, 0.03983311355113983, -0.2408502846956253, -0.9041746854782104, -0.3305020034313202, 0.27062270045280457, 0.03936755657196045, 0.01524016261100769, -0.04045915603637695, -0.7970617201293873, -0.0019929636432718945, -0.20590572929163542,-0.5677072173255837,-0.861419677734375,-0.3185882568359375,0.2251739501953125
20220111-1135,2022-01-11 11:35:44Z,u01, 3,40,movements,el-ex, rt, d,76644.461501, -1.861894710307729, 0.3429168079881857, 2.8969560395626566, 0.01268541906028986, 0.7580130100250244, -0.7604338526725769, -0.9021564722061157, -0.33623549342155457, 0.27029454708099365, -0.11311745643615723, 0.012947529554367065, -0.015396595001220703, -0.79694759607933, -0.0046690590283078315, -0.2076288970486128,-0.5672238426764882,-0.786956787109375,-0.3468475341796875,0.1923828125
20220111-1135,2022-01-11 11:35:44Z,u01, 4,40,movements,el-ex, rt, d,76644.486441, -1.8633378607588575, 0.3496024540189055, 2.8987292063167835, -0.054653242230415344, -0.04552732780575752, -0.2995745837688446, -0.8995929956436157, -0.34252434968948364, 0.2709418833255768, -0.0009654760360717773, 0.03676876425743103, 0.042931318283081055, -0.7971315097282614, -0.0072318444155821116, -0.20971157521127748,-0.5661714315452363,-0.90899658203125,-0.3084716796875,0.32135009765625
20220111-1135,2022-01-11 11:35:44Z,u01, 5,40,movements,el-ex, rt, d,76644.511381, -1.8640013649844418, 0.35583180728782665, 2.899895898848447, -0.05609580874443054, 0.06095903366804123, -0.22331616282463074, -0.8973527550697327, -0.34837019443511963, 0.27091673016548157, -0.08171200752258301, 0.03454270958900452, 0.026751607656478882, -0.797099867641349, -0.009495203468015412, -0.21178829316039718,-0.5654089047735087,-0.97442626953125,-0.30535888671875,0.2847442626953125
20220111-1135,2022-01-11 11:35:44Z,u01, 6,40,movements,el-ex, rt, d,76644.536322, -1.8622851427402392, 0.36134300410395703, 2.899620224960072, -0.03881199657917023, 0.04776287451386452, -0.19709008932113647, -0.8959639072418213, -0.3535308241844177, 0.2688204348087311, -0.00270235538482666, -0.014846861362457275, -0.02805212140083313, -0.7964196781498477, -0.011221380099762868, -0.21398217361929883,-0.5655097982910122,-0.896575927734375,-0.37164306640625,0.238739013671875
20220111-1135,2022-01-11 11:35:44Z,u01, 7,40,movements,el-ex, rt, d,76644.561262, -1.862092396421821, 0.3667112265081017, 2.8996808144412873, -0.11929379403591156, -0.04598306119441986, -0.2013721764087677, -0.894184947013855, -0.35854727029800415, 0.2680988311767578, 0.014363229274749756, -0.02054208517074585, 0.0149516761302948, -0.7961680654326387, -0.012877572941296989, -0.21603123065328242,-0.5650495832580282,-0.8909149169921875,-0.3966522216796875,0.3169403076171875
20220111-1135,2022-01-11 11:35:44Z,u01, 8,40,movements,el-ex, rt, d,76644.586202, -1.862572726787085, 0.37144163286268606, 2.8993156571354475, 0.0001876363530755043, 0.02837193012237549, -0.1541508138179779, -0.8924216032028198, -0.3629591166973114, 0.2680374085903168, -0.10475534200668335, -0.06433272361755371, 0.03930506110191345, -0.7961280686382181, -0.014099809703990884, -0.2179580608488893,-0.5643363188799638,-1.0006866455078125,-0.4210968017578125,0.304473876953125
20220111-1135,2022-01-11 11:35:44Z,u01, 9,40,movements,el-ex, rt, d,76644.611143, -1.8597194170529656, 0.37434599235788046, 2.8997283365703512, 0.010312574915587902, 0.17755183577537537, -0.07381442189216614, -0.8921685814857483, -0.36566388607025146, 0.2651885151863098, -0.10241442918777466, 0.05009689927101135, 0.0062805116176605225, -0.7952079066419642, -0.015447924425139925, -0.21893707031739792,-0.5652187463529627,-0.9669342041015625,-0.31353759765625,0.244354248046875
20220111-1135,2022-01-11 11:35:44Z,u01, 10,40,movements,el-ex, rt, d,76644.636083, -1.8565597474539346, 0.37578731758735934, 2.900878287850729, -0.030191941186785698, 0.10342280566692352, -0.03129352256655693, -0.892495334148407, -0.36700502038002014, 0.2622193694114685, 0.002404630184173584, -0.018401414155960083, 0.016055047512054443, -0.794248894552003, -0.01668460845269082, -0.21913971831668894,-0.5664520839203999,-0.8908233642578125,-0.3906402587890625,0.28173828125
20220111-1135,2022-01-11 11:35:44Z,u01, 11,40,movements,el-ex, rt, d,76644.66102300001, -1.8554414911841015, 0.3789819348751218, 2.8987011666236637, -0.18845102190971375, 0.10178935527801514, -0.08003882318735123, -0.891658365726471, -0.369974821805954, 0.2608906328678131, -0.022602438926696777, -0.024342775344848633, 0.0071909427642822266, -0.793825867561943, -0.01690582699141202, -0.22097188042178587,-0.5663268327877771,-0.922637939453125,-0.375274658203125,0.2702789306640625
20220111-1135,2022-01-11 11:35:44Z,u01, 12,40,movements,el-ex, rt, d,76644.685964, -1.8511062763779316, 0.37981320699067833, 2.8972286294657645, 0.03498915955424309, 0.18003283441066742, -0.1543595939874649, -0.8924850225448608, -0.37074699997901917, 0.2569374442100525, -0.02082967758178711, 0.06816524267196655, -0.007547885179519653, -0.7925767716990326, -0.017052485920151905, -0.2216708298117713,-0.567796790087034,-0.91162109375,-0.29901123046875,0.2482452392578125
20220111-1135,2022-01-11 11:35:44Z,u01, 13,40,movements,el-ex, rt, d,76644.71090404167, -1.8464667618268877, 0.38148197544188334, 2.9000924625062363, 0.11926782131195068, 0.18167521059513092, -0.16266706585884094, -0.8930709958076477, -0.3722963333129883, 0.2526252865791321, 0.01504981517791748, 0.08056354522705078, -0.019028544425964355, -0.791166094280942, -0.01920546550579877, -0.2214520065382807,-0.5697774313761834,-0.8712921142578125,-0.314117431640625,0.229217529296875
20220111-1135,2022-01-11 11:35:44Z,u01, 14,40,movements,el-ex, rt, d,76644.73584404167, -1.844757852033428, 0.385018253653012, 2.904098595570506, 0.04144522547721863, 0.14996127784252167, -0.12294062227010727, -0.892228364944458, -0.37557604908943176, 0.25074097514152527, 0.04350405931472778, 0.019649535417556763, -0.051949501037597656, -0.7904961952499221, -0.022051116546222327, -0.2216420635081948,-0.570529802154313,-0.847625732421875,-0.3554229736328125,0.1985015869140625
20220111-1135,2022-01-11 11:35:45Z,u01, 15,40,movements,el-ex, rt, d,76644.76078504167, -1.8424821718903677, 0.386695012705251, 2.904450028424628, -0.07978399842977524, 0.05949769169092178, -0.13142572343349457, -0.8921887278556824, -0.37712952494621277, 0.24854055047035217, 0.05847907066345215, 0.054375648498535156, -0.046773672103881836, -0.7897743391131047, -0.022951405001640446, -0.22215557363764923,-0.571293759765329,-0.8399505615234375,-0.314117431640625,0.217376708984375
20220111-1135,2022-01-11 11:35:45Z,u01, 16,40,movements,el-ex, rt, d,76644.78572504167, -1.8404069709165116, 0.3828217450270763, 2.9031057918032372, -0.04745575040578842, 0.04498106613755226, -0.09644909203052521, -0.8941039443016052, -0.37353944778442383, 0.24707578122615814, 0.01039111614227295, -0.010966777801513672, 0.003976970911026001, -0.7893521334353182, -0.02147329255054542, -0.22104093847834028,-0.5723661447642525,-0.886260986328125,-0.3870086669921875,0.2513885498046875
20220111-1135,2022-01-11 11:35:45Z,u01, 17,40,movements,el-ex, rt, d,76644.81066504167, -1.8375453373635868, 0.3837193528465482, 2.9026731872753175, 0.01815968006849289, 0.06596876680850983, -0.05805949121713638, -0.8944835662841797, -0.3743719160556793, 0.24442771077156067, 0.010435104370117188, -0.02076968550682068, -0.05155658721923828, -0.7885014729411168, -0.021892514076307712, -0.22147555885748405,-0.5733539437603776,-0.874114990234375,-0.384063720703125,0.1809234619140625
20220111-1135,2022-01-11 11:35:45Z,u01, 18,40,movements,el-ex, rt, d,76644.83560604167, -1.8353496424448605, 0.38394058862320296, 2.9042377207195473, 0.12142401188611984, 0.041712436825037, -0.022220268845558167, -0.8949381113052368, -0.3745770752429962, 0.24244144558906555, 0.04380279779434204, -0.019374370574951172, -0.05767282843589783, -0.787845158451687, -0.022819471595364793, -0.2210862444748667,-0.5743693635416726,-0.85009765625,-0.39520263671875,0.1852569580078125
20220111-1135,2022-01-11 11:35:45Z,u01, 19,40,movements,el-ex, rt, d,76644.86054604167, -1.8357622812918533, 0.383115430954633, 2.906881044049303, 0.017913635820150375, 0.029379937797784805, -0.009621851146221161, -0.8951359391212463, -0.37381184101104736, 0.2428915649652481, 0.03275501728057861, -0.03994545340538025, -0.020723581314086914, -0.7879660768972342, -0.023563589772698235, -0.22001794280961018,-0.5745836055094371,-0.8745269775390625,-0.4118804931640625,0.2368316650390625
20220111-1135,2022-01-11 11:35:45Z,u01, 20,40,movements,el-ex, rt, d,76644.88548604168, -1.8330483520337741, 0.3845429700150422, 2.90500329933191, -0.06661083549261093, 0.04300786554813385, 0.02902274578809738, -0.8952754139900208, -0.37513551115989685, 0.24032270908355713, 0.004742085933685303, -0.031236499547958374, -0.010815396904945374, -0.7871507595545584, -0.023559237472189465, -0.22106843855558417,-0.575297571762343,-0.891387939453125,-0.406036376953125,0.22479248046875
20220111-1135,2022-01-11 11:35:45Z,u01, 21,40,movements,el-ex, rt, d,76644.91042704167, -1.8289137080349378, 0.3854529688954106, 2.9043024824083274, 0.09546418488025665, 0.08205639570951462, 0.02006061002612114, -0.8959310054779053, -0.37597891688346863, 0.2365317940711975, -0.035877346992492676, -0.007703334093093872, -0.016317009925842285, -0.7859319046286943, -0.02401956381400161, -0.22156643957092964,-0.5767515508126481,-0.940216064453125,-0.387451171875,0.2079315185546875
20220111-1135,2022-01-11 11:35:45Z,u01, 22,40,movements,el-ex, rt, d,76644.93536704167, -1.824884190122597, 0.3887658890825448, 2.9056254154108005, 0.02678229659795761, 0.09564990550279617, 0.005273608490824699, -0.8956663608551025, -0.3790466785430908, 0.23260535299777985, -0.07766115665435791, -0.04999995231628418, 0.0317835807800293, -0.7846187343245362, -0.026002283472039034, -0.2223889085310097,-0.5781353333617852,-0.9751434326171875,-0.430511474609375,0.26458740234375
20220111-1135,2022-01-11 11:35:45Z,u01, 23,40,movements,el-ex, rt, d,76644.96030704168, -1.8226665607642416, 0.38903626555574977, 2.9052063354153868, -0.029461201280355453, 0.11380641162395477, 0.041139330714941025, -0.8960806131362915, -0.3792968690395355, 0.23059295117855072, -0.10216444730758667, -0.028829902410507202, 0.029035285115242004, -0.7839717621293916, -0.02616772457099864, -0.22258346843057344,-0.5789300474123342,-1.0012969970703125,-0.3996124267578125,0.2550506591796875
20220111-1135,2022-01-11 11:35:45Z,u01, 24,40,movements,el-ex, rt, d,76644.98524804167, -1.8197769623158109, 0.3883907065190206, 2.9044092051322545, -0.014848338440060616, 0.07877511531114578, 0.03993897885084152, -0.8969805240631104, -0.37869948148727417, 0.22806301712989807, -0.15926337242126465, -0.08867719769477844, 0.043177127838134766, -0.7831708859057458, -0.025978278864642712, -0.22253287397861685,-0.5800410677212158,-1.0613861083984375,-0.4709014892578125,0.2686004638671875
20220111-1135,2022-01-11 11:35:45Z,u01, 25,40,movements,el-ex, rt, d,76645.01018804168, -1.8163374905685319, 0.3873578460586238, 2.904082061597301, 0.008450525812804699, 0.16771097481250763, 0.04607769846916199, -0.8981384634971619, -0.37774333357810974, 0.2250714749097824, -0.20995473861694336, -0.12152421474456787, 0.022883892059326172, -0.7822174829461648, -0.025914155970696573, -0.22219352153177055,-0.5814587316862903,-1.10601806640625,-0.4922332763671875,0.239837646484375
20220111-1135,2022-01-11 11:35:45Z,u01, 26,40,movements,el-ex, rt, d,76645.03512804167, -1.812491286252635, 0.3867697427723279, 2.9040015312502083, -0.017005331814289093, 0.11566182971000671, 0.021567493677139282, -0.8992132544517517, -0.3771987557411194, 0.2216685712337494, -0.21663165092468262, -0.07383584976196289, 0.049541175365448, -0.7811220237618627, -0.02612796221128799, -0.22194533110589085,-0.5830146636244182,-1.119659423828125,-0.4505157470703125,0.2750701904296875
20220111-1135,2022-01-11 11:35:45Z,u01, 27,40,movements,el-ex, rt, d,76645.06006904168, -1.8105050233613253, 0.38653938293093326, 2.9026318100325246, -0.09840201586484909, 0.08085384219884872, 0.05717136338353157, -0.8997359871864319, -0.3769854009151459, 0.2199026495218277, -0.3283066749572754, -0.07084482908248901, 0.09979942440986633, -0.7805694416200619, -0.025742437341030655, -0.22223238598821957,-0.5836620987175779,-1.2562255859375,-0.4557952880859375,0.317779541015625
20220111-1135,2022-01-11 11:35:45Z,u01, 28,40,movements,el-ex, rt, d,76645.08500904166, -1.8078347471810823, 0.3860267237888499, 2.8994269933005703, -0.1391228586435318, 0.11559392511844635, 0.06610007584095001, -0.9005077481269836, -0.37651050090789795, 0.21754468977451324, -0.32562756538391113, -0.10939043760299683, 0.023757725954055786, -0.7798497831812627, -0.024630419274528526, -0.22294192243831518,-0.5844010318430872,-1.219879150390625,-0.48773193359375,0.2384796142578125
20220111-1135,2022-01-11 11:35:45Z,u01, 29,40,movements,el-ex, rt, d,76645.10994904167, -1.8048553675621395, 0.38631232127622345, 2.89651249893231, -0.06798575818538666, 0.04965738207101822, -0.03010169416666031, -0.9010471105575562, -0.3767750561237335, 0.21483579277992249, -0.2630457878112793, -0.10431927442550659, 0.025444254279136658, -0.7790031522802591, -0.023916152871254537, -0.2238651428626831,-0.5852062935903433,-1.1593170166015625,-0.478759765625,0.243011474609375
20220111-1135,2022-01-11 11:35:45Z,u01, 30,40,movements,el-ex, rt, d,76645.13489004168, -1.8039359599511473, 0.3881042320176559, 2.8963187783216497, -0.0010725711472332478, 0.046715252101421356, -0.07511989772319794, -0.9005858898162842, -0.37843433022499084, 0.2138509303331375, -0.26478874683380127, -0.06844976544380188, 0.02966400980949402, -0.7786688360838817, -0.024501258029380024, -0.22458237336140321,-0.5853521772222379,-1.1644744873046875,-0.444732666015625,0.241851806640625
20220111-1135,2022-01-11 11:35:45Z,u01, 31,40,movements,el-ex, rt, d,76645.15983004167, -1.8027403041545715, 0.3895692018585367, 2.8967879367706764, -0.004812515340745449, 0.06041015312075615, -0.04796005040407181, -0.9003006815910339, -0.37978991866111755, 0.21264638006687164, -0.21653592586517334, -0.05996844172477722, 0.010925322771072388, -0.7782572869883175, -0.02527425494931579, -0.22497890188048347,-0.5857144196257684,-1.096710205078125,-0.4393463134765625,0.214813232421875
20220111-1135,2022-01-11 11:35:45Z,u01, 32,40,movements,el-ex, rt, d,76645.18477004167, -1.8016660267481035, 0.3907345990830319, 2.8960488466282213, -0.049221690744161606, 0.016764076426625252, -0.028607726097106934, -0.9000969529151917, -0.38086774945259094, 0.2115776389837265, -0.15042483806610107, -0.04393693804740906, -0.037474870681762695, -0.777907485755729, -0.0254707599466944, -0.2256179978738758,-0.5859246240694169,-1.0491485595703125,-0.4249725341796875,0.1723480224609375
20220111-1135,2022-01-11 11:35:45Z,u01, 33,40,movements,el-ex, rt, d,76645.20971104167, -1.8013384228663756, 0.39175350142934917, 2.8955392268038174, -0.025463532656431198, -0.011438866145908833, -0.026514016091823578, -0.8997880816459656, -0.38180965185165405, 0.2111939787864685, -0.1259840726852417, -0.06322824954986572, -0.014599770307540894, -0.7777790450074874, -0.02562707112532936, -0.22614430406632244,-0.5858854745278277,-1.02191162109375,-0.45452880859375,0.20489501953125
20220111-1135,2022-01-11 11:35:45Z,u01, 34,40,movements,el-ex, rt, d,76645.23465104167, -1.8014491360104639, 0.3921696026265886, 2.894493707548049, -0.0544000118970871, -0.02015572600066662, 0.0033854935318231583, -0.8996098637580872, -0.3821941912174225, 0.21125724911689758, -0.09823858737945557, -0.044136375188827515, -0.015670061111450195, -0.7778088642295647, -0.025337625443347667, -0.22660756944335883,-0.5856794178535427,-0.995819091796875,-0.421875,0.1945953369140625
20220111-1135,2022-01-11 11:35:45Z,u01, 35,40,movements,el-ex, rt, d,76645.25959104167, -1.801610389773155, 0.3919134755701254, 2.893667906210364, 0.02820645458996296, -0.010208286345005035, 0.04514465853571892, -0.8996710777282715, -0.3819575011730194, 0.21142469346523285, -0.07827991247177124, -0.00988820195198059, -0.011855021119117737, -0.7778762275311937, -0.024918354543566834, -0.22675560712114337,-0.5855506308877656,-0.97515869140625,-0.414947509765625,0.2157135009765625
20220111-1135,2022-01-11 11:35:45Z,u01, 36,40,movements,el-ex, rt, d,76645.28453204167, -1.8019959204191196, 0.3900500110765179, 2.894325414502118, 0.016076289117336273, 0.022785615175962448, 0.10151046514511108, -0.9002808928489685, -0.38023465871810913, 0.21193428337574005, -0.07857048511505127, -0.06812962889671326, 0.015940457582473755, -0.7780517028302172, -0.02454980717079447, -0.22587075301408605,-0.5856751163276841,-0.977508544921875,-0.44830322265625,0.2263946533203125
20220111-1135,2022-01-11 11:35:45Z,u01, 37,40,movements,el-ex, rt, d,76645.30947204167, -1.801017237299875, 0.38712044268922724, 2.8937930164945724, 0.034315310418605804, 0.04956895858049393, 0.127838134765625, -0.9015684127807617, -0.3775235116481781, 0.2113063633441925, -0.046551644802093506, -0.02214992046356201, -0.028994441032409668, -0.777881128636591, -0.02353993516439512, -0.2249187855318962,-0.5863091009397289,-0.9354095458984375,-0.386383056640625,0.1789093017578125
20220111-1135,2022-01-11 11:35:45Z,u01, 38,40,movements,el-ex, rt, d,76645.33441204167, -1.7996928606251028, 0.3837285960104254, 2.8936714184461625, -0.0013367901556193829, 0.03416050970554352, 0.14907903969287872, -0.9030891060829163, -0.374380499124527, 0.21040143072605133, -0.012086987495422363, -0.03229665756225586, 0.05371280014514923, -0.7776186184445513, -0.022583217114975185, -0.22367008184957202,-0.5871718386042086,-0.9152679443359375,-0.414703369140625,0.269805908203125
20220111-1135,2022-01-11 11:35:45Z,u01, 39,40,movements,el-ex, rt, d,76645.35935304167, -1.7977827414592906, 0.37983789077767677, 2.8921302732786045, 0.02597355842590332, 0.07041658461093903, 0.20163285732269287, -0.9049020409584045, -0.3707699179649353, 0.2090023308992386, -0.043614864349365234, -0.1273532509803772, 0.10101047158241272, -0.7772135519507376, -0.02098237150192578, -0.22264672933800148,-0.5881558421009612,-0.9593658447265625,-0.4916229248046875,0.3003997802734375
20220111-1135,2022-01-11 11:35:45Z,u01, 40,40,movements,el-ex, rt, d,76645.38429304167, -1.79494974082623, 0.37443118371672807, 2.893530619061555, 0.23267832398414612, 0.1807354986667633, 0.23977187275886536, -0.9074316024780273, -0.3657431900501251, 0.20688045024871826, -0.0766228437423706, 0.05109170079231262, 0.0002269744873046875, -0.7765527892063198, -0.020149157390214, -0.2201832884230817,-0.589982200989222,-0.9826507568359375,-0.3087310791015625,0.1985321044921875
20220111-1135,2022-01-11 11:35:45Z,u01, 41,40,movements,el-ex, rt, d,76645.40923304168, -1.7913232105085541, 0.3666780810556324, 2.899768699102135, 0.23028898239135742, 0.2583904266357422, 0.25504806637763977, -0.9109156131744385, -0.3585163354873657, 0.20420242846012115, -0.05170029401779175, 0.06710395216941833, -0.01835048198699951, -0.7756800204342743, -0.02053578665644512, -0.2154019770000866,-0.5928749435597849,-0.95452880859375,-0.312774658203125,0.2069549560546875
20220111-1135,2022-01-11 11:35:45Z,u01, 42,40,movements,el-ex, rt, d,76645.43417404167, -1.786110920271494, 0.3612329983975072, 2.898745458269349, -0.22995741665363312, 0.25162550806999207, 0.3042125105857849, -0.9138613343238831, -0.353427916765213, 0.1998658925294876, -0.05713176727294922, -0.027111053466796875, 0.0973295271396637, -0.77432060910129, -0.01898793507837271, -0.21361902752735334,-0.595343658312673,-0.9728851318359375,-0.3831024169921875,0.3001251220703125
20220111-1135,2022-01-11 11:35:45Z,u01, 43,40,movements,el-ex, rt, d,76645.45911404167, -1.7765039784248045, 0.35363570690668666, 2.8913859253624317, -0.07243820279836655, 0.32544922828674316, 0.38878098130226135, -0.9183410406112671, -0.3463108241558075, 0.19162029027938843, -0.07146596908569336, -0.025362759828567505, 0.0754694789648056, -0.7717460638404247, -0.0147700904785254, -0.21290341625447537,-0.5990508521384872,-0.9919281005859375,-0.36614990234375,0.272064208984375
20220111-1135,2022-01-11 11:35:45Z,u01, 44,40,movements,el-ex, rt, d,76645.48405404168, -1.7674555839523782, 0.3430642031976035, 2.891668831629487, 0.15571047365665436, 0.40493538975715637, 0.44723138213157654, -0.9235763549804688, -0.33637431263923645, 0.1840081363916397, -0.057075440883636475, 0.05022627115249634, 0.021069884300231934, -0.7693168283977706, -0.012477528859373366, -0.20882835244653072,-0.6036444584659889,-0.9783935546875,-0.28363037109375,0.2010955810546875
20220111-1135,2022-01-11 11:35:45Z,u01, 45,40,movements,el-ex, rt, d,76645.50899504167, -1.7567472736060255, 0.3314281766746207, 2.891008657395445, -0.06878973543643951, 0.4228805601596832, 0.4661233127117157, -0.9292775988578796, -0.32539382576942444, 0.17481966316699982, -0.002607107162475586, 0.06277477741241455, -0.0251767635345459, -0.7663663416132813, -0.009615804128051852, -0.20465703937782792,-0.6088559941371368,-0.92266845703125,-0.2603759765625,0.144775390625
20220111-1135,2022-01-11 11:35:45Z,u01, 46,40,movements,el-ex, rt, d,76645.53393504168, -1.744823617606721, 0.32035042391555596, 2.8845823040823904, -0.16561520099639893, 0.37171006202697754, 0.5181439518928528, -0.9347889423370361, -0.31489917635917664, 0.16434119641780853, -0.008845031261444092, -0.028393030166625977, 0.02044270932674408, -0.7629858754339198, -0.004811514834734465, -0.2024886468879785,-0.6138629171673684,-0.9456787109375,-0.3451385498046875,0.181976318359375
20220111-1135,2022-01-11 11:35:45Z,u01, 47,40,movements,el-ex, rt, d,76645.55887504166, -1.7324875597595015, 0.30752670733043874, 2.8779346914845876, -0.15529629588127136, 0.4195763170719147, 0.5817896723747253, -0.940653383731842, -0.30270230770111084, 0.1534348875284195, 0.005411803722381592, 0.03191986680030823, 0.006370291113853455, -0.7594188854805706, 0.0006296815615445261, -0.1998120258207876,-0.6191587917874202,-0.910675048828125,-0.2634429931640625,0.1562957763671875
20220111-1135,2022-01-11 11:35:45Z,u01, 48,40,movements,el-ex, rt, d,76645.58381604168, -1.7208932638685202, 0.2934371818824605, 2.8727790375338422, -0.07539983093738556, 0.40707311034202576, 0.5829319357872009, -0.9464923739433289, -0.2892441749572754, 0.14314217865467072, 0.062154173851013184, 0.07642993330955505, -0.010909587144851685, -0.7559991737140138, 0.006027975662324769, -0.19627812267320985,-0.6244226571208216,-0.8844757080078125,-0.207122802734375,0.1289215087890625
20220111-1135,2022-01-11 11:35:45Z,u01, 49,40,movements,el-ex, rt, d,76645.60875604168, -1.7091057558172456, 0.2789940208277781, 2.8678564841858445, -0.07762090861797333, 0.38513585925102234, 0.6149205565452576, -0.952152669429779, -0.2753887176513672, 0.13253790140151978, 0.10518312454223633, 0.1410350501537323, -0.00979626178741455, -0.7524209009214459, 0.011477692918988092, -0.19260877291794448,-0.6297879657902636,-0.835540771484375,-0.1560211181640625,0.1010284423828125
20220111-1135,2022-01-11 11:35:45Z,u01, 50,40,movements,el-ex, rt, d,76645.63369604167, -1.6994011388811572, 0.26343294397515093, 2.8652547744830037, -0.005002798046916723, 0.3228556215763092, 0.6491034626960754, -0.9575284123420715, -0.2603965997695923, 0.12382617592811584, 0.10877358913421631, -0.036188483238220215, -0.005372285842895508, -0.749423295927482, 0.01666766849558432, -0.18784670052540967,-0.634665661530665,-0.8507232666015625,-0.2977752685546875,0.1135406494140625
20220111-1135,2022-01-11 11:35:45Z,u01, 51,40,movements,el-ex, rt, d,76645.65863704168, -1.6898568306540154, 0.24776995515142392, 2.8594054877940875, -0.1943136304616928, 0.31298375129699707, 0.6605017185211182, -0.9625986218452454, -0.2452426254749298, 0.11515209823846817, 0.11082243919372559, 0.027499675750732422, 0.012548699975013733, -0.7463507852909687, 0.02316366073929793, -0.18413123688450383,-0.6391554235606063,-0.843902587890625,-0.2161712646484375,0.12213134765625
20220111-1135,2022-01-11 11:35:45Z,u01, 52,40,movements,el-ex, rt, d,76645.68357704167, -1.6810585521998833, 0.23215758818844653, 2.8542833544601254, -0.008340038359165192, 0.3278769254684448, 0.6367081999778748, -0.9672625064849854, -0.23007775843143463, 0.10708684474229813, 0.08618950843811035, 0.025304824113845825, 0.026183366775512695, -0.7434209565760607, 0.029473794660972774, -0.18025101382172787,-0.6434020507829952,-0.8844757080078125,-0.2034454345703125,0.1276702880859375
20220111-1135,2022-01-11 11:35:45Z,u01, 53,40,movements,el-ex, rt, d,76645.708516875, -1.6716438750282907, 0.2155815844771072, 2.8555288522867754, 0.16433165967464447, 0.4263770282268524, 0.679760217666626, -0.9718890190124512, -0.21391558647155762, 0.09834625571966171, 0.08787095546722412, 0.08542132377624512, -0.03148232400417328, -0.7402942188458307, 0.0337282646496429, -0.1740258153591926,-0.6484920591429735,-0.853424072265625,-0.1029510498046875,0.078125
20220111-1135,2022-01-11 11:35:45Z,u01, 54,40,movements,el-ex, rt, d,76645.733457875, -1.6631555401418194, 0.19856132200321072, 2.8552624570598137, -0.14802336692810059, 0.2523568868637085, 0.6504461765289307, -0.976172924041748, -0.19725912809371948, 0.09041579812765121, 0.1919323205947876, -0.01248815655708313, 0.0029832124710083008, -0.7373605281149129, 0.038824628735065536, -0.16814745800576164,-0.6530837907096076,-0.7880859375,-0.2136077880859375,0.1002655029296875
20220111-1135,2022-01-11 11:35:46Z,u01, 55,40,movements,el-ex, rt, d,76645.758397875, -1.656220068504726, 0.1835410254359004, 2.843956232118263, -0.47292712330818176, 0.1929069459438324, 0.6376039385795593, -0.979618489742279, -0.18251225352287292, 0.08388682454824448, 0.09541738033294678, -0.09934811294078827, 0.027426011860370636, -0.7346356925509667, 0.047474315199547146, -0.16661032596911374,-0.6559707588514894,-0.919708251953125,-0.24945068359375,0.1107635498046875
20220111-1135,2022-01-11 11:35:46Z,u01, 56,40,movements,el-ex, rt, d,76645.78333787501, -1.648348648920938, 0.1677270989947521, 2.8388436589398593, 0.2903210520744324, 0.3467879891395569, 0.6388402581214905, -0.9830033779144287, -0.1669417768716812, 0.07638739794492722, 0.12439125776290894, 0.09406580030918121, -0.10893439501523972, -0.7316227310288526, 0.05405438960764575, -0.16283546843856916,-0.6597658709004439,-0.8468017578125,-0.063751220703125,-0.0398712158203125
20220111-1135,2022-01-11 11:35:46Z,u01, 57,40,movements,el-ex, rt, d,76645.808278875, -1.642759003402109, 0.1536329798101591, 2.8470630369327985, 0.21673795580863953, 0.1507708728313446, 0.42715632915496826, -0.9856639504432678, -0.15302932262420654, 0.07105371356010437, 0.2531353235244751, 0.15405163168907166, -0.022683382034301758, -0.7296974842850501, 0.055393486469776265, -0.1552344896478599,-0.6636078903224385,-0.74652099609375,-0.0549774169921875,0.0925750732421875
20220111-1135,2022-01-11 11:35:46Z,u01, 58,40,movements,el-ex, rt, d,76645.833218875, -1.6397174677753592, 0.1443330896258896, 2.8461788280954567, -0.2658730149269104, 0.13221290707588196, 0.36233606934547424, -0.9872525930404663, -0.1438324898481369, 0.06815052032470703, 0.056847989559173584, -0.12315058708190918, 0.16126537322998047, -0.7284475800362158, 0.05864624129429513, -0.15229415454541478,-0.6653805006891609,-0.93756103515625,-0.2736663818359375,0.237030029296875
20220111-1135,2022-01-11 11:35:46Z,u01, 59,40,movements,el-ex, rt, d,76645.85815887501, -1.6349547554275907, 0.13451014046794701, 2.8418150554596915, 0.1089903861284256, 0.2734695076942444, 0.46669963002204895, -0.9889283180236816, -0.1341048926115036, 0.06353528797626495, -0.050515711307525635, -0.0772445946931839, 0.07820356637239456, -0.7264783643659112, 0.06322048143565928, -0.15038976889104172,-0.667544222298596,-1.01824951171875,-0.1217193603515625,0.074432373046875
20220111-1135,2022-01-11 11:35:46Z,u01, 60,40,movements,el-ex, rt, d,76645.883099875, -1.6293665896888487, 0.12273411398949778, 2.8458316910473105, 0.11550869792699814, 0.1543707400560379, 0.40261778235435486, -0.9907756447792053, -0.12242621183395386, 0.05809643864631653, 0.11428040266036987, 0.09830204397439957, -0.00914633646607399, -0.7244133080440459, 0.06537260918069543, -0.14503098013806442,-0.670759029202799,-0.876495361328125,-0.0354156494140625,0.043609619140625
20220111-1135,2022-01-11 11:35:46Z,u01, 61,40,movements,el-ex, rt, d,76645.90803987501, -1.6258819904865178, 0.1144499880571823, 2.8460112278142624, -0.08473474532365799, 0.14132371544837952, 0.29720380902290344, -0.9919508099555969, -0.11420029401779175, 0.05469760671257973, 0.0741194486618042, -0.0019801557064056396, -0.0010324716567993164, -0.7230072202825751, 0.06789228393127134, -0.1421387906522319,-0.6726423570485394,-0.91497802734375,-0.1090850830078125,0.0735015869140625
20220111-1135,2022-01-11 11:35:46Z,u01, 62,40,movements,el-ex, rt, d,76645.93297987501, -1.6219047198178327, 0.1076929793887659, 2.8400892640774917, -0.29221871495246887, 0.12788906693458557, 0.2635619044303894, -0.9929084181785583, -0.10748493671417236, 0.05079018324613571, 0.0570259690284729, -0.06178083270788193, 0.11501181125640869, -0.7212502502159432, 0.07206364397234799, -0.14187050563664222,-0.6741495190477973,-0.941131591796875,-0.17291259765625,0.16400146484375
20220111-1135,2022-01-11 11:35:46Z,u01, 63,40,movements,el-ex, rt, d,76645.95792087501, -1.6167562938367146, 0.10089970550201502, 2.836186570319338, 0.08509416878223419, 0.2594749927520752, 0.3028533160686493, -0.9938632249832153, -0.1007285863161087, 0.045710109174251556, 0.028012514114379883, 0.031560517847537994, 0.018392082303762436, -0.7191413658828099, 0.0754370649651116, -0.14096853024798894,-0.6762194153712021,-0.925994873046875,-0.0311737060546875,0.0302886962890625
20220111-1135,2022-01-11 11:35:46Z,u01, 64,40,movements,el-ex, rt, d,76645.98286087501, -1.611851061733603, 0.0954516133411438, 2.838735472677833, 0.029507875442504883, 0.15300367772579193, 0.10917890071868896, -0.9946092963218689, -0.09530673921108246, 0.04085637629032135, 0.15110325813293457, 0.07293731719255447, 0.01297665759921074, -0.7173869484105924, 0.076053632071509, -0.13836246768031968,-0.6785482704908203,-0.845123291015625,-0.033233642578125,0.0553436279296875
20220111-1135,2022-01-11 11:35:46Z,u01, 65,40,movements,el-ex, rt, d,76646.007800875, -1.6086100999892388, 0.09373863695717706, 2.83614538033633, -0.36330145597457886, 0.08827874064445496, 0.06121137738227844, -0.9948980808258057, -0.09360142052173615, 0.037638790905475616, 0.12090516090393066, -0.043651431798934937, 0.06654810905456543, -0.7161261847960938, 0.07734781016774989, -0.13876082603743567,-0.679651457393126,-0.886138916015625,-0.178955078125,0.1745452880859375
20220111-1135,2022-01-11 11:35:46Z,u01, 66,40,movements,el-ex, rt, d,76646.03274187501, -1.6058717304431351, 0.09229187109220642, 2.8253795281736185, -0.31336480379104614, 0.18924503028392792, 0.12903596460819244, -0.9951316714286804, -0.0921609029173851, 0.03491896763443947, -0.014191389083862305, -0.09549170732498169, 0.035881757736206055, -0.7147141172302551, 0.08150591175168093, -0.14201866933797513,-0.6799788319859174,-1.0084381103515625,-0.167510986328125,0.0604095458984375
20220111-1135,2022-01-11 11:35:46Z,u01, 67,40,movements,el-ex, rt, d,76646.057681875, -1.5995821394442027, 0.0884688663012478, 2.826032057346007, 0.2800050675868988, 0.27399003505706787, 0.12038308382034302, -0.9956765174865723, -0.08835350722074509, 0.02866927720606327, 0.10041284561157227, 0.13367211818695068, -0.09039115905761719, -0.7124506785053777, 0.08215028379291217, -0.14070861098635035,-0.6825441003500299,-0.85833740234375,0.066192626953125,-0.0712890625
20220111-1135,2022-01-11 11:35:46Z,u01, 68,40,movements,el-ex, rt, d,76646.082621875, -1.5961548732947735, 0.08726923858704176, 2.8313412945412915, 0.031169719994068146, 0.07882831245660782, 0.0013331957161426544, -0.9958740472793579, -0.08715850859880447, 0.025259332731366158, 0.15336012840270996, 0.031112976372241974, -0.02817380800843239, -0.7114489386416069, 0.08043677004653832, -0.1386124603195662,-0.6842198370151598,-0.848297119140625,-0.068450927734375,0.010223388671875
20220111-1135,2022-01-11 11:35:46Z,u01, 69,40,movements,el-ex, rt, d,76646.10756287501, -1.5954700626067237, 0.08794753769977366, 2.8253205169970337, -0.32613328099250793, 0.039938703179359436, -0.018331054598093033, -0.9958317875862122, -0.08783420920372009, 0.02457587793469429, -0.007052004337310791, -0.2208205759525299, 0.14357590675354004, -0.7109961542337628, 0.08229464052128899, -0.1409377347306608,-0.6839945357438166,-1.0348052978515625,-0.3191070556640625,0.121917724609375
20220111-1135,2022-01-11 11:35:46Z,u01, 70,40,movements,el-ex, rt, d,76646.132502875, -1.5935368717628051, 0.08689699230131778, 2.821565064652351, 0.1366615891456604, 0.07174444198608398, 0.05700165405869484, -0.995969295501709, -0.08678767085075378, 0.02265278995037079, 0.10381835699081421, 0.0909380242228508, -0.10048794746398926, -0.7101369092408253, 0.08385681356212288, -0.14193472558838638,-0.6844912020571458,-0.885223388671875,0.0111846923828125,-0.081878662109375
20220111-1135,2022-01-11 11:35:46Z,u01, 71,40,movements,el-ex, rt, d,76646.157442875, -1.5942885593169902, 0.08679659092832889, 2.826828203152798, 0.11768464744091034, -0.10191802680492401, -0.07667931169271469, -0.9959606528282166, -0.08668764680624008, 0.023401644080877304, 0.15372133255004883, 0.05171447992324829, -0.11663293838500977, -0.7106085233887922, 0.08207526295089407, -0.1400669194866035,-0.684602401184226,-0.851043701171875,-0.0694122314453125,-0.050811767578125
20220111-1135,2022-01-11 11:35:46Z,u01, 72,40,movements,el-ex, rt, d,76646.182383875, -1.5989687775201675, 0.09119334389441605, 2.8224184018442346, -0.34561118483543396, -0.2459922581911087, -0.24181939661502838, -0.9954494833946228, -0.09106700122356415, 0.028051672503352165, 0.032864153385162354, -0.15549975633621216, 0.10280764102935791, -0.7121992551044389, 0.08245033225804987, -0.14292373729062008,-0.6823099213582529,-0.9686126708984375,-0.2431182861328125,0.1282958984375
20220111-1135,2022-01-11 11:35:46Z,u01, 73,40,movements,el-ex, rt, d,76646.207323875, -1.6029507168153896, 0.09702604758653184, 2.8188129006839566, 0.19205933809280396, -0.0877794474363327, -0.21281597018241882, -0.9947821497917175, -0.09687388688325882, 0.03199763968586922, 0.053726911544799805, 0.029750466346740723, -0.025543212890625, -0.7136343654593535, 0.08200495660988355, -0.14603676669124477,-0.6802017267460523,-0.904571533203125,-0.0445709228515625,-0.0242767333984375
20220111-1135,2022-01-11 11:35:46Z,u01, 74,40,movements,el-ex, rt, d,76646.232263875, -1.6061699412256698, 0.10324782208974925, 2.8231605797408976, -0.05490720644593239, -0.15601608157157898, -0.3091583251953125, -0.9940522313117981, -0.10306447744369507, 0.035177893936634064, 0.1065250039100647, -0.08016304671764374, 0.002114526927471161, -0.715136887330255, 0.07853776118343597, -0.14661813354007674,-0.6789064823764015,-0.891357421875,-0.1819000244140625,0.0376129150390625
20220111-1135,2022-01-11 11:35:46Z,u01, 75,40,movements,el-ex, rt, d,76646.257204875, -1.6100239774205691, 0.11101510184154692, 2.8218415660021354, 0.11847130209207535, -0.12926849722862244, -0.2940007746219635, -0.993079423904419, -0.11078721284866333, 0.038976166397333145, 0.06783241033554077, 0.04926378279924393, -0.03847265616059303, -0.7166716135837692, 0.07661515652033507, -0.14965019510042493,-0.6768431178114019,-0.926910400390625,-0.0439605712890625,-4.57763671875e-05
20220111-1135,2022-01-11 11:35:46Z,u01, 76,40,movements,el-ex, rt, d,76646.282144875, -1.6133865841826867, 0.11764659030385029, 2.8286373272991914, 0.2707849442958832, -0.12864504754543304, -0.2660423815250397, -0.9921871423721313, -0.11737538874149323, 0.0422830730676651, 0.10086023807525635, -0.03509041666984558, 0.00041103363037109375, -0.7182874445294862, 0.07214349858193564, -0.14956505159075173,-0.6756395714910117,-0.888397216796875,-0.15679931640625,0.0419769287109375
20220111-1135,2022-01-11 11:35:46Z,u01, 77,40,movements,el-ex, rt, d,76646.307084875, -1.618874976613995, 0.12491247522565212, 2.83280338187918, 0.027407970279455185, -0.26938244700431824, -0.3442026972770691, -0.9910619854927063, -0.12458789348602295, 0.04768567159771919, 0.11352908611297607, -0.01452648639678955, -0.0029469728469848633, -0.7205156401498545, 0.06855689808387405, -0.15053337642628317,-0.6734217541141855,-0.883453369140625,-0.1363067626953125,0.047576904296875
20220111-1135,2022-01-11 11:35:46Z,u01, 78,40,movements,el-ex, rt, d,76646.332025875, -1.6264147280256493, 0.13471587245867325, 2.8336350321843327, 0.06299712508916855, -0.31948715448379517, -0.41370826959609985, -0.9894071817398071, -0.13430877029895782, 0.055086057633161545, 0.07583308219909668, 0.08058252930641174, -0.016695022583007812, -0.7233651811588799, 0.06546635890970903, -0.15347294906071574,-0.6700022228363506,-0.9125518798828125,-0.051788330078125,0.03839111328125
20220111-1135,2022-01-11 11:35:46Z,u01, 79,40,movements,el-ex, rt, d,76646.356965875, -1.6357177621494812, 0.144706751991795, 2.837626979589769, 0.08878497779369354, -0.41239726543426514, -0.41219279170036316, -0.9874635338783264, -0.14420224726200104, 0.06419777125120163, 0.10309469699859619, 0.06406307220458984, -0.0016214847564697266, -0.7268689121056922, 0.061322660522151184, -0.15539407251843068,-0.6661484296075664,-0.878387451171875,-0.1092529296875,0.08294677734375
20220111-1135,2022-01-11 11:35:46Z,u01, 80,40,movements,el-ex, rt, d,76646.38190587501, -1.647362978574968, 0.15637375426516179, 2.8380484869369216, -0.05630626529455185, -0.47188958525657654, -0.4939720332622528, -0.984904408454895, -0.1557372361421585, 0.07555854320526123, 0.053431689739227295, 0.030813515186309814, -0.04064643383026123, -0.7310278757086268, 0.058116411734196904, -0.15906839699487207,-0.6609976782539777,-0.930908203125,-0.1232452392578125,0.0366973876953125
20220111-1135,2022-01-11 11:35:46Z,u01, 81,40,movements,el-ex, rt, d,76646.406846875, -1.6592208171743392, 0.1686904927035267, 2.8393239894902598, 0.08215996623039246, -0.4776409864425659, -0.5053456425666809, -0.9819538593292236, -0.16789157688617706, 0.08705577999353409, 0.07858794927597046, -0.006256982684135437, 0.00014816969633102417, -0.7352308966030902, 0.05443730269997893, -0.1627276130484565,-0.6557375201549096,-0.887298583984375,-0.197052001953125,0.0750885009765625
20220111-1135,2022-01-11 11:35:46Z,u01, 82,40,movements,el-ex, rt, d,76646.43178687501, -1.6724406811754515, 0.1809254501175468, 2.8409118241692655, -0.05829983949661255, -0.5663709044456482, -0.4796192944049835, -0.9786003232002258, -0.17994000017642975, 0.09981317818164825, 0.10833072662353516, -0.05162738263607025, 0.02819274365901947, -0.7398129821876468, 0.05082656330414137, -0.16626536112344692,-0.6499608286298428,-0.8751220703125,-0.2351226806640625,0.1269989013671875
20220111-1135,2022-01-11 11:35:46Z,u01, 83,40,movements,el-ex, rt, d,76646.45672687501, -1.6853540320879732, 0.19318830152617217, 2.8402994206497953, -0.07689788937568665, -0.4959145784378052, -0.4596187174320221, -0.974964439868927, -0.19198885560035706, 0.11218085139989853, 0.04878652095794678, 0.004671931266784668, 0.010072469711303711, -0.7441652912790713, 0.048046283244164545, -0.17057914590024323,-0.6440592282817985,-0.9286346435546875,-0.176361083984375,0.1316986083984375
20220111-1135,2022-01-11 11:35:46Z,u01, 84,40,movements,el-ex, rt, d,76646.481667875, -1.6973892493283422, 0.2045610125592075, 2.8445141528530473, 0.20058710873126984, -0.41245192289352417, -0.5088198184967041, -0.9713148474693298, -0.2031373381614685, 0.12362267822027206, 0.05880880355834961, 0.0801514983177185, -0.07740390300750732, -0.7482637736586635, 0.04373399836133923, -0.1730828352268574,-0.638929530238005,-0.90740966796875,-0.118865966796875,0.0465240478515625
20220111-1135,2022-01-11 11:35:46Z,u01, 85,40,movements,el-ex, rt, d,76646.50660787501, -1.7102146588016287, 0.21849093637999165, 2.847967651467662, -0.1560310572385788, -0.5462353229522705, -0.6355322003364563, -0.9667531847953796, -0.2167566865682602, 0.135663241147995, 0.07956153154373169, 0.03760327398777008, -0.020993486046791077, -0.752537828602803, 0.038967123399194836, -0.17680346382039927,-0.6331735753520342,-0.9199066162109375,-0.20733642578125,0.1721649169921875
20220111-1135,2022-01-11 11:35:46Z,u01, 86,40,movements,el-ex, rt, d,76646.531547875, -1.7226779240848282, 0.23358647363391866, 2.844795038845291, -0.029863273724913597, -0.4119608402252197, -0.4907318949699402, -0.9616431593894958, -0.2314680814743042, 0.1471894383430481, -0.1182975172996521, -0.1412888616323471, 0.08306561410427094, -0.7564879758543848, 0.03634088042255207, -0.18309947025047024,-0.6268012227448683,-1.083221435546875,-0.36920166015625,0.228240966796875
20220111-1135,2022-01-11 11:35:46Z,u01, 87,40,movements,el-ex, rt, d,76646.55648887501, -1.730741589365965, 0.2437105175001041, 2.8478910748545494, 0.12235096096992493, -0.21583782136440277, -0.37836313247680664, -0.958062469959259, -0.2413051426410675, 0.15455779433250427, -0.05863058567047119, 0.07606774568557739, -0.00711214542388916, -0.759088456162215, 0.032613099313000715, -0.18571382001276215,-0.6230822326600451,-0.9630889892578125,-0.105804443359375,0.0972747802734375
20220111-1135,2022-01-11 11:35:46Z,u01, 88,40,movements,el-ex, rt, d,76646.58142887501, -1.7388900963644436, 0.25434931603869765, 2.851865185340537, -0.018342506140470505, -0.35494402050971985, -0.5186067819595337, -0.9541862607002258, -0.2516157031059265, 0.1619206964969635, 0.09273600578308105, 0.21706977486610413, -0.17029784619808197, -0.7616777817409535, 0.0284130798375698, -0.18827573058943714,-0.6193480180592845,-0.86151123046875,-0.0469207763671875,0.00909423828125
20220111-1135,2022-01-11 11:35:46Z,u01, 89,40,movements,el-ex, rt, d,76646.606368875, -1.7498042505071707, 0.2680032642805541, 2.849105590467976, -0.09866783767938614, -0.48355236649513245, -0.4946497976779938, -0.9488926529884338, -0.26480650901794434, 0.17169718444347382, -0.040899038314819336, -0.15732789039611816, 0.15178905427455902, -0.7649622297622605, 0.026103233545537396, -0.19402295158200983,-0.6136011618614153,-1.07843017578125,-0.53314208984375,0.3196868896484375
20220111-1135,2022-01-11 11:35:46Z,u01, 90,40,movements,el-ex, rt, d,76646.63130987501, -1.755902539166277, 0.27766074870616364, 2.8512357566127906, -0.017445918172597885, -0.03373344987630844, -0.2929253876209259, -0.9452702403068542, -0.2741067409515381, 0.17700164020061493, -0.13489937782287598, 0.0515267550945282, 0.0411226749420166, -0.7667997305227539, 0.022781419929871816, -0.19687277241339526,-0.6105245730613433,-1.06378173828125,-0.2076873779296875,0.208251953125
20220111-1135,2022-01-11 11:35:46Z,u01, 91,40,movements,el-ex, rt, d,76646.656249875, -1.7587403100023518, 0.28534830845957887, 2.8549861641111427, 0.11304810643196106, -0.13624557852745056, -0.38722673058509827, -0.9426662921905518, -0.2814916968345642, 0.17928439378738403, 0.04621237516403198, 0.20013180375099182, -0.057336196303367615, -0.76764255487511, 0.019160039808375273, -0.19854966811297037,-0.6090450940462022,-0.889190673828125,-0.0890960693359375,0.119049072265625
20220111-1135,2022-01-11 11:35:46Z,u01, 92,40,movements,el-ex, rt, d,76646.681189875, -1.7631102334669122, 0.29440372591712627, 2.858083357431161, -0.10126601904630661, -0.16079773008823395, -0.33747562766075134, -0.9393329620361328, -0.29016926884651184, 0.18290728330612183, 0.008012950420379639, -0.10047093033790588, 0.08055087924003601, -0.7689037986369129, 0.015511007852124947, -0.20093059419765846,-0.6067726968175309,-0.9348602294921875,-0.412841796875,0.2717437744140625
20220111-1135,2022-01-11 11:35:46Z,u01, 93,40,movements,el-ex, rt, d,76646.706130125, -1.767053669499043, 0.3020813457490499, 2.8604315068557016, 0.029823724180459976, -0.036830976605415344, -0.30146536231040955, -0.9363918304443359, -0.2975079417228699, 0.18617017567157745, -0.08045381307601929, -0.16786989569664001, 0.033525824546813965, -0.7700178044183879, 0.012556575980245954, -0.20304362719325503,-0.6047215968413375,-1.015472412109375,-0.3423614501953125,0.2199859619140625
20220111-1135,2022-01-11 11:35:46Z,u01, 94,40,movements,el-ex, rt, d,76646.731071125, -1.7676514162637325, 0.30781161611769103, 2.8630003286052306, 0.07704047113656998, -0.011945665813982487, -0.2541801929473877, -0.9345933198928833, -0.30297383666038513, 0.1863933950662613, 0.06175994873046875, 0.16346272826194763, -0.029380425810813904, -0.7701302519251791, 0.00980271100032587, -0.20439330311632997,-0.6041744898687762,-0.86810302734375,-0.1399383544921875,0.161865234375
20220111-1135,2022-01-11 11:35:47Z,u01, 95,40,movements,el-ex, rt, d,76646.756011125, -1.7703619154390091, 0.31422090792087953, 2.8664793816894165, 0.062154438346624374, -0.08229845762252808, -0.2896740734577179, -0.9321620464324951, -0.30907562375068665, 0.18853706121444702, 0.06943011283874512, 0.023339539766311646, -0.006301403045654297, -0.7708590230650378, 0.006700311802732284, -0.205714668467171,-0.6028374215528709,-0.8755035400390625,-0.315948486328125,0.1691436767578125
20220111-1135,2022-01-11 11:35:47Z,u01, 96,40,movements,el-ex, rt, d,76646.78095112501, -1.7727616915204396, 0.32117863224493026, 2.8678269631858915, 0.0122426338493824, -0.11408655345439911, -0.26129522919654846, -0.9295775294303894, -0.3156851530075073, 0.19033749401569366, 0.08933711051940918, 0.0012167394161224365, 0.009644150733947754, -0.7714602744226731, 0.004217667165533734, -0.2078899446874418,-0.6013426406636356,-0.8373260498046875,-0.3139495849609375,0.199798583984375
20220111-1135,2022-01-11 11:35:47Z,u01, 97,40,movements,el-ex, rt, d,76646.805892125, -1.7774790510797176, 0.32798608986811484, 2.8698846583555464, -0.0003532851114869118, -0.19240951538085938, -0.2953857481479645, -0.9265446662902832, -0.32213711738586426, 0.19427502155303955, 0.07212871313095093, 0.06029626727104187, 0.03916922211647034, -0.7727447320760913, 0.0017570425601546313, -0.20979903613750314,-0.5990383209100114,-0.86920166015625,-0.2696990966796875,0.250823974609375
20220111-1135,2022-01-11 11:35:47Z,u01, 98,40,movements,el-ex, rt, d,76646.83083212501, -1.7819789580838148, 0.33570702822549425, 2.8698890326357023, -0.1131301000714302, -0.15712222456932068, -0.3030526041984558, -0.9232015013694763, -0.3294368088245392, 0.19791512191295624, 0.019652366638183594, 0.0744318962097168, 0.016959190368652344, -0.7739234555147477, -0.00021125136521493726, -0.212672704892728,-0.5965004317226652,-0.902130126953125,-0.2590179443359375,0.216552734375
20220111-1135,2022-01-11 11:35:47Z,u01, 99,40,movements,el-ex, rt, d,76646.85577212501, -1.786200193301168, 0.34311091233069063, 2.8703976699685847, -0.015280801802873611, -0.1837962567806244, -0.30417758226394653, -0.9199497103691101, -0.3364183008670807, 0.2012834995985031, 0.04163867235183716, 0.042412012815475464, -0.018498554825782776, -0.7750074176674008, -0.002292148520898707, -0.21528474886447463,-0.5941469832080126,-0.8761444091796875,-0.2943878173828125,0.2038726806640625
20220111-1135,2022-01-11 11:35:47Z,u01, 100,40,movements,el-ex, rt, d,76646.880713125, -1.79179630390478, 0.3501543522703351, 2.8714573448573515, 0.021600615233182907, -0.20353886485099792, -0.2579512894153595, -0.9164741635322571, -0.34304279088974, 0.20590391755104065, -0.035826683044433594, -0.03883889317512512, 0.0499400794506073, -0.7764878340125704, -0.004312852187686844, -0.2176093288697397,-0.5913493657010864,-0.95904541015625,-0.383453369140625,0.2504119873046875
20220111-1135,2022-01-11 11:35:47Z,u01, 101,40,movements,el-ex, rt, d,76646.90565312501, -1.7952676337038171, 0.35638261741944, 2.872268479981181, -0.031035996973514557, -0.09244010597467422, -0.2323615849018097, -0.9136531352996826, -0.3488864302635193, 0.20860441029071808, -0.07049274444580078, 0.02874186635017395, 0.04044945538043976, -0.7773440318085434, -0.006201952128518706, -0.2197065926311026,-0.5894290818604555,-0.9700469970703125,-0.3314666748046875,0.265350341796875
20220111-1135,2022-01-11 11:35:47Z,u01, 102,40,movements,el-ex, rt, d,76646.930593125, -1.7979557288148107, 0.36166349737115705, 2.873781600502528, 0.017312228679656982, -0.06563033163547516, -0.2034447193145752, -0.9112815260887146, -0.35383060574531555, 0.21064183115959167, -0.025058746337890625, 0.053461313247680664, -0.0053195953369140625, -0.7779810678325438, -0.008147146538373673, -0.2212455915757001,-0.5879876980564025,-0.934112548828125,-0.299224853515625,0.2041473388671875
20220111-1135,2022-01-11 11:35:47Z,u01, 103,40,movements,el-ex, rt, d,76646.95553412501, -1.8009998497299884, 0.36658879618082185, 2.875582634375125, 0.01771160215139389, -0.12517428398132324, -0.20403560996055603, -0.9089280366897583, -0.35843297839164734, 0.2130146026611328, -0.0018078088760375977, 0.0076639652252197266, -0.010835692286491394, -0.7787209472403006, -0.010049404563135023, -0.22257364314838146,-0.5864755009842004,-0.9190216064453125,-0.3858489990234375,0.2211761474609375
20220111-1135,2022-01-11 11:35:47Z,u01, 104,40,movements,el-ex, rt, d,76646.98047412501, -1.8038492801776123, 0.3704739155726249, 2.8774861028040157, 0.046433862298727036, -0.04354959726333618, -0.1288754642009735, -0.9069556593894958, -0.36205723881721497, 0.2152804285287857, -0.027492403984069824, -0.08519312739372253, -0.02352336049079895, -0.7794252253962184, -0.011684861460167617, -0.22348659904442394,-0.585160986621603,-0.9308013916015625,-0.4476165771484375,0.1928558349609375
20220111-1135,2022-01-11 11:35:47Z,u01, 105,40,movements,el-ex, rt, d,76647.005414125, -1.8069809212753978, 0.37229247252236747, 2.87940397779347, -0.02469547465443611, -0.16624388098716736, -0.10925177484750748, -0.9056355953216553, -0.3637518286705017, 0.2179652601480484, 0.013026952743530273, -0.04908996820449829, 0.014410734176635742, -0.7802708739713524, -0.012648728224084471, -0.22362691149931563,-0.5839592357707479,-0.90521240234375,-0.369293212890625,0.2500762939453125
20220111-1135,2022-01-11 11:35:47Z,u01, 106,40,movements,el-ex, rt, d,76647.03035512501, -1.809860721285517, 0.3725524657055403, 2.878450388033791, 0.026643645018339157, -0.11309432238340378, -0.024998877197504044, -0.9049120545387268, -0.36399397253990173, 0.22054995596408844, -0.05910760164260864, 0.04548203945159912, -0.02131606638431549, -0.7811082728867964, -0.012035015502835533, -0.22402039535923368,-0.5827004026868333,-0.9640655517578125,-0.3169708251953125,0.194610595703125
20220111-1135,2022-01-11 11:35:47Z,u01, 107,40,movements,el-ex, rt, d,76647.055295125, -1.8121316466120239, 0.3741242376999112, 2.8792863147264094, -0.007789629511535168, -0.092166006565094, -0.04985295981168747, -0.9038521647453308, -0.3654574751853943, 0.2224673628807068, -0.010042309761047363, 0.07489964365959167, -0.04397013783454895, -0.7817128965350885, -0.012594663134415152, -0.22438154614900624,-0.5817380084793884,-0.8964691162109375,-0.2894134521484375,0.1844024658203125
20220111-1135,2022-01-11 11:35:47Z,u01, 108,40,movements,el-ex, rt, d,76647.080235125, -1.814796046806902, 0.3774936619455865, 2.8782448852217564, -0.07226721942424774, -0.14979082345962524, -0.06931520998477936, -0.9020563364028931, -0.3685917556285858, 0.22457605600357056, -0.017270386219024658, 0.0682225227355957, -0.018124714493751526, -0.7823815012752107, -0.012931180049412627, -0.22596777018945535,-0.5802159085511875,-0.9218902587890625,-0.303131103515625,0.206512451171875
20220111-1135,2022-01-11 11:35:47Z,u01, 109,40,movements,el-ex, rt, d,76647.105176125, -1.8180786170705794, 0.37848291238086673, 2.8789225246388694, 0.06883770227432251, -0.09258265048265457, -0.08529496937990189, -0.9009602665901184, -0.3695111870765686, 0.2274465411901474, -0.02984100580215454, -0.006541639566421509, 0.0021066516637802124, -0.7832948606307213, -0.013131261851762777, -0.22616501207724796,-0.5789007342963572,-0.9215240478515625,-0.381591796875,0.21923828125
20220111-1135,2022-01-11 11:35:47Z,u01, 110,40,movements,el-ex, rt, d,76647.130116125, -1.8194123090546364, 0.378178299474776, 2.8810761920330497, 0.0748932957649231, -0.08197614550590515, -0.10257416218519211, -0.9007652401924133, -0.3692280948162079, 0.22867563366889954, 0.022103190422058105, -0.009968072175979614, 0.0121995210647583, -0.7836767810819886, -0.01373032039380373, -0.2254359814220408,-0.5786542866426193,-0.878021240234375,-0.3837890625,0.2460784912109375
20220111-1135,2022-01-11 11:35:47Z,u01, 111,40,movements,el-ex, rt, d,76647.155056125, -1.8223901487430214, 0.3784288096981022, 2.8840678673425995, 0.0873064249753952, -0.04802670329809189, -0.11804233491420746, -0.8999907970428467, -0.36946091055870056, 0.23133395612239838, -0.033374130725860596, -0.011886745691299438, -0.004649370908737183, -0.7845078010903456, -0.014645318084972603, -0.22468665730735457,-0.5777966820064238,-0.952789306640625,-0.3542327880859375,0.2202911376953125
20220111-1135,2022-01-11 11:35:47Z,u01, 112,40,movements,el-ex, rt, d,76647.179997125, -1.8216934863445773, 0.37728757906020094, 2.8870598338901514, 0.13754096627235413, 0.07112498581409454, -0.04771357774734497, -0.9005596041679382, -0.3684001863002777, 0.2308114469051361, -0.013121485710144043, -0.029426991939544678, -0.01692900061607361, -0.7843239549216682, -0.015545299305202098, -0.2233856512130319,-0.578526775470515,-0.9098663330078125,-0.402618408203125,0.2128448486328125
20220111-1135,2022-01-11 11:35:47Z,u01, 113,40,movements,el-ex, rt, d,76647.204937125, -1.8202096006124604, 0.3776391427593997, 2.8897249627177537, 0.06559726595878601, 0.07469707727432251, -0.010242101736366749, -0.9007753729820251, -0.3687269985675812, 0.22944281995296478, 0.014987468719482422, -0.04823467135429382, -0.01015879213809967, -0.7838603301000486, -0.01686401477376137, -0.2227348587959371,-0.5793683625242532,-0.8888092041015625,-0.417205810546875,0.226165771484375
20220111-1135,2022-01-11 11:35:47Z,u01, 114,40,movements,el-ex, rt, d,76647.229877125, -1.819402152805798, 0.3782751822651401, 2.8917807373874433, 0.09482385963201523, 0.11665971577167511, -0.004738679155707359, -0.900732696056366, -0.3693181276321411, 0.22865763306617737, -0.04847061634063721, -0.010137379169464111, -0.002491980791091919, -0.783585615425102, -0.017955579145551015, -0.22237212142698273,-0.5798462366032976,-0.9530181884765625,-0.3772430419921875,0.226287841796875
20220111-1135,2022-01-11 11:35:47Z,u01, 115,40,movements,el-ex, rt, d,76647.254818125, -1.815509159678062, 0.37562407227787337, 2.894132736660259, 0.09490679204463959, 0.1844930201768875, -0.011858174577355385, -0.9025630354881287, -0.36685314774513245, 0.2253858596086502, -0.06307411193847656, 0.006471067667007446, -0.01823258399963379, -0.7825286469166242, -0.018489043099720992, -0.22065342095178134,-0.5819099384498656,-0.955047607421875,-0.3741302490234375,0.2163543701171875
20220111-1135,2022-01-11 11:35:47Z,u01, 116,40,movements,el-ex, rt, d,76647.279758125, -1.8109092277394663, 0.3782015480243447, 2.895107186375018, -0.018412679433822632, 0.16330817341804504, 0.0018015112727880478, -0.9026686549186707, -0.36924970149993896, 0.2210061103105545, -0.033381640911102295, -0.05608901381492615, 0.01533721387386322, -0.7810864130788615, -0.020176025416675236, -0.22129591678730673,-0.5835451600540946,-0.9358367919921875,-0.42584228515625,0.2346038818359375
20220111-1135,2022-01-11 11:35:47Z,u01, 117,40,movements,el-ex, rt, d,76647.30469812501, -1.8074500101920554, 0.3793513281030173, 2.8947461109246198, 0.02501855045557022, 0.12200254946947098, -0.00919601134955883, -0.9030145406723022, -0.3703179955482483, 0.2177826166152954, -0.04718071222305298, -0.014157712459564209, -0.00017714500427246094, -0.7800382731596641, -0.020775035235390593, -0.22179824540694404,-0.5847343173646657,-0.9616851806640625,-0.3691253662109375,0.2174835205078125
20220111-1135,2022-01-11 11:35:47Z,u01, 118,40,movements,el-ex, rt, d,76647.32963812501, -1.8043104514020243, 0.37804557640720304, 2.8964143950875467, 0.1054161861538887, 0.1581709384918213, 0.039869267493486404, -0.9041635394096375, -0.3691047728061676, 0.21505820751190186, -0.08394980430603027, -0.03639751672744751, 0.018645405769348145, -0.7791486137655649, -0.021366764158995633, -0.2207864700765471,-0.5862800210712951,-0.987823486328125,-0.41046142578125,0.2326202392578125
20220111-1135,2022-01-11 11:35:47Z,u01, 119,40,movements,el-ex, rt, d,76647.354579125, -1.801219778897224, 0.37660213467003634, 2.897656603795064, 0.03327371925115585, 0.11391007155179977, 0.08119893074035645, -0.905341386795044, -0.36776286363601685, 0.21238410472869873, -0.06060081720352173, -0.04932081699371338, 0.002322167158126831, -0.7782797491139142, -0.02174134754627821, -0.2198470269919126,-0.5877712688621508,-0.9591217041015625,-0.41595458984375,0.2096405029296875
20220111-1135,2022-01-11 11:35:47Z,u01, 120,40,movements,el-ex, rt, d,76647.37951912501, -1.7990894252550989, 0.37412426499015206, 2.8978939286168326, -0.001006558071821928, 0.07940176129341125, 0.12274491786956787, -0.9066767692565918, -0.3654575049877167, 0.21066054701805115, -0.05625951290130615, -0.010137557983398438, 0.01732085645198822, -0.7777382763302323, -0.021294345456022934, -0.21882533897323345,-0.5888846593186574,-0.9631805419921875,-0.3756256103515625,0.2318267822265625
20220111-1135,2022-01-11 11:35:47Z,u01, 121,40,movements,el-ex, rt, d,76647.404459125, -1.797528072626978, 0.37083703166470405, 2.896272815960997, -0.0734291598200798, 0.007362585514783859, 0.14397123456001282, -0.9081703424453735, -0.362395703792572, 0.2095135897397995, -0.06849890947341919, -0.022034257650375366, 0.06226062774658203, -0.7774087967686342, -0.019807964521269927, -0.2180550898854462,-0.5896568162466649,-0.9894866943359375,-0.383819580078125,0.2816162109375
20220111-1135,2022-01-11 11:35:47Z,u01, 122,40,movements,el-ex, rt, d,76647.42940012501, -1.7962273279709688, 0.3673418383288937, 2.8940876876965977, 0.012296164408326149, 0.031155064702033997, 0.16331064701080322, -0.9096709489822388, -0.35913586616516113, 0.20861391723155975, -0.0835387110710144, -0.042109131813049316, 0.026584938168525696, -0.7771632291105384, -0.01800764306932484, -0.21737807815068577,-0.5902877496267526,-0.992401123046875,-0.39764404296875,0.23492431640625
20220111-1135,2022-01-11 11:35:47Z,u01, 123,40,movements,el-ex, rt, d,76647.454340125, -1.796150058432897, 0.3637882554347673, 2.8943237025986615, 0.07822511345148087, -0.021573126316070557, 0.14076805114746094, -0.9109253287315369, -0.35581710934638977, 0.20882749557495117, -0.08132302761077881, -0.03117629885673523, 0.03117796778678894, -0.7772547063114588, -0.01699619961712584, -0.21597643809594944,-0.5907116835453454,-1.0047149658203125,-0.3874664306640625,0.230224609375
20220111-1135,2022-01-11 11:35:47Z,u01, 124,40,movements,el-ex, rt, d,76647.479280125, -1.7969157040967927, 0.3607982975656971, 2.8950707424634134, 0.029716167598962784, -0.011944202706217766, 0.09216403216123581, -0.9117980003356934, -0.3530212342739105, 0.20976248383522034, -0.13942569494247437, -0.04378354549407959, 0.028060898184776306, -0.777570935269724, -0.016269091626137377, -0.21464125239849752,-0.5908026949251366,-1.052947998046875,-0.397186279296875,0.238311767578125
20220111-1135,2022-01-11 11:35:47Z,u01, 125,40,movements,el-ex, rt, d,76647.50422112501, -1.7964632373205391, 0.35901154078404024, 2.8934413932781404, -0.10907357931137085, 0.0023172255605459213, 0.07266935706138611, -0.9125062823295593, -0.35134896636009216, 0.20949074625968933, -0.15753161907196045, -0.050323426723480225, 0.07497885823249817, -0.7775066520670093, -0.015125422130323363, -0.21444902873030172,-0.5909875639127431,-1.07244873046875,-0.4091033935546875,0.28948974609375
20220111-1135,2022-01-11 11:35:47Z,u01, 126,40,movements,el-ex, rt, d,76647.529161125, -1.7967132874700664, 0.35835518982926695, 2.8913863488065044, -0.016968347132205963, 0.005344575271010399, 0.04463013634085655, -0.9126782417297363, -0.3507343828678131, 0.20977048575878143, -0.1925768256187439, -0.063160240650177, 0.041465386748313904, -0.7776159652338087, -0.014094352669342669, -0.21481186118945592,-0.5907372853212618,-1.1077728271484375,-0.40972900390625,0.2483673095703125
20220111-1135,2022-01-11 11:35:47Z,u01, 127,40,movements,el-ex, rt, d,76647.554101125, -1.7968796382903947, 0.3581858372979616, 2.8913905134018587, -0.009633602574467659, 0.02225324884057045, 0.017268020659685135, -0.912701427936554, -0.3505757749080658, 0.20993566513061523, -0.21025395393371582, -0.045771270990371704, 0.03246548771858215, -0.7776703234528313, -0.014025122210134744, -0.21474830539432554,-0.5906906518848405,-1.130767822265625,-0.4176025390625,0.2440643310546875
20220111-1135,2022-01-11 11:35:47Z,u01, 128,40,movements,el-ex, rt, d,76647.579042125, -1.79584233559437, 0.35908483338997904, 2.8897805343955216, -0.11699488013982773, 0.03960414230823517, -0.026616480201482773, -0.9126109480857849, -0.35141757130622864, 0.20891834795475006, -0.2431659698486328, -0.06764978170394897, 0.03156006336212158, -0.7773473838246536, -0.013792084021953921, -0.21555362477919393,-0.5908277434034037,-1.155914306640625,-0.418060302734375,0.240570068359375
20220111-1135,2022-01-11 11:35:47Z,u01, 129,40,movements,el-ex, rt, d,76647.603982125, -1.793835835521999, 0.36056416129576, 2.8871629520186555, -0.09627062827348709, 0.043418191373348236, -0.04979170858860016, -0.9125204086303711, -0.35280218720436096, 0.20697158575057983, -0.24189859628677368, -0.08005917072296143, 0.04159405827522278, -0.7767269465275921, -0.013455269785642598, -0.21686736426104736,-0.5911707054844086,-1.1573333740234375,-0.42791748046875,0.23553466796875
20220111-1135,2022-01-11 11:35:47Z,u01, 130,40,movements,el-ex, rt, d,76647.628922125, -1.7915530702261446, 0.3626190255602045, 2.8849273176340153, -0.09256670624017715, 0.07455799728631973, -0.06082358583807945, -0.9122809767723083, -0.3547241687774658, 0.20472875237464905, -0.22687900066375732, -0.054287612438201904, 0.0229170024394989, -0.7760042925623591, -0.013480171066356295, -0.21828130701885654,-0.5915984840282547,-1.1355743408203125,-0.4076690673828125,0.22601318359375
20220111-1135,2022-01-11 11:35:47Z,u01, 131,40,movements,el-ex, rt, d,76647.653863125, -1.789111970766984, 0.3650057964292542, 2.8827834825348124, -0.09255494922399521, 0.06305267661809921, -0.0852324590086937, -0.9119489789009094, -0.3569547235965729, 0.2023172527551651, -0.18370825052261353, -0.042260974645614624, 0.0236196368932724, -0.775223757839427, -0.013665691738844077, -0.21979004035105631,-0.592058833508033,-1.08587646484375,-0.4180145263671875,0.2253265380859375
20220111-1135,2022-01-11 11:35:47Z,u01, 132,40,movements,el-ex, rt, d,76647.678803125, -1.7872199966320201, 0.36747129582795, 2.8812227228632876, -0.07598486542701721, 0.04828737676143646, -0.08836773037910461, -0.9114677309989929, -0.35925668478012085, 0.2004019021987915, -0.14862126111984253, -0.07885360717773438, 0.012381777167320251, -0.7745990513877865, -0.014044886880093421, -0.22115796096843632,-0.5923580901263144,-1.058807373046875,-0.4367523193359375,0.21112060546875
20220111-1135,2022-01-11 11:35:47Z,u01, 133,40,movements,el-ex, rt, d,76647.70374354167, -1.7852264787521361, 0.3698365300137737, 2.8799799762297016, -0.06309260427951813, 0.08239322155714035, -0.08291643857955933, -0.9110326170921326, -0.3614630103111267, 0.19840310513973236, -0.13234800100326538, -0.040773868560791016, 0.009955629706382751, -0.7739447295337231, -0.01452953641802096, -0.22239221215327137,-0.592739442242975,-1.0378265380859375,-0.3955078125,0.228302001953125
20220111-1135,2022-01-11 11:35:47Z,u01, 134,40,movements,el-ex, rt, d,76647.72868454167, -1.7831174201022792, 0.3715008494494608, 2.8786959609502247, -0.03832799941301346, 0.07025878876447678, -0.019048508256673813, -0.9108598232269287, -0.3630143105983734, 0.1963542252779007, -0.11965775489807129, -0.040489137172698975, 0.01658216118812561, -0.7732776308852267, -0.014792571121195863, -0.22337605190625479,-0.5932335417523882,-1.0305633544921875,-0.402191162109375,0.2088623046875
20220111-1135,2022-01-11 11:35:48Z,u01, 135,40,movements,el-ex, rt, d,76647.75362454167, -1.7805586362196626, 0.37155227205168717, 2.8785210686395595, -0.010415272787213326, 0.11563985049724579, 0.017277274280786514, -0.9113407135009766, -0.3630622327327728, 0.19401894509792328, -0.09139031171798706, -0.0014244318008422852, -0.02414301037788391, -0.7725177413229034, -0.015027061066041125, -0.22342797413901336,-0.5941971441245534,-0.9861297607421875,-0.3625946044921875,0.178558349609375
20220111-1135,2022-01-11 11:35:48Z,u01, 136,40,movements,el-ex, rt, d,76647.77856454167, -1.778052309753331, 0.37098298328893037, 2.8775610452772455, -0.06404594331979752, 0.09118924289941788, 0.04243575781583786, -0.9120265245437622, -0.36253172159194946, 0.19177676737308502, -0.07477456331253052, -0.02382078766822815, 0.004588589072227478, -0.7717970164822882, -0.014756430751667104, -0.223483666662552,-0.5951190122319804,-0.989044189453125,-0.3835601806640625,0.19537353515625
20220111-1135,2022-01-11 11:35:48Z,u01, 137,40,movements,el-ex, rt, d,76647.80350454168, -1.774400286936442, 0.369499403761663, 2.8762120343441544, -0.01607535593211651, 0.13921242952346802, 0.09251517057418823, -0.9132465124130249, -0.3611486554145813, 0.18855330348014832, -0.06333118677139282, -0.014339625835418701, 0.004378795623779297, -0.7707630928182232, -0.014174182981120331, -0.22330974887673727,-0.5965367363213959,-0.96942138671875,-0.3597564697265625,0.193511962890625
20220111-1135,2022-01-11 11:35:48Z,u01, 138,40,movements,el-ex, rt, d,76647.82844554167, -1.7705354720359863, 0.36634732055949054, 2.8748056931834447, -0.042271241545677185, 0.13864070177078247, 0.16854849457740784, -0.9150797128677368, -0.3582075238227844, 0.18524734675884247, -0.05728667974472046, -0.023338526487350464, 0.017633453011512756, -0.7697097118848869, -0.0130626089041469, -0.2225379290282867,-0.5982083635664481,-0.9727630615234375,-0.383636474609375,0.2029266357421875
20220111-1135,2022-01-11 11:35:48Z,u01, 139,40,movements,el-ex, rt, d,76647.85338554168, -1.765222400606074, 0.3621338047363201, 2.8718371871411112, -0.08830884099006653, 0.20031194388866425, 0.20924943685531616, -0.9175234436988831, -0.35427045822143555, 0.1806728094816208, -0.04916638135910034, 0.013190776109695435, -0.0071499645709991455, -0.7682523257445615, -0.01117004425815743, -0.22183988435380267,-0.600375269592188,-0.9574432373046875,-0.3253326416015625,0.1764068603515625
20220111-1135,2022-01-11 11:35:48Z,u01, 140,40,movements,el-ex, rt, d,76647.87832554168, -1.7588815926729788, 0.35637449152504724, 2.868892303264685, -0.04740884527564049, 0.22048825025558472, 0.2875910699367523, -0.9206399917602539, -0.3488788306713104, 0.1752300262451172, -0.036299705505371094, -0.03971672058105469, 0.020479202270507812, -0.7665088234988455, -0.008901294621354916, -0.22057282817040982,-0.6031024736939572,-0.958892822265625,-0.390869140625,0.1946258544921875
20220111-1135,2022-01-11 11:35:48Z,u01, 141,40,movements,el-ex, rt, d,76647.90326654167, -1.7513408145228453, 0.349012861508477, 2.865746486723361, -0.03536749631166458, 0.33169251680374146, 0.335739403963089, -0.9244367480278015, -0.3419703543186188, 0.16873937845230103, -0.07255721092224121, -0.009073376655578613, -0.0034714937210083008, -0.7644159194206684, -0.006163726185001717, -0.21879095457964792,-0.6064328573339568,-0.98809814453125,-0.3298797607421875,0.1488800048828125
20220111-1135,2022-01-11 11:35:48Z,u01, 142,40,movements,el-ex, rt, d,76647.92820654168, -1.7416596606654562, 0.3412378374662902, 2.861834735864368, -0.13550861179828644, 0.3241121172904968, 0.36261388659477234, -0.9286190271377563, -0.3346538245677948, 0.16022923588752747, 0.001281440258026123, 0.010770827531814575, 0.014376983046531677, -0.7616457555844249, -0.003219178346201945, -0.21711077230395007,-0.6105310954056995,-0.926971435546875,-0.33172607421875,0.17596435546875
20220111-1135,2022-01-11 11:35:48Z,u01, 143,40,movements,el-ex, rt, d,76647.95314654167, -1.731525479080268, 0.3327693279306329, 2.8556410844539184, -0.20811359584331512, 0.3563173711299896, 0.3893205523490906, -0.9329593181610107, -0.3266616761684418, 0.15125852823257446, -0.031243562698364258, -0.0029129087924957275, 0.03819453716278076, -0.7587019522832827, 0.0007844884121721019, -0.215912191237421,-0.6146158767380163,-0.9709625244140625,-0.3271942138671875,0.2007293701171875
20220111-1135,2022-01-11 11:35:48Z,u01, 144,40,movements,el-ex, rt, d,76647.97808754168, -1.720255709524887, 0.3228646696491256, 2.8509514974849255, -0.025464963167905807, 0.41927850246429443, 0.4263606071472168, -0.937758207321167, -0.3172845244407654, 0.14120978116989136, 0.016585052013397217, 0.044884562492370605, -0.02936290204524994, -0.7553700453852469, 0.00458109477207852, -0.21377592352446384,-0.6194311972596348,-0.9157562255859375,-0.268646240234375,0.111328125
20220111-1135,2022-01-11 11:35:48Z,u01, 145,40,movements,el-ex, rt, d,76648.00302754166, -1.709847791450126, 0.3120917965904111, 2.8481161496883773, -0.08790703862905502, 0.32985806465148926, 0.4759009778499603, -0.9425075650215149, -0.30705004930496216, 0.13190831243991852, 0.08087432384490967, 0.027509033679962158, 0.005542755126953125, -0.752255836073485, 0.008081793861361208, -0.21079211508385912,-0.6241895065137006,-0.8728179931640625,-0.3132476806640625,0.15423583984375
20220111-1135,2022-01-11 11:35:48Z,u01, 146,40,movements,el-ex, rt, d,76648.02796754167, -1.699945120758513, 0.29993156903397755, 2.8426599363417333, -0.15537776052951813, 0.359758585691452, 0.5666624307632446, -0.9474004507064819, -0.29545482993125916, 0.12304046750068665, -0.002672851085662842, -0.011109530925750732, 0.058996811509132385, -0.7492318970314557, 0.013107210476941855, -0.20816877702035141,-0.6286060667793614,-0.950469970703125,-0.301055908203125,0.17669677734375
20220111-1135,2022-01-11 11:35:48Z,u01, 147,40,movements,el-ex, rt, d,76648.05290854168, -1.6901021183736766, 0.2851171218235045, 2.8401613684801266, 0.12573526799678802, 0.35381627082824707, 0.6335378885269165, -0.9528071284294128, -0.2812698483467102, 0.1142178401350975, 0.03541827201843262, 0.0839279294013977, -0.03171360492706299, -0.7461815602226752, 0.017944384745957997, -0.20370873787793825,-0.633556439912869,-0.88714599609375,-0.18743896484375,0.0438385009765625
20220111-1135,2022-01-11 11:35:48Z,u01, 148,40,movements,el-ex, rt, d,76648.07784854167, -1.683153182103567, 0.2694263786780547, 2.8398905863741755, -0.22493885457515717, 0.17576929926872253, 0.625140368938446, -0.9578456878662109, -0.26617854833602905, 0.10807570070028305, 0.148626446723938, -0.009135812520980835, -0.048383355140686035, -0.743994709432227, 0.022577033556151704, -0.19823623077652164,-0.6377024789093997,-0.80841064453125,-0.289215087890625,0.0705108642578125
20220111-1135,2022-01-11 11:35:48Z,u01, 149,40,movements,el-ex, rt, d,76648.10278854167, -1.6779024372407916, 0.25364677900774757, 2.8255920541821964, -0.6002213954925537, 0.020564807578921318, 0.7543923854827881, -0.9624565839767456, -0.25093570351600647, 0.1034809872508049, 0.11399173736572266, -0.20833855867385864, 0.06106971949338913, -0.7420746342922839, 0.032645520039688514, -0.19722399210771538,-0.6398140968667199,-0.8772430419921875,-0.4228057861328125,0.1520538330078125
20220111-1135,2022-01-11 11:35:48Z,u01, 150,40,movements,el-ex, rt, d,76648.12772954167, -1.6732191812853348, 0.23542824969539114, 2.8115046266513852, -0.22847454249858856, 0.06960758566856384, 0.8030290007591248, -0.9673184156417847, -0.2332594394683838, 0.09942342340946198, 0.12773412466049194, 0.15131975710391998, -0.03632832318544388, -0.7401476912405267, 0.04350983568195649, -0.19531538003053023,-0.6419814185969559,-0.833404541015625,-0.0717010498046875,0.066375732421875
20220111-1135,2022-01-11 11:35:48Z,u01, 151,40,movements,el-ex, rt, d,76648.15266954167, -1.6720027167440399, 0.21555454358475434, 2.808153808305571, 0.04374822974205017, -0.023904725909233093, 0.8058645725250244, -0.9718593955039978, -0.21388916671276093, 0.09869558364152908, 0.19193685054779053, 0.08875182271003723, -0.016160830855369568, -0.7394028116657645, 0.05129593118393461, -0.18931785149150346,-0.6440582166743403,-0.792755126953125,-0.2136077880859375,0.0986480712890625
20220111-1135,2022-01-11 11:35:48Z,u01, 152,40,movements,el-ex, rt, d,76648.17760954167, -1.672301664656413, 0.19511558892041386, 2.804674400396758, -0.1630595177412033, 0.01853095181286335, 0.8364454507827759, -0.9759758114814758, -0.19387993216514587, 0.09940840303897858, 0.048866987228393555, -0.1367475390434265, -0.002347216010093689, -0.7390323777446932, 0.05945878441272384, -0.18311110163436714,-0.6455743630997888,-0.9330596923828125,-0.31378173828125,0.096466064453125
20220111-1135,2022-01-11 11:35:48Z,u01, 153,40,movements,el-ex, rt, d,76648.20255054167, -1.668828745085726, 0.17578921223440064, 2.798297392491413, -0.125287264585495, 0.131596177816391, 0.7515875101089478, -0.9798615574836731, -0.17488524317741394, 0.09636710584163666, 0.06248784065246582, 0.09611935913562775, -0.018379434943199158, -0.7372673545323114, 0.06797351857237321, -0.17835432685989994,-0.6480788827354262,-0.9023590087890625,-0.0355377197265625,0.0730438232421875
20220111-1135,2022-01-11 11:35:48Z,u01, 154,40,movements,el-ex, rt, d,76648.22749054167, -1.6640588331306148, 0.15912665553663208, 2.7935553175619727, -0.1219690665602684, 0.19357332587242126, 0.6305338144302368, -0.9830751419067383, -0.158455953001976, 0.09195079654455185, 0.09125995635986328, 0.10306653380393982, 0.03008890151977539, -0.7350967852594192, 0.07488734925105345, -0.17409241775575138,-0.6509350227522888,-0.893646240234375,-0.0571746826171875,0.1230926513671875
20220111-1135,2022-01-11 11:35:48Z,u01, 155,40,movements,el-ex, rt, d,76648.25243054167, -1.6576810066743413, 0.14460916525422013, 2.789285040916135, -0.031600020825862885, 0.2662251591682434, 0.5510187745094299, -0.9858297109603882, -0.1441056877374649, 0.0858696848154068, 0.05351758003234863, 0.037614598870277405, 0.08023751527070999, -0.732399444616397, 0.08078300655099624, -0.1705372325918459,-0.6542035756689929,-0.9460601806640625,-0.10186767578125,0.120880126953125
20220111-1135,2022-01-11 11:35:48Z,u01, 156,40,movements,el-ex, rt, d,76648.27737054168, -1.64969369912622, 0.13148373884976308, 2.7898497099557735, 0.1346682459115982, 0.34653183817863464, 0.4774240255355835, -0.9882844090461731, -0.1311052143573761, 0.07813523709774017, 0.08883994817733765, 0.07863025367259979, -0.023173101246356964, -0.7293533996100623, 0.08432814545162809, -0.16599237448700638,-0.6583151236058324,-0.8950958251953125,-0.0511932373046875,0.05462646484375
20220111-1135,2022-01-11 11:35:48Z,u01, 157,40,movements,el-ex, rt, d,76648.30231154167, -1.641390307480598, 0.1204916967973313, 2.7913203020984385, 0.092402383685112, 0.36956626176834106, 0.395587682723999, -0.9902768135070801, -0.12020035088062286, 0.07002394646406174, 0.0811735987663269, -0.017922207713127136, 0.0005936548113822937, -0.7262730189103148, 0.08683014496496638, -0.1619441843656919,-0.6623910956856327,-0.9247283935546875,-0.13714599609375,0.030792236328125
20220111-1135,2022-01-11 11:35:48Z,u01, 158,40,movements,el-ex, rt, d,76648.32725154168, -1.6312649153968621, 0.1110153519337788, 2.7907320403940337, -0.0710817500948906, 0.3535153865814209, 0.37284988164901733, -0.9920276403427124, -0.11078745871782303, 0.06005973368883133, 0.12215471267700195, 0.009697981178760529, 0.06910586357116699, -0.722515564183728, 0.08944901241734032, -0.15921891353213335,-0.666797898224338,-0.8708038330078125,-0.1065673828125,0.130096435546875
20220111-1135,2022-01-11 11:35:48Z,u01, 159,40,movements,el-ex, rt, d,76648.35219154166, -1.6218590267024937, 0.10260003547644986, 2.787968449601396, -0.059267934411764145, 0.41915732622146606, 0.3554925322532654, -0.993444561958313, -0.10242012143135071, 0.05077209696173668, 0.05257248878479004, 0.036624230444431305, 0.06818532943725586, -0.7188996317689237, 0.09257088215239251, -0.15759252581460936,-0.6706552441399793,-0.94158935546875,-0.082611083984375,0.12646484375
20220111-1135,2022-01-11 11:35:48Z,u01, 160,40,movements,el-ex, rt, d,76648.37713254167, -1.6111063148639648, 0.09422038398486152, 2.788243519985733, 0.05311843007802963, 0.4403548240661621, 0.31408923864364624, -0.9947556257247925, -0.09408103674650192, 0.04012031853199005, 0.09302246570587158, 0.04041589796543121, 0.04679369181394577, -0.7149330095759316, 0.0945037138509005, -0.1550491212097756,-0.6752032553738962,-0.8983917236328125,-0.0535430908203125,0.0852508544921875
20220111-1135,2022-01-11 11:35:48Z,u01, 161,40,movements,el-ex, rt, d,76648.40207254168, -1.6005065889884975, 0.08650218795834286, 2.7901794192998537, 0.04259578138589859, 0.43262720108032227, 0.2877785861492157, -0.9958212971687317, -0.08639435470104218, 0.029594819992780685, 0.10824811458587646, 0.01245027780532837, 0.015601634979248047, -0.711088597603766, 0.09565780920495232, -0.15218814113596568,-0.6797362063996817,-0.8945159912109375,-0.06915283203125,0.068115234375
20220111-1135,2022-01-11 11:35:48Z,u01, 162,40,movements,el-ex, rt, d,76648.42701254167, -1.5900675463024798, 0.0791557965001511, 2.7903196531440586, 0.03816947340965271, 0.46731436252593994, 0.30995821952819824, -0.9966835975646973, -0.07907316088676453, 0.019209686666727066, 0.035547852516174316, -0.04742216318845749, 0.005158541724085808, -0.7071955114600369, 0.0973619628862078, -0.15007633743499071,-0.6840117966459708,-0.9609375,-0.1216278076171875,0.0240631103515625
20220111-1135,2022-01-11 11:35:48Z,u01, 163,40,movements,el-ex, rt, d,76648.45195354168, -1.578702375169915, 0.07148994407661996, 2.7930244730809313, 0.18695609271526337, 0.45378267765045166, 0.28343191742897034, -0.9974144697189331, -0.0714290663599968, 0.007885771803557873, 0.07988828420639038, -0.011426150798797607, 0.0047637224197387695, -0.7030601529084832, 0.09823088690259218, -0.14703634372043445,-0.6887941690642341,-0.9073486328125,-0.0585479736328125,0.0211334228515625
20220111-1135,2022-01-11 11:35:48Z,u01, 164,40,movements,el-ex, rt, d,76648.47689354167, -1.5688811918299277, 0.06403038147009665, 2.7955196015482766, 0.033880814909935, 0.35332804918289185, 0.3289371430873871, -0.9979488849639893, -0.063986636698246, -0.001911209081299603, 0.08539706468582153, -0.079903744161129, 0.07992935180664062, -0.6994240659892375, 0.09924903702963395, -0.1440746161255851,-0.6929632479499584,-0.9148101806640625,-0.1490936279296875,0.0735931396484375
20220111-1135,2022-01-11 11:35:48Z,u01, 165,40,movements,el-ex, rt, d,76648.50183354167, -1.5610169833656407, 0.05567940736864325, 2.795177474655657, -0.0022534504532814026, 0.28497248888015747, 0.34071558713912964, -0.9984025955200195, -0.05565064400434494, -0.009764033369719982, 0.07399463653564453, -0.06637391448020935, -0.004106283187866211, -0.6962524719144334, 0.10173730329966818, -0.14170529820852706,-0.6962769869836606,-0.9249420166015625,-0.111114501953125,-0.0124053955078125
20220111-1135,2022-01-11 11:35:48Z,u01, 166,40,movements,el-ex, rt, d,76648.52677454166, -1.5542964636701078, 0.04771875419228797, 2.7953710629844086, -0.0562935471534729, 0.2636341154575348, 0.316241592168808, -0.9987255930900574, -0.04770064726471901, -0.016480330377817154, 0.07598096132278442, -0.03959491476416588, -0.013045428320765495, -0.6935011282007254, 0.10400009523482079, -0.139242773124362,-0.6991791393467682,-0.9182586669921875,-0.083587646484375,-0.0308380126953125
20220111-1135,2022-01-11 11:35:48Z,u01, 167,40,movements,el-ex, rt, d,76648.55171454167, -1.5493925818943435, 0.04058277890274701, 2.793090815308574, -0.08031246811151505, 0.15714655816555023, 0.255601167678833, -0.9989476203918457, -0.04057164117693901, -0.021384485065937042, 0.11488407850265503, 0.0005325451493263245, -0.010781105607748032, -0.6912783713503381, 0.10696714731104584, -0.1378486965376185,-0.7012059708843417,-0.8926849365234375,-0.0303955078125,-0.02642822265625
20220111-1135,2022-01-11 11:35:48Z,u01, 168,40,movements,el-ex, rt, d,76648.57665454167, -1.5460586917896757, 0.03474861433452583, 2.7917053206550904, -0.030896946787834167, 0.13360214233398438, 0.2310921549797058, -0.9990904927253723, -0.03474162146449089, -0.02472017891705036, 0.07138669490814209, -0.0006893277168273926, 0.027405619621276855, -0.6897088388273127, 0.10927775628914266, -0.1365146399616015,-0.702654826758734,-0.93060302734375,-0.043853759765625,-0.001953125
20220111-1135,2022-01-11 11:35:48Z,u01, 169,40,movements,el-ex, rt, d,76648.60159554167, -1.542971450300707, 0.02927040067505154, 2.7922665173187085, 0.03210468962788582, 0.11225378513336182, 0.2237139344215393, -0.9991847276687622, -0.029266221448779106, -0.027809368446469307, 0.06311905384063721, -0.02613845467567444, -0.02280402183532715, -0.688342876095656, 0.11081245699454884, -0.13461074830766429,-0.7041197454942174,-0.919830322265625,-0.05572509765625,-0.047943115234375
20220111-1135,2022-01-11 11:35:48Z,u01, 170,40,movements,el-ex, rt, d,76648.62653554167, -1.5418339886149752, 0.02517616031030335, 2.792165646131404, -0.0795012041926384, 0.006155040115118027, 0.09572002291679382, -0.9992637038230896, -0.025173500180244446, -0.028949107974767685, 0.061672329902648926, -0.04715317115187645, -0.010952707380056381, -0.6877006358222262, 0.11221979110576158, -0.1333081479427467,-0.7047718314808451,-0.9400177001953125,-0.0676116943359375,-0.0418701171875
20220111-1135,2022-01-11 11:35:48Z,u01, 171,40,movements,el-ex, rt, d,76648.65147554167, -1.541356723243058, 0.02354542157990705, 2.790028472806058, -0.033485304564237595, 0.04001833498477936, 0.04200046509504318, -0.9992894530296326, -0.02354324609041214, -0.029427187517285347, 0.03008192777633667, 0.011107329279184341, 0.009667044505476952, -0.6873166788708331, 0.11349973084022252, -0.1335301703798037,-0.7048993825346915,-0.9676666259765625,-0.0146331787109375,-0.0205535888671875
20220111-1135,2022-01-11 11:35:48Z,u01, 172,40,movements,el-ex, rt, d,76648.67641554167, -1.5400330825655961, 0.023034292898638283, 2.791373013409172, 0.13259653747081757, 0.05677853524684906, 0.05469109117984772, -0.9992614388465881, -0.023032255470752716, -0.030750226229429245, 0.02645289897918701, 0.026221370324492455, -0.02874385565519333, -0.6868961811015993, 0.11313056018352885, -0.1329562112543219,-0.7054768014689073,-0.97314453125,0.0017547607421875,-0.064483642578125
20220111-1135,2022-01-11 11:35:48Z,u01, 173,40,movements,el-ex, rt, d,76648.70135575, -1.5392073759911673, 0.022856763293291452, 2.79486325828017, 0.056158192455768585, -0.023216497153043747, -0.021863136440515518, -0.999239981174469, -0.022854773327708244, -0.03157544508576393, 0.04582512378692627, 0.026684701442718506, -0.04748034477233887, -0.6867908453754739, 0.1119402137390742, -0.1317104028277507,-0.7060028713696166,-0.9494476318359375,0.0157318115234375,-0.0672149658203125
20220111-1135,2022-01-11 11:35:48Z,u01, 174,40,movements,el-ex, rt, d,76648.72629575, -1.5407532278308975, 0.024061457612482857, 2.7930896774593985, -0.13236194849014282, -0.05985606834292412, -0.05358438193798065, -0.9992594718933105, -0.02405913546681404, -0.030029885470867157, -0.019188404083251953, -0.10483190417289734, 0.07864439487457275, -0.6873067905915797, 0.11222491993866313, -0.13266163275904447,-0.7052771623472698,-1.0229949951171875,-0.13543701171875,0.0491485595703125
20220111-1135,2022-01-11 11:35:49Z,u01, 175,40,movements,el-ex, rt, d,76648.75123575001, -1.5414352680048438, 0.024311870533947063, 2.7906074448825255, 0.07166508585214615, 0.023697147145867348, -0.003691656980663538, -0.9992734789848328, -0.024309474974870682, -0.029348161071538925, -0.02213442325592041, -0.010678943246603012, -0.015650030225515366, -0.6874220419236668, 0.11303475299172538, -0.13358394552383202,-0.7048611925497459,-1.0093841552734375,0.02447509765625,-0.087158203125
20220111-1135,2022-01-11 11:35:49Z,u01, 176,40,movements,el-ex, rt, d,76648.77617675, -1.5401785766765492, 0.02430957359888868, 2.7952950903655367, 0.18092025816440582, -0.000676766037940979, -0.034678470343351364, -0.9992358684539795, -0.02430718019604683, -0.030603917315602303, 0.030241847038269043, 0.15978994965553284, -0.10226964950561523, -0.6872417273928826, 0.11134113928304296, -0.13200070579257617,-0.7056044503687149,-0.9681243896484375,0.1341705322265625,-0.1290130615234375
20220111-1135,2022-01-11 11:35:49Z,u01, 177,40,movements,el-ex, rt, d,76648.80111675001, -1.5416741329410766, 0.025976785687864386, 2.7960526668722534, -0.14355865120887756, -0.09960554540157318, -0.09451976418495178, -0.9992385506629944, -0.025973863899707794, -0.02910824865102768, -0.004530191421508789, -0.015133317559957504, 0.04689991846680641, -0.6879069322532954, 0.11058900659146159, -0.13222112607155162,-0.705032981774794,-1.032623291015625,-0.111785888671875,0.04949951171875
20220111-1135,2022-01-11 11:35:49Z,u01, 178,40,movements,el-ex, rt, d,76648.82605675001, -1.5433638808270567, 0.028244257069872502, 2.7923344587926864, -0.002481117844581604, -0.023589804768562317, -0.020189540460705757, -0.9992250204086304, -0.028240501880645752, -0.027418063953518867, -0.018993914127349854, 0.05234938859939575, -0.04341328144073486, -0.6884259688652048, 0.11117847560504951, -0.13421368673264855,-0.7040565713339932,-1.0101165771484375,0.035491943359375,-0.079315185546875
20220111-1135,2022-01-11 11:35:49Z,u01, 179,40,movements,el-ex, rt, d,76648.85099775, -1.543977575535516, 0.028576976975826826, 2.796459036011523, 0.1339329183101654, -0.08751125633716583, -0.047196123749017715, -0.999232292175293, -0.028573088347911835, -0.026804588735103607, 0.04584789276123047, 0.08309271931648254, -0.08949792385101318, -0.6888887158992292, 0.10968155057701712, -0.13284179528910572,-0.7040989990386369,-0.9503936767578125,0.014190673828125,-0.0948486328125
20220111-1135,2022-01-11 11:35:49Z,u01, 180,40,movements,el-ex, rt, d,76648.87593775001, -1.5475651653433837, 0.030210590272442495, 2.794521232252546, -0.20614610612392426, -0.20772449672222137, -0.15136034786701202, -0.9992738962173462, -0.030205994844436646, -0.023218469694256783, 0.026266813278198242, -0.004309382289648056, 0.020151378586888313, -0.6901363990416174, 0.11001143409425507, -0.13388644909969016,-0.7026261858474776,-0.974853515625,-0.030670166015625,-0.0017852783203125
20220111-1135,2022-01-11 11:35:49Z,u01, 181,40,movements,el-ex, rt, d,76648.90087775, -1.5524665738404557, 0.034519303806921135, 2.7925360141184354, 0.07727456837892532, -0.16434985399246216, -0.1524817943572998, -0.9992361664772034, -0.03451244905591011, -0.018317803740501404, 0.01927119493484497, 0.015179581940174103, -0.019524093717336655, -0.6919892396751519, 0.10950794657709845, -0.13579399177676554,-0.7005131511294288,-0.9646453857421875,-0.028472900390625,-0.055908203125
20220111-1135,2022-01-11 11:35:49Z,u01, 182,40,movements,el-ex, rt, d,76648.92581875001, -1.5565734122045318, 0.037771778672038535, 2.793726076661441, -0.040605898946523666, -0.2767640948295593, -0.21253561973571777, -0.9991856813430786, -0.03776279836893082, -0.0142122907564044, 0.10975086688995361, 0.00614657998085022, -0.03696572780609131, -0.6936714842775584, 0.10822997075403568, -0.13627357037146626,-0.6989532605115412,-0.8892669677734375,-0.0325775146484375,-0.0460968017578125
20220111-1135,2022-01-11 11:35:49Z,u01, 183,40,movements,el-ex, rt, d,76648.95075875, -1.5638802673559258, 0.04408684205211809, 2.79058525797199, -0.1416701376438141, -0.32993078231811523, -0.2950623035430908, -0.9990044236183167, -0.04407256096601486, -0.006909284275025129, 0.06466305255889893, -0.007380068302154541, 0.0060547590255737305, -0.6963950939005331, 0.10760683596151599, -0.13915306840144942,-0.6957665145362718,-0.942047119140625,-0.0432281494140625,-0.008544921875
20220111-1135,2022-01-11 11:35:49Z,u01, 184,40,movements,el-ex, rt, d,76648.97569875, -1.5719322074027744, 0.05153181313986979, 2.7896626223967225, 0.05839398503303528, -0.32550033926963806, -0.3100926876068115, -0.9986719489097595, -0.051509007811546326, 0.0011343725491315126, 0.08164918422698975, 0.003871046006679535, -0.016393184661865234, -0.6995390173342921, 0.10588838239390663, -0.1416196700568514,-0.6923703881896927,-0.9163970947265625,-0.048980712890625,-0.018218994140625
20220111-1135,2022-01-11 11:35:49Z,u01, 185,40,movements,el-ex, rt, d,76649.00063975001, -1.5805951225716894, 0.05948204858571686, 2.7917798573993893, 0.07568489015102386, -0.39099425077438354, -0.3627711832523346, -0.9981836080551147, -0.05944697931408882, 0.009781310334801674, 0.11851441860198975, 0.010283142328262329, -0.0512242317199707, -0.7030531226275532, 0.10299010652169682, -0.1431967701523691,-0.688915171205932,-0.877166748046875,-0.0537261962890625,-0.020599365234375
20220111-1135,2022-01-11 11:35:49Z,u01, 186,40,movements,el-ex, rt, d,76649.02557975, -1.5916372094814997, 0.06939845714447838, 2.791040314591619, -0.13805435597896576, -0.5043212175369263, -0.39820095896720886, -0.9973761439323425, -0.06934276223182678, 0.020789209753274918, 0.09784013032913208, -0.01946338266134262, 0.033440470695495605, -0.7072997866385446, 0.10060624397200052, -0.14634597277342704,-0.6842427475598243,-0.9031829833984375,-0.097198486328125,0.0554962158203125
20220111-1135,2022-01-11 11:35:49Z,u01, 187,40,movements,el-ex, rt, d,76649.05051975, -1.6037281498539795, 0.08000604668239923, 2.789165210298574, 0.01912294514477253, -0.4869934618473053, -0.42373761534690857, -0.9962606430053711, -0.07992072403430939, 0.03282054513692856, 0.06758034229278564, -0.02641776204109192, 0.015549778938293457, -0.7118338938170927, 0.09850269234624731, -0.15009832731345035,-0.6790140912731265,-0.9013671875,-0.0557708740234375,0.022125244140625
20220111-1135,2022-01-11 11:35:49Z,u01, 188,40,movements,el-ex, rt, d,76649.07545975, -1.618406740344361, 0.09070729445494374, 2.803448173405456, 1.0737749338150024, -0.5961742401123047, -0.5328025221824646, -0.9947602152824402, -0.0905829593539238, 0.047396764159202576, 0.2393282651901245, 0.2098456472158432, -0.11516106873750687, -0.7179490519867437, 0.09081596763540528, -0.1483430782571421,-0.6740146556349431,-0.7482147216796875,0.1262054443359375,-0.064605712890625
20220111-1135,2022-01-11 11:35:49Z,u01, 189,40,movements,el-ex, rt, d,76649.10040075, -1.6387731529117362, 0.10484319249353531, 2.831048096667516, 0.8861232995986938, -0.8095614314079285, -0.7350541949272156, -0.9922121167182922, -0.10465122014284134, 0.06755150854587555, 0.2680758237838745, 0.06723669171333313, 0.06713783740997314, -0.7264762726540863, 0.077511166532711, -0.14325692784642496,-0.6676089325902949,-0.7754058837890625,-0.15283203125,0.192779541015625
20220111-1135,2022-01-11 11:35:49Z,u01, 190,40,movements,el-ex, rt, d,76649.12534075, -1.6611920614862181, 0.12151952725523653, 2.8439929684622287, 0.04645819962024689, -0.8460066914558411, -0.6320744752883911, -0.9885727167129517, -0.1212206706404686, 0.08960696309804916, 0.030595481395721436, -0.1963757574558258, 0.13669610023498535, -0.7348986834966922, 0.06875613664798075, -0.14413945287398888,-0.6591056773144125,-0.957916259765625,-0.2981109619140625,0.2203216552734375
20220111-1135,2022-01-11 11:35:49Z,u01, 191,40,movements,el-ex, rt, d,76649.15028075001, -1.6836965294942368, 0.13782704683879807, 2.844577099252853, 0.01941302791237831, -0.9269246459007263, -0.7327930331230164, -0.9842108488082886, -0.1373910903930664, 0.111592136323452, 0.1636541485786438, 0.16130156815052032, -0.007435664534568787, -0.7427011460154764, 0.06473853287934045, -0.14911664256644175,-0.6495907845845239,-0.7877349853515625,0.0773468017578125,0.1002960205078125
20220111-1135,2022-01-11 11:35:49Z,u01, 192,40,movements,el-ex, rt, d,76649.17522175, -1.7077278052657348, 0.1568733994785636, 2.8527591602084326, 0.20024409890174866, -0.8841456770896912, -0.8230088949203491, -0.9784749746322632, -0.15623076260089874, 0.13482776284217834, 0.16298437118530273, 0.018031910061836243, -0.0015576034784317017, -0.7510936423481168, 0.05720333277821943, -0.1527244668742602,-0.6397353183717086,-0.8203887939453125,-0.147125244140625,0.1421966552734375
20220111-1135,2022-01-11 11:35:49Z,u01, 193,40,movements,el-ex, rt, d,76649.20016175, -1.7304835374042753, 0.17770234100282728, 2.851870720674422, -0.3784579932689667, -0.9149160385131836, -0.804275631904602, -0.9717296361923218, -0.17676857113838196, 0.15650536119937897, 0.05020582675933838, -0.06303855776786804, 0.09233483672142029, -0.7586134742843309, 0.05251930210740857, -0.16008017361202717,-0.6293818191624785,-0.972564697265625,-0.2451171875,0.23138427734375
20220111-1135,2022-01-11 11:35:49Z,u01, 194,40,movements,el-ex, rt, d,76649.22510175001, -1.7496077988934031, 0.19746188495213254, 2.849358978520682, 0.0009509315714240074, -0.6528670191764832, -0.7199259996414185, -0.9649330973625183, -0.19618117809295654, 0.1744038462638855, -0.05526936054229736, 0.08706560730934143, -0.04891563951969147, -0.7647441630066079, 0.04866507417715077, -0.16773356649126725,-0.6202123497115634,-1.01385498046875,-0.1025848388671875,0.120452880859375
20220111-1135,2022-01-11 11:35:49Z,u01, 195,40,movements,el-ex, rt, d,76649.25004275, -1.7663616438243024, 0.21459003164928395, 2.8551766260132614, 0.021965069696307182, -0.6348596215248108, -0.7310328483581543, -0.9584389925003052, -0.21294687688350677, 0.1898641139268875, 0.04491060972213745, 0.12028026580810547, -0.0657339096069336, -0.770153218980808, 0.0423801832650349, -0.17196967488519826,-0.6127759766059184,-0.9101104736328125,-0.130035400390625,0.16558837890625
20220111-1135,2022-01-11 11:35:49Z,u01, 196,40,movements,el-ex, rt, d,76649.27498275001, -1.7822437537396107, 0.23328593119623786, 2.8540395449071143, -0.5168033838272095, -0.6088716387748718, -0.6858921647071838, -0.9512434601783752, -0.23117569088935852, 0.2041902095079422, -0.01990211009979248, 0.01205947995185852, 0.11580181121826172, -0.7750025581955997, 0.03829015505745581, -0.1790290335798255,-0.6048582223913532,-0.9755859375,-0.2252349853515625,0.3395233154296875
20220111-1135,2022-01-11 11:35:49Z,u01, 197,40,movements,el-ex, rt, d,76649.29992275001, -1.7949724828120657, 0.2509900047739218, 2.846463630791795, -0.16031835973262787, -0.43113747239112854, -0.6017093062400818, -0.9444286823272705, -0.24836306273937225, 0.21533779799938202, -0.12165713310241699, -0.12733882665634155, 0.07665431499481201, -0.7786603981323568, 0.036835857095150526, -0.18774971377326805,-0.5975626935837741,-1.0896759033203125,-0.350433349609375,0.2429962158203125
20220111-1135,2022-01-11 11:35:49Z,u01, 198,40,movements,el-ex, rt, d,76649.32486375001, -1.80360119314273, 0.26492133405339, 2.8491412788728128, 0.15544207394123077, -0.24515628814697266, -0.5664036273956299, -0.9390773177146912, -0.2618333399295807, 0.2226589471101761, -0.06943702697753906, 0.07680529356002808, -0.07709014415740967, -0.7812098626900372, 0.03225867457742054, -0.19207333675191282,-0.5931090340499965,-1.0048828125,-0.182952880859375,0.15338134765625
20220111-1135,2022-01-11 11:35:49Z,u01, 199,40,movements,el-ex, rt, d,76649.34980375001, -1.8117138772929227, 0.2773898464651368, 2.8560918617567137, 0.054192814975976944, -0.24285957217216492, -0.5066542625427246, -0.9339969158172607, -0.27384620904922485, 0.22947315871715546, -0.06609457731246948, 0.0035520195960998535, 0.06306827068328857, -0.7836052126387791, 0.026447184852264383, -0.1946271883992241,-0.5893926159678431,-1.0138092041015625,-0.289306640625,0.3168487548828125
20220111-1135,2022-01-11 11:35:49Z,u01, 200,40,movements,el-ex, rt, d,76649.37474375, -1.8169763241234245, 0.2888293215549149, 2.855971411367907, -0.17994605004787445, -0.1718791425228119, -0.4016903042793274, -0.9296770095825195, -0.284830242395401, 0.2336062788963318, -0.06780505180358887, -0.024343281984329224, 0.07687945663928986, -0.7850174080147118, 0.02346924452803112, -0.19894152223797734,-0.5861902003451324,-0.99603271484375,-0.3047637939453125,0.305206298828125
20220111-1135,2022-01-11 11:35:49Z,u01, 201,40,movements,el-ex, rt, d,76649.39968375, -1.8199465769497483, 0.29878448051144624, 2.85463802687887, -0.008508683182299137, -0.10310254245996475, -0.3639400601387024, -0.9261852502822876, -0.2943587601184845, 0.2356557697057724, -0.029121696949005127, 0.016252100467681885, 0.020035728812217712, -0.7857339208265611, 0.021215266852019632, -0.2030799645680347,-0.5838926105100991,-0.9463653564453125,-0.287384033203125,0.2094573974609375
20220111-1135,2022-01-11 11:35:49Z,u01, 202,40,movements,el-ex, rt, d,76649.42462475, -1.8228723650392122, 0.30748486349859555, 2.858425920820921, 0.006791143678128719, -0.06210803613066673, -0.3699066638946533, -0.9229769110679626, -0.3026624321937561, 0.23771685361862183, 0.03361833095550537, 0.039661914110183716, -0.020752161741256714, -0.7864843967366203, 0.017341236403728755, -0.20525278924629806,-0.5822481923560201,-0.884033203125,-0.2655181884765625,0.2234039306640625
20220111-1135,2022-01-11 11:35:49Z,u01, 203,40,movements,el-ex, rt, d,76649.44956475, -1.8257771397483484, 0.3168159296840913, 2.8591210808554695, -0.13288390636444092, -0.14337006211280823, -0.39284732937812805, -0.9195095300674438, -0.3115425407886505, 0.23967409133911133, 0.06005823612213135, -0.009593963623046875, 0.03817319869995117, -0.7871638619555246, 0.014494822093232385, -0.2085734926040656,-0.5802241983387921,-0.8726348876953125,-0.311614990234375,0.290679931640625
20220111-1135,2022-01-11 11:35:49Z,u01, 204,40,movements,el-ex, rt, d,76649.47450475, -1.8278913793473999, 0.3278292553648781, 2.8543201686212774, -0.3955003023147583, -0.15239651501178741, -0.33710676431655884, -0.9156264662742615, -0.32198864221572876, 0.24073047935962677, -0.017753541469573975, 0.011762261390686035, 0.13817571103572845, -0.7875217039752498, 0.013221335520788857, -0.21413099802176128,-0.5777391644228027,-0.9374237060546875,-0.3169097900390625,0.368927001953125
20220111-1135,2022-01-11 11:35:49Z,u01, 205,40,movements,el-ex, rt, d,76649.49944575, -1.8290023156578232, 0.3373000722328775, 2.851046264770238, -0.0657314583659172, -0.0017795804888010025, -0.3205384314060211, -0.9123692512512207, -0.33094051480293274, 0.2409580796957016, -0.0734553337097168, 0.0045244693756103516, -0.015433192253112793, -0.787617718191994, 0.01172044070799766, -0.21866006936658977,-0.5759416341600136,-0.9749755859375,-0.302337646484375,0.18896484375
20220111-1135,2022-01-11 11:35:49Z,u01, 206,40,movements,el-ex, rt, d,76649.52438575, -1.8293580317689766, 0.34455642647536205, 2.855306671494973, 0.15070338547229767, 0.05228898301720619, -0.33726388216018677, -0.9099377393722534, -0.3377791941165924, 0.24066218733787537, 0.04847240447998047, 0.029917925596237183, -0.06120362877845764, -0.7875718574752775, 0.007852752904167815, -0.22018154156394776,-0.5754901254516324,-0.85565185546875,-0.3096160888671875,0.183258056640625
20220111-1135,2022-01-11 11:35:49Z,u01, 207,40,movements,el-ex, rt, d,76649.54932575, -1.8304379946577911, 0.35262483619602586, 2.858144631412505, -0.11917178332805634, -0.05156577751040459, -0.32972875237464905, -0.9070137143135071, -0.3453623354434967, 0.24093720316886902, 0.05049222707748413, -0.012975037097930908, 0.0828847736120224, -0.787686130567802, 0.004377544148343959, -0.22241867106523702,-0.5745095542170894,-0.8881378173828125,-0.3837890625,0.3436431884765625
20220111-1135,2022-01-11 11:35:49Z,u01, 208,40,movements,el-ex, rt, d,76649.57426675, -1.8296338971912567, 0.36031111061297433, 2.856755071086694, -0.16824308037757874, 0.07300271093845367, -0.23950918018817902, -0.9046143889427185, -0.35256537795066833, 0.23952129483222961, -0.04628276824951172, -0.017628103494644165, 0.06698203086853027, -0.7872448915446719, 0.0024750248412492293, -0.22572765994506178,-0.5738347834363935,-0.9477691650390625,-0.3648681640625,0.3021392822265625
20220111-1135,2022-01-11 11:35:49Z,u01, 209,40,movements,el-ex, rt, d,76649.59920675, -1.8277527985912305, 0.3660388044738046, 2.855443570723296, -0.0012185131199657917, 0.04319428652524948, -0.18796709179878235, -0.903095543384552, -0.35791948437690735, 0.23730212450027466, 0.012424707412719727, 0.03690508008003235, -0.024731963872909546, -0.786543088485858, 0.00101764843284885, -0.22826932472410402,-0.5737962455846823,-0.87701416015625,-0.32025146484375,0.19476318359375
20220111-1135,2022-01-11 11:35:49Z,u01, 210,40,movements,el-ex, rt, d,76649.62414675001, -1.8278580619838993, 0.3698677151151324, 2.8574069199157917, 0.016436446458101273, 0.002507174387574196, -0.1352430284023285, -0.9017384648323059, -0.3614920973777771, 0.237047016620636, 0.03996777534484863, -0.03790673613548279, 0.014555126428604126, -0.7864621194810382, -0.000919506989709884, -0.2291510994825098,-0.5735558493283062,-0.863037109375,-0.4052734375,0.2520599365234375
20220111-1135,2022-01-11 11:35:49Z,u01, 211,40,movements,el-ex, rt, d,76649.64908675001, -1.827963951672729, 0.3726931955969768, 2.8578034158571506, -0.11774822324514389, 0.02910849265754223, -0.1114731878042221, -0.9007216691970825, -0.3641250431537628, 0.23688170313835144, 0.009074628353118896, -0.0073500871658325195, 0.012553632259368896, -0.7864077296436796, -0.0019317995560501622, -0.23010344994833018,-0.5732463438975154,-0.8937530517578125,-0.328826904296875,0.2618408203125
20220111-1135,2022-01-11 11:35:49Z,u01, 212,40,movements,el-ex, rt, d,76649.67402775, -1.8262647341168643, 0.3750730672554519, 2.8551741271985307, -0.03275350108742714, 0.023904811590909958, -0.09528049826622009, -0.9002818465232849, -0.3663405179977417, 0.235131174325943, 0.02795243263244629, 0.027442902326583862, 0.009360253810882568, -0.7858512915792641, -0.0018264557691585193, -0.23175258579878513,-0.5733453905951754,-0.872406005859375,-0.3458251953125,0.24273681640625
20220111-1135,2022-01-11 11:35:49Z,u01, 213,40,movements,el-ex, rt, d,76649.69896787501, -1.8250905060815141, 0.3767834036348047, 2.8561127342948276, 0.003235657699406147, 0.04029043763875961, -0.08666809648275375, -0.8999499678611755, -0.36793142557144165, 0.2339160144329071, 0.01928889751434326, -0.033451080322265625, 0.015458375215530396, -0.7854615465489927, -0.0028578068205244445, -0.23212608666222928,-0.5737242874228086,-0.878387451171875,-0.4122772216796875,0.2547760009765625
20220111-1135,2022-01-11 11:35:49Z,u01, 214,40,movements,el-ex, rt, d,76649.723907875, -1.825916613410544, 0.379718462599909, 2.8566699864428466, 0.0011784657835960388, -0.0039772214367985725, -0.00516265444457531, -0.8987075686454773, -0.3706589937210083, 0.23438583314418793, 0.02224266529083252, -0.042396485805511475, 0.014454394578933716, -0.785606665242219, -0.0038841770846391177, -0.23307253967050334,-0.5731355048973285,-0.8789825439453125,-0.413421630859375,0.2533721923828125
20220111-1135,2022-01-11 11:35:50Z,u01, 215,40,movements,el-ex, rt, d,76649.74884887501, -1.8270694263218825, 0.3768212064890682, 2.8574067603599613, 5.9271231293678284e-05, 0.025353502482175827, 0.0645008459687233, -0.8994717597961426, -0.36796656250953674, 0.23569293320178986, -0.024386882781982422, -0.03463658690452576, -0.0048427581787109375, -0.7860257962896662, -0.003148333533038339, -0.2317722876469035,-0.5730926051098344,-0.931060791015625,-0.3791046142578125,0.2319183349609375
20220111-1135,2022-01-11 11:35:50Z,u01, 216,40,movements,el-ex, rt, d,76649.773788875, -1.8256349575804827, 0.37607087472278083, 2.855408652552612, -0.07938562333583832, 0.06464391946792603, 0.10157044231891632, -0.9000758528709412, -0.36726877093315125, 0.23447196185588837, 0.006261706352233887, 0.009984195232391357, -0.009114950895309448, -0.7856403110037686, -0.0022987060860183983, -0.23206047095190444,-0.5735084722183683,-0.89300537109375,-0.3612518310546875,0.22552490234375
20220111-1135,2022-01-11 11:35:50Z,u01, 217,40,movements,el-ex, rt, d,76649.798728875, -1.8233612119844622, 0.3761884970128108, 2.854132482654329, 0.007999121211469173, 0.10384838283061981, 0.08219867944717407, -0.9005647897720337, -0.3673781752586365, 0.23241400718688965, 0.004156768321990967, -0.04271700978279114, -0.005286946892738342, -0.7849857316708644, -0.0020979077074960717, -0.23246841094529558,-0.5742398364486434,-0.90350341796875,-0.422515869140625,0.2339019775390625
20220111-1135,2022-01-11 11:35:50Z,u01, 218,40,movements,el-ex, rt, d,76649.82366987501, -1.8208733114154747, 0.3768624848152378, 2.8543547302234886, 0.029246285557746887, 0.15378624200820923, 0.08063260465860367, -0.9009000062942505, -0.3680049479007721, 0.23011142015457153, -0.013528525829315186, 0.019906193017959595, -0.017312437295913696, -0.7842502873227353, -0.002682342566637075, -0.23265491311101455,-0.5751659497262435,-0.914215087890625,-0.343719482421875,0.214447021484375
20220111-1135,2022-01-11 11:35:50Z,u01, 219,40,movements,el-ex, rt, d,76649.848609875, -1.8167981040073677, 0.37325962422662967, 2.854835596333128, 0.03504025936126709, 0.1868717521429062, 0.1120520532131195, -0.9031103849411011, -0.364652544260025, 0.22675958275794983, -0.01046377420425415, 0.04778856039047241, -0.023894071578979492, -0.7831824966116978, -0.0022295265762801164, -0.23115856005820043,-0.5772225249561576,-0.913818359375,-0.310760498046875,0.197540283203125
20220111-1135,2022-01-11 11:35:50Z,u01, 220,40,movements,el-ex, rt, d,76649.873549875, -1.8113868366387302, 0.37170974203846624, 2.8532102677799576, -0.05751773715019226, 0.21113614737987518, 0.1356828808784485, -0.904871940612793, -0.36320894956588745, 0.22200369834899902, -0.01132655143737793, 0.03581637144088745, -0.03773859143257141, -0.781664140077022, -0.0017384378684552892, -0.23104213312463717,-0.5793250711493336,-0.9162750244140625,-0.330963134765625,0.1838531494140625
20220111-1135,2022-01-11 11:35:50Z,u01, 221,40,movements,el-ex, rt, d,76649.898489875, -1.8057371531556545, 0.36978089902606204, 2.8517392174542002, 0.01882537081837654, 0.20503592491149902, 0.1380632072687149, -0.9067915678024292, -0.3614111542701721, 0.2170506715774536, -0.0121537446975708, 0.0009527206420898438, -0.055505841970443726, -0.7800793897718896, -0.001216251422916037, -0.23074347677395074,-0.581577262495911,-0.920379638671875,-0.3814544677734375,0.164398193359375
20220111-1135,2022-01-11 11:35:50Z,u01, 222,40,movements,el-ex, rt, d,76649.923430875, -1.8008663122694057, 0.3649557522841485, 2.8528813012855747, 0.06073460727930069, 0.19968590140342712, 0.09028796851634979, -0.9095253944396973, -0.3569079637527466, 0.2130264788866043, -0.04601043462753296, 0.013310551643371582, -0.04051065444946289, -0.7787892699331711, -0.000714860508249926, -0.22860663993372746,-0.5841453286187515,-0.9577178955078125,-0.341278076171875,0.1774749755859375
20220111-1135,2022-01-11 11:35:50Z,u01, 223,40,movements,el-ex, rt, d,76649.948370875, -1.7951967274533471, 0.3604618536491473, 2.852042340473714, -0.06210809573531151, 0.17286333441734314, 0.1114925891160965, -0.9122729301452637, -0.3527064323425293, 0.2082212269306183, -0.07332265377044678, -0.030365437269210815, 0.008041486144065857, -0.7772454424124958, 0.0003723431177876657, -0.22717623765712108,-0.5867540107336191,-1.0006866455078125,-0.3845367431640625,0.2138519287109375
20220111-1135,2022-01-11 11:35:50Z,u01, 224,40,movements,el-ex, rt, d,76649.97331087501, -1.7878970899642812, 0.35818027219966037, 2.8483550946886225, -0.04580605775117874, 0.16989317536354065, 0.09579092264175415, -0.9145522117614746, -0.35057055950164795, 0.20172932744026184, -0.10952627658843994, 0.01995834708213806, -0.034523576498031616, -0.7751527643779041, 0.001690891088358626, -0.22741573285864883,-0.5894213133345405,-1.0241241455078125,-0.3305816650390625,0.1647491455078125
20220111-1135,2022-01-11 11:35:50Z,u01, 225,40,movements,el-ex, rt, d,76649.998251875, -1.7829858733323871, 0.356731637304968, 2.8485081792026596, 0.07801252603530884, 0.15467900037765503, 0.03730890527367592, -0.9160272479057312, -0.34921351075172424, 0.19734206795692444, -0.12955069541931152, -0.01376253366470337, -0.0294191837310791, -0.7737368359540053, 0.001530840638186981, -0.22683713581183435,-0.5915013319834375,-1.0615081787109375,-0.379486083984375,0.1857147216796875
20220111-1135,2022-01-11 11:35:50Z,u01, 226,40,movements,el-ex, rt, d,76650.023191875, -1.7787966205812311, 0.3555931886492432, 2.848439450262649, -0.020541178062558174, 0.14829733967781067, 0.03512518107891083, -0.9172342419624329, -0.3481464982032776, 0.1935848444700241, -0.1949635148048401, -0.10285747051239014, 0.04921291768550873, -0.7725220641339519, 0.0014427674716021022, -0.22643904570971737,-0.593239283022015,-1.114532470703125,-0.4497528076171875,0.2400665283203125
20220111-1135,2022-01-11 11:35:50Z,u01, 227,40,movements,el-ex, rt, d,76650.04813187501, -1.7744687966527963, 0.3551946150872996, 2.8476793178902775, 0.014666145667433739, 0.17740288376808167, 0.023156801238656044, -0.9181994199752808, -0.34777283668518066, 0.18964149057865143, -0.22396665811538696, -0.03343746066093445, 0.048593997955322266, -0.7712450081109063, 0.0013724470856891768, -0.22652055073820904,-0.5948678074251861,-1.1412200927734375,-0.371368408203125,0.2317657470703125
20220111-1135,2022-01-11 11:35:50Z,u01, 228,40,movements,el-ex, rt, d,76650.073072875, -1.7711213399103758, 0.35429079074844594, 2.850199383684227, 0.1278306245803833, 0.1670961230993271, -0.010963684879243374, -0.919136643409729, -0.346925288438797, 0.1866292506456375, -0.22009968757629395, -0.06680148839950562, 0.030884727835655212, -0.770269127660784, 0.0003102507401427923, -0.2254377291230291,-0.5965426461407795,-1.139190673828125,-0.4179840087890625,0.22003173828125
20220111-1135,2022-01-11 11:35:50Z,u01, 229,40,movements,el-ex, rt, d,76650.09801287501, -1.7684048618685975, 0.35422834429477273, 2.85176031455528, -0.02033950947225094, 0.12582571804523468, -0.016065701842308044, -0.9196615219116211, -0.3468667268753052, 0.1841360181570053, -0.24759000539779663, -0.09266269207000732, 0.050360918045043945, -0.7694593381448662, -0.0005765864034661949, -0.2249484613181292,-0.5977709749823137,-1.1780853271484375,-0.4255218505859375,0.2370147705078125
20220111-1135,2022-01-11 11:35:50Z,u01, 230,40,movements,el-ex, rt, d,76650.12295287501, -1.7660985084982967, 0.35432838961069796, 2.8519231496446857, 0.03229713439941406, 0.1222047507762909, -0.011176271364092827, -0.9200495481491089, -0.34696054458618164, 0.18200768530368805, -0.2439669370651245, -0.042031675577163696, 0.018935158848762512, -0.7687671819368825, -0.0009305108652502558, -0.22493573681780335,-0.5986650927835969,-1.160919189453125,-0.3892059326171875,0.2010040283203125
20220111-1135,2022-01-11 11:35:50Z,u01, 231,40,movements,el-ex, rt, d,76650.147892875, -1.764168643005297, 0.3547856431563524, 2.852906390697036, -0.012121427804231644, 0.0652557760477066, -0.039950594305992126, -0.9202436208724976, -0.3473893702030182, 0.18020133674144745, -0.19448727369308472, -0.08148941397666931, 0.023366108536720276, -0.7681782854132275, -0.0016711988008516476, -0.22480830028811655,-0.5994669768902742,-1.1053924560546875,-0.43670654296875,0.21624755859375
20220111-1135,2022-01-11 11:35:50Z,u01, 232,40,movements,el-ex, rt, d,76650.17283387501, -1.7629885017260178, 0.3563189476352767, 2.851683873781285, -0.050998251885175705, 0.014406979084014893, -0.061303019523620605, -0.9199317097663879, -0.3488267660140991, 0.1790132373571396, -0.19098448753356934, -0.041813552379608154, 0.04941083490848541, -0.7677911762964368, -0.0018245000773810527, -0.2257376688558944,-0.5996131693555793,-1.1114501953125,-0.3864593505859375,0.22735595703125
20220111-1135,2022-01-11 11:35:50Z,u01, 233,40,movements,el-ex, rt, d,76650.197773875, -1.7627908654855768, 0.3574137247087722, 2.8528969764826817, 0.11168467253446579, 0.03489813953638077, -0.04143184423446655, -0.9195914268493652, -0.3498525619506836, 0.1787584125995636, -0.19164502620697021, -4.667043685913086e-05, 0.017225369811058044, -0.7677057477358794, -0.0026623665782601336, -0.22577615450654287,-0.5997047866678201,-1.0973358154296875,-0.3625335693359375,0.182861328125
20220111-1135,2022-01-11 11:35:50Z,u01, 234,40,movements,el-ex, rt, d,76650.222713875, -1.7630685706009772, 0.35801372510976887, 2.855082794450549, -0.022180285304784775, -0.007342458702623844, -0.04943404719233513, -0.919335663318634, -0.35041460394859314, 0.17897364497184753, -0.12442648410797119, -0.04866376519203186, -0.010730266571044922, -0.7677717215166685, -0.003661832968046619, -0.22534172855885157,-0.599778517110525,-1.04168701171875,-0.3962249755859375,0.1668701171875
20220111-1135,2022-01-11 11:35:50Z,u01, 235,40,movements,el-ex, rt, d,76650.247654875, -1.7632651291962032, 0.3598141570113548, 2.8539152004183257, -0.022545872256159782, -0.03853300213813782, -0.05849851295351982, -0.9186796545982361, -0.35210028290748596, 0.17903336882591248, -0.10816049575805664, -0.00857168436050415, -0.0030995607376098633, -0.7677906596556283, -0.003766641000965354, -0.22635405415224294,-0.599372255313029,-1.02569580078125,-0.36224365234375,0.1782073974609375
20220111-1135,2022-01-11 11:35:50Z,u01, 236,40,movements,el-ex, rt, d,76650.272594875, -1.7642137251949468, 0.3606246533876091, 2.853800607169726, -0.03441375121474266, -0.020986299961805344, -0.006368266884237528, -0.9182289838790894, -0.3528587818145752, 0.17984981834888458, -0.13107198476791382, -0.05714485049247742, 0.03639766573905945, -0.7680559218462223, -0.0038740797539388305, -0.22668815685642005,-0.5989052050997585,-1.0498809814453125,-0.4111785888671875,0.21588134765625
20220111-1135,2022-01-11 11:35:50Z,u01, 237,40,movements,el-ex, rt, d,76650.297534875, -1.7636208349487121, 0.36076135310266044, 2.851786927422073, -0.0734042227268219, -0.010194504633545876, 0.018360383808612823, -0.9182883501052856, -0.3529866933822632, 0.17929618060588837, -0.1073923110961914, -0.026240020990371704, 0.013895288109779358, -0.7678787489136814, -0.0032117921614515654, -0.2273403606403411,-0.5988892574276672,-1.01336669921875,-0.3677978515625,0.1741943359375
20220111-1135,2022-01-11 11:35:50Z,u01, 238,40,movements,el-ex, rt, d,76650.322475875, -1.7643597584412978, 0.36039009456090687, 2.851757178386195, 0.028467975556850433, -0.05542077124118805, 0.01652419939637184, -0.918283998966217, -0.3526392877101898, 0.17999984323978424, -0.07004296779632568, -0.0032872259616851807, -0.030387520790100098, -0.7681086741630458, -0.0029978400894202784, -0.22721395576141085,-0.598643355437741,-0.98809814453125,-0.3578948974609375,0.1510772705078125
20220111-1135,2022-01-11 11:35:50Z,u01, 239,40,movements,el-ex, rt, d,76650.347415875, -1.7665657642227384, 0.36031781635269994, 2.8501873798758526, -0.15780393779277802, -0.1701040118932724, 0.009154100902378559, -0.9179095029830933, -0.35257166624069214, 0.1820300668478012, -0.07737529277801514, -0.0433785617351532, 0.014426782727241516, -0.7687720937618132, -0.002120783705180984, -0.2276596628469388,-0.59762517126871,-1.0058746337890625,-0.4029388427734375,0.20428466796875
20220111-1135,2022-01-11 11:35:50Z,u01, 240,40,movements,el-ex, rt, d,76650.372355875, -1.7691301875944125, 0.3611522323874078, 2.845559943348172, -0.13612286746501923, -0.143813818693161, -0.00217179162427783, -0.917151153087616, -0.3533523678779602, 0.18432538211345673, -0.12305569648742676, 0.014881908893585205, 0.036789655685424805, -0.7695210148321215, -0.0003141168319817367, -0.229349117873998,-0.5960170051413631,-1.0385589599609375,-0.33453369140625,0.221405029296875
20220111-1135,2022-01-11 11:35:50Z,u01, 241,40,movements,el-ex, rt, d,76650.397296875, -1.7720457239411804, 0.36110949338695575, 2.8449339822138833, 0.06986295431852341, -0.11440259963274002, 0.010508916340768337, -0.9166246056556702, -0.3533123731613159, 0.18700158596038818, -0.07797372341156006, 0.025675654411315918, -0.004643917083740234, -0.7703899789215702, 0.0002749228211453847, -0.2295197631030136,-0.5948275562101325,-0.9752960205078125,-0.33917236328125,0.1786346435546875
20220111-1135,2022-01-11 11:35:50Z,u01, 242,40,movements,el-ex, rt, d,76650.422236875, -1.774971320000681, 0.3597594003133286, 2.8457807156764257, -0.01292963046580553, -0.11656822264194489, 0.07183199375867844, -0.91653972864151, -0.3520490527153015, 0.18977898359298706, -0.012354135513305664, -0.0568101704120636, 0.0010778605937957764, -0.7712904662996045, 0.00071267544244491, -0.2287696056493414,-0.5939485100983883,-0.9283599853515625,-0.407440185546875,0.190826416015625
20220111-1135,2022-01-11 11:35:50Z,u01, 243,40,movements,el-ex, rt, d,76650.44717687501, -1.7765552697247657, 0.3579059223758477, 2.842137630899342, -0.1653447300195694, -0.0902378037571907, 0.15882760286331177, -0.9168753027915955, -0.35031363368034363, 0.19136351346969604, -0.026926517486572266, -0.00028756260871887207, 0.04322504997253418, -0.7717988204981838, 0.002887527004466872, -0.22916527068232434,-0.5931285659147661,-0.9533233642578125,-0.3421478271484375,0.244598388671875
20220111-1135,2022-01-11 11:35:50Z,u01, 244,40,movements,el-ex, rt, d,76650.47211687501, -1.7762059035046691, 0.3519835845938316, 2.83725582351082, -0.0594882108271122, -0.03384723514318466, 0.31009891629219055, -0.9189571142196655, -0.3447604477405548, 0.19146299362182617, -0.05110514163970947, -0.0490078330039978, 0.020328998565673828, -0.7718081402296634, 0.006610170197675291, -0.22842789917741607,-0.5933710446296221,-0.9710235595703125,-0.39617919921875,0.2059173583984375
20220111-1135,2022-01-11 11:35:50Z,u01, 245,40,movements,el-ex, rt, d,76650.497057875, -1.774192538091487, 0.3442951279820085, 2.8340209377505388, -0.0483902171254158, 0.09260697662830353, 0.3650357723236084, -0.9219095706939697, -0.33753326535224915, 0.19014224410057068, -0.055125892162323, -0.017798155546188354, -0.017275452613830566, -0.7713428001940799, 0.01007000459322338, -0.22655903727052212,-0.5946426732181012,-0.9581298828125,-0.35162353515625,0.1605224609375
20220111-1135,2022-01-11 11:35:50Z,u01, 246,40,movements,el-ex, rt, d,76650.52199787501, -1.771063215734337, 0.3364670625116939, 2.8299238677864724, -0.14595577120780945, 0.07291270047426224, 0.3838377594947815, -0.9250609874725342, -0.33015432953834534, 0.18777619302272797, 0.023907601833343506, -0.026489287614822388, 0.0028516948223114014, -0.7705180531504954, 0.013785069169781672, -0.2249092868383825,-0.5962613215938684,-0.9020233154296875,-0.3614959716796875,0.1966705322265625
20220111-1135,2022-01-11 11:35:50Z,u01, 247,40,movements,el-ex, rt, d,76650.546937875, -1.767754542599782, 0.32677273017822317, 2.8234156790381473, -0.1767759621143341, 0.10356974601745605, 0.4709996283054352, -0.9287726283073425, -0.3209882080554962, 0.18533211946487427, -0.020201921463012695, -0.06435725092887878, 0.05758774280548096, -0.7696133706806505, 0.019008465468656532, -0.2233056518792463,-0.5978867314203593,-0.973114013671875,-0.3493804931640625,0.2331695556640625
20220111-1135,2022-01-11 11:35:50Z,u01, 248,40,movements,el-ex, rt, d,76650.57187887501, -1.7614680545978034, 0.3148391886861631, 2.8181758904705156, -0.01831071451306343, 0.2651119828224182, 0.5264199376106262, -0.9336140751838684, -0.3096635639667511, 0.180202916264534, -0.014765381813049316, 0.06419545412063599, -0.016659259796142578, -0.7678013252866616, 0.02413676772712431, -0.22055065271022287,-0.6010456496932179,-0.9431610107421875,-0.2403106689453125,0.16046142578125
