SessionID,LoggingTime,UID,RecNo,Hertz,Activity,MoveType,Wrist,Side,TimeStamp,DMRoll,DMPitch,DMYaw,DMRotX,DMRotY,DMRotZ,DMGrvX,DMGrvY,DMGrvZ,DMUAccelX,DMUAccelY,DMUAccelZ,DMQuatX,DMQuatY,DMQuatW,DMQuatZ,AccelroX,AceelroY,AceelroZ
20220122-1409,2022-01-22 14:09:32Z,u01, 1,40,movements,el-ex, rt, d,294633.451476875, -1.545704856963417, 0.1227335457078073, 0.11969930311614575, 0.15264898538589478, 0.08165070414543152, 0.035152584314346313, -0.9921655058860779, -0.12242564558982849, -0.02490011602640152, -0.0021279454231262207, 0.020786836743354797, 0.013700362294912338, 0.0855099271268362, -0.6929920592220797, 0.7158563253825787,5.551115123125783e-17,-0.994293212890625,-0.1016387939453125,-0.011199951171875
20220122-1409,2022-01-22 14:09:32Z,u01, 2,40,movements,el-ex, rt, d,294633.476421875, -1.5447628007658663, 0.12148531481071484, 0.12395610814294392, 0.17042112350463867, 0.0906083732843399, 0.02866019681096077, -0.9922935366630554, -0.12118671089410782, -0.025838736444711685, -0.003220498561859131, 0.011476017534732819, 0.011266829445958138, 0.08654028665002295, -0.6925253861615739, 0.7161811980774679,0.0020001752568910014,-0.993133544921875,-0.1102142333984375,-0.015960693359375
20220122-1409,2022-01-22 14:09:32Z,u01, 3,40,movements,el-ex, rt, d,294633.501366875, -1.5433573498798165, 0.12077550409466126, 0.12805761112143096, 0.15965741872787476, 0.47126704454421997, -0.26234927773475647, -0.9923420548439026, -0.12048210203647614, -0.027235686779022217, 0.335435688495636, -0.027406111359596252, -0.061982277780771255, 0.08770540725700848, -0.6918742071402482, 0.7166615673173226,0.0037782091194157874,-0.6569061279296875,-0.14788818359375,-0.0892181396484375
20220122-1409,2022-01-22 14:09:32Z,u01, 4,40,movements,el-ex, rt, d,294633.52631187503, -1.5429264016762927, 0.12019103673919507, 0.1339765407983993, 0.2700861692428589, 0.10394888371229172, -0.019119109958410263, -0.9924002885818481, -0.1199018657207489, -0.027665285393595695, 0.03459078073501587, 0.021620012819767, 0.003068329766392708, 0.08954350042546988, -0.6914834189924594, 0.7167951353937904,0.006122216933849733,-0.994903564453125,-0.0985870361328125,-0.025848388671875
20220122-1409,2022-01-22 14:09:32Z,u01, 5,40,movements,el-ex, rt, d,294633.55125687504, -1.5409023005791078, 0.12049336707428945, 0.14112127067760108, 0.26085081696510315, 0.11317454278469086, 0.015905652195215225, -0.9923058748245239, -0.12020201236009598, -0.029672857373952866, 0.007778346538543701, -0.02065185457468033, -0.002767140045762062, 0.09211189110522777, -0.6904194167907348, 0.717468608167202,0.00867064897890285,-0.984527587890625,-0.1408538818359375,-0.032440185546875
20220122-1409,2022-01-22 14:09:32Z,u01, 6,40,movements,el-ex, rt, d,294633.57620087505, -1.5387094866306565, 0.12028865696001706, 0.14557160333667213, 0.1062835082411766, 0.10522666573524475, 0.016626104712486267, -0.99226313829422, -0.11999878287315369, -0.03184952214360237, 0.00598067045211792, -0.021602779626846313, 0.001210033893585205, 0.09356374856547972, -0.6894353231418725, 0.7182032317074967,0.010441000973752335,-0.9888916015625,-0.138763427734375,-0.032073974609375
20220122-1409,2022-01-22 14:09:32Z,u01, 7,40,movements,el-ex, rt, d,294633.601145875, -1.5360805964807092, 0.11980267889591921, 0.14753745922195505, 0.041196223348379135, 0.11607818305492401, 0.03502049297094345, -0.9922341108322144, -0.11951630562543869, -0.034459978342056274, -0.00265425443649292, -0.006567053496837616, 0.0029965676367282867, 0.09405339630498294, -0.6884213608154433, 0.719096123045775,0.011439623548473832,-0.9948883056640625,-0.1260833740234375,-0.031463623046875
20220122-1409,2022-01-22 14:09:32Z,u01, 8,40,movements,el-ex, rt, d,294633.626090875, -1.5332776024906813, 0.11901714893275307, 0.14727259237293366, -0.0593363456428051, 0.09895306080579758, 0.03338457643985748, -0.9922271370887756, -0.11873636394739151, -0.03724457323551178, 0.000710904598236084, -0.005287081003189087, -0.0008717179298400879, 0.09366581245340855, -0.6874623105823282, 0.7200585798982543,0.011748554759910046,-0.9915771484375,-0.125579833984375,-0.0413970947265625
20220122-1409,2022-01-22 14:09:32Z,u01, 9,40,movements,el-ex, rt, d,294633.651035875, -1.530703356947608, 0.11829611548914858, 0.1454531888365014, -0.08106577396392822, 0.09406796097755432, 0.02628372795879841, -0.9922133088111877, -0.11802040040493011, -0.03980210795998573, 0.0012617111206054688, -0.001227051019668579, -0.011375665664672852, 0.09276826631386803, -0.6866534751175525, 0.7209506297883839,0.011463043254085425,-0.9909515380859375,-0.1192474365234375,-0.051177978515625
20220122-1409,2022-01-22 14:09:32Z,u01, 10,40,movements,el-ex, rt, d,294633.67598087504, -1.5285625968563816, 0.11789416991436864, 0.1432815819008718, -0.09528093039989471, 0.07603036612272263, 0.034369878470897675, -0.9921731352806091, -0.11762125790119171, -0.04192810505628586, 0.00526505708694458, 0.004965603351593018, -0.02215862274169922, 0.09186729253390752, -0.6860002543476774, 0.721695894903172,0.010917808407355012,-0.986328125,-0.112548828125,-0.0630645751953125
20220122-1409,2022-01-22 14:09:32Z,u01, 11,40,movements,el-ex, rt, d,294633.700925875, -1.5273716919196967, 0.11747802128373427, 0.14079616931822364, -0.11399882286787033, 0.05417966470122337, 0.020525438711047173, -0.9921712279319763, -0.11720798909664154, -0.04311177507042885, 0.001173853874206543, 0.011785000562667847, -0.01845729351043701, 0.09085968216390711, -0.6857030192127576, 0.7221159871627041,0.010219053131201083,-0.990997314453125,-0.1054229736328125,-0.0615692138671875
20220122-1409,2022-01-22 14:09:32Z,u01, 12,40,movements,el-ex, rt, d,294633.725869875, -1.5259148919868528, 0.11719011329039726, 0.1382940941103205, -0.07530196011066437, 0.051312632858753204, 0.017318593338131905, -0.99214106798172, -0.1169220581650734, -0.04455863684415817, 0.0031578540802001953, 0.015939384698867798, -0.021465957164764404, 0.08989174025737467, -0.6853029665526044, 0.7226268215322533,0.009480702072751923,-0.98834228515625,-0.0998687744140625,-0.06585693359375
20220122-1409,2022-01-22 14:09:32Z,u01, 13,40,movements,el-ex, rt, d,294633.750814875, -1.5241387259430084, 0.11668919248803802, 0.13709741894051108, -0.023266326636075974, 0.02771516516804695, 0.014638920314610004, -0.992118775844574, -0.116424560546875, -0.0463235005736351, -0.0008317828178405762, 0.011978156864643097, -0.013689156621694565, 0.0892938520765727, -0.6847370721300766, 0.7232394718410284,0.009300736335071336,-0.992950439453125,-0.1044464111328125,-0.0600128173828125
20220122-1409,2022-01-22 14:09:32Z,u01, 14,40,movements,el-ex, rt, d,294633.775759875, -1.5227517435435465, 0.11615924273629653, 0.1365772119585518, -0.017831146717071533, 0.031620822846889496, 0.021327316761016846, -0.9921149611473083, -0.11589819937944412, -0.04770245775580406, 0.0011329054832458496, -0.0010604187846183777, -0.006115075200796127, 0.08891909453689323, -0.6842822261986493, 0.7237151912602128,0.009357251880642625,-0.989501953125,-0.120880126953125,-0.0554962158203125
20220122-1409,2022-01-22 14:09:33Z,u01, 15,40,movements,el-ex, rt, d,294633.80070487503, -1.5210349678281994, 0.11488288797613004, 0.1357051008818604, -0.03736566752195358, 0.01623527891933918, 0.03385409340262413, -0.992178738117218, -0.11463034898042679, -0.04941295459866524, 0.005407929420471191, -0.0008329302072525024, -0.009272165596485138, 0.08815410427669934, -0.683756079340384, 0.7243033680113987,0.009557706706273927,-0.9867706298828125,-0.1154632568359375,-0.058685302734375
20220122-1409,2022-01-22 14:09:33Z,u01, 16,40,movements,el-ex, rt, d,294633.82564987504, -1.5200350379711036, 0.11363875741251711, 0.13560774412847917, 0.034876108169555664, 0.01343190111219883, 0.02871778979897499, -0.9922704696655273, -0.11339433491230011, -0.05041223391890526, 0.002707362174987793, 0.016272127628326416, -0.009173154830932617, 0.08766859093268464, -0.6834530714569095, 0.724642256985663,0.009995126628326578,-0.9915618896484375,-0.0938262939453125,-0.056732177734375
20220122-1409,2022-01-22 14:09:33Z,u01, 17,40,movements,el-ex, rt, d,294633.850594875, -1.5195173168932172, 0.11312187654224273, 0.13721154698225235, 0.07258377224206924, 0.022068733349442482, 0.014980338513851166, -0.992302656173706, -0.11288076639175415, -0.05092894285917282, -0.002799391746520996, 0.0005760788917541504, 0.004786550998687744, 0.08802794704454164, -0.6832178339236924, 0.72480928502484,0.01077707351910906,-0.9951019287109375,-0.1123046875,-0.046142578125
20220122-1409,2022-01-22 14:09:33Z,u01, 18,40,movements,el-ex, rt, d,294633.875538875, -1.5186476383719827, 0.11291867693154055, 0.13771436050914898, -0.04582120105624199, 0.022272128611803055, 0.02704412303864956, -0.9922807812690735, -0.11267886310815811, -0.05179309844970703, 0.0025956034660339355, -0.01709713786840439, 0.005315009504556656, 0.08812181296884758, -0.682889446612581, 0.7251028584066856,0.011067597506778382,-0.988189697265625,-0.132843017578125,-0.048004150390625
20220122-1409,2022-01-22 14:09:33Z,u01, 19,40,movements,el-ex, rt, d,294633.900483875, -1.5175345109460388, 0.11171989713515326, 0.13555802121288787, -0.0919080376625061, 0.018517805263400078, 0.04065467417240143, -0.9923566579818726, -0.11148764193058014, -0.052904754877090454, 0.002991974353790283, 0.0011818483471870422, -0.010495301336050034, 0.08694803609900598, -0.6826328893753225, 0.7254908467868012,0.010746895604561657,-0.9893646240234375,-0.1103057861328125,-0.0634002685546875
20220122-1409,2022-01-22 14:09:33Z,u01, 20,40,movements,el-ex, rt, d,294633.925428875, -1.517040670718627, 0.11019279626048922, 0.1344508450956009, 0.009309528395533562, 0.0148671455681324, 0.03175625577569008, -0.9924993515014648, -0.10996992886066437, -0.053403906524181366, 0.00032699108123779297, 0.018539249897003174, -0.009172201156616211, 0.08601739530350966, -0.6825679857861912, 0.7256607449704824,0.010891929308032011,-0.9948577880859375,-0.0911865234375,-0.0616912841796875
20220122-1409,2022-01-22 14:09:33Z,u01, 21,40,movements,el-ex, rt, d,294633.95037387504, -1.5170580818149049, 0.1101813866313092, 0.13582562095857453, 0.07289016991853714, 0.017818057909607887, 0.022007886320352554, -0.9925014972686768, -0.10995858907699585, -0.053386688232421875, -0.002371668815612793, 0.01521676778793335, -0.011081457138061523, 0.08648255688759382, -0.6825155116533801, 0.7256470452810446,0.011393905415744976,-0.994873046875,-0.0947418212890625,-0.0644683837890625
20220122-1409,2022-01-22 14:09:33Z,u01, 22,40,movements,el-ex, rt, d,294633.975318875, -1.517002376298137, 0.11009946343007801, 0.13735480057937716, 0.014797535724937916, -0.0015043048188090324, 0.02549523115158081, -0.9925075769424438, -0.10987716168165207, -0.05344246327877045, 0.007644176483154297, 0.001265108585357666, -0.006982147693634033, 0.08697452880706885, -0.6824325608510606, 0.7256568749231108,0.011979327998989708,-0.9847564697265625,-0.1044769287109375,-0.05804443359375
20220122-1409,2022-01-22 14:09:33Z,u01, 23,40,movements,el-ex, rt, d,294634.000262875, -1.5166694153198896, 0.10924973617430897, 0.13712084495078966, 0.0035433173179626465, -0.005374609492719173, 0.005046481266617775, -0.9925826191902161, -0.109032541513443, -0.05377795919775963, -0.005998492240905762, 0.0240715891122818, -0.008508212864398956, 0.08658655546485855, -0.6823589878029956, 0.7257687934887987,0.012201128274232587,-0.9985809326171875,-0.0849609375,-0.062286376953125
20220122-1409,2022-01-22 14:09:33Z,u01, 24,40,movements,el-ex, rt, d,294634.025207875, -1.5165341867531084, 0.10878773920294062, 0.13812366330217277, 0.07547709345817566, -0.003815196454524994, 0.007893798872828484, -0.9926254153251648, -0.10857328772544861, -0.05391490459442139, -0.00023353099822998047, 0.017478324472904205, -0.024255629628896713, 0.08676137599331002, -0.6822866047888059, 0.7258067983305364,0.012729772560406083,-0.9879913330078125,-0.09686279296875,-0.0782623291015625
20220122-1409,2022-01-22 14:09:33Z,u01, 25,40,movements,el-ex, rt, d,294634.050152875, -1.5168839473507885, 0.10839950611890176, 0.13987552542883044, 0.04332542046904564, -0.03687514364719391, 0.013975660316646099, -0.9926861524581909, -0.10818734019994736, -0.0535699836909771, 0.004938960075378418, -0.0024083703756332397, 1.1809170246124268e-05, 0.08722146427690541, -0.6823543240053292, 0.7256743301950149,0.013483768203447433,-0.9877471923828125,-0.110595703125,-0.053558349609375
20220122-1409,2022-01-22 14:09:33Z,u01, 26,40,movements,el-ex, rt, d,294634.07509787503, -1.5175460634999918, 0.10779864440482052, 0.1404312163756835, 0.024283315986394882, -0.0091262711212039, 0.0030498430132865906, -0.9927862286567688, -0.10758998245000839, -0.05291615426540375, -0.008343040943145752, 0.006317414343357086, 0.004485014826059341, 0.08719919467882659, -0.6825966773536928, 0.7254419284502653,0.01386317771989809,-1.0009613037109375,-0.0983428955078125,-0.05194091796875
20220122-1409,2022-01-22 14:09:33Z,u01, 27,40,movements,el-ex, rt, d,294634.10004287504, -1.5171532938170023, 0.1068932934375031, 0.1411799434528192, 0.0402723029255867, -0.024478530511260033, 0.016914326697587967, -0.9928622841835022, -0.10668984800577164, -0.053311288356781006, 0.009631574153900146, -0.00573691725730896, -0.019549250602722168, 0.08712585630512987, -0.6824613105438886, 0.7255664179088914,0.014463343580910004,-0.9832305908203125,-0.1124267578125,-0.0728607177734375
20220122-1409,2022-01-22 14:09:33Z,u01, 28,40,movements,el-ex, rt, d,294634.1249885, -1.5176322654870338, 0.10624666407784218, 0.14180997719783348, 0.015113286674022675, -0.06335721909999847, 0.040477972477674484, -0.9929563999176025, -0.1060468852519989, -0.05283938720822334, 0.010259747505187988, -0.004319965839385986, -0.01616060733795166, 0.08711149990551809, -0.682635988430833, 0.7253951293502054,0.014893464900075426,-0.9834747314453125,-0.10736083984375,-0.0666656494140625
20220122-1409,2022-01-22 14:09:33Z,u01, 29,40,movements,el-ex, rt, d,294634.14993250003, -1.5195650674205408, 0.10533685006601083, 0.14341875449700078, 0.11062130331993103, -0.06122695654630661, 0.027869772166013718, -0.993152379989624, -0.10514216125011444, -0.050925008952617645, 0.003436863422393799, 0.0014586970210075378, -0.01503860205411911, 0.08734819863374005, -0.6833065105925079, 0.7247177401761068,0.015705558303663714,-0.989715576171875,-0.1036834716796875,-0.0659637451171875
20220122-1409,2022-01-22 14:09:33Z,u01, 30,40,movements,el-ex, rt, d,294634.17487750005, -1.520948243304436, 0.10467373598072123, 0.14642950882829392, 0.1184515580534935, -0.0667116716504097, 0.029709015041589737, -0.9932913184165955, -0.10448269546031952, -0.049554720520973206, -0.001581728458404541, -0.01597018539905548, -0.01404368132352829, 0.08814996128032604, -0.6837047779988688, 0.7242165328366198,0.01696391723956353,-0.9932708740234375,-0.1192474365234375,-0.0614166259765625
20220122-1409,2022-01-22 14:09:33Z,u01, 31,40,movements,el-ex, rt, d,294634.1998225, -1.5222604121767231, 0.10426685182783847, 0.14990828347021215, 0.19539138674736023, -0.09297303110361099, 0.044729843735694885, -0.9933980107307434, -0.1040780320763588, -0.0482533797621727, 0.004979372024536133, -0.004289895296096802, 0.00699383020401001, 0.08920484352884084, -0.6840437170082959, 0.7237345777554018,0.01830528413984489,-0.9884185791015625,-0.108367919921875,-0.041259765625
20220122-1409,2022-01-22 14:09:33Z,u01, 32,40,movements,el-ex, rt, d,294634.2247675, -1.5246278595881404, 0.10300806250957201, 0.15539232790896512, 0.20463192462921143, -0.08552277833223343, 0.060245219618082047, -0.9936395287513733, -0.10282599180936813, -0.045907434076070786, 0.0016807913780212402, 0.0033844783902168274, 0.03194582834839821, 0.09065265203912509, -0.6847104344953927, 0.72286150325111,0.020616473796443324,-0.99456787109375,-0.1011810302734375,-0.004119873046875
20220122-1409,2022-01-22 14:09:33Z,u01, 33,40,movements,el-ex, rt, d,294634.2497125, -1.52559114475946, 0.10170105227828029, 0.15841389483983137, 0.030223596841096878, -0.0036362316459417343, 0.06767430901527405, -0.9938166737556458, -0.10152582824230194, -0.04495628923177719, -0.011050939559936523, -0.008352719247341156, 0.072437584400177, 0.09122894511465324, -0.6849811198691057, 0.7224881275594388,0.02211581684257763,-1.0048675537109375,-0.1098785400390625,0.0274810791015625
20220122-1409,2022-01-22 14:09:33Z,u01, 34,40,movements,el-ex, rt, d,294634.27465750003, -1.5247411448455777, 0.10031281464520078, 0.15817071588026188, -0.03062530606985092, 0.05856495350599289, 0.05406542494893074, -0.9939179420471191, -0.10014466196298599, -0.04580746218562126, -0.010232508182525635, 0.01490909606218338, 0.06749039888381958, 0.09063841886955115, -0.6847488193346624, 0.7227693131053203,0.02254598400944302,-1.0055084228515625,-0.0788726806640625,0.0164337158203125
20220122-1409,2022-01-22 14:09:33Z,u01, 35,40,movements,el-ex, rt, d,294634.29960150004, -1.5227813145409663, 0.09910528314965748, 0.1568952411303192, -0.07504403591156006, 0.0993075966835022, 0.04015786200761795, -0.993946373462677, -0.09894312918186188, -0.04776105657219887, -0.009090244770050049, 0.02831020951271057, 0.03808712959289551, 0.08974648233264293, -0.6841527905067373, 0.7234434028039394,0.022589889095088633,-1.0030364990234375,-0.0706329345703125,-0.009674072265625
20220122-1409,2022-01-22 14:09:33Z,u01, 36,40,movements,el-ex, rt, d,294634.3245465, -1.5209186010436169, 0.09828559228569292, 0.15563028513818805, -0.008321364410221577, 0.08752383291721344, 0.018245041370391846, -0.99393630027771, -0.09812742471694946, -0.049616433680057526, -0.0025847554206848145, 0.02384764701128006, -0.008168455213308334, 0.08899850576377377, -0.683572270657778, 0.7240870999975276,0.022497922498168232,-0.9960784912109375,-0.0748748779296875,-0.06512451171875
20220122-1409,2022-01-22 14:09:33Z,u01, 37,40,movements,el-ex, rt, d,294634.3494915, -1.5204323152792554, 0.09811936950224712, 0.15689249136819608, 0.0889039859175682, 0.05353977531194687, 0.0037830108776688576, -0.9939283728599548, -0.09796200692653656, -0.05010058730840683, 0.006532013416290283, 0.014984704554080963, -0.03161000832915306, 0.0893645550892303, -0.6833474101903092, 0.7242374131144091,0.023033893087999358,-0.987396240234375,-0.082977294921875,-0.0817108154296875
20220122-1409,2022-01-22 14:09:33Z,u01, 38,40,movements,el-ex, rt, d,294634.3744365, -1.5201564542996562, 0.0984204126326129, 0.15899686074824546, 0.05818868800997734, 0.034364212304353714, -0.022605452686548233, -0.9938850402832031, -0.09826159477233887, -0.05037327855825424, 0.0020178556442260742, -0.006215333938598633, -0.022365152835845947, 0.09018844381653279, -0.6831393754112266, 0.7243099112645123,0.02370465815463968,-0.9914093017578125,-0.1094512939453125,-0.066864013671875
20220122-1409,2022-01-22 14:09:33Z,u01, 39,40,movements,el-ex, rt, d,294634.3993815, -1.5192736104464994, 0.09875055975896414, 0.1586264065849117, -0.08053164929151535, 0.0310957171022892, -0.02138173207640648, -0.9938076734542847, -0.09859014302492142, -0.051249027252197266, 0.0031459927558898926, -0.012219183146953583, -0.008290525525808334, 0.09017022291145765, -0.6828212192861725, 0.7246188674687645,0.02349659611001531,-0.99066162109375,-0.110809326171875,-0.059539794921875
20220122-1409,2022-01-22 14:09:33Z,u01, 40,40,movements,el-ex, rt, d,294634.42432550003, -1.5179841077147698, 0.09880232129624314, 0.15559407108977272, -0.1364535093307495, 0.02593104913830757, -0.000559006817638874, -0.9937354922294617, -0.09864164888858795, -0.05253022536635399, 0.0034096837043762207, -0.009070135653018951, 0.0021916739642620087, 0.08913902581722677, -0.6824874516174096, 0.7250942044103983,0.022437578823274074,-0.9896697998046875,-0.1065673828125,-0.0545654296875
20220122-1409,2022-01-22 14:09:33Z,u01, 41,40,movements,el-ex, rt, d,294634.44927050004, -1.5164752469969744, 0.09833833509142349, 0.15273059347323656, -0.09283368289470673, -0.0006280578672885895, 0.013879387639462948, -0.9937008619308472, -0.09817991405725479, -0.054032061249017715, 0.0016658306121826172, -0.0020550787448883057, -0.005782186985015869, 0.08797846794301722, -0.6820877938570535, 0.7256366071811413,0.021625425756160055,-0.992034912109375,-0.1002349853515625,-0.059814453125
20220122-1409,2022-01-22 14:09:33Z,u01, 42,40,movements,el-ex, rt, d,294634.4742155, -1.51591647022107, 0.09798396103208824, 0.1498035886430668, -0.1592063158750534, 0.0027778595685958862, 0.01591271162033081, -0.9937052130699158, -0.09782724827528, -0.05458921566605568, -0.0008779764175415039, -0.004254043102264404, 0.009545445442199707, 0.08684666963226467, -0.6820286270717563, 0.7258552565567511,0.02070952322203462,-0.9944305419921875,-0.0989227294921875,-0.0416107177734375
20220122-1409,2022-01-22 14:09:33Z,u01, 43,40,movements,el-ex, rt, d,294634.4991605, -1.515237124413185, 0.09791499012497863, 0.14476087206706423, -0.22806698083877563, 0.015276936814188957, 0.009833580814301968, -0.9936745166778564, -0.09775860607624054, -0.05526464059948921, -0.0017631053924560547, 0.005534514784812927, -0.0013910457491874695, 0.08509547415601953, -0.6820017895069782, 0.7261362647218652,0.018931923827437636,-0.9954376220703125,-0.09222412109375,-0.0566558837890625
20220122-1409,2022-01-22 14:09:33Z,u01, 44,40,movements,el-ex, rt, d,294634.5241055, -1.5144435216561631, 0.09740577234111407, 0.13971236545442903, -0.1606452912092209, -0.0013634907081723213, 0.02593405358493328, -0.9936800599098206, -0.09725181758403778, -0.056056007742881775, 0.003949105739593506, -0.004005514085292816, -0.010319527238607407, 0.08318309230547954, -0.6819476294216841, 0.7264492978030372,0.017306887431406404,-0.98858642578125,-0.1049957275390625,-0.070037841796875
20220122-1409,2022-01-22 14:09:33Z,u01, 45,40,movements,el-ex, rt, d,294634.54905050003, -1.5145093478126928, 0.0967674729257191, 0.13693526283229082, -0.07819149643182755, -0.014906329102814198, 0.02451312355697155, -0.9937455654144287, -0.09661652147769928, -0.05599408224225044, 0.00464022159576416, 0.008786916732788086, -0.020208120346069336, 0.08200623622722358, -0.6821128471878586, 0.7264464736065923,0.016514686375357857,-0.989105224609375,-0.08782958984375,-0.076202392578125
20220122-1409,2022-01-22 14:09:33Z,u01, 46,40,movements,el-ex, rt, d,294634.57399450004, -1.5152320297515058, 0.09620326841657402, 0.135767709503273, -0.023185765370726585, -0.011415457352995872, 0.012947013601660728, -0.9938399791717529, -0.09605494141578674, -0.05527891963720322, 0.0006452798843383789, 0.015473276376724243, -0.005328774452209473, 0.08141023658190932, -0.6824462713973639, 0.726206125854743,0.016254966529934578,-0.996185302734375,-0.0781402587890625,-0.0587005615234375
20220122-1409,2022-01-22 14:09:33Z,u01, 47,40,movements,el-ex, rt, d,294634.5989395, -1.5152811070594032, 0.09609460272678841, 0.13597086045994386, 0.05458792671561241, -0.012738384306430817, -0.0010850480757653713, -0.9938530921936035, -0.0959467813372612, -0.055230725556612015, -0.0013557076454162598, 0.017669178545475006, 0.004220787435770035, 0.08144074391689088, -0.6824602867151892, 0.7261870932082153,0.01636406981209343,-0.995208740234375,-0.078277587890625,-0.0510101318359375
20220122-1409,2022-01-22 14:09:33Z,u01, 48,40,movements,el-ex, rt, d,294634.6238845, -1.5149496504705315, 0.0962492723661832, 0.13759464559410692, 0.05407966673374176, -0.0007038256153464317, 0.013665668666362762, -0.9938200116157532, -0.09610073268413544, -0.055559318512678146, -0.003906548023223877, 0.006394296884536743, 0.016390204429626465, 0.08204780046066684, -0.6822671758572953, 0.7262876931038414,0.016914108361851865,-0.997711181640625,-0.0941314697265625,-0.0389404296875
20220122-1409,2022-01-22 14:09:33Z,u01, 49,40,movements,el-ex, rt, d,294634.6488295, -1.5143274460107836, 0.09551210045031067, 0.13790108241546634, -0.02254660613834858, 0.006189899519085884, 0.028692420572042465, -0.9938556551933289, -0.0953669473528862, -0.0561816468834877, 0.001881718635559082, -0.01921132206916809, 0.006392419338226318, 0.0818809347845394, -0.6820591541860307, 0.726492635143636,0.017304103687839578,-0.991973876953125,-0.1145782470703125,-0.0497894287109375
20220122-1409,2022-01-22 14:09:33Z,u01, 50,40,movements,el-ex, rt, d,294634.6737745, -1.5141258806117934, 0.09396568052670295, 0.13628926146628922, -0.12924185395240784, -0.027516065165400505, 0.04672075808048248, -0.9939902424812317, -0.09382746368646622, -0.056390248239040375, 0.00840979814529419, -0.024458661675453186, -0.029867522418498993, 0.08077118454024046, -0.6821150131867459, 0.7265654165044435,0.017257819983825695,-0.9843292236328125,-0.115997314453125,-0.0880584716796875
20220122-1409,2022-01-22 14:09:33Z,u01, 51,40,movements,el-ex, rt, d,294634.69871950004, -1.5153669334794237, 0.09231226528769358, 0.13254723659237674, -0.1134297102689743, -0.0492926649749279, 0.035403188318014145, -0.9942129254341125, -0.09218121320009232, -0.0551651306450367, -0.00014126300811767578, 0.020815856754779816, 0.009007461369037628, 0.07890782420751508, -0.6827818031298436, 0.7261632199486208,0.01641718152186117,-0.994354248046875,-0.0713653564453125,-0.0461578369140625
20220122-1409,2022-01-22 14:09:33Z,u01, 52,40,movements,el-ex, rt, d,294634.72366350004, -1.5165994610584945, 0.09222740177778513, 0.1334648457036653, 0.1827724575996399, -0.010222096927464008, -0.019678574055433273, -0.9942880868911743, -0.092096708714962, -0.053940121084451675, -0.009663999080657959, 0.05842054635286331, 0.006119254976511002, 0.0792007672913369, -0.6831962951388517, 0.725734267972254,0.016730704348743797,-1.0066070556640625,-0.03643798828125,-0.0487518310546875
20220122-1409,2022-01-22 14:09:33Z,u01, 53,40,movements,el-ex, rt, d,294634.7486085, -1.5167984957769622, 0.09366370595285618, 0.13910314712692115, 0.19724683463573456, 0.0014800336211919785, -0.010212699882686138, -0.9941657185554504, -0.09352681785821915, -0.05373502895236015, 0.004816234111785889, -0.00545695424079895, 0.00879812240600586, 0.08164626712032991, -0.6829834349083732, 0.7256263950996528,0.018274643210741404,-0.989349365234375,-0.0989837646484375,-0.0449371337890625
20220122-1409,2022-01-22 14:09:33Z,u01, 54,40,movements,el-ex, rt, d,294634.7735535, -1.516966792547023, 0.09356229125774991, 0.14054726425744865, -0.08157893270254135, -0.03326649218797684, 0.02698846533894539, -0.994184136390686, -0.09342584758996964, -0.053568221628665924, 0.008725762367248535, -0.027469538152217865, 0.013178415596485138, 0.08210442297866749, -0.6829895706075617, 0.7255547645989353,0.018826543293816778,-0.98931884765625,-0.1191558837890625,-0.0345916748046875
20220122-1409,2022-01-22 14:09:34Z,u01, 55,40,movements,el-ex, rt, d,294634.7984985, -1.5172246659301376, 0.09191054533373523, 0.13805619968800306, -0.07241632789373398, 0.0063453614711761475, 0.04005686193704605, -0.994350790977478, -0.09178119897842407, -0.05332003906369209, -0.0035130977630615234, 0.00018268823623657227, 0.02112412452697754, 0.080660453874282, -0.683252420962735, 0.7254782216287725,0.018480438297493296,-0.99786376953125,-0.0915985107421875,-0.032196044921875
20220122-1409,2022-01-22 14:09:34Z,u01, 56,40,movements,el-ex, rt, d,294634.82344350003, -1.5170112845463548, 0.09068662757436344, 0.13818415371338041, 0.06575046479701996, 0.010361144319176674, 0.032804012298583984, -0.9944507479667664, -0.0905623733997345, -0.053538210690021515, 0.0005236268043518066, 0.01910543441772461, 0.0036269426345825195, 0.08026083988476906, -0.6832196511659899, 0.7255410849473475,0.018956346679127267,-0.9936065673828125,-0.0737152099609375,-0.0508575439453125
20220122-1409,2022-01-22 14:09:34Z,u01, 57,40,movements,el-ex, rt, d,294634.84838750004, -1.5171366100014292, 0.09059932299540195, 0.13976407872141247, 0.029095148667693138, 0.015217214822769165, 0.026716090738773346, -0.9944653511047363, -0.09047543257474899, -0.053414005786180496, 0.00017201900482177734, -0.0007873773574829102, 0.017067790031433105, 0.0807702771586612, -0.6832050641767782, 0.725482412702415,0.019554451584573973,-0.994293212890625,-0.0912628173828125,-0.036346435546875
20220122-1409,2022-01-22 14:09:34Z,u01, 58,40,movements,el-ex, rt, d,294634.8733325, -1.5170752300471384, 0.09030240480113244, 0.13963310094820747, -0.028634091839194298, 0.021977584809064865, 0.025396693497896194, -0.9944888949394226, -0.09017972648143768, -0.0534764863550663, -0.0005979537963867188, 0.004837296903133392, 0.015451781451702118, 0.08061787048001995, -0.6832002014049696, 0.7255024309287894,0.019611525283554143,-0.9954071044921875,-0.0825958251953125,-0.043609619140625
20220122-1409,2022-01-22 14:09:34Z,u01, 59,40,movements,el-ex, rt, d,294634.8982775, -1.5171710025534422, 0.08928655503313387, 0.13968481859429235, 0.026999443769454956, 0.021806808188557625, 0.029133040457963943, -0.994584858417511, -0.08916796743869781, -0.05338611826300621, 0.0018480420112609863, 0.011195547878742218, -0.00018727406859397888, 0.08027018955915632, -0.6832742032759154, 0.7254612761287937,0.019975771992462255,-0.99273681640625,-0.077972412109375,-0.0535736083984375
20220122-1409,2022-01-22 14:09:34Z,u01, 60,40,movements,el-ex, rt, d,294634.9232225, -1.5171354797308745, 0.08850688669573131, 0.1406662735385584, 0.0377277210354805, 0.0191913191229105, 0.0251417625695467, -0.994652271270752, -0.08839137852191925, -0.05342517048120499, 0.0019762516021728516, 0.00713830441236496, 0.010319285094738007, 0.08032397693912219, -0.6832535934968825, 0.7254573583429221,0.02060132667007758,-0.9953460693359375,-0.0805816650390625,-0.0404052734375
20220122-1409,2022-01-22 14:09:34Z,u01, 61,40,movements,el-ex, rt, d,294634.9481675, -1.5172338801211513, 0.08804629957242255, 0.14175932311853387, 0.04555192217230797, 0.03352944552898407, 0.01776340790092945, -0.9946979880332947, -0.08793258666992188, -0.0533294677734375, -0.000556647777557373, 0.014064796268939972, 0.0014955438673496246, 0.08053235059185282, -0.683264083305297, 0.7254084549985541,0.021152224390193763,-0.9952545166015625,-0.0738677978515625,-0.0518341064453125
20220122-1409,2022-01-22 14:09:34Z,u01, 62,40,movements,el-ex, rt, d,294634.97311250004, -1.5167638949926163, 0.08756241056674766, 0.14334193196839143, 0.07177656888961792, 0.020713450387120247, 0.02025100216269493, -0.99471515417099, -0.08745056390762329, -0.05379924550652504, 0.002832770347595215, 0.009340822696685791, -0.010958850383758545, 0.0808933908296301, -0.6830495128526131, 0.7255477973393976,0.021911648999096645,-0.99298095703125,-0.0785980224609375,-0.0637359619140625
20220122-1409,2022-01-22 14:09:34Z,u01, 63,40,movements,el-ex, rt, d,294634.99805650004, -1.5166125558330188, 0.08695799192238945, 0.14507295382635874, 0.051493700593709946, 0.02342168241739273, 0.015457908622920513, -0.9947595596313477, -0.08684844523668289, -0.05395263433456421, 0.0007714629173278809, 0.008204646408557892, -0.0018027983605861664, 0.0812648817927486, -0.6829492677446192, 0.7255746988894504,0.022753551390508497,-0.993988037109375,-0.078643798828125,-0.055755615234375
20220122-1409,2022-01-22 14:09:34Z,u01, 64,40,movements,el-ex, rt, d,294635.0230015, -1.5162272758764077, 0.08659623950762957, 0.1460961933311317, 0.040765754878520966, 0.039366427809000015, 0.0046677133068442345, -0.9947701692581177, -0.08648805320262909, -0.05433760955929756, -0.0026055574417114258, 0.009629510343074799, -0.0013262704014778137, 0.08147934193918382, -0.6827827705071154, 0.7256912548309581,0.023264823476773222,-0.9977569580078125,-0.074920654296875,-0.0534515380859375
20220122-1409,2022-01-22 14:09:34Z,u01, 65,40,movements,el-ex, rt, d,294635.0479465, -1.5145933260373046, 0.08626197969120125, 0.14702204968814725, 0.027365893125534058, 0.06755991280078888, 0.0026226043701171875, -0.9947088956832886, -0.08615504205226898, -0.05596456304192543, -0.0009273290634155273, 0.0013314113020896912, -0.004353292286396027, 0.08165545685151643, -0.682165746151788, 0.7262347574912638,0.023782360513662282,-0.995635986328125,-0.0848236083984375,-0.0603179931640625
20220122-1409,2022-01-22 14:09:34Z,u01, 66,40,movements,el-ex, rt, d,294635.0728915, -1.5130452284174294, 0.08599050031791927, 0.14774719676341233, 0.032005518674850464, 0.05725933983922005, 0.016854004934430122, -0.9946443438529968, -0.08588456362485886, -0.05750574916601181, 0.0037078857421875, -0.0070720091462135315, 0.010859839618206024, 0.08178609190238922, -0.6815850353287467, 0.7267512522578045,0.024202206929702097,-0.991546630859375,-0.0900726318359375,-0.0432281494140625
20220122-1409,2022-01-22 14:09:34Z,u01, 67,40,movements,el-ex, rt, d,294635.09783650003, -1.511811961074776, 0.085473184222666, 0.14848658844277857, 0.026285380125045776, 0.0633019208908081, 0.011335535906255245, -0.994616687297821, -0.08536914736032486, -0.058734968304634094, 0.00023192167282104492, 0.010433264076709747, 0.005253080278635025, 0.08183601346176445, -0.6811280225343301, 0.72715713487185,0.024698831856310777,-0.994384765625,-0.0749359130859375,-0.0534820556640625
20220122-1409,2022-01-22 14:09:34Z,u01, 68,40,movements,el-ex, rt, d,294635.12278150005, -1.5104956803156668, 0.08501502380759887, 0.14938293571878417, 0.05061538517475128, 0.052803006023168564, 0.0041448017582297325, -0.9945774674415588, -0.08491265028715134, -0.06004646420478821, 0.005823194980621338, 0.00904596596956253, -0.00590180978178978, 0.08195910208843393, -0.6806316728688002, 0.7275894803409699,0.02523575525884819,-0.9894256591796875,-0.0746612548828125,-0.0643157958984375
20220122-1409,2022-01-22 14:09:34Z,u01, 69,40,movements,el-ex, rt, d,294635.147725375, -1.5098250859424116, 0.08546087991406191, 0.15108323353086262, 0.10289673507213593, 0.02653498575091362, -0.01691567525267601, -0.9944990873336792, -0.08535689115524292, -0.0607110932469368, 0.0006788969039916992, 0.013777919113636017, -0.0028263255953788757, 0.08269030372517311, -0.6802990281024068, 0.7278005021568027,0.025729273412209208,-0.9938201904296875,-0.0715789794921875,-0.06353759765625
20220122-1409,2022-01-22 14:09:34Z,u01, 70,40,movements,el-ex, rt, d,294635.17267037503, -1.509414285708394, 0.08601875705687431, 0.15461978083404562, 0.15661153197288513, 0.051995135843753815, -0.016847433522343636, -0.9944263100624084, -0.08591271936893463, -0.061116691678762436, -0.00012624263763427734, 0.008184447884559631, 0.009587954729795456, 0.08408935476437096, -0.679978406951369, 0.7278995723640607,0.02684239145729117,-0.9958953857421875,-0.0789642333984375,-0.0518951416015625
20220122-1409,2022-01-22 14:09:34Z,u01, 71,40,movements,el-ex, rt, d,294635.19761537504, -1.5085578379202544, 0.08613119968701477, 0.15772025654099803, 0.06657674163579941, 0.03867700695991516, -0.0005160635337233543, -0.9943640232086182, -0.08602474629878998, -0.061967749148607254, 0.004602611064910889, -0.007877819240093231, 0.007784012705087662, 0.08517206668039207, -0.6795306058407299, 0.7281494922756411,0.027968755167292025,-0.9897613525390625,-0.093902587890625,-0.0541839599609375
20220122-1409,2022-01-22 14:09:34Z,u01, 72,40,movements,el-ex, rt, d,294635.222560375, -1.5076648223638598, 0.08569683509056704, 0.15782816271092256, -0.04230310022830963, 0.02865532785654068, 0.011905784718692303, -0.9943456649780273, -0.08559197932481766, -0.06285806745290756, 0.002127408981323242, -0.010233230888843536, 0.004615478217601776, 0.08503900480020543, -0.6792196498506556, 0.7284465259850014,0.028194674451231583,-0.9933624267578125,-0.0926666259765625,-0.0566253662109375
20220122-1409,2022-01-22 14:09:34Z,u01, 73,40,movements,el-ex, rt, d,294635.247505375, -1.5072163430468655, 0.08502737450810348, 0.15680095237278283, -0.012233149260282516, 0.019465958699584007, 0.009403346106410027, -0.9943743348121643, -0.08492495864629745, -0.06330763548612595, 0.001942455768585205, 0.011713288724422455, -0.008973069489002228, 0.0844415455693695, -0.6791287128444488, 0.7286056712429841,0.028068478634359628,-0.992431640625,-0.073211669921875,-0.0722808837890625
20220122-1409,2022-01-22 14:09:34Z,u01, 74,40,movements,el-ex, rt, d,294635.272449375, -1.5072627544668533, 0.08497041253840196, 0.1574305368021939, 0.056288257241249084, 0.006769869476556778, 0.0024050911888480186, -0.9943820238113403, -0.08486820012331009, -0.06326178461313248, 0.0006074905395507812, 0.01504400372505188, -0.009186744689941406, 0.08463536844116387, -0.6791214639314027, 0.7285803069726995,0.028315349578670712,-0.99407958984375,-0.073944091796875,-0.0720062255859375
20220122-1409,2022-01-22 14:09:34Z,u01, 75,40,movements,el-ex, rt, d,294635.297394375, -1.5074614467973915, 0.08530037681694375, 0.15856005458448902, -0.004402156453579664, 0.0027154069393873215, 0.000375429168343544, -0.9943666458129883, -0.08519697189331055, -0.06306243687868118, 0.0011565685272216797, -0.00582171231508255, -0.0019550397992134094, 0.08514117010205646, -0.6791316240346567, 0.7285006424261805,0.028605517347965514,-0.9932098388671875,-0.0910186767578125,-0.0650177001953125
20220122-1409,2022-01-22 14:09:34Z,u01, 76,40,movements,el-ex, rt, d,294635.32233937504, -1.5073231041301032, 0.08508758498962567, 0.15727990200331746, -0.07727500051259995, 0.0015426184982061386, 0.00945394579321146, -0.9943758249282837, -0.08498495072126389, -0.06320113688707352, 0.002600252628326416, -0.008154712617397308, -0.001465432345867157, 0.08462749044531515, -0.6791447701935733, 0.7285632412817716,0.02821784684718931,-0.9900970458984375,-0.089263916015625,-0.0668487548828125
20220122-1409,2022-01-22 14:09:34Z,u01, 77,40,movements,el-ex, rt, d,294635.347284375, -1.5069682772189383, 0.08436040057295764, 0.15613564287796777, -0.0016046054661273956, -0.0017983177676796913, 0.005499950610101223, -0.9944148063659668, -0.08426037430763245, -0.06355789303779602, 9.09566879272461e-05, 0.013352781534194946, -0.0035805702209472656, 0.0839706770753409, -0.6790949704975041, 0.7286915947646426,0.02806461512990699,-0.99432373046875,-0.0709075927734375,-0.067138671875
20220122-1409,2022-01-22 14:09:34Z,u01, 78,40,movements,el-ex, rt, d,294635.372229375, -1.5067276372704226, 0.0844116313634327, 0.1567139836278066, 0.02338746190071106, 0.016062771901488304, -0.011111184023320675, -0.9943952560424805, -0.08431142568588257, -0.06379691511392593, -0.003438115119934082, 0.006400048732757568, 0.00022900104522705078, 0.08418219218093786, -0.6789807808321496, 0.7287657935466565,0.028267943328459666,-0.9973907470703125,-0.080780029296875,-0.0663604736328125
20220122-1409,2022-01-22 14:09:34Z,u01, 79,40,movements,el-ex, rt, d,294635.397174375, -1.506443340783286, 0.08484441336374138, 0.15660326146885367, -0.023112960159778595, -0.00023743882775306702, -0.003940423019230366, -0.9943404793739319, -0.08474265784025192, -0.06407725811004639, 0.003816068172454834, -0.0005844756960868835, -0.008523814380168915, 0.08429733609669371, -0.6788632635222647, 0.7288687020761964,0.028091609231473746,-0.9905242919921875,-0.0853271484375,-0.072601318359375
20220122-1409,2022-01-22 14:09:34Z,u01, 80,40,movements,el-ex, rt, d,294635.422118375, -1.50636154474159, 0.08485536124496203, 0.15647214402341914, 0.0138131994754076, -0.000794106163084507, 0.0005394807085394859, -0.9943341612815857, -0.08475356549024582, -0.06415852159261703, 0.0033826231956481934, 0.0008149817585945129, -0.0012556836009025574, 0.08425565631597515, -0.6788385105445247, 0.7288983322488811,0.028043524931384067,-0.991943359375,-0.079498291015625,-0.0623626708984375
20220122-1409,2022-01-22 14:09:34Z,u01, 81,40,movements,el-ex, rt, d,294635.44706337503, -1.5059662442174273, 0.0845517878890221, 0.15667299096533607, -0.01490839384496212, 0.03246491402387619, -0.0057667517103254795, -0.9943343997001648, -0.08445107936859131, -0.06455324590206146, -0.003132641315460205, -0.0021883174777030945, 0.000725872814655304, 0.08420829603955715, -0.6786990056424953, 0.7290262704063339,0.02823714143460021,-0.997467041015625,-0.086639404296875,-0.0638275146484375
20220122-1409,2022-01-22 14:09:34Z,u01, 82,40,movements,el-ex, rt, d,294635.47200837504, -1.5049295396961333, 0.08466926735523903, 0.1558830306073117, -0.02233944460749626, 0.04203092306852341, -0.011397805996239185, -0.9942572116851807, -0.08456814289093018, -0.06558340042829514, 0.0008488297462463379, 0.002353779971599579, -0.0032488182187080383, 0.0839682872378073, -0.6783491924845876, 0.7293905398891932,0.027952571898901712,-0.9950103759765625,-0.0811309814453125,-0.0667877197265625
20220122-1409,2022-01-22 14:09:34Z,u01, 83,40,movements,el-ex, rt, d,294635.496953375, -1.5038027841257435, 0.08481914873904887, 0.15612193135643304, 0.031738270074129105, 0.03442486375570297, -0.003981235437095165, -0.9941698908805847, -0.08471748232841492, -0.06670278310775757, 0.0007616281509399414, 0.008347250521183014, 0.0029364898800849915, 0.08408786428161846, -0.6779217054297348, 0.7297708217469833,0.028035875117327136,-0.993408203125,-0.0763702392578125,-0.0637664794921875
20220122-1409,2022-01-22 14:09:34Z,u01, 84,40,movements,el-ex, rt, d,294635.521898375, -1.5031748605881445, 0.08486081789722678, 0.15670397320145865, -0.0017121648415923119, 0.028027024120092392, -7.584318518638611e-05, -0.9941244125366211, -0.08475900441408157, -0.06732679903507233, 0.001692652702331543, -0.0020940303802490234, 0.010671138763427734, 0.08429138527989094, -0.677666260839312, 0.7299759754750469,0.028260496523571543,-0.9914703369140625,-0.088531494140625,-0.0526885986328125
20220122-1409,2022-01-22 14:09:34Z,u01, 85,40,movements,el-ex, rt, d,294635.546843375, -1.5022298220293937, 0.0848811769126595, 0.15613107011487432, -0.03856908157467842, 0.04124648869037628, -0.004477981477975845, -0.9940586090087891, -0.0847792848944664, -0.0682661384344101, -0.0007077455520629883, -0.002150028944015503, 0.0038284659385681152, 0.0840913861889449, -0.6773444973843638, 0.7303044213395702,0.028084183382009797,-0.9947662353515625,-0.0869293212890625,-0.0644378662109375
20220122-1409,2022-01-22 14:09:34Z,u01, 86,40,movements,el-ex, rt, d,294635.571787375, -1.5014146527044248, 0.08460580456860026, 0.15542951118877535, -0.02205611765384674, 0.030016537755727768, 0.013909080997109413, -0.9940259456634521, -0.08450490236282349, -0.06907806545495987, 0.005836009979248047, -0.0027296021580696106, -0.0025007203221321106, 0.08374245629645127, -0.6770880069472286, 0.7305872563665845,0.027956069540985062,-0.989288330078125,-0.08428955078125,-0.0745697021484375
20220122-1409,2022-01-22 14:09:34Z,u01, 87,40,movements,el-ex, rt, d,294635.59673237504, -1.501200510347016, 0.08430685395337532, 0.15518487323940855, -0.0038076727651059628, 0.027203308418393135, 0.0074555762112140656, -0.9940361380577087, -0.08420702069997787, -0.06929267197847366, -0.0005317926406860352, 0.005441136658191681, 0.0002316311001777649, 0.08354811122931322, -0.6770327754000721, 0.7306597538637698,0.02797757158171943,-0.99456787109375,-0.078765869140625,-0.069061279296875
20220122-1409,2022-01-22 14:09:34Z,u01, 88,40,movements,el-ex, rt, d,294635.621677375, -1.5009360588999792, 0.08429119051216499, 0.15527691206114133, 0.008251119405031204, 0.027159100398421288, 0.0003622472286224365, -0.994019091129303, -0.08419141173362732, -0.06955563277006149, 0.00019884109497070312, 0.004799932241439819, -0.002129971981048584, 0.08356987527694104, -0.6769329803671169, 0.730747805015075,0.028027586089475975,-0.9915771484375,-0.080047607421875,-0.0699462890625
20220122-1409,2022-01-22 14:09:34Z,u01, 89,40,movements,el-ex, rt, d,294635.646622375, -1.5003858193995445, 0.08435691042578122, 0.1552768632622771, -0.00483628548681736, 0.023914633318781853, 0.000512249767780304, -0.9939751625061035, -0.08425689488649368, -0.07010218501091003, 0.00039905309677124023, 0.002759702503681183, -0.003322891891002655, 0.08358601551157624, -0.6767291090229178, 0.7309347560545394,0.02802816498472427,-0.9935760498046875,-0.0814971923828125,-0.07342529296875
20220122-1409,2022-01-22 14:09:34Z,u01, 90,40,movements,el-ex, rt, d,294635.671567375, -1.4997267505853873, 0.08427936470195631, 0.15520222412642554, 0.004039830528199673, 0.022444704547524452, 0.003562234342098236, -0.993935227394104, -0.08417962491512299, -0.07075772434473038, 0.0032888054847717285, 0.0037658289074897766, -0.011990539729595184, 0.08352335419544327, -0.6764946314216984, 0.7311578860595976,0.028054835298797265,-0.989166259765625,-0.082763671875,-0.0833587646484375
20220122-1409,2022-01-22 14:09:34Z,u01, 91,40,movements,el-ex, rt, d,294635.696511375, -1.4994120645413336, 0.08397378453848832, 0.15550675245944853, 0.007752743549644947, 0.012076351791620255, 0.011504980735480785, -0.9939385652542114, -0.0838751271367073, -0.07107233256101608, 0.00443655252456665, 0.001508183777332306, 0.0013704374432563782, 0.0835108764449633, -0.6763798986067027, 0.7312566574835709,0.028283395940335854,-0.989501953125,-0.082366943359375,-0.0697021484375
20220122-1409,2022-01-22 14:09:34Z,u01, 92,40,movements,el-ex, rt, d,294635.72145637503, -1.4991089982774932, 0.08373595238001767, 0.155330853661271, -0.013576114550232887, 0.019129201769828796, 0.003317090682685375, -0.9939367771148682, -0.08363813161849976, -0.07137498259544373, -0.002431631088256836, 0.004673905670642853, 0.004556901752948761, 0.08336067339005826, -0.67628655800039, 0.7313589212224132,0.02831271193925361,-0.997955322265625,-0.0787353515625,-0.070587158203125
20220122-1409,2022-01-22 14:09:34Z,u01, 93,40,movements,el-ex, rt, d,294635.74640137504, -1.4984661381372972, 0.08361225328466099, 0.1550844885381494, -0.0001415656879544258, 0.008387541398406029, 0.005623588338494301, -0.9939010739326477, -0.08351486176252365, -0.07201468199491501, 0.0033308863639831543, 0.005695044994354248, -0.009604334831237793, 0.08322331017626888, -0.6760669646014343, 0.7315784406623496,0.028291497718006375,-0.990570068359375,-0.07781982421875,-0.0816192626953125
20220122-1409,2022-01-22 14:09:34Z,u01, 94,40,movements,el-ex, rt, d,294635.771346375, -1.4983374576152577, 0.08353675816629326, 0.15546712161442944, 0.02711738646030426, -0.008015068247914314, 0.0017077429220080376, -0.9938980937004089, -0.08343963325023651, -0.07214303314685822, 0.005403101444244385, -0.0012619197368621826, -0.0026248693466186523, 0.08332336906534427, -0.676007173530301, 0.7316157049180474,0.02846252148978251,-0.990386962890625,-0.085845947265625,-0.0714569091796875
20220122-1409,2022-01-22 14:09:35Z,u01, 95,40,movements,el-ex, rt, d,294635.796291375, -1.4987343202638914, 0.08358066946670675, 0.1561631506290828, 0.02096778154373169, -0.014187143184244633, 0.00098369549959898, -0.9939230680465698, -0.08348339051008224, -0.07174832373857498, 0.00040793418884277344, 0.002215087413787842, -0.0007765293121337891, 0.08358028199181045, -0.6761214190779387, 0.7314721210155058,0.02868560270145848,-0.9935150146484375,-0.081268310546875,-0.0725250244140625
20220122-1409,2022-01-22 14:09:35Z,u01, 96,40,movements,el-ex, rt, d,294635.821236375, -1.4986212522909992, 0.0833972262075918, 0.15612153002246135, -0.017312295734882355, 0.008024817332625389, -0.0009765243157744408, -0.9939301013946533, -0.08330059051513672, -0.07186180353164673, -0.001614391803741455, 0.004672057926654816, 0.0021293237805366516, 0.08349790521396527, -0.6760896366751296, 0.731508827048589,0.028737552032698566,-0.9950103759765625,-0.0796966552734375,-0.0700836181640625
20220122-1409,2022-01-22 14:09:35Z,u01, 97,40,movements,el-ex, rt, d,294635.846180375, -1.4983730491816154, 0.08341058414249154, 0.1559943629991327, 0.015215153805911541, -0.0085230004042387, -0.0017456444911658764, -0.9939111471176147, -0.08331389725208282, -0.07210841774940491, 0.0022881031036376953, 0.008011788129806519, -0.004047989845275879, 0.08345621304734469, -0.6760035880002215, 0.7315946942003315,0.028696849640631183,-0.9916229248046875,-0.0753021240234375,-0.0761566162109375
20220122-1409,2022-01-22 14:09:35Z,u01, 98,40,movements,el-ex, rt, d,294635.87112537504, -1.498661942816998, 0.08367746093866793, 0.15665325854893905, 0.022228654474020004, -0.00367031991481781, -0.012176048010587692, -0.9939096570014954, -0.08357984572649002, -0.07181967049837112, -0.001238107681274414, 0.007835209369659424, -0.006762862205505371, 0.0837801124523474, -0.6760703039692637, 0.7314905604127429,0.02883492879027988,-0.9962005615234375,-0.0804443359375,-0.0762481689453125
20220122-1409,2022-01-22 14:09:35Z,u01, 99,40,movements,el-ex, rt, d,294635.896070375, -1.4985922285946354, 0.08367113876315524, 0.1566908761228014, -0.019292257726192474, 0.0011980030685663223, -0.0026514525525271893, -0.9939051866531372, -0.08357354253530502, -0.0718889981508255, 0.0028315186500549316, -0.003783009946346283, -0.0017954632639884949, 0.08378952667743567, -0.6760435014371834, 0.7315134850460989,0.028853759144022384,-0.9910736083984375,-0.0873565673828125,-0.0736846923828125
20220122-1409,2022-01-22 14:09:35Z,u01, 100,40,movements,el-ex, rt, d,294635.921015375, -1.4984618842266582, 0.08358696180174882, 0.15640398389960833, 0.006629422307014465, 0.006903160363435745, 0.0020044194534420967, -0.9939028024673462, -0.08348966389894485, -0.0720190554857254, -0.001168668270111084, 0.0033199861645698547, -0.0026114508509635925, 0.0836600744182529, -0.6760114382092886, 0.731560705548638,0.028782933314336068,-0.9951324462890625,-0.0771484375,-0.0756072998046875
20220122-1409,2022-01-22 14:09:35Z,u01, 101,40,movements,el-ex, rt, d,294635.945960375, -1.4982124302391011, 0.08337302322937228, 0.1571291070822605, 0.04250999167561531, -0.0022265538573265076, 0.000710788182914257, -0.9939027428627014, -0.08327646553516388, -0.0722682923078537, 0.00359189510345459, 0.0020539462566375732, -0.0015382766723632812, 0.08382374666631048, -0.675898982413465, 0.7316321904047434,0.029131449735152692,-0.9903106689453125,-0.0812225341796875,-0.0738067626953125
20220122-1409,2022-01-22 14:09:35Z,u01, 102,40,movements,el-ex, rt, d,294635.970905375, -1.4983283228412714, 0.0834707291169157, 0.1576552422111673, -0.019088124856352806, 0.0006318166851997375, -0.0018413187935948372, -0.9939029216766357, -0.08337383717298508, -0.0721525102853775, 6.73532485961914e-05, -0.010009974241256714, 0.011926233768463135, 0.08403877354495887, -0.6759151046119434, 0.7315864410978301,0.029285793310955266,-0.995452880859375,-0.092987060546875,-0.0598907470703125
20220122-1409,2022-01-22 14:09:35Z,u01, 103,40,movements,el-ex, rt, d,294635.99584937503, -1.4978844188284877, 0.08318968413943319, 0.15631775275946505, -0.06772277504205704, 0.013428306207060814, 0.017951561138033867, -0.993894100189209, -0.08309376239776611, -0.07259540259838104, 0.0009588003158569336, -0.005010485649108887, -0.0074672698974609375, 0.0834781434923918, -0.6758207587077083, 0.7317526568181937,0.02891072923454846,-0.9929351806640625,-0.088104248046875,-0.0800628662109375
20220122-1409,2022-01-22 14:09:35Z,u01, 104,40,movements,el-ex, rt, d,294636.02079437504, -1.4976455557810149, 0.08257198495208587, 0.15482224928419308, -0.06119360029697418, -0.01315397024154663, 0.012321704998612404, -0.9939277172088623, -0.08247818797826767, -0.07283654063940048, 0.005387008190155029, -0.0012010261416435242, -0.00620376318693161, 0.08274470332421752, -0.6758217544093158, 0.7318478590732589,0.028583633105510986,-0.9896087646484375,-0.08746337890625,-0.07672119140625
20220122-1409,2022-01-22 14:09:35Z,u01, 105,40,movements,el-ex, rt, d,294636.045739375, -1.4975206744282288, 0.08201049360061731, 0.1526872542558433, -0.1281641721725464, 0.021994296461343765, 0.026363618671894073, -0.9939645528793335, -0.08191859722137451, -0.07296403497457504, 0.00019019842147827148, -0.0024777501821517944, -0.017871305346488953, 0.08181720212592958, -0.6758875102573453, 0.7319139851316109,0.02799853066262764,-0.9937744140625,-0.0843963623046875,-0.0908355712890625
20220122-1409,2022-01-22 14:09:35Z,u01, 106,40,movements,el-ex, rt, d,294636.070684375, -1.4972638630695887, 0.08142042078775405, 0.14940663037846635, -0.10832060128450394, -0.01936972141265869, 0.013269856572151184, -0.993993878364563, -0.08133049309253693, -0.07322283834218979, 0.006567120552062988, 0.013413645327091217, -0.029743246734142303, 0.08049022635890546, -0.6759511104595362, 0.7320395983076375,0.02700903559273754,-0.9873809814453125,-0.0635528564453125,-0.0999755859375
20220122-1409,2022-01-22 14:09:35Z,u01, 107,40,movements,el-ex, rt, d,294636.095629375, -1.497781298852381, 0.08150898406360839, 0.14952058270448693, 0.11539631336927414, -0.03633924946188927, -0.009817752987146378, -0.9940244555473328, -0.08141876012086868, -0.07270798087120056, -0.004510700702667236, 0.03414703160524368, -0.006454460322856903, 0.08056795835570402, -0.6761322467940037, 0.7318641071563441,0.02699977237026313,-0.99853515625,-0.047271728515625,-0.07916259765625
20220122-1409,2022-01-22 14:09:35Z,u01, 108,40,movements,el-ex, rt, d,294636.120573375, -1.4985875075388715, 0.08230959522229611, 0.1527536730126595, 0.1069449782371521, -0.012231651693582535, -0.010298320092260838, -0.9940174221992493, -0.08221668750047684, -0.071901835501194, -0.003892183303833008, 0.007250279188156128, 0.015505552291870117, 0.08196334583528525, -0.6762625907346329, 0.7315557610492011,0.027877357818281656,-0.9952850341796875,-0.084625244140625,-0.0519256591796875
20220122-1409,2022-01-22 14:09:35Z,u01, 109,40,movements,el-ex, rt, d,294636.1455185417, -1.497852237542205, 0.082199142464775, 0.15327876732981155, -0.05396910756826401, -0.017810508608818054, -0.0005389670841395855, -0.993973433971405, -0.08210660517215729, -0.07263335585594177, 0.001740097999572754, -0.013764381408691406, 0.01996016502380371, 0.08209038479558894, -0.6759766933029404, 0.7317958418673456,0.028137210171210847,-0.9922332763671875,-0.0958709716796875,-0.05267333984375
20220122-1409,2022-01-22 14:09:35Z,u01, 110,40,movements,el-ex, rt, d,294636.1704635417, -1.4974167239909497, 0.08160006275788974, 0.15177465341289698, -0.04481882229447365, 0.0049428753554821014, 0.0023349840193986893, -0.9939906597137451, -0.0815095379948616, -0.07306984066963196, -0.0027594566345214844, 0.001187257468700409, 0.011516086757183075, 0.08135798976303615, -0.67590380864886, 0.7319575558510397,0.027808435101071394,-0.9944305419921875,-0.07391357421875,-0.0649566650390625
20220122-1409,2022-01-22 14:09:35Z,u01, 111,40,movements,el-ex, rt, d,294636.1954085417, -1.4974735039767646, 0.08085726546705861, 0.15128153084873885, 0.0026519913226366043, 0.002650359645485878, -0.004186098929494619, -0.994054913520813, -0.08076918870210648, -0.07301781326532364, 0.0005854368209838867, 0.013050667941570282, 0.004338197410106659, 0.08092183045599222, -0.6759754069780702, 0.731937113902303,0.027878376566822072,-0.99346923828125,-0.067718505859375,-0.0686798095703125
20220122-1409,2022-01-22 14:09:35Z,u01, 112,40,movements,el-ex, rt, d,294636.22035354166, -1.4981390645035595, 0.08135306832399003, 0.1514205082938409, 0.002476820722222328, 0.0009159762412309647, -0.010093921795487404, -0.994063138961792, -0.08126336336135864, -0.07235327363014221, -0.0012830495834350586, 0.0016430020332336426, 0.004909634590148926, 0.0811584547920779, -0.6761927754239138, 0.7317155422714641,0.02773354408779022,-0.9948577880859375,-0.0818634033203125,-0.0656585693359375
20220122-1409,2022-01-22 14:09:35Z,u01, 113,40,movements,el-ex, rt, d,294636.2452985417, -1.498612353821579, 0.08170565979524705, 0.1513072831719551, -0.017620325088500977, 0.005758669227361679, -0.0012074867263436317, -0.9940686225891113, -0.08161478489637375, -0.07188071310520172, -0.00010263919830322266, -0.012821882963180542, 0.002544999122619629, 0.08125495531901628, -0.6763558794449493, 0.7315608982361611,0.02755288734760969,-0.994171142578125,-0.0944366455078125,-0.0693359375
20220122-1409,2022-01-22 14:09:35Z,u01, 114,40,movements,el-ex, rt, d,294636.2702425417, -1.4983979769083906, 0.08126914229597644, 0.15046518152451108, -0.05415832996368408, 0.004989612847566605, 0.0017276499420404434, -0.9940886497497559, -0.08117971569299698, -0.07209638506174088, 0.0038999319076538086, -0.006787210702896118, -0.006806612014770508, 0.08080847164785626, -0.6763296522076829, 0.7316402374941854,0.027402130144241255,-0.988494873046875,-0.0866546630859375,-0.08050537109375
20220122-1409,2022-01-22 14:09:35Z,u01, 115,40,movements,el-ex, rt, d,294636.2951875417, -1.4986045349471147, 0.08088904997144482, 0.14908349944788196, -0.07089639455080032, -0.003931377083063126, 0.004800205118954182, -0.994134247303009, -0.0808008685708046, -0.07189326733350754, -0.0005100369453430176, 0.001928180456161499, -0.004003763198852539, 0.08020573650145701, -0.676476462577271, 0.7315851669188886,0.027017780718491813,-0.9946441650390625,-0.0788726806640625,-0.075897216796875
20220122-1409,2022-01-22 14:09:35Z,u01, 116,40,movements,el-ex, rt, d,294636.3201325417, -1.4986981307900236, 0.08073680831592826, 0.14677647314197612, -0.12402801960706711, -0.005770755931735039, 0.0060492949560284615, -0.9941530227661133, -0.08064912259578705, -0.071801096200943, 0.0014009475708007812, -0.0015194341540336609, -0.005255572497844696, 0.07937121283385051, -0.6766089438454863, 0.731582486118558,0.026221981506661496,-0.99066162109375,-0.0837249755859375,-0.0788421630859375
20220122-1409,2022-01-22 14:09:35Z,u01, 117,40,movements,el-ex, rt, d,294636.34507754166, -1.4986581464480628, 0.08054024859181935, 0.14293251219585815, -0.17495431005954742, -0.01906845159828663, 0.014043571427464485, -0.9941660761833191, -0.08045320212841034, -0.07184199243783951, 0.004450440406799316, -0.0028750598430633545, -0.007640838623046875, 0.07799861599286712, -0.6767534403250373, 0.7316432507851964,0.024884335208197106,-0.989715576171875,-0.0833282470703125,-0.0794830322265625
20220122-1409,2022-01-22 14:09:35Z,u01, 118,40,movements,el-ex, rt, d,294636.37002254167, -1.4986981003369928, 0.08034897991593187, 0.14051704283857808, 2.477318048477173e-07, -0.020801769569516182, -0.006106038577854633, -0.9941843152046204, -0.08026254922151566, -0.07180338352918625, 0.0006082057952880859, 0.026887327432632446, -0.002903461456298828, 0.07711209279661413, -0.6768692877579235, 0.7316575381727549,0.02406427332096417,-0.994964599609375,-0.0484619140625,-0.0790863037109375
20220122-1409,2022-01-22 14:09:35Z,u01, 119,40,movements,el-ex, rt, d,294636.3949675417, -1.498934237217647, 0.08093133193093716, 0.1414858363071397, 0.04205186292529106, 0.0017922893166542053, -0.02665705420076847, -0.9941544532775879, -0.0808430090546608, -0.07156524807214737, -0.00389254093170166, 0.0082416832447052, -0.0005629062652587891, 0.07765472419968977, -0.6768952047075589, 0.7315713190044798,0.024211226018997667,-0.998046875,-0.072601318359375,-0.0721282958984375
20220122-1409,2022-01-22 14:09:35Z,u01, 120,40,movements,el-ex, rt, d,294636.4199115417, -1.4990073725541986, 0.08122431378366748, 0.14110103814375963, -0.062191255390644073, -0.03099881485104561, 0.0008098576217889786, -0.9941360354423523, -0.08113503456115723, -0.07149083912372589, 0.008296072483062744, -0.015163183212280273, -0.0036585330963134766, 0.07763196452016796, -0.6769252968032643, 0.731553903683914,0.023967860046690492,-0.98822021484375,-0.096893310546875,-0.0758209228515625
20220122-1409,2022-01-22 14:09:35Z,u01, 121,40,movements,el-ex, rt, d,294636.4448565417, -1.499397027796604, 0.08074566071015615, 0.1392315368871904, -0.06691626459360123, -0.02377771958708763, 0.0035089049488306046, -0.9942023754119873, -0.0806579440832138, -0.07110622525215149, -0.000991225242614746, 0.003967255353927612, 0.0008091330528259277, 0.07682957903624588, -0.6771588476698811, 0.7314397490771277,0.023432071057864268,-0.9951934814453125,-0.076690673828125,-0.0702972412109375
20220122-1409,2022-01-22 14:09:35Z,u01, 122,40,movements,el-ex, rt, d,294636.4698015417, -1.4995770912263386, 0.0801864729860977, 0.13832928802733024, 0.020412910729646683, -0.017741398885846138, -0.018037399277091026, -0.9942599534988403, -0.08010056614875793, -0.07093039900064468, -0.0020779967308044434, 0.01876024156808853, 0.0005112960934638977, 0.07632273674988427, -0.6772810647497498, 0.7313843159938583,0.023285706405676787,-0.9968414306640625,-0.0616912841796875,-0.0708770751953125
20220122-1409,2022-01-22 14:09:35Z,u01, 123,40,movements,el-ex, rt, d,294636.49474654166, -1.499853793075372, 0.08105620694100726, 0.13971312850970033, 0.07171052694320679, -0.013729213736951351, -0.01748785749077797, -0.9942097663879395, -0.080967478454113, -0.07065032422542572, 0.0008929967880249023, -0.0019487738609313965, -0.00697094202041626, 0.07711097101493197, -0.6772951623002046, 0.7312822630959722,0.023484807273335795,-0.993316650390625,-0.082916259765625,-0.0776214599609375
20220122-1409,2022-01-22 14:09:35Z,u01, 124,40,movements,el-ex, rt, d,294636.5196915417, -1.500200435287348, 0.08147367237846563, 0.14068902958185306, -0.0030833263881504536, -0.02414729818701744, 0.0002593826502561569, -0.9942004084587097, -0.08138356357812881, -0.0703032910823822, 0.006331026554107666, -0.013938099145889282, 0.005743503570556641, 0.07759738245301434, -0.6773676989083094, 0.731157133592085,0.023685949083344482,-0.989044189453125,-0.0909576416015625,-0.0618743896484375
20220122-1409,2022-01-22 14:09:35Z,u01, 125,40,movements,el-ex, rt, d,294636.5446365417, -1.5007190197024889, 0.0812082164688611, 0.14026333427225623, -0.001964266411960125, -0.004451891407370567, -0.00901827123016119, -0.9942581057548523, -0.08111898601055145, -0.06978920847177505, -0.003071606159210205, -5.777180194854736e-05, 0.008388057351112366, 0.07736280430906706, -0.6775842329177019, 0.7309839884878436,0.023600722515695893,-0.9973297119140625,-0.0811767578125,-0.0614013671875
20220122-1409,2022-01-22 14:09:35Z,u01, 126,40,movements,el-ex, rt, d,294636.5695805417, -1.5007633925103083, 0.08109072261092336, 0.14068822010791737, 0.025741931051015854, -0.00828897301107645, -0.009761827066540718, -0.9942706823348999, -0.081001877784729, -0.0697457566857338, -0.0011364221572875977, 0.005135186016559601, 0.007108636200428009, 0.0774645630728315, -0.6775886383161397, 0.7309628656259171,0.023794346463292537,-0.9947357177734375,-0.0772705078125,-0.065460205078125
20220122-1409,2022-01-22 14:09:35Z,u01, 127,40,movements,el-ex, rt, d,294636.5945255417, -1.5009092481023611, 0.08161522925406647, 0.1408901026630196, -0.0011660833843052387, -0.007871056906878948, -0.00437232106924057, -0.9942384362220764, -0.08152465522289276, -0.0695977658033371, 0.0008759498596191406, -0.002474963665008545, 0.0002009868621826172, 0.07772535607450604, -0.6776133750550456, 0.7309159021487374,0.023683671539964868,-0.9933624267578125,-0.0839996337890625,-0.06939697265625
20220122-1409,2022-01-22 14:09:35Z,u01, 128,40,movements,el-ex, rt, d,294636.61947054166, -1.5012498381010642, 0.08186511889110266, 0.14094852785361148, 0.016152620315551758, -0.0028594546020030975, -0.01139714103192091, -0.9942418336868286, -0.08177370578050613, -0.0692577213048935, 0.0010623931884765625, 0.007051408290863037, 0.0011884570121765137, 0.07783999982603756, -0.6777256615023324, 0.7308021639781418,0.023606582180215385,-0.992279052734375,-0.0731964111328125,-0.0662078857421875
20220122-1409,2022-01-22 14:09:35Z,u01, 129,40,movements,el-ex, rt, d,294636.64441554167, -1.5016641480169237, 0.08196155673761653, 0.14173422841680702, 0.03557216003537178, -0.0010335249826312065, -0.004861409775912762, -0.9942624568939209, -0.08186982572078705, -0.0688452422618866, 0.002242743968963623, -0.004052422940731049, 0.0028206780552864075, 0.07814623404191784, -0.677842567283304, 0.730653220181931,0.023844602405891036,-0.9920196533203125,-0.0859222412109375,-0.0660247802734375
20220122-1409,2022-01-22 14:09:35Z,u01, 130,40,movements,el-ex, rt, d,294636.6693605417, -1.5017596128662263, 0.08203917649643634, 0.14187437320363336, -0.01926492527127266, -0.010067898780107498, -0.006268225610256195, -0.9942625761032104, -0.08194717764854431, -0.06874988228082657, 0.00022876262664794922, -0.0016404613852500916, 0.003091461956501007, 0.07822307760691166, -0.6778688740827782, 0.7306198543523788,0.02386559359340984,-0.9956207275390625,-0.085601806640625,-0.0665740966796875
20220122-1409,2022-01-22 14:09:35Z,u01, 131,40,movements,el-ex, rt, d,294636.6943045417, -1.5017045383955705, 0.08201831550005062, 0.14120052469350639, -0.01009286567568779, 0.0007200334221124649, -0.002194121014326811, -0.9942606687545776, -0.0819263905286789, -0.06880476325750351, 0.00042510032653808594, 0.0070820152759552, -0.0005462169647216797, 0.0779864443793129, -0.6778758968205315, 0.7306464434233253,0.023628695477103445,-0.99383544921875,-0.0748443603515625,-0.0693511962890625
20220122-1409,2022-01-22 14:09:35Z,u01, 132,40,movements,el-ex, rt, d,294636.7192495417, -1.5019076475270012, 0.08197518101606292, 0.14165655366783259, 0.029877252876758575, -0.0028564585372805595, 0.0011096633970737457, -0.9942781329154968, -0.08188340067863464, -0.06860306859016418, 0.0036927461624145508, 0.0009202659130096436, -0.0016787052154541016, 0.07812775187023491, -0.6779340097264128, 0.7305718120241009,0.023802070285974475,-0.9926605224609375,-0.0834808349609375,-0.065643310546875
20220122-1409,2022-01-22 14:09:35Z,u01, 133,40,movements,el-ex, rt, d,294636.7441945417, -1.501975164852592, 0.08203495454273133, 0.14151305690914526, -0.04454008862376213, 0.005122171714901924, 0.002557423897087574, -0.9942778944969177, -0.08194297552108765, -0.06853559613227844, -6.127357482910156e-05, -0.0068784430623054504, 0.004235260188579559, 0.07810162731892734, -0.6779618988250502, 0.7305511923605383,0.023726628824801976,-0.9943389892578125,-0.0888214111328125,-0.064300537109375
20220122-1409,2022-01-22 14:09:35Z,u01, 134,40,movements,el-ex, rt, d,294636.76913954166, -1.5019533929729927, 0.08189537843803571, 0.1401851808460001, -0.041045788675546646, -0.004281249828636646, 0.0037919990718364716, -0.9942877888679504, -0.08180386573076248, -0.06855802983045578, 0.0035497546195983887, 0.0035568252205848694, -0.0116572305560112, 0.07760052428136527, -0.6780111686437138, 0.730572865007419,0.023290035922143904,-0.99078369140625,-0.0766448974609375,-0.082611083984375
20220122-1409,2022-01-22 14:09:36Z,u01, 135,40,movements,el-ex, rt, d,294636.7940845417, -1.5021052752249504, 0.08184937857455545, 0.14009344331450202, 0.03292890265583992, -0.013494322076439857, -0.0068629090674221516, -0.9943020343780518, -0.08175802230834961, -0.06840727478265762, 0.0018701553344726562, 0.017762653529644012, -0.0037971213459968567, 0.07755447365552604, -0.6780720207329887, 0.7305220984423287,0.023266329193035395,-0.992431640625,-0.063995361328125,-0.07220458984375
20220122-1409,2022-01-22 14:09:36Z,u01, 136,40,movements,el-ex, rt, d,294636.8190295417, -1.5025069849348012, 0.08232872569470547, 0.14118036782164411, 0.03537488356232643, 0.0034463107585906982, -0.007828038185834885, -0.9942901134490967, -0.08223575353622437, -0.06800515949726105, -0.005740523338317871, 0.00023502111434936523, 0.0015227794647216797, 0.07810183055227399, -0.6781574474983542, 0.7303774231575821,0.02348412943986411,-0.9967803955078125,-0.0854034423828125,-0.0657196044921875
20220122-1409,2022-01-22 14:09:36Z,u01, 137,40,movements,el-ex, rt, d,294636.8439735417, -1.5024615121408378, 0.08235250719288885, 0.1413240356321911, -0.015996893867850304, -0.014478759840130806, 0.008601401001214981, -0.994284987449646, -0.08225945383310318, -0.06805023550987244, 0.00821620225906372, -0.00744696706533432, 0.003002174198627472, 0.07815864957636931, -0.6781342835355516, 0.7303913412508009,0.023530256992589704,-0.9860687255859375,-0.0897064208984375,-0.0650482177734375
20220122-1409,2022-01-22 14:09:36Z,u01, 138,40,movements,el-ex, rt, d,294636.8689185417, -1.5025219711974882, 0.08202294856267661, 0.14094127735222245, -0.0016532083973288536, -0.0029240362346172333, 0.0010394221171736717, -0.9943161010742188, -0.08193100988864899, -0.06799197196960449, -0.0007248520851135254, -0.00151931494474411, 0.0030813291668891907, 0.07790987564880464, -0.6781843900281488, 0.7303723389543608,0.023500561959678368,-0.9953765869140625,-0.080413818359375,-0.0631866455078125
20220122-1409,2022-01-22 14:09:36Z,u01, 139,40,movements,el-ex, rt, d,294636.89386354166, -1.5024271160641032, 0.08176763525889601, 0.1410888953913053, 0.009056227281689644, 0.006681319326162338, -0.009496708400547504, -0.9943305253982544, -0.08167655020952225, -0.06808771193027496, -0.0030298233032226562, 0.00780874490737915, 0.002490401268005371, 0.07786607453020578, -0.6781541251993882, 0.7304004674841007,0.023645277112244345,-0.9973602294921875,-0.0738677978515625,-0.0655975341796875
20220122-1409,2022-01-22 14:09:36Z,u01, 140,40,movements,el-ex, rt, d,294636.91880854167, -1.5023827241069931, 0.08208415026720405, 0.1414562942820764, 0.024395769461989403, -0.0020956601947546005, -0.008613870479166508, -0.9943017363548279, -0.0819920003414154, -0.06813009083271027, 0.0026786327362060547, 0.0022953376173973083, -0.009109742939472198, 0.07810508533765559, -0.6781110167277666, 0.7304141302175344,0.023673197829835957,-0.987823486328125,-0.080841064453125,-0.0774993896484375
20220122-1409,2022-01-22 14:09:36Z,u01, 141,40,movements,el-ex, rt, d,294636.9437535417, -1.5028375499845665, 0.08233205184830085, 0.141926988191948, 0.008818140253424644, -0.014471103437244892, 0.0034885983914136887, -0.9943122863769531, -0.08223906904459, -0.06767646223306656, -0.0004845857620239258, -0.0079556405544281, -0.0037039518356323242, 0.07836011859865472, -0.6782488182353058, 0.7302565837721233,0.023742700569917563,-0.9947967529296875,-0.0901947021484375,-0.071380615234375
20220122-1409,2022-01-22 14:09:36Z,u01, 142,40,movements,el-ex, rt, d,294636.9686985417, -1.5031400455681418, 0.0819924189911467, 0.14187674450978088, -0.008355786092579365, -0.003314322791993618, 0.010516680777072906, -0.9943604469299316, -0.08190058171749115, -0.06737756729125977, -0.0006347894668579102, -0.001839667558670044, 0.002115964889526367, 0.07822335362422767, -0.6783747663484807, 0.730151410975605,0.023828424167901874,-0.995025634765625,-0.08087158203125,-0.0655975341796875
20220122-1409,2022-01-22 14:09:36Z,u01, 143,40,movements,el-ex, rt, d,294636.9936425417, -1.5030956427115478, 0.08172809429736581, 0.14183328868116224, 0.00519497599452734, -0.00910177081823349, -0.002973695285618305, -0.9943790435791016, -0.08163714408874512, -0.06742317974567413, -0.0005398988723754883, 0.0049464404582977295, 0.005976200103759766, 0.07811210643248356, -0.6783707741397147, 0.7301645651122344,0.02390451103718677,-0.9949188232421875,-0.076690673828125,-0.0614471435546875
20220122-1409,2022-01-22 14:09:36Z,u01, 144,40,movements,el-ex, rt, d,294637.0185875417, -1.5029956774756057, 0.08183049568698487, 0.14180308537151823, -0.005436895415186882, -0.007894027046859264, 0.0009643211960792542, -0.9943639636039734, -0.08173920214176178, -0.06752201914787292, -0.0005244612693786621, 0.001996755599975586, -0.0032327771186828613, 0.0781378521267338, -0.6783313839930105, 0.7301997761638593,0.023862440055791634,-0.99346923828125,-0.08148193359375,-0.0719757080078125
20220122-1409,2022-01-22 14:09:36Z,u01, 145,40,movements,el-ex, rt, d,294637.04353254166, -1.5031927992987353, 0.08195419262775293, 0.14175460137685417, 0.004059704951941967, -0.010526762343943119, 0.0028954464942216873, -0.9943671226501465, -0.08186247944831848, -0.06732531636953354, 0.002637326717376709, 0.005537994205951691, -0.0032616183161735535, 0.07816867381627735, -0.6784003233474416, 0.730134592151499,0.023794816834047883,-0.991729736328125,-0.076324462890625,-0.070587158203125
20220122-1409,2022-01-22 14:09:36Z,u01, 146,40,movements,el-ex, rt, d,294637.0684775417, -1.5035394115969216, 0.08193791136173793, 0.1422805228720453, 0.03614869713783264, -0.0065655093640089035, -0.006773093715310097, -0.9943917989730835, -0.08184625953435898, -0.0669807493686676, 0.0006477832794189453, 0.012769699096679688, -0.0007375478744506836, 0.07834530367471088, -0.6785069177163612, 0.7300106571117939,0.023978795449557055,-0.9959564208984375,-0.0684967041015625,-0.067962646484375
20220122-1409,2022-01-22 14:09:36Z,u01, 147,40,movements,el-ex, rt, d,294637.0934225417, -1.5037569779946045, 0.08209298864615167, 0.14299172004072344, 0.018578793853521347, -0.005341188050806522, -0.007570378016680479, -0.9943937063217163, -0.08200081437826157, -0.06676355004310608, -0.0007541179656982422, -0.0028685927391052246, -5.447864532470703e-05, 0.0786454988900061, -0.6785522154990413, 0.7299297320159263,0.02417688944643398,-0.995147705078125,-0.084869384765625,-0.0668182373046875
20220122-1409,2022-01-22 14:09:36Z,u01, 148,40,movements,el-ex, rt, d,294637.1183665417, -1.5038401575290297, 0.08223533471439987, 0.14318562769491405, 0.008156346157193184, -0.011779447086155415, -0.001405226532369852, -0.994387686252594, -0.08214268088340759, -0.06668006628751755, 0.003100275993347168, 0.0003860890865325928, 2.9861927032470703e-05, 0.07876395319762741, -0.6785692356138296, 0.7299005837395249,0.024195786659897578,-0.9918670654296875,-0.0845794677734375,-0.0682220458984375
20220122-1409,2022-01-22 14:09:36Z,u01, 149,40,movements,el-ex, rt, d,294637.143311375, -1.50407878162915, 0.0819570087444564, 0.14389929116737651, 0.04167555645108223, -0.01135893352329731, -0.003919783513993025, -0.9944260716438293, -0.08186528831720352, -0.0664442852139473, 0.0013077855110168457, 0.0014209598302841187, 0.005882337689399719, 0.07890801337967612, -0.6786393626884772, 0.7298080737606888,0.024541842826553917,-0.9931182861328125,-0.0804443359375,-0.0605621337890625
20220122-1409,2022-01-22 14:09:36Z,u01, 150,40,movements,el-ex, rt, d,294637.168256375, -1.5042401139347608, 0.08195124917291655, 0.14483278988564735, 0.019693057984113693, 0.006699495017528534, -0.0009966311044991016, -0.9944373369216919, -0.08185955137014389, -0.06628388911485672, -0.0019311308860778809, -0.004245780408382416, 0.00032032281160354614, 0.07922467042679604, -0.6786615566540314, 0.7297418210695586,0.02487805674511334,-0.99493408203125,-0.0865020751953125,-0.0668792724609375
20220122-1409,2022-01-22 14:09:36Z,u01, 151,40,movements,el-ex, rt, d,294637.193201375, -1.504325144354762, 0.08204957827504367, 0.1450858583682815, 0.008759583346545696, -0.014393538236618042, -0.0018477770499885082, -0.9944348931312561, -0.08195754885673523, -0.06619878858327866, 0.004414081573486328, -0.0026524588465690613, -0.005517296493053436, 0.07934728309109185, -0.6786785784064411, 0.7297107576007893,0.024933440794939365,-0.990020751953125,-0.0846099853515625,-0.07171630859375
20220122-1409,2022-01-22 14:09:36Z,u01, 152,40,movements,el-ex, rt, d,294637.21814637503, -1.5047409595545262, 0.08213871486701398, 0.1454177481558092, 0.013821220956742764, -0.01723666302859783, 0.005115390755236149, -0.9944551587104797, -0.08204638212919235, -0.06578480452299118, 0.0005432367324829102, 0.0063627660274505615, 0.0053754448890686035, 0.07949744307213291, -0.6788134893424986, 0.7295664195947653,0.025007565514972685,-0.995880126953125,-0.07672119140625,-0.0597076416015625
20220122-1409,2022-01-22 14:09:36Z,u01, 153,40,movements,el-ex, rt, d,294637.24309137504, -1.5051638390708852, 0.08207577888087389, 0.14594127992716655, 0.022483453154563904, -0.010578160174190998, -0.0021384614519774914, -0.9944880604743958, -0.08198366314172745, -0.06536460667848587, -0.0010412335395812988, 4.3958425521850586e-05, 0.012752532958984375, 0.07965762870209492, -0.6789494516660387, 0.7294157290374381,0.025203197601205374,-0.9955291748046875,-0.081939697265625,-0.0526123046875
20220122-1409,2022-01-22 14:09:36Z,u01, 154,40,movements,el-ex, rt, d,294637.268035375, -1.5053580286290476, 0.08205554354167476, 0.14657852941007848, 0.030141573399305344, -0.005608302541077137, 0.009973196312785149, -0.9945023655891418, -0.08196349442005157, -0.06517159193754196, 0.0008346438407897949, -0.01047426462173462, 0.016770899295806885, 0.07986908832377515, -0.6789956786452493, 0.7293415071494626,0.025434763862156096,-0.9950103759765625,-0.092132568359375,-0.051116943359375
20220122-1409,2022-01-22 14:09:36Z,u01, 155,40,movements,el-ex, rt, d,294637.292980375, -1.5054343949915352, 0.08193727335043662, 0.14770017988511247, 0.0625092014670372, 0.003884468227624893, 0.004705662839114666, -0.9945168495178223, -0.08184561878442764, -0.06509626656770706, 0.0025582313537597656, -0.0004755482077598572, -0.006436757743358612, 0.08020798645459665, -0.6789834636822448, 0.7292998682334026,0.025881136731252696,-0.9919586181640625,-0.0823211669921875,-0.071533203125
20220122-1409,2022-01-22 14:09:36Z,u01, 156,40,movements,el-ex, rt, d,294637.317925375, -1.5056920313076532, 0.08191978698546863, 0.14871286735957048, -0.005495251156389713, 0.0056824348866939545, -0.0028848121874034405, -0.9945352673530579, -0.08182819187641144, -0.0648401528596878, -0.0021538138389587402, 0.0003767535090446472, -0.01012612134218216, 0.08054880325775748, -0.6790374171256275, 0.7291992018781213,0.026246015849881565,-0.997222900390625,-0.0842132568359375,-0.0748291015625
20220122-1409,2022-01-22 14:09:36Z,u01, 157,40,movements,el-ex, rt, d,294637.342870375, -1.5061262646286713, 0.08208207303190404, 0.14768146839076685, -0.043861813843250275, -0.010668574832379818, 0.001249212771654129, -0.9945499300956726, -0.08198993653059006, -0.06440741568803787, 0.005551397800445557, 0.009220749139785767, -0.0180661678314209, 0.08026305955600638, -0.6792305443016228, 0.7290667435963263,0.025797074360678074,-0.9889984130859375,-0.0727691650390625,-0.0824737548828125
20220122-1409,2022-01-22 14:09:36Z,u01, 158,40,movements,el-ex, rt, d,294637.36781537504, -1.5067241710819914, 0.08220327836866241, 0.1479166615795587, 0.056652139872312546, -0.017412232235074043, -0.004708012565970421, -0.9945782423019409, -0.08211073279380798, -0.06381211429834366, 0.002161860466003418, 0.01755080372095108, -0.012725822627544403, 0.08039459321340942, -0.6794340671251353, 0.7288617943812138,0.02581734326722296,-0.9937591552734375,-0.0674285888671875,-0.072052001953125
20220122-1409,2022-01-22 14:09:36Z,u01, 159,40,movements,el-ex, rt, d,294637.392760375, -1.5068180158541054, 0.08233707535978589, 0.14961569608119288, 0.062327370047569275, -0.0022449297830462456, -0.00164744071662426, -0.9945734143257141, -0.08224407583475113, -0.06371808797121048, -0.0030463337898254395, -0.0026710927486419678, 0.008359432220458984, 0.08102145956912293, -0.6793941998811126, 0.7288092797922614,0.02638697010347929,-0.99761962890625,-0.0849151611328125,-0.05535888671875
20220122-1409,2022-01-22 14:09:36Z,u01, 160,40,movements,el-ex, rt, d,294637.417704375, -1.506586349162672, 0.0824354760807843, 0.15064869646638093, 0.019668657332658768, -0.00022079423069953918, -0.0020640925504267216, -0.9945504069328308, -0.08234214037656784, -0.06394796818494797, 0.0022713541984558105, -0.006692878901958466, 0.009977824985980988, 0.0814049142312358, -0.6792637597454643, 0.728875209803747,0.02673917611825216,-0.991363525390625,-0.089111328125,-0.0549468994140625
20220122-1409,2022-01-22 14:09:36Z,u01, 161,40,movements,el-ex, rt, d,294637.442649375, -1.5058841677059644, 0.08200781035625329, 0.1508954735225611, 0.009852778166532516, 0.0034831296652555466, -2.9437243938446045e-05, -0.9945403337478638, -0.08191592246294022, -0.0646485835313797, -0.0007447600364685059, -0.004036836326122284, 0.008023388683795929, 0.081324301280924, -0.6790155114184808, 0.7291057207659208,0.027003879625956573,-0.9952850341796875,-0.0859527587890625,-0.0566253662109375
20220122-1409,2022-01-22 14:09:36Z,u01, 162,40,movements,el-ex, rt, d,294637.467594375, -1.505639205195901, 0.08187666825553692, 0.15108793412824773, 0.0008794907480478287, 0.01321372203528881, 0.0022419067099690437, -0.9945352673530579, -0.08178521692752838, -0.06489291787147522, 4.357099533081055e-05, 0.0021495819091796875, -0.004625916481018066, 0.08133878431373959, -0.6789238136574199, 0.7291849246768545,0.027128826254066207,-0.9920806884765625,-0.0765228271484375,-0.07098388671875
20220122-1409,2022-01-22 14:09:36Z,u01, 163,40,movements,el-ex, rt, d,294637.49253937503, -1.5059199046602638, 0.082084566417715, 0.15100736125372932, -0.002379053272306919, 0.002584978938102722, -0.00447545200586319, -0.9945364594459534, -0.08199241757392883, -0.06461264193058014, 0.001662135124206543, 0.006293557584285736, -0.00453997403383255, 0.08139058325638637, -0.6790208029088313, 0.729092995610529,0.027016985318795483,-0.9928741455078125,-0.0756988525390625,-0.06915283203125
20220122-1409,2022-01-22 14:09:36Z,u01, 164,40,movements,el-ex, rt, d,294637.51748437504, -1.5061032629151065, 0.08234455233741957, 0.15136809134937088, 0.025652579963207245, 0.003224670886993408, -0.005151628516614437, -0.9945269823074341, -0.08225152641534805, -0.0644289031624794, 0.0009050369262695312, 0.007788658142089844, -0.002785801887512207, 0.08160975942323928, -0.6790621434529667, 0.729028668839286,0.02705215049270382,-0.9941864013671875,-0.076171875,-0.06591796875
20220122-1409,2022-01-22 14:09:36Z,u01, 165,40,movements,el-ex, rt, d,294637.542428375, -1.5061200206110186, 0.08252544155369941, 0.1518376614319928, 0.0036757439374923706, 0.004173753783106804, -0.006217225454747677, -0.9945130944252014, -0.08243180066347122, -0.06441127508878708, -0.00020742416381835938, 0.001956947147846222, 0.005466826260089874, 0.08183497229260833, -0.6790415315474179, 0.7290185272861944,0.027160798970079114,-0.994720458984375,-0.080474853515625,-0.0589447021484375
20220122-1409,2022-01-22 14:09:36Z,u01, 166,40,movements,el-ex, rt, d,294637.567373375, -1.5058582033380927, 0.08246891638360365, 0.15170853131521822, -0.003731838893145323, 0.010618869215250015, -0.0036984076723456383, -0.9945007562637329, -0.08237546682357788, -0.06467194855213165, 0.0009552836418151855, -0.002219252288341522, 0.003163941204547882, 0.08176709889428063, -0.6789537305331038, 0.7291084862885923,0.02714375205365349,-0.9932403564453125,-0.0832672119140625,-0.0634765625
20220122-1409,2022-01-22 14:09:36Z,u01, 167,40,movements,el-ex, rt, d,294637.592318375, -1.50541221758091, 0.08226444780890217, 0.15135779564018537, -0.022797010838985443, 0.007781006395816803, 0.0025696074590086937, -0.9944887161254883, -0.08217169344425201, -0.06511657685041428, 0.00014960765838623047, -0.00422358512878418, -0.0020524263381958008, 0.08156787799809712, -0.6788139595027283, 0.7292624839098528,0.027103960906712465,-0.9943389892578125,-0.086395263671875,-0.067169189453125
20220122-1409,2022-01-22 14:09:36Z,u01, 168,40,movements,el-ex, rt, d,294637.617263375, -1.5052745475645455, 0.08209317063019338, 0.15103077080666089, -0.003428504802286625, 0.005136752501130104, 7.156282663345337e-05, -0.9944937825202942, -0.08200099319219589, -0.06525441259145737, 0.004747629165649414, -0.004790991544723511, 0.0031818151473999023, 0.08139293021827487, -0.6787841966512924, 0.7293117794180194,0.027048841359661346,-0.990966796875,-0.082916259765625,-0.0617218017578125
20220122-1409,2022-01-22 14:09:36Z,u01, 169,40,movements,el-ex, rt, d,294637.64220837504, -1.505253707991817, 0.08202004537023684, 0.15111421016124055, 0.003816092386841774, 0.011323010548949242, 0.0010420195758342743, -0.9944984316825867, -0.08192811161279678, -0.06527552753686905, -0.00019156932830810547, 0.0022772252559661865, 0.003843843936920166, 0.08139445388885702, -0.6787762355181619, 0.7293169524787195,0.027105100304019136,-0.99468994140625,-0.07965087890625,-0.061431884765625
20220122-1409,2022-01-22 14:09:36Z,u01, 170,40,movements,el-ex, rt, d,294637.667153375, -1.5049171766571445, 0.08203606747386091, 0.15085153636503632, -0.012335047125816345, 0.007628407329320908, -0.0012443047016859055, -0.9944750666618347, -0.08194408565759659, -0.0656101182103157, 0.0018602609634399414, 0.004292108118534088, -0.005953364074230194, 0.08130657169819155, -0.6786635273051956, 0.7294348454623455,0.027017519871788076,-0.991790771484375,-0.0770416259765625,-0.0734710693359375
20220122-1409,2022-01-22 14:09:36Z,u01, 171,40,movements,el-ex, rt, d,294637.692097375, -1.5047918265309306, 0.08227763319066314, 0.1506620557723353, 0.006226585246622562, 0.003391718491911888, -0.006759312469512224, -0.9944469928741455, -0.08218483626842499, -0.06573346257209778, 0.0017712116241455078, 0.005860365927219391, -0.005402795970439911, 0.0813281880707743, -0.6786154988584057, 0.7294824787097289,0.026870991845295455,-0.99267578125,-0.076324462890625,-0.071136474609375
20220122-1409,2022-01-22 14:09:36Z,u01, 172,40,movements,el-ex, rt, d,294637.717042375, -1.5048229437973142, 0.08230033171867523, 0.1507301093747254, -0.006043096538633108, 0.008629688993096352, 0.0018361061811447144, -0.9944471120834351, -0.08220745623111725, -0.0657023936510086, 0.001206815242767334, -0.0006630271673202515, -0.002519473433494568, 0.0813599303273983, -0.6786231398930803, 0.7294712253882462,0.02688679394182475,-0.9929046630859375,-0.0832366943359375,-0.06658935546875
20220122-1409,2022-01-22 14:09:36Z,u01, 173,40,movements,el-ex, rt, d,294637.741987375, -1.5047298301611143, 0.08206752678384821, 0.15030100365150795, -0.023003771901130676, -0.0026888782158493996, 0.0054927607998251915, -0.9944603443145752, -0.08197543770074844, -0.06579626351594925, 0.0007162094116210938, -0.00020841509103775024, -0.000930197536945343, 0.08112864250408008, -0.6786162464407355, 0.7295062840646961,0.026813588178180303,-0.993743896484375,-0.082183837890625,-0.0667266845703125
20220122-1409,2022-01-22 14:09:36Z,u01, 174,40,movements,el-ex, rt, d,294637.76693237503, -1.5044360314847889, 0.08189903357520567, 0.14997790682987452, 0.0009410092607140541, 0.0006798207759857178, -0.003278294112533331, -0.994454562664032, -0.08180750906467438, -0.06608933955430984, 0.000863194465637207, 0.0056661441922187805, -0.0011559650301933289, 0.08095398664421916, -0.6785291321413668, 0.7296083531577308,0.02676517439954318,-0.991912841796875,-0.0761566162109375,-0.067291259765625
20220122-1409,2022-01-22 14:09:37Z,u01, 175,40,movements,el-ex, rt, d,294637.79187737504, -1.504469193744629, 0.08192267151542329, 0.15023647535573464, 0.02402505651116371, -0.009340256452560425, -0.0053285956382751465, -0.9944548606872559, -0.08183106780052185, -0.06605623662471771, 0.0011380910873413086, 0.003568708896636963, -0.002928495407104492, 0.08105072349952863, -0.67852977981769, 0.7295939467152512,0.026850086938984663,-0.993316650390625,-0.0782623291015625,-0.0689849853515625
20220122-1409,2022-01-22 14:09:37Z,u01, 176,40,movements,el-ex, rt, d,294637.81682137505, -1.5044749780731688, 0.0820672436684816, 0.1504924911550222, -0.008648667484521866, 0.003481399267911911, -0.0013321232981979847, -0.994443416595459, -0.08197515457868576, -0.06604969501495361, -0.0018488168716430664, -0.0003612935543060303, 0.004373908042907715, 0.08119009490503032, -0.678515526819132, 0.7295900651087734,0.026893872028935784,-0.9967041015625,-0.081939697265625,-0.0637664794921875
20220122-1409,2022-01-22 14:09:37Z,u01, 177,40,movements,el-ex, rt, d,294637.841766375, -1.5043685998999994, 0.0819927063420658, 0.1503427055344547, 0.007887265644967556, -0.0054855309426784515, -0.008231639862060547, -0.9944424629211426, -0.08190086483955383, -0.06615588814020157, 0.006054341793060303, 0.00179222971200943, -0.006170623004436493, 0.08111081624822541, -0.6784858815233386, 0.7296273602973534,0.026869000095365914,-0.9883880615234375,-0.080108642578125,-0.07232666015625
20220122-1409,2022-01-22 14:09:37Z,u01, 178,40,movements,el-ex, rt, d,294637.866711375, -1.504467535250273, 0.08210201083114789, 0.15063294979615907, 0.008019259199500084, -0.0015815366059541702, -0.006187331397086382, -0.9944400787353516, -0.08200980722904205, -0.06605690717697144, -0.0011349916458129883, -0.001104801893234253, -0.0019360780715942383, 0.08125025669323016, -0.6785056681871308, 0.7295910598203532,0.026933539126319128,-0.9974822998046875,-0.083770751953125,-0.0658721923828125
20220122-1409,2022-01-22 14:09:37Z,u01, 179,40,movements,el-ex, rt, d,294637.891656375, -1.5045866014770082, 0.08209817137946109, 0.1507839755059287, 0.013404637575149536, -0.005310894921422005, 0.0003354158252477646, -0.9944483041763306, -0.08200597763061523, -0.06593853235244751, 0.0024437904357910156, -0.005732059478759766, -0.002496957778930664, 0.08130170166169087, -0.6785431220056534, 0.7295486515773129,0.026985106110508306,-0.99200439453125,-0.087738037109375,-0.0684356689453125
20220122-1409,2022-01-22 14:09:37Z,u01, 180,40,movements,el-ex, rt, d,294637.91660137504, -1.5047079638587044, 0.0820231856854381, 0.15101838239639637, 0.0046252598986029625, -0.010502194985747337, 0.0015575401484966278, -0.9944624304771423, -0.08193124085664749, -0.06581824272871017, 0.002763092517852783, 0.0020362138748168945, 0.007072091102600098, 0.08135568006244798, -0.6785809685437002, 0.7295034775065579,0.027091283697250557,-0.992919921875,-0.0782318115234375,-0.0601654052734375
20220122-1409,2022-01-22 14:09:37Z,u01, 181,40,movements,el-ex, rt, d,294637.941546375, -1.5046733708830853, 0.08208755360251956, 0.15097274431541569, -0.0041154674254357815, -0.0017696218565106392, -0.004416130017489195, -0.9944546818733215, -0.0819953978061676, -0.06585228443145752, 0.0002683401107788086, 0.0015205517411231995, -0.000736825168132782, 0.08136307936728326, -0.6785675397167783, 0.7295164037609033,0.02705405478993239,-0.9941864013671875,-0.080474853515625,-0.06658935546875
20220122-1409,2022-01-22 14:09:37Z,u01, 182,40,movements,el-ex, rt, d,294637.966490375, -1.504684249956912, 0.08228361111006263, 0.15082187953602194, -0.00482739694416523, -0.009466024115681648, -0.00297043239697814, -0.9944394826889038, -0.08219078928232193, -0.06584041565656662, 0.003503084182739258, 0.002402573823928833, -0.003022313117980957, 0.08138313030794803, -0.6785695092110722, 0.729516974528752,0.02693162486276307,-0.9912261962890625,-0.0802459716796875,-0.0682373046875
20220122-1409,2022-01-22 14:09:37Z,u01, 183,40,movements,el-ex, rt, d,294637.991435375, -1.5049984147431559, 0.08237289523362638, 0.15071661727506946, -0.008022557944059372, -0.008415473625063896, -0.00048683537170290947, -0.9944528341293335, -0.08227977156639099, -0.06552750617265701, 0.0009071826934814453, 0.002720445394515991, -0.002557039260864258, 0.081384013857413, -0.6786846744633576, 0.729412738824619,0.026849950704381287,-0.9935455322265625,-0.079559326171875,-0.068084716796875
20220122-1409,2022-01-22 14:09:37Z,u01, 184,40,movements,el-ex, rt, d,294638.016380375, -1.5052958657570088, 0.08231501333197537, 0.15061542218206692, 0.010600960813462734, -0.009419952519237995, -0.005289246793836355, -0.9944769740104675, -0.0822220891714096, -0.06523201614618301, 0.001358628273010254, 0.00782022625207901, 0.0003823116421699524, 0.0813326775900376, -0.6787996666499104, 0.7293125140375356,0.026820720396245168,-0.994232177734375,-0.073333740234375,-0.06573486328125
20220122-1409,2022-01-22 14:09:37Z,u01, 185,40,movements,el-ex, rt, d,294638.04132537503, -1.505390623076092, 0.08255141015807338, 0.1510110474267562, 0.023066917434334755, -0.008067398332059383, -0.014244458638131618, -0.9944638013839722, -0.08245768398046494, -0.06513651460409164, -0.0001652240753173828, 0.0029441118240356445, -0.0013611316680908203, 0.08155392093442748, -0.6788082943318677, 0.7292776401122546,0.026880358716646735,-0.99462890625,-0.0795135498046875,-0.066497802734375
20220122-1409,2022-01-22 14:09:37Z,u01, 186,40,movements,el-ex, rt, d,294638.06627037504, -1.5055729921712626, 0.08277245133915785, 0.1515990178850012, 0.01156782265752554, -0.012461015954613686, -0.005149431526660919, -0.9944575428962708, -0.08267796784639359, -0.06495396792888641, 0.0020562410354614258, -0.009973414242267609, 0.0026525184512138367, 0.08183606281498707, -0.6788415676490261, 0.7292102571959831,0.02701177053031023,-0.9911346435546875,-0.092529296875,-0.06298828125
20220122-1409,2022-01-22 14:09:37Z,u01, 187,40,movements,el-ex, rt, d,294638.091215375, -1.5058479588642513, 0.08269406068348778, 0.15147884481326201, -0.017648320645093918, -0.008565209805965424, 0.002469738945364952, -0.99448162317276, -0.08259984850883484, -0.06468093395233154, 0.0011801719665527344, -0.007076054811477661, 0.0034934282302856445, 0.08177058037141449, -0.6789500022172527, 0.7291175600791904,0.02698349434830216,-0.9933013916015625,-0.0896759033203125,-0.061187744140625
20220122-1409,2022-01-22 14:09:37Z,u01, 188,40,movements,el-ex, rt, d,294638.116159375, -1.5059731441946582, 0.0825258049313402, 0.15095328410146172, -0.014505257830023766, -0.004758753813803196, -0.00792298000305891, -0.9945036768913269, -0.08243216574192047, -0.06455734372138977, 0.0008664727210998535, 0.007648825645446777, 0.0036597251892089844, 0.08153285620091388, -0.6790240948028715, 0.7290803929381531,0.026844298243314413,-0.9947052001953125,-0.0741119384765625,-0.0624542236328125
20220122-1409,2022-01-22 14:09:37Z,u01, 189,40,movements,el-ex, rt, d,294638.14110454166, -1.5061235113603129, 0.08280382593393257, 0.1510127966837529, 0.013726912438869476, -0.008931128308176994, -0.004135965369641781, -0.9944905042648315, -0.08270923793315887, -0.06440632045269012, 0.0008685588836669922, 0.0037297308444976807, -0.0063637495040893555, 0.08165582900664597, -0.6790649194513365, 0.7290315557622722,0.026764832355522516,-0.993621826171875,-0.0789794921875,-0.070770263671875
20220122-1409,2022-01-22 14:09:37Z,u01, 190,40,movements,el-ex, rt, d,294638.1660495417, -1.5065021176808968, 0.08308445637667332, 0.15128237297866348, 0.00459709670394659, -0.016300294548273087, 0.00244344025850296, -0.9944913983345032, -0.08298890292644501, -0.0640282928943634, 0.0037993192672729492, -0.0027349814772605896, 0.0005977228283882141, 0.08185412808548631, -0.6791802094332375, 0.7289022439542404,0.02675167389129479,-0.99237060546875,-0.0844268798828125,-0.0623321533203125
20220122-1409,2022-01-22 14:09:37Z,u01, 191,40,movements,el-ex, rt, d,294638.1909945417, -1.5068759593876089, 0.08314736345115994, 0.15123458006595347, -0.0037411274388432503, -0.004310211166739464, -0.005619279108941555, -0.9945101141929626, -0.08305159211158752, -0.06365617364645004, -0.0007901787757873535, 0.006437219679355621, 0.001247890293598175, 0.08186567812357193, -0.6793157766091711, 0.7287766328455227,0.026697448749887442,-0.99530029296875,-0.0766143798828125,-0.062408447265625
20220122-1409,2022-01-22 14:09:37Z,u01, 192,40,movements,el-ex, rt, d,294638.2159395417, -1.5069397688812638, 0.08320836823195744, 0.15117740675390504, -0.00340803200379014, -0.01301089208573103, -0.007475369144231081, -0.9945091009140015, -0.08311238139867783, -0.06359238922595978, 0.002001166343688965, 0.0020729675889015198, 0.0015351250767707825, 0.08186920821491722, -0.6793388242225599, 0.7287563654762035,0.026653142622010295,-0.99285888671875,-0.081451416015625,-0.0617218017578125
20220122-1409,2022-01-22 14:09:37Z,u01, 193,40,movements,el-ex, rt, d,294638.2408835417, -1.5070394657376964, 0.08339561338348664, 0.15108807331449736, -0.0070483069866895676, -0.007124241441488266, -0.003287015948444605, -0.9945001006126404, -0.08329898118972778, -0.06349226087331772, 0.0006186366081237793, -0.0007922127842903137, -0.0026086047291755676, 0.08190800334216808, -0.6793709957090255, 0.7287258206652308,0.026552483233079294,-0.9938812255859375,-0.0840911865234375,-0.06610107421875
20220122-1409,2022-01-22 14:09:37Z,u01, 194,40,movements,el-ex, rt, d,294638.2658285417, -1.5072984514306755, 0.08342902400614331, 0.1510230049410465, 0.001056957058608532, -0.011079700663685799, -0.0028328136540949345, -0.9945135116577148, -0.08333227783441544, -0.06323450058698654, 0.0026769638061523438, 0.0007517114281654358, -0.005567185580730438, 0.08190144823727075, -0.6794666296150291, 0.72863889039978,0.02650673685552979,-0.9920654296875,-0.081329345703125,-0.0691986083984375
20220122-1409,2022-01-22 14:09:37Z,u01, 195,40,movements,el-ex, rt, d,294638.29077354167, -1.5076357132772604, 0.08344089290410733, 0.15114850891950588, 0.012889982201159, -0.020345237106084824, -0.00646283570677042, -0.9945339560508728, -0.08334410190582275, -0.06289903819561005, 0.001629173755645752, 0.001190781593322754, -0.0001958608627319336, 0.08195285090114462, -0.6795838519707389, 0.7285228846592366,0.026534586239635338,-0.9929046630859375,-0.0821533203125,-0.0630950927734375
20220122-1409,2022-01-22 14:09:37Z,u01, 196,40,movements,el-ex, rt, d,294638.3157185417, -1.5079685796194853, 0.0836165168600268, 0.15145508791728834, 0.010280882008373737, -0.01187239121645689, -0.006515566259622574, -0.9945401549339294, -0.0835191160440445, -0.06256706267595291, -0.000531315803527832, 0.0017625391483306885, 0.0038819313049316406, 0.08212504104876472, -0.6796851809102515, 0.7284075569735259,0.026572513547007848,-0.9965057373046875,-0.08367919921875,-0.0586090087890625
20220122-1409,2022-01-22 14:09:37Z,u01, 197,40,movements,el-ex, rt, d,294638.3406635417, -1.508080336673297, 0.08371890156269789, 0.15161767341917534, 0.0030127819627523422, -0.009594721719622612, 0.0037316111847758293, -0.9945386052131653, -0.08362113684415817, -0.06245538219809532, 0.0008861422538757324, -0.0060089826583862305, 0.0036634206771850586, 0.0822188475479515, -0.6797149186439313, 0.7283685040051203,0.026592102628949232,-0.99365234375,-0.089630126953125,-0.0587921142578125
20220122-1409,2022-01-22 14:09:37Z,u01, 198,40,movements,el-ex, rt, d,294638.3656085417, -1.508169560345566, 0.08361247662655284, 0.1512734698725486, -0.029051877558231354, -0.009680609218776226, 0.005577581934630871, -0.9945530891418457, -0.08351508527994156, -0.06236720085144043, 0.0015109777450561523, -0.004207700490951538, 0.002522408962249756, 0.0820645189743428, -0.6797659991280011, 0.7283416284053849,0.026499503692573867,-0.99310302734375,-0.088104248046875,-0.0608367919921875
20220122-1409,2022-01-22 14:09:37Z,u01, 199,40,movements,el-ex, rt, d,294638.3905525417, -1.5084478846521567, 0.08345503031396685, 0.15070822064345984, -0.00785188190639019, -0.015474781394004822, 0.0011093970388174057, -0.9945834875106812, -0.08335819095373154, -0.06209120899438858, 0.0022585391998291016, 0.010100722312927246, -0.005749106407165527, 0.0818190648010147, -0.6798970775587806, 0.7282528030004406,0.02633614519952343,-0.9923248291015625,-0.0732574462890625,-0.067840576171875
20220122-1409,2022-01-22 14:09:37Z,u01, 200,40,movements,el-ex, rt, d,294638.41549754166, -1.508791929472108, 0.08359439429816076, 0.1508960390417, 0.021189488470554352, -0.012109344825148582, -0.007454796228557825, -0.9945932030677795, -0.0834970697760582, -0.06174830347299576, 5.5789947509765625e-05, 0.005784034729003906, -0.002063751220703125, 0.08193789210155678, -0.6800088457787509, 0.7281348311371983,0.026342744136398866,-0.9946746826171875,-0.0800018310546875,-0.06195068359375
20220122-1409,2022-01-22 14:09:37Z,u01, 201,40,movements,el-ex, rt, d,294638.4404425417, -1.50916115033862, 0.08393721517890308, 0.15137855772002876, 0.013910704292356968, -0.008392037823796272, -0.0071154432371258736, -0.9945873022079468, -0.08383868634700775, -0.06137930974364281, 0.0005381107330322266, -0.0015189945697784424, 0.005730628967285156, 0.08223088481796981, -0.6801091287146199, 0.7280065872307205,0.02638588639227951,-0.994049072265625,-0.085357666015625,-0.0556488037109375
20220122-1409,2022-01-22 14:09:37Z,u01, 202,40,movements,el-ex, rt, d,294638.4653875417, -1.5092343470925715, 0.08394109435040611, 0.15140653365972978, -0.008663181215524673, -0.0031634531915187836, 0.0024447720497846603, -0.9945915341377258, -0.08384255319833755, -0.06130649149417877, 0.0014577507972717285, -0.0035292580723762512, 0.005276434123516083, 0.08224276468689984, -0.6801344586079053, 0.7279814074201203,0.026391733261303618,-0.992156982421875,-0.0882110595703125,-0.0556793212890625
20220122-1409,2022-01-22 14:09:37Z,u01, 203,40,movements,el-ex, rt, d,294638.4903325417, -1.509093917297971, 0.08365543545030922, 0.15109339366225907, -0.0059275152161717415, -0.0009121512994170189, -0.0026382701471447945, -0.9946067333221436, -0.08355789631605148, -0.0614476315677166, 0.0008932352066040039, 0.00219804048538208, 0.0018165111541748047, 0.082031067818709, -0.6801081444128528, 0.728030204073667,0.026381314613626916,-0.99371337890625,-0.08135986328125,-0.05963134765625
20220122-1409,2022-01-22 14:09:37Z,u01, 204,40,movements,el-ex, rt, d,294638.5152765417, -1.50920752778064, 0.0836035199221962, 0.15116156073549414, 0.0019135288894176483, -0.003997090272605419, -0.0023931926116347313, -0.9946179389953613, -0.08350615948438644, -0.061334896832704544, 0.0013012290000915527, -2.0444393157958984e-05, 0.004953861236572266, 0.08203696669138338, -0.6801488716980579, 0.7279900732951416,0.026419240067837635,-0.99298095703125,-0.08331298828125,-0.05572509765625
20220122-1409,2022-01-22 14:09:37Z,u01, 205,40,movements,el-ex, rt, d,294638.5402215417, -1.5093903555562376, 0.08371540880005361, 0.15101467358048828, -0.017844829708337784, 0.001904275268316269, -1.6254372894763947e-05, -0.9946197867393494, -0.08361765742301941, -0.06115247681736946, 0.0007385015487670898, -0.002472423017024994, 0.0020554102957248688, 0.08202990712113728, -0.6802167713364832, 0.7279310025442463,0.026319966566966724,-0.9938812255859375,-0.086090087890625,-0.0590972900390625
20220122-1409,2022-01-22 14:09:37Z,u01, 206,40,movements,el-ex, rt, d,294638.56516654167, -1.5094497342530275, 0.083634630739593, 0.15081668280894325, -0.0017549083568155766, -0.0006496291607618332, 0.005583374761044979, -0.9946302175521851, -0.08353716135025024, -0.06109383702278137, 0.0017559528350830078, -0.0005082488059997559, -0.001985788345336914, 0.08193411812499518, -0.6802498676346646, 0.7279126082073469,0.026273133369158763,-0.9925994873046875,-0.0825653076171875,-0.063201904296875
20220122-1409,2022-01-22 14:09:37Z,u01, 207,40,movements,el-ex, rt, d,294638.5901115417, -1.5096132456501072, 0.08349012939371746, 0.1508403955727544, 0.005063883028924465, -0.004330585710704327, 0.004752801731228828, -0.9946523308753967, -0.0833931639790535, -0.060931943356990814, 0.0005878210067749023, 0.00044637173414230347, -0.001171119511127472, 0.08189204967909891, -0.6803144270566913, 0.7278552196454178,0.026324551609658242,-0.9940643310546875,-0.08294677734375,-0.062103271484375
20220122-1409,2022-01-22 14:09:37Z,u01, 208,40,movements,el-ex, rt, d,294638.6150565417, -1.5097421709068497, 0.08348407378409389, 0.15096042058030767, 0.0012727733701467514, 0.0009651780128479004, -0.002378278411924839, -0.9946606159210205, -0.08338712900876999, -0.06080373376607895, -0.00031936168670654297, 0.005521535873413086, -0.00023126602172851562, 0.08193239255028983, -0.6803566835311311, 0.727809630540268,0.026365020707311004,-0.9934539794921875,-0.0749359130859375,-0.0614013671875
20220122-1409,2022-01-22 14:09:37Z,u01, 209,40,movements,el-ex, rt, d,294638.6400015417, -1.5097953177025631, 0.08366164819597548, 0.15114012525111253, 0.01695859245955944, -0.003625178709626198, -0.005435720551759005, -0.9946489930152893, -0.08356408774852753, -0.06074996292591095, 0.0008134841918945312, 0.003714829683303833, -0.0035961270332336426, 0.08205846214423135, -0.6803612471599584, 0.7277910578082488,0.02636742086172189,-0.99383544921875,-0.0798492431640625,-0.0643463134765625
20220122-1409,2022-01-22 14:09:37Z,u01, 210,40,movements,el-ex, rt, d,294638.6649455417, -1.5098169582192094, 0.08369062646004642, 0.15143800549975384, 0.0075982799753546715, -0.0019939271733164787, 0.002329324372112751, -0.9946479201316833, -0.0835929661989212, -0.0607282929122448, 0.0010565519332885742, -0.00420612096786499, -0.00023037195205688477, 0.08217056210703272, -0.6803556807552751, 0.7277800810376333,0.02646500469813723,-0.9947052001953125,-0.0894317626953125,-0.0603790283203125
20220122-1409,2022-01-22 14:09:37Z,u01, 211,40,movements,el-ex, rt, d,294638.68989054166, -1.5097766305918046, 0.08343845596872397, 0.15145207795673948, -0.007839333266019821, 0.006573328748345375, 0.007974027656018734, -0.9946665167808533, -0.08334167301654816, -0.060769688338041306, 0.0033791661262512207, -0.0005664154887199402, 0.005914513021707535, 0.08208359660661979, -0.6803509672078056, 0.7277909214616889,0.026558144977091136,-0.9912872314453125,-0.0839080810546875,-0.0548553466796875
20220122-1409,2022-01-22 14:09:37Z,u01, 212,40,movements,el-ex, rt, d,294638.7148355417, -1.509758339893479, 0.08322613230981525, 0.15152183912859024, 0.007213253527879715, -0.002776229754090309, -0.0031369472853839397, -0.9946829676628113, -0.08313008397817612, -0.06078895553946495, 0.002434372901916504, 0.006820857524871826, 0.0034618377685546875, 0.08203028254661776, -0.680350317408467, 0.72779388228204,0.026656994170020876,-0.9941558837890625,-0.074310302734375,-0.0575103759765625
20220122-1409,2022-01-22 14:09:37Z,u01, 213,40,movements,el-ex, rt, d,294638.7397805417, -1.5096113823791164, 0.08338422076530393, 0.15158717464155405, -0.013916466385126114, 0.01487240381538868, 0.005438831634819508, -0.9946610331535339, -0.08328762650489807, -0.060934338718652725, -0.0005173683166503906, -0.0019479766488075256, -0.0005736425518989563, 0.08210772869586441, -0.6802875511119334, 0.72784482387023,0.026632667074813543,-0.99517822265625,-0.085235595703125,-0.0615081787109375
20220122-1409,2022-01-22 14:09:37Z,u01, 214,40,movements,el-ex, rt, d,294638.7647255417, -1.5095112019045873, 0.08323628733066409, 0.15124860051859657, -0.0017516454681754112, -0.007019777782261372, 0.007369156926870346, -0.994667112827301, -0.08314020931720734, -0.06103472784161568, 0.008003175258636475, -0.0005237385630607605, -0.009659048169851303, 0.08193772322203813, -0.6802711557347344, 0.7278817084651145,0.026564211235738766,-0.987640380859375,-0.0842437744140625,-0.0711212158203125
20220122-1409,2022-01-22 14:09:38Z,u01, 215,40,movements,el-ex, rt, d,294638.7896695417, -1.5097611251270988, 0.08303649826036531, 0.1516710775054406, 0.022718608379364014, -0.0012784013524651527, 0.004809193313121796, -0.9946989417076111, -0.08294110745191574, -0.060787152498960495, -0.0013033747673034668, 0.003503866493701935, 0.007228974252939224, 0.08201248415346224, -0.6803531263537994, 0.727788949163211,0.026776133131209523,-0.996002197265625,-0.079437255859375,-0.053558349609375
20220122-1409,2022-01-22 14:09:38Z,u01, 216,40,movements,el-ex, rt, d,294638.8146145417, -1.5097837787751367, 0.08297739471270785, 0.1520965448869308, 0.015726014971733093, 0.013093480840325356, -0.005286184139549732, -0.994705080986023, -0.08288221061229706, -0.06076490879058838, -0.005630612373352051, -0.0013463124632835388, 0.008351214230060577, 0.0821361495523833, -0.6803463812221445, 0.727774785035769,0.026950264367583965,-0.9995574951171875,-0.0880279541015625,-0.0533905029296875
20220122-1409,2022-01-22 14:09:38Z,u01, 217,40,movements,el-ex, rt, d,294638.83955954167, -1.509246320700952, 0.0829961357199484, 0.15222285402205057, -0.006931394338607788, 0.0011033285409212112, 0.006032450124621391, -0.9946708083152771, -0.08290088176727295, -0.06129942461848259, 0.005092501640319824, -0.00952160358428955, -0.0013988018035888672, 0.08217863248633561, -0.6801448082140875, 0.7279561798982056,0.027011896801565294,-0.9895782470703125,-0.0924224853515625,-0.0626983642578125
20220122-1409,2022-01-22 14:09:38Z,u01, 218,40,movements,el-ex, rt, d,294638.8645045417, -1.5091343159856718, 0.08268127853554935, 0.15160200481252295, -0.030368011444807053, 0.0013810954988002777, 0.012269306927919388, -0.9946900010108948, -0.0825871080160141, -0.06141243875026703, 0.0012511610984802246, -0.006692074239253998, 0.00010282173752784729, 0.08185206236193454, -0.6801426475311676, 0.7279992023453716,0.026898302752945802,-0.9940185546875,-0.084869384765625,-0.0597991943359375
20220122-1409,2022-01-22 14:09:38Z,u01, 219,40,movements,el-ex, rt, d,294638.8894495417, -1.5093708320426078, 0.0824967292595652, 0.15129062052156494, 0.009340319782495499, 0.002790842205286026, -0.00814768485724926, -0.9947196245193481, -0.08240318298339844, -0.06117811053991318, 0.0009756088256835938, 0.016530990600585938, -0.0038851499557495117, 0.08168256232683979, -0.6802491487422875, 0.7279209215795561,0.026838479599732568,-0.993743896484375,-0.0658721923828125,-0.0650634765625
20220122-1409,2022-01-22 14:09:38Z,u01, 220,40,movements,el-ex, rt, d,294638.9143945417, -1.5094544290316145, 0.08284520163254243, 0.15174678636943364, 0.024027623236179352, -0.0009027635678648949, -0.004491230472922325, -0.9946959614753723, -0.08275046944618225, -0.06109318509697914, -0.00043648481369018555, 0.014101184904575348, -0.004809372127056122, 0.0819649228031496, -0.6802463957078239, 0.7278901053802902,0.02688176247657159,-0.99615478515625,-0.07257080078125,-0.0657501220703125
20220122-1409,2022-01-22 14:09:38Z,u01, 221,40,movements,el-ex, rt, d,294638.9393385417, -1.5094266147585969, 0.08312314482857543, 0.1521357717896185, -0.0014902898110449314, -0.0035276422277092934, 0.009157136082649231, -0.9946715235710144, -0.08302745223045349, -0.061119452118873596, 0.0030483603477478027, -0.007594503462314606, 0.001289956271648407, 0.08219739139494503, -0.6802086901634106, 0.7278975420420941,0.026929311246475796,-0.9916229248046875,-0.0906219482421875,-0.0598297119140625
20220122-1409,2022-01-22 14:09:38Z,u01, 222,40,movements,el-ex, rt, d,294638.96428354166, -1.5094221610480139, 0.08282946811772067, 0.15192344928532256, -0.008699233643710613, 0.004132607951760292, 0.0061437031254172325, -0.9946954250335693, -0.08273478597402573, -0.061125367879867554, 0.003270745277404785, 0.0007798373699188232, 0.004240810871124268, 0.08201887655232631, -0.6802280645567962, 0.7278986089720004,0.02695277161788706,-0.9925079345703125,-0.0794677734375,-0.0588531494140625
20220122-1409,2022-01-22 14:09:38Z,u01, 223,40,movements,el-ex, rt, d,294638.9892285417, -1.5091676347232494, 0.08252143979171696, 0.1519742725806038, 0.014065401628613472, 0.0058419592678546906, -0.013767553493380547, -0.9947052001953125, -0.08242781460285187, -0.06138010695576668, -0.0021363496780395508, 0.0055693089962005615, 0.0020998716354370117, 0.08192127160736351, -0.680146198145146, 0.7279811050147528,0.02708716376031195,-0.9968414306640625,-0.0768585205078125,-0.0592803955078125
20220122-1409,2022-01-22 14:09:38Z,u01, 224,40,movements,el-ex, rt, d,294639.0141735417, -1.508922832588144, 0.08263353373844827, 0.152235528265465, 0.000182274729013443, 0.00670868344604969, 0.00039820000529289246, -0.9946808815002441, -0.08253952115774155, -0.061623040586709976, 0.00342404842376709, -0.0076399147510528564, -0.001410841941833496, 0.0820473544583944, -0.6800416982503217, 0.7280620318870131,0.027153924940227447,-0.9898529052734375,-0.0919036865234375,-0.0621490478515625
20220122-1409,2022-01-22 14:09:38Z,u01, 225,40,movements,el-ex, rt, d,294639.0391185417, -1.509027786747155, 0.08263240705261717, 0.15175317881869763, -0.03061465173959732, 0.0014012698084115982, 0.005352743901312351, -0.9946873784065247, -0.08253840357065201, -0.06151864677667618, 0.002515077590942383, -0.005352228879928589, -0.001606762409210205, 0.08188435551091977, -0.6800997203708046, 0.7280328016361347,0.02697442045125653,-0.9921722412109375,-0.087890625,-0.0631256103515625
20220122-1409,2022-01-22 14:09:38Z,u01, 226,40,movements,el-ex, rt, d,294639.0640625417, -1.5090586988362096, 0.0823293413299981, 0.15138061043629508, 0.007854342460632324, 0.0006338134407997131, -0.001625735778361559, -0.9947143197059631, -0.08223636448383331, -0.061489444226026535, 0.000665128231048584, 0.005560964345932007, -0.0007815361022949219, 0.0816483988918677, -0.6801388218391651, 0.7280240716050461,0.026941289002897217,-0.995635986328125,-0.075714111328125,-0.0625457763671875
20220122-1409,2022-01-22 14:09:38Z,u01, 227,40,movements,el-ex, rt, d,294639.0890075417, -1.5090215868823307, 0.08253077351171771, 0.1517334365266575, 0.01313625555485487, 0.0021831076592206955, -0.00845394842326641, -0.9946953654289246, -0.08243711292743683, -0.06152532994747162, 0.00026476383209228516, 0.0030456557869911194, 0.0017262734472751617, 0.08184078060111655, -0.6801025084859227, 0.7280340561205856,0.027002279615320923,-0.9944305419921875,-0.0793914794921875,-0.0597991943359375
20220122-1409,2022-01-22 14:09:38Z,u01, 228,40,movements,el-ex, rt, d,294639.11395254167, -1.5088646686028921, 0.0827630749256995, 0.1516140351866113, -0.019643060863018036, 0.005147071555256844, 0.002677666023373604, -0.9946664571762085, -0.08266862481832504, -0.06168022379279137, 0.0015940070152282715, -0.0029636770486831665, 0.0008894316852092743, 0.08188213675964634, -0.6800405900213751, 0.7280915078806957,0.026885714009226847,-0.9925994873046875,-0.0862274169921875,-0.059539794921875
20220122-1409,2022-01-22 14:09:38Z,u01, 229,40,movements,el-ex, rt, d,294639.13889775, -1.5087426943842015, 0.082682310164372, 0.15102013629832806, -0.012018265202641487, 0.0011902153491973877, 0.0011623939499258995, -0.9946657419204712, -0.08258813619613647, -0.0618019700050354, 0.0007233619689941406, 0.003929078578948975, -0.0022389888763427734, 0.08164932844632444, -0.680023824753428, 0.7281401782490702,0.026702136887320316,-0.9939422607421875,-0.0786590576171875,-0.0640411376953125
20220122-1409,2022-01-22 14:09:38Z,u01, 230,40,movements,el-ex, rt, d,294639.16384275, -1.5086573445931628, 0.08255812861155713, 0.15102853495181562, 0.011162787675857544, -0.003518054261803627, -0.007357125170528889, -0.9946706891059875, -0.08246437460184097, -0.06188749894499779, 0.001338660717010498, 0.004888683557510376, -0.0052814483642578125, 0.08160609838452121, -0.6799975700639489, 0.7281677227442358,0.026751181603948515,-0.9938507080078125,-0.0783843994140625,-0.0664825439453125
20220122-1409,2022-01-22 14:09:38Z,u01, 231,40,movements,el-ex, rt, d,294639.18878775, -1.5088299156787823, 0.08265048421573111, 0.15131604384393132, 0.0033287666738033295, -0.011350543238222599, -0.010018820874392986, -0.9946737289428711, -0.08255641907453537, -0.06171537563204765, 0.0015401244163513184, 0.0038515999913215637, -0.003515716642141342, 0.08173959174438511, -0.6800448159153861, 0.7281062014347395,0.026817195785001524,-0.993133544921875,-0.078704833984375,-0.0652313232421875
20220122-1409,2022-01-22 14:09:38Z,u01, 232,40,movements,el-ex, rt, d,294639.21373175003, -1.5089737056622055, 0.08279004010627398, 0.15133162137094897, 0.0013702120631933212, -0.006544204428792, -0.002246519085019827, -0.9946710467338562, -0.08269549906253815, -0.0615716315805912, -3.6954879760742188e-06, -0.0038675889372825623, -0.005231138318777084, 0.08179732464790929, -0.6800907153719907, 0.7280585552398534,0.026769214113236572,-0.9925994873046875,-0.0874786376953125,-0.0650482177734375
20220122-1409,2022-01-22 14:09:38Z,u01, 233,40,movements,el-ex, rt, d,294639.23867675004, -1.509000379616748, 0.08265658836041785, 0.15117170161685678, -0.009423413313925266, -0.005022939294576645, -0.0021010441705584526, -0.9946838021278381, -0.08256249874830246, -0.06154578924179077, 0.0008786916732788086, -0.0008878111839294434, -0.0015643835067749023, 0.08169499979833578, -0.6801125145247632, 0.728050263488119,0.026755596179119545,-0.993804931640625,-0.0834503173828125,-0.0631103515625
20220122-1409,2022-01-22 14:09:38Z,u01, 234,40,movements,el-ex, rt, d,294639.26362175, -1.509051945705394, 0.08264669578438974, 0.15107769847329772, 0.004657916724681854, -0.008160409517586231, -0.004359937272965908, -0.9946877360343933, -0.08255264163017273, -0.06149454414844513, 0.00010448694229125977, 0.0022456422448158264, 0.0003222264349460602, 0.08166014501332414, -0.6801355367704169, 0.7280338426291263,0.026722656367892506,-0.994171142578125,-0.0767669677734375,-0.0620574951171875
20220122-1409,2022-01-22 14:09:38Z,u01, 235,40,movements,el-ex, rt, d,294639.28856675, -1.5092002533131568, 0.08280499604418912, 0.15118183106638056, 0.0042598070576786995, -0.009623750112950802, -0.005155889317393303, -0.9946839213371277, -0.082710400223732, -0.06134622544050217, -0.001638948917388916, 0.004982106387615204, -0.00017703324556350708, 0.08175481554157199, -0.6801786800997677, 0.7279838186076264,0.026700311194952364,-0.9963226318359375,-0.077728271484375,-0.0615234375
20220122-1409,2022-01-22 14:09:38Z,u01, 236,40,movements,el-ex, rt, d,294639.31351175, -1.5093959725513042, 0.08301143841531423, 0.1512613020894507, 0.010742607526481152, -0.014178554527461529, -0.002509240061044693, -0.994678795337677, -0.08291613310575485, -0.06115049496293068, 0.0023995637893676758, 0.0005797073245048523, -0.00359237939119339, 0.08185915460224047, -0.6802380698045533, 0.7279183844672426,0.026650546870118308,-0.9912109375,-0.0849761962890625,-0.0648193359375
20220122-1409,2022-01-22 14:09:38Z,u01, 237,40,movements,el-ex, rt, d,294639.33845575, -1.5096974929895424, 0.08307236692449303, 0.1514732617235185, 0.01284234318882227, -0.013750918209552765, -0.005350366700440645, -0.9946921467781067, -0.08297685533761978, -0.060850270092487335, 0.0015279054641723633, 0.0010524019598960876, 0.005033843219280243, 0.0819573127998855, -0.6803365814039617, 0.7278136890292644,0.026694475034328424,-0.9931640625,-0.0819244384765625,-0.055816650390625
20220122-1409,2022-01-22 14:09:38Z,u01, 238,40,movements,el-ex, rt, d,294639.36340075004, -1.5098501491704401, 0.08312358879757169, 0.15173581570603992, 0.015766426920890808, -0.0006259279325604439, -0.008034965954720974, -0.994697093963623, -0.0830278992652893, -0.06069815903902054, -0.001518845558166504, -0.0016278624534606934, 0.006987452507019043, 0.08206720257059913, -0.6803792287932519, 0.7277587356914305,0.026766212087467933,-0.9952545166015625,-0.0845794677734375,-0.05523681640625
20220122-1409,2022-01-22 14:09:38Z,u01, 239,40,movements,el-ex, rt, d,294639.38834575, -1.5099059254224934, 0.08313498995005858, 0.15216508703702825, 0.014391505159437656, -0.006058110855519772, -5.2274204790592194e-05, -0.9946995377540588, -0.08303926140069962, -0.06064261868596077, 0.0023288726806640625, -0.0042867958545684814, 0.001545548439025879, 0.082218108977403, -0.6803814168441049, 0.7277341235539392,0.026916216825006056,-0.99237060546875,-0.0873260498046875,-0.0590972900390625
20220122-1409,2022-01-22 14:09:38Z,u01, 240,40,movements,el-ex, rt, d,294639.41329075, -1.510072425325255, 0.08314514571703235, 0.15215141381944478, -0.022176094353199005, -0.004691642709076405, 0.0006896825507283211, -0.994708776473999, -0.08304937928915024, -0.06047694757580757, -0.00022542476654052734, -0.004597127437591553, -0.001992344856262207, 0.08221937257997086, -0.680442135917188, 0.7276777488962374,0.02690091766405467,-0.9938812255859375,-0.085540771484375,-0.062896728515625
20220122-1409,2022-01-22 14:09:38Z,u01, 241,40,movements,el-ex, rt, d,294639.43823575, -1.5104637946621229, 0.08310386188208604, 0.15175619355941716, 0.003962598741054535, -0.007546484470367432, -0.001475401222705841, -0.9947357773780823, -0.08300823718309402, -0.06008785218000412, 0.0013427734375, 0.008545339107513428, -0.001893162727355957, 0.08207521394086775, -0.6806024778735178, 0.7275494361709804,0.026755201135858497,-0.9933929443359375,-0.074462890625,-0.061981201171875
20220122-1409,2022-01-22 14:09:38Z,u01, 242,40,movements,el-ex, rt, d,294639.46318075, -1.5107225550666585, 0.08331825142682772, 0.15215614777009742, 0.017898354679346085, 0.00039845705032348633, -0.006869167555123568, -0.9947335720062256, -0.08322189003229141, -0.059829387813806534, -0.0005210638046264648, 0.008713215589523315, 0.0009611845016479492, 0.08229230794006148, -0.6806712000994967, 0.7274584061864037,0.02681660082272347,-0.99554443359375,-0.0787506103515625,-0.05859375
20220122-1409,2022-01-22 14:09:38Z,u01, 243,40,movements,el-ex, rt, d,294639.48812575004, -1.5108327666574206, 0.08360320789052123, 0.15228985277071977, -0.0051355911418795586, -0.01023368164896965, -0.0006299139931797981, -0.994716465473175, -0.08350585401058197, -0.059718333184719086, 0.0028034448623657227, -0.0061700716614723206, 0.002940528094768524, 0.08244231222188503, -0.6806938359246288, 0.7274222377678122,0.02676305363931475,-0.991912841796875,-0.0896759033203125,-0.0567779541015625
20220122-1409,2022-01-22 14:09:38Z,u01, 244,40,movements,el-ex, rt, d,294639.51306975004, -1.5108472425115094, 0.08346329779853918, 0.15195299128252557, -0.018575765192508698, -0.0013957144692540169, 0.006075127050280571, -0.9947289228439331, -0.08336643129587173, -0.05970463156700134, 0.00173264741897583, -0.005058258771896362, 0.0029268264770507812, 0.08227727453971062, -0.6807188368529159, 0.7274202499821535,0.026687877800813276,-0.9944000244140625,-0.0854644775390625,-0.057373046875
