SessionID,LoggingTime,UID,RecNo,Hertz,Activity,MoveType,Wrist,Side,TimeStamp,DMRoll,DMPitch,DMYaw,DMRotX,DMRotY,DMRotZ,DMGrvX,DMGrvY,DMGrvZ,DMUAccelX,DMUAccelY,DMUAccelZ,DMQuatX,DMQuatY,DMQuatW,DMQuatZ,AccelroX,AceelroY,AceelroZ
20220120-1341,2022-01-20 13:41:29Z,u01, 1,40,movements,el-ex, rt, d,248182.69721037502, 0.1543389033130362, -0.1188356774336195, 0.009199496961148742, -0.03899010270833969, 0.35615578293800354, -0.33926182985305786, 0.15264271199703217, 0.1185561791062355, -0.9811445474624634, -0.008386045694351196, 0.028126612305641174, 0.008503615856170654, -0.05955951410481545, 0.07668369510468784, 0.9952748833619847,0.0,0.1437225341796875,0.13067626953125,-0.976287841796875
20220120-1341,2022-01-20 13:41:29Z,u01, 2,40,movements,el-ex, rt, d,248182.72215537503, 0.15453872753831047, -0.11922088668305568, 0.009560870174222242, -0.003808947280049324, -0.02128949947655201, 0.12209302932024002, 0.15283171832561493, 0.11893866211175919, -0.9810688495635986, -0.20410117506980896, 0.07027038186788559, 0.05075573921203613, -0.059765071253261956, 0.07677057271711649, 0.9952558310818018,0.00015898484727194795,0.1469268798828125,0.13818359375,-0.97332763671875
20220120-1341,2022-01-20 13:41:29Z,u01, 3,40,movements,el-ex, rt, d,248182.747100375, 0.15449124316170146, -0.1191442845989006, 0.009758306434382288, 0.011220701038837433, 0.007482694461941719, 0.0020395158790051937, 0.15278653800487518, 0.11886259913444519, -0.9810850620269775, -0.01228351891040802, 0.03422888368368149, 0.010565102100372314, -0.05973452552935977, 0.07674140460467943, 0.9952598963428277,0.00026161529156149,0.46624755859375,0.1070098876953125,-1.0082244873046875
20220120-1341,2022-01-20 13:41:29Z,u01, 4,40,movements,el-ex, rt, d,248182.772046375, 0.1545240858196709, -0.11913575962500529, 0.009945545765197083, -0.00440316554158926, -0.001528177410364151, 0.01040576957166195, 0.15281891822814941, 0.11885413527488708, -0.9810810685157776, -0.013078868389129639, 0.032543621957302094, 0.0015889406204223633, -0.05973746752867622, 0.07675218858071743, 0.9952589593395297,0.00035414072592693246,0.1443023681640625,0.16424560546875,-0.9691925048828125
20220120-1341,2022-01-20 13:41:29Z,u01, 5,40,movements,el-ex, rt, d,248182.796991375, 0.15452511785086412, -0.11916506251429886, 0.010192643439190918, 0.00823579728603363, -0.0002317521721124649, 0.009698966518044472, 0.15281939506530762, 0.11888322979211807, -0.9810774922370911, -0.013048797845840454, 0.040586426854133606, 0.0016310811042785645, -0.05976152910116783, 0.07674517672198126, 0.9952580405840082,0.00047594000090817046,0.1433868408203125,0.15545654296875,-0.9759674072265625
20220120-1341,2022-01-20 13:41:29Z,u01, 6,40,movements,el-ex, rt, d,248182.82193591667, 0.15452978267225703, -0.11868740210110379, 0.010289590503661222, 0.028553418815135956, 0.005602901801466942, 0.005489774513989687, 0.15283268690109253, 0.11840894818305969, -0.9811327457427979, -0.01548825204372406, 0.03985527157783508, 0.007850944995880127, -0.05952756265660381, 0.07674691996426394, 0.9952718879209845,0.0005425190375513145,0.1406707763671875,0.1552581787109375,-0.980499267578125
20220120-1341,2022-01-20 13:41:29Z,u01, 7,40,movements,el-ex, rt, d,248182.84688091668, 0.15468057388636816, -0.11772384942474415, 0.010106482317829719, 0.05280599370598793, 0.010444728657603264, -0.005297692492604256, 0.152998149394989, 0.11745211482048035, -0.9812219738960266, -0.011976346373558044, 0.042810991406440735, 0.004979968070983887, -0.05904108991281426, 0.07683203073048811, 0.9952943220716706,0.0004842116696741616,0.1388092041015625,0.1622772216796875,-0.9737396240234375
20220120-1341,2022-01-20 13:41:29Z,u01, 8,40,movements,el-ex, rt, d,248182.87182691667, 0.1547189651056308, -0.1168505579233108, 0.009688015819640865, 0.05304984003305435, 0.007437553256750107, -0.013588045723736286, 0.15305155515670776, 0.11658482253551483, -0.9813170433044434, -0.014135479927062988, 0.030906692147254944, 0.0011535286903381348, -0.05859044514296004, 0.07686757554520118, 0.9953182120985431,0.00030863960731802864,0.1408538818359375,0.1612548828125,-0.9749603271484375
20220120-1341,2022-01-20 13:41:29Z,u01, 9,40,movements,el-ex, rt, d,248182.89677191668, 0.15408522887287293, -0.11986446654776686, 0.009156615945174959, 0.040694404393434525, 0.005660759285092354, -0.009604689665138721, 0.1523750126361847, 0.11957764625549316, -0.9810621738433838, -0.010422423481941223, 0.02275639772415161, 0.0010054707527160645, -0.06006980936933645, 0.0765540254039566, 0.9952542368062974,-5.344493637554626e-05,0.13958740234375,0.154449462890625,-0.9794921875
20220120-1341,2022-01-20 13:41:29Z,u01, 10,40,movements,el-ex, rt, d,248182.9217169167, 0.15326869080490915, -0.12393766946177574, 0.00864145197505115, 0.033483363687992096, 0.01460392028093338, -0.007532218005508184, 0.15149827301502228, 0.12362062186002731, -0.9806967973709106, -0.0076078325510025024, 0.015310704708099365, 0.00491255521774292, -0.062077003187995694, 0.07614490304198271, 0.9951623493978189,-0.00044145225794367526,0.1395416259765625,0.1431732177734375,-0.9807891845703125
20220120-1341,2022-01-20 13:41:29Z,u01, 11,40,movements,el-ex, rt, d,248182.94666191668, 0.15296651242417253, -0.12539335786965747, 0.008253472197273914, 0.03501041978597641, 0.015879839658737183, -0.0031225555576384068, 0.15117433667182922, 0.12506501376628876, -0.9805636405944824, -0.004201605916023254, 0.016795992851257324, 0.0026431679725646973, -0.06278660800789462, 0.07600012623451592, 0.9951288338654489,-0.0006808177626641543,0.1420440673828125,0.141326904296875,-0.97564697265625
20220120-1341,2022-01-20 13:41:29Z,u01, 12,40,movements,el-ex, rt, d,248182.97160791667, 0.15224628066350698, -0.12649675270790658, 0.007966040877167693, 0.03355563431978226, -0.001228107139468193, -0.0025931852869689465, 0.1504470556974411, 0.12615966796875, -0.9805352687835693, 0.005009546875953674, 0.009368941187858582, 0.0020502209663391113, -0.06332497504031227, 0.0756459587995977, 0.995121534130634,-0.0008432380509100224,0.14453125,0.1372833251953125,-0.9761199951171875
20220120-1341,2022-01-20 13:41:29Z,u01, 13,40,movements,el-ex, rt, d,248182.99655291668, 0.15158885166429611, -0.12711201357925483, 0.007938285487890084, -0.0008460474200546741, -0.017488103359937668, 0.01079818606376648, 0.14979062974452972, 0.1267699897289276, -0.9805570244789124, 0.004765719175338745, 0.005096524953842163, 0.005489945411682129, -0.06363032734706459, 0.07531703300275178, 0.9951269732103206,-0.0008595572083531788,0.151885986328125,0.13812255859375,-0.9785308837890625
20220120-1341,2022-01-20 13:41:29Z,u01, 14,40,movements,el-ex, rt, d,248183.0214979167, 0.1508550448188834, -0.12830444889702128, 0.008161200058827119, 0.007854433730244637, -0.02698453702032566, 0.010102437809109688, 0.14904822409152985, 0.1279527097940445, -0.9805165529251099, -0.0001986771821975708, 0.014198198914527893, 0.0036031603813171387, -0.0642322869959712, 0.07493953284363622, 0.9951168606522881,-0.0007702853239801577,0.1546173095703125,0.13409423828125,-0.977081298828125
20220120-1341,2022-01-20 13:41:29Z,u01, 15,40,movements,el-ex, rt, d,248183.04644391668, 0.1504371790007195, -0.12803962800023605, 0.008367487659906076, 0.06521140038967133, -0.019331276416778564, 0.015704263001680374, 0.14864356815814972, 0.12769006192684174, -0.9806122183799744, -0.003150954842567444, 0.027278229594230652, 0.0004029273986816406, -0.06410839439383278, 0.07472618293062251, 0.9951409630124861,-0.0006442583058175466,0.1505279541015625,0.1365966796875,-0.9759521484375
20220120-1341,2022-01-20 13:41:29Z,u01, 16,40,movements,el-ex, rt, d,248183.0713889167, 0.1507908575303389, -0.12698863816258493, 0.008414739328572588, 0.055533673614263535, 0.0025371387600898743, 0.0049643986858427525, 0.14901044964790344, 0.12664760649204254, -0.9806917309761047, -0.013786986470222473, 0.013016149401664734, 0.0029390454292297363, -0.06358712373387351, 0.07490536560749331, 0.9951610178852842,-0.0005924418545563692,0.14739990234375,0.1494140625,-0.9784088134765625
20220120-1341,2022-01-20 13:41:29Z,u01, 17,40,movements,el-ex, rt, d,248183.09633391668, 0.15104523852861756, -0.1265870543538552, 0.008443479446135296, 0.017335087060928345, -0.0009679822251200676, 0.006430069450289011, 0.14926756918430328, 0.1262492537498474, -0.9807040095329285, -0.01238088309764862, 0.006319165229797363, 0.004370391368865967, -0.06338831210304038, 0.07503282678547762, 0.995164150022261,-0.0005710558505638841,0.1383514404296875,0.14892578125,-0.9766693115234375
20220120-1341,2022-01-20 13:41:29Z,u01, 18,40,movements,el-ex, rt, d,248183.12127991667, 0.15093494531990304, -0.12821977338066837, 0.008478372819466978, -0.00807366706430912, -0.005459003150463104, 0.002748382743448019, 0.14912819862365723, 0.12786872684955597, -0.9805153608322144, -0.010486781597137451, 0.0066527873277664185, 0.003769814968109131, -0.06420201993425816, 0.0749694873748466, 0.9951166194824735,-0.0006118434104573356,0.1371612548828125,0.1354522705078125,-0.9764251708984375
20220120-1341,2022-01-20 13:41:29Z,u01, 19,40,movements,el-ex, rt, d,248183.14622491668, 0.15038865875410476, -0.12990872658011596, 0.00856974752164134, -0.029838284477591515, -0.01163181196898222, -0.0018206690438091755, 0.14855997264385223, 0.12954363226890564, -0.9803817272186279, -0.006180122494697571, 0.008853644132614136, 0.004307568073272705, -0.06504590569125893, 0.07468704553026942, 0.9950831151998633,-0.0006123813146957091,0.13916015625,0.1334228515625,-0.97607421875
20220120-1341,2022-01-20 13:41:29Z,u01, 20,40,movements,el-ex, rt, d,248183.1711699167, 0.14923120634569845, -0.1311044038645241, 0.008450768517057648, -0.02175356075167656, -0.021260935813188553, -0.0008408254943788052, 0.14740198850631714, 0.13072915375232697, -0.9803991913795471, -0.005586728453636169, 0.01529751718044281, 0.003760397434234619, -0.06563673083604976, 0.07410960400241391, 0.9950874221426307,-0.0006785730193386019,0.1394805908203125,0.1352996826171875,-0.9755401611328125
20220120-1341,2022-01-20 13:41:29Z,u01, 21,40,movements,el-ex, rt, d,248183.19611491667, 0.14837085543617137, -0.13141612022938223, 0.008222989520825359, 0.011726601980626583, -0.02037656679749489, -0.011260243132710457, 0.1465524137020111, 0.13103818893432617, -0.9804852604866028, -0.004142045974731445, 0.019489824771881104, 0.0025495290756225586, -0.06578371551401244, 0.0736876149357087, 0.995108978060737,-0.0007752400899930789,0.142730712890625,0.1439666748046875,-0.9778594970703125
20220120-1341,2022-01-20 13:41:30Z,u01, 22,40,movements,el-ex, rt, d,248183.2210609167, 0.1476151077469784, -0.13146355869718987, 0.007936953933726048, 0.01696876809000969, -0.006404293701052666, -0.004627640824764967, 0.14581046998500824, 0.13108521699905396, -0.9805896282196045, -0.006284013390541077, 0.00743412971496582, 0.004500150680541992, -0.06579711683304656, 0.07332077820478954, 0.9951351541705294,-0.0008944551088158059,0.1433868408203125,0.1480712890625,-0.9786376953125
20220120-1341,2022-01-20 13:41:30Z,u01, 23,40,movements,el-ex, rt, d,248183.24600591668, 0.14742090591494864, -0.13173214693955368, 0.00781691993527393, 0.004454507492482662, -0.002630992792546749, -0.0008202525787055492, 0.1456148475408554, 0.13135147094726562, -0.9805830717086792, -0.003952160477638245, 0.0021935105323791504, 0.004371523857116699, -0.06592644068119527, 0.07322692121260083, 0.9951335070769116,-0.0009576938166002691,0.140289306640625,0.1450347900390625,-0.9781951904296875
20220120-1341,2022-01-20 13:41:30Z,u01, 24,40,movements,el-ex, rt, d,248183.2709509167, 0.1473016465775179, -0.1330112361494825, 0.007891797506887226, -0.02174776792526245, 0.007534358650445938, 0.004562594462186098, 0.14547312259674072, 0.13261938095092773, -0.9804334044456482, -0.004237711429595947, -0.007008984684944153, 0.0033826828002929688, -0.06656564229986993, 0.07315949869156613, 0.9950957832102446,-0.0009636306901938396,0.14013671875,0.135589599609375,-0.9765625
20220120-1341,2022-01-20 13:41:30Z,u01, 25,40,movements,el-ex, rt, d,248183.29589691668, 0.14726604935313517, -0.13413716084197944, 0.008140950699588157, -0.025890614837408066, 0.0032945405691862106, 0.009101353585720062, 0.1454162299633026, 0.1337352693080902, -0.9802902340888977, -0.0007780790328979492, -0.0007396042346954346, 0.00047767162322998047, -0.0671349390122527, 0.07312844902893505, 0.9950599123836668,-0.0008799549378910587,0.1417694091796875,0.1265869140625,-0.975982666015625
20220120-1341,2022-01-20 13:41:30Z,u01, 26,40,movements,el-ex, rt, d,248183.3208419167, 0.14703081558622585, -0.13487095204736213, 0.008373675706435187, -0.025735285133123398, -0.0048037339001894, 0.0035701016895473003, 0.14517121016979218, 0.13446243107318878, -0.9802271127700806, 0.001130133867263794, 0.003751710057258606, 0.002581298351287842, -0.06750860267645234, 0.07300025922632093, 0.9950441457321042,-0.0007832598174898342,0.141448974609375,0.1289825439453125,-0.97845458984375
20220120-1341,2022-01-20 13:41:30Z,u01, 27,40,movements,el-ex, rt, d,248183.34578691667, 0.14664818890549935, -0.13536084514471933, 0.008512128348184697, -0.0374336875975132, -0.01892261393368244, 0.0024676858447492123, 0.14478649199008942, 0.13494786620140076, -0.9802172780036926, 0.0020031332969665527, 0.0052499473094940186, 0.0023883581161499023, -0.06775751211373233, 0.07280296710324398, 0.9950417762526849,-0.000719433282366011,0.144683837890625,0.13848876953125,-0.9788970947265625
20220120-1341,2022-01-20 13:41:30Z,u01, 28,40,movements,el-ex, rt, d,248183.3707329167, 0.1459958008931956, -0.1357457383852868, 0.00861291657461094, -0.028270214796066284, -0.03140711411833763, 0.0017730002291500568, 0.14413940906524658, 0.1353292316198349, -0.9802600741386414, 0.0017346888780593872, 0.011979162693023682, 0.002721071243286133, -0.06795289012992883, 0.07247320400140456, 0.9950524632671178,-0.0006612461427005223,0.1443328857421875,0.139007568359375,-0.9768524169921875
20220120-1341,2022-01-20 13:41:30Z,u01, 29,40,movements,el-ex, rt, d,248183.39567791668, 0.14520216530482735, -0.1364952347674876, 0.008678024251227334, -0.019624195992946625, -0.038788728415966034, -0.0026224139146506786, 0.14334668219089508, 0.13607178628444672, -0.9802735447883606, 0.0010778307914733887, 0.012640416622161865, 0.0016968846321105957, -0.06832837261348865, 0.07207265958424981, 0.9950559383375958,-0.0006291170035288007,0.146209716796875,0.1455841064453125,-0.9753265380859375
20220120-1341,2022-01-20 13:41:30Z,u01, 30,40,movements,el-ex, rt, d,248183.4206229167, 0.14441844560929298, -0.13712762470831516, 0.008782752329333727, -0.0188748836517334, -0.03365302458405495, 0.0013987603597342968, 0.14256596565246582, 0.13669827580451965, -0.98030024766922, -0.008639484643936157, 0.010930567979812622, 0.005248367786407471, -0.06864699335940948, 0.07167621507460514, 0.9950626426237601,-0.0005730890012230483,0.1435699462890625,0.145355224609375,-0.978118896484375
20220120-1341,2022-01-20 13:41:30Z,u01, 31,40,movements,el-ex, rt, d,248183.44556791667, 0.14390695907887854, -0.13792279374489788, 0.009022387491519417, -0.020292051136493683, -0.021752623841166496, 0.012453874573111534, 0.1420489102602005, 0.13748593628406525, -0.9802651405334473, -0.009770378470420837, 0.008723840117454529, 0.0019326210021972656, -0.06905130223402281, 0.07140975966447134, 0.9950538572683094,-0.0004649430171342339,0.139312744140625,0.151092529296875,-0.9774322509765625
20220120-1341,2022-01-20 13:41:30Z,u01, 32,40,movements,el-ex, rt, d,248183.4705139167, 0.14348533110890854, -0.1388982769359518, 0.009300023505294533, -0.012186387553811073, -0.0205354243516922, 0.010491257533431053, 0.1416163444519043, 0.13845208287239075, -0.980191707611084, -0.008529096841812134, 0.008673220872879028, -0.00047534704208374023, -0.06954658409393255, 0.07118572239996593, 0.9950355185647648,-0.0003472862039757274,0.1309661865234375,0.1459503173828125,-0.9761962890625
20220120-1341,2022-01-20 13:41:30Z,u01, 33,40,movements,el-ex, rt, d,248183.49545891667, 0.14307827311924234, -0.13975625564749095, 0.009497235987511352, -0.03316213935613632, -0.015609443187713623, 0.003949935082346201, 0.14120034873485565, 0.13930174708366394, -0.9801313877105713, -0.007502764463424683, 0.002070978283882141, 0.004240274429321289, -0.0699804871379758, 0.07097217843235981, 0.9950204404197591,-0.00026574271611146116,0.134613037109375,0.1485137939453125,-0.9794464111328125
20220120-1341,2022-01-20 13:41:30Z,u01, 34,40,movements,el-ex, rt, d,248183.5204039167, 0.1424061211493201, -0.1410353275104378, 0.009601738780730546, -0.03429089114069939, -0.011385602876543999, 0.0014405050314962864, 0.14051611721515656, 0.14056824147701263, -0.9800488948822021, -0.004407629370689392, 0.003078058362007141, 0.0020825862884521484, -0.07062059249958436, 0.07062787645353424, 0.9949996152415833,-0.0002358332583024536,0.130584716796875,0.1456756591796875,-0.9791412353515625
20220120-1341,2022-01-20 13:41:30Z,u01, 35,40,movements,el-ex, rt, d,248183.54534991668, 0.1420442222346479, -0.14191258666229434, 0.009614934392608148, -0.01489711832255125, -0.0019309157505631447, -0.002746051177382469, 0.14014391601085663, 0.14143672585487366, -0.9799771904945374, -0.003806561231613159, 0.009365931153297424, 0.002163529396057129, -0.07105750919106936, 0.0704430631092575, 0.9949816584996346,-0.00024768574949285416,0.1363525390625,0.1379852294921875,-0.975677490234375
20220120-1341,2022-01-20 13:41:30Z,u01, 36,40,movements,el-ex, rt, d,248183.5702949167, 0.14171198402362822, -0.14216161019301576, 0.0094829667637292, 0.007734191603958607, -0.00014679692685604095, -0.002760898321866989, 0.13981333374977112, 0.14168325066566467, -0.9799888134002686, -0.0008819997310638428, 0.009378805756568909, 0.00609666109085083, -0.07117679926225218, 0.0702812574490692, 0.9949844821011726,-0.00031037046652682143,0.136566162109375,0.148223876953125,-0.97802734375
20220120-1341,2022-01-20 13:41:30Z,u01, 37,40,movements,el-ex, rt, d,248183.59523991667, 0.14166307277407236, -0.1418181640091223, 0.009336558076858736, 0.012196183204650879, 0.006611507385969162, -0.002327868714928627, 0.13977226614952087, 0.14134325087070465, -0.9800437688827515, -0.0009324699640274048, 0.0025166571140289307, 0.0009025335311889648, -0.07100080067673321, 0.07026378692708916, 0.9949983787004473,-0.0003692867648740772,0.1377410888671875,0.1500091552734375,-0.9766693115234375
20220120-1341,2022-01-20 13:41:30Z,u01, 38,40,movements,el-ex, rt, d,248183.6201859167, 0.14154257672003098, -0.14199345286826182, 0.009267097564094768, 0.0075236354023218155, -0.0009338278323411942, 0.005769939627498388, 0.13965067267417908, 0.1415167897939682, -0.9800360798835754, 0.003492102026939392, -0.0025244206190109253, -2.0682811737060547e-05, -0.07108558956141438, 0.07020546534372413, 0.9949963865020324,-0.00040577681937320476,0.1401519775390625,0.14697265625,-0.9768218994140625
20220120-1341,2022-01-20 13:41:30Z,u01, 39,40,movements,el-ex, rt, d,248183.64513091667, 0.14123806478357198, -0.14233716159570897, 0.00932622231527157, -0.003088762518018484, -0.009330973029136658, 0.0015584821812808514, 0.13934537768363953, 0.14185702800750732, -0.980030357837677, -0.0006123930215835571, 0.0008737444877624512, 0.005237877368927002, -0.07125870902723981, 0.0700502106347778, 0.9949949521036994,-0.0003776910083250762,0.1424560546875,0.1415863037109375,-0.9803009033203125
20220120-1341,2022-01-20 13:41:30Z,u01, 40,40,movements,el-ex, rt, d,248183.67007591669, 0.14113870788904445, -0.14279787714131387, 0.00946424251411034, -0.007612441200762987, -0.0023136110976338387, 0.002512626815587282, 0.13923880457878113, 0.14231306314468384, -0.9799793362617493, -0.004595175385475159, 0.0031795501708984375, 0.003020167350769043, -0.07149274996167032, 0.06999362044524295, 0.9949821813320979,-0.00032176459778110456,0.1432037353515625,0.1409759521484375,-0.975067138671875
20220120-1341,2022-01-20 13:41:30Z,u01, 41,40,movements,el-ex, rt, d,248183.69502191668, 0.14117872253146932, -0.14281833462113966, 0.00959453093519491, 0.005814052186906338, -0.0026581576094031334, 0.008356999605894089, 0.1392776072025299, 0.14233331382274628, -0.9799709320068359, -0.0019026398658752441, 0.010803937911987305, -0.0002841949462890625, -0.07150748285155699, 0.07000877113124279, 0.9949800525135474,-0.00025910105517862325,0.135528564453125,0.144989013671875,-0.9755706787109375
20220120-1341,2022-01-20 13:41:30Z,u01, 42,40,movements,el-ex, rt, d,248183.7199669167, 0.1411930108633111, -0.1425187153132247, 0.009637862992504107, 0.008565929718315601, 0.0019012410193681717, -0.0026806704699993134, 0.13929760456085205, 0.14203673601150513, -0.9800111055374146, -0.0069580525159835815, 0.006385549902915955, 0.002487361431121826, -0.0713599423330532, 0.07001579722899161, 0.9949902214491588,-0.00022746242259208405,0.1363983154296875,0.1485748291015625,-0.9787139892578125
20220120-1341,2022-01-20 13:41:30Z,u01, 43,40,movements,el-ex, rt, d,248183.74491191667, 0.14111709901906766, -0.14256125743361764, 0.009592902250350775, -0.006440883502364159, 0.00027691200375556946, 0.002913233358412981, 0.13922235369682312, 0.14207884669303894, -0.9800156950950623, -0.005234852433204651, -0.00011102855205535889, 0.003148019313812256, -0.0713795436938405, 0.0699794296147451, 0.9949913351596458,-0.00024862507965600633,0.1342926025390625,0.1502227783203125,-0.9785614013671875
20220120-1341,2022-01-20 13:41:30Z,u01, 44,40,movements,el-ex, rt, d,248183.76985691668, 0.14097112411146964, -0.1433259220939825, 0.009603038390550087, -0.0193600095808506, 0.0013594869524240494, -0.0018719350919127464, 0.1390639990568161, 0.14283572137355804, -0.9799281358718872, -0.003535360097885132, -0.0006542801856994629, 0.0019618868827819824, -0.07176031070789846, 0.06990269555002256, 0.9949693484181497,-0.00026536074040856006,0.1318206787109375,0.1447601318359375,-0.9781036376953125
20220120-1341,2022-01-20 13:41:30Z,u01, 45,40,movements,el-ex, rt, d,248183.79480291667, 0.14082476272919345, -0.14413885851708225, 0.009564304162066191, -0.01799001358449459, 0.006406843662261963, -0.002144775353372097, 0.13890422880649567, 0.14364026486873627, -0.97983318567276, -0.004733607172966003, 0.0067504048347473145, -5.5670738220214844e-05, -0.07216337730483549, 0.06982728511657608, 0.9949454813927766,-0.00030804086410229914,0.135894775390625,0.1429595947265625,-0.97772216796875
20220120-1341,2022-01-20 13:41:30Z,u01, 46,40,movements,el-ex, rt, d,248183.81974825, 0.14063581233129083, -0.14465849513419962, 0.009495500354911464, -0.012372641824185848, -0.002343038097023964, -0.002803974784910679, 0.13870860636234283, 0.14415450394153595, -0.9797853827476501, -0.0017456412315368652, 0.005732640624046326, 0.0018801093101501465, -0.07241949684140281, 0.0697332235630199, 0.9949334824184941,-0.00035374698314588615,0.1354522705078125,0.14910888671875,-0.979034423828125
20220120-1341,2022-01-20 13:41:30Z,u01, 47,40,movements,el-ex, rt, d,248183.84469325002, 0.1404563742868869, -0.14482110027410947, 0.009430343757012185, -0.0047462135553359985, -0.004586619324982166, 0.001704090740531683, 0.13852950930595398, 0.14431540668010712, -0.9797870516777039, 5.0902366638183594e-05, 0.003054022789001465, 0.0021564364433288574, -0.07249815542588899, 0.06964553269560886, 0.9949337603391972,-0.000385382024851999,0.1354217529296875,0.1482696533203125,-0.97869873046875
20220120-1341,2022-01-20 13:41:30Z,u01, 48,40,movements,el-ex, rt, d,248183.86963925, 0.14017296173373198, -0.14522224462301703, 0.009438107953044065, -0.015242397785186768, -0.006664684042334557, 0.0017925077117979527, 0.13824371993541718, 0.14471234381198883, -0.9797688722610474, 0.0005960911512374878, -0.0008371621370315552, 0.0028096437454223633, -0.07269801919167553, 0.06950229638623184, 0.9949292879061928,-0.0003853223343844858,0.138885498046875,0.150604248046875,-0.9784698486328125
20220120-1341,2022-01-20 13:41:30Z,u01, 49,40,movements,el-ex, rt, d,248183.89458425003, 0.13985557771368923, -0.14566931559092086, 0.009507966436501576, -0.009828823618590832, -0.013720927760004997, 0.000234892126172781, 0.1379237174987793, 0.1451546847820282, -0.979748547077179, 0.0022893697023391724, 0.003374427556991577, 0.002423107624053955, -0.0729228994224863, 0.06933968237429217, 0.9949241063633356,-0.0003546882659358208,0.137939453125,0.1444854736328125,-0.977447509765625
20220120-1341,2022-01-20 13:41:30Z,u01, 50,40,movements,el-ex, rt, d,248183.91952925, 0.13963549026439623, -0.14608416955965486, 0.009521808257602673, -0.008410190232098103, -0.008579229936003685, 0.004210126120597124, 0.137699693441391, 0.14556513726711273, -0.9797191619873047, -0.001987934112548828, -0.0015221238136291504, 0.0016002655029296875, -0.07312977741129834, 0.06922765149848618, 0.9949167759030608,-0.000354280641702287,0.140167236328125,0.1444244384765625,-0.9778900146484375
20220120-1341,2022-01-20 13:41:30Z,u01, 51,40,movements,el-ex, rt, d,248183.94447525003, 0.13945222686743658, -0.1462714101676161, 0.009587254651525655, -0.012459693476557732, -0.007909778505563736, 0.00375039828941226, 0.1375163495540619, 0.14575037360191345, -0.9797173738479614, -0.0005381107330322266, 0.0010239779949188232, 0.0019799470901489258, -0.07322521467423893, 0.06913317188179213, 0.9949163009635879,-0.00032156064360600034,0.1379241943359375,0.14697265625,-0.97747802734375
20220120-1341,2022-01-20 13:41:30Z,u01, 52,40,movements,el-ex, rt, d,248183.96942025, 0.13939991786008793, -0.14675671174559138, 0.00972198446023319, -0.028830941766500473, -0.008127891458570957, 0.0007532765157520771, 0.13745525479316711, 0.14623048901557922, -0.9796543717384338, -0.002811640501022339, -0.002187475562095642, 0.0017949342727661133, -0.07347127865704449, 0.06909980407018469, 0.9949005366695969,-0.00026956210931244895,0.137786865234375,0.146514892578125,-0.979736328125
20220120-1341,2022-01-20 13:41:30Z,u01, 53,40,movements,el-ex, rt, d,248183.99436525002, 0.13927977215818493, -0.14766513052431238, 0.009956863018089424, -0.03531680628657341, -0.005143553018569946, 0.004517121706157923, 0.13731905817985535, 0.14712907373905182, -0.9795389175415039, -0.0015157610177993774, -0.0016059726476669312, 0.0034494996070861816, -0.0739312716912446, 0.069026839302047, 0.9948714776523468,-0.00017999374864491324,0.1346282958984375,0.14434814453125,-0.9776458740234375
20220120-1341,2022-01-20 13:41:30Z,u01, 54,40,movements,el-ex, rt, d,248184.01931125, 0.13910971190567603, -0.1482621563394308, 0.010113295322513871, -0.019722599536180496, -0.008076890371739864, 0.0022343932650983334, 0.13714025914669037, 0.1477195769548416, -0.9794750809669495, -0.0021609365940093994, 0.007859081029891968, 0.0011121034622192383, -0.07423364227213526, 0.06893342554056364, 0.9948554699757075,-0.00011669221790783224,0.1360015869140625,0.1449737548828125,-0.9775238037109375
20220120-1341,2022-01-20 13:41:30Z,u01, 55,40,movements,el-ex, rt, d,248184.04425625002, 0.1388804226631501, -0.14857709770515498, 0.0101749962342926, -0.014468083158135414, -0.007320353761315346, -0.0009361663833260536, 0.13690923154354095, 0.1480310559272766, -0.9794604182243347, -0.0023113638162612915, 0.00542663037776947, 0.004072844982147217, -0.07439243223548124, 0.06881547420380076, 0.9948517599082203,-8.844497533722073e-05,0.1363983154296875,0.154144287109375,-0.978302001953125
20220120-1341,2022-01-20 13:41:30Z,u01, 56,40,movements,el-ex, rt, d,248184.06920125, 0.13872036027737647, -0.14865997005324164, 0.010168992238036323, -0.007902226410806179, -0.00525327492505312, -0.005412474274635315, 0.13675075769424438, 0.14811301231384277, -0.9794701337814331, -0.0023665428161621094, 0.006550103425979614, 0.002236306667327881, -0.07443345151705963, 0.06873565346193669, 0.9948542374972885,-8.835688963393373e-05,0.134521484375,0.15478515625,-0.9763946533203125
20220120-1341,2022-01-20 13:41:30Z,u01, 57,40,movements,el-ex, rt, d,248184.09414625002, 0.13861644305037682, -0.14904978053570245, 0.010173523761633121, -0.012415485456585884, 0.00029515475034713745, 0.0002491394989192486, 0.1366409808397293, 0.1484985202550888, -0.9794270992279053, -0.00448453426361084, 0.0030060559511184692, 0.0032918453216552734, -0.07462750241641711, 0.06868180293213197, 0.9948434266739568,-9.576896055740747e-05,0.1337127685546875,0.1538543701171875,-0.9777069091796875
20220120-1341,2022-01-20 13:41:30Z,u01, 58,40,movements,el-ex, rt, d,248184.11909225, 0.13851274270500147, -0.14973344658607926, 0.01026193738137832, -0.011971536092460155, 0.0007665343582630157, 0.006104898173362017, 0.13652536273002625, 0.14917457103729248, -0.9793404936790466, -0.0017138868570327759, 0.002497851848602295, 0.002823770046234131, -0.07497058982529295, 0.06862341039159242, 0.9948216684432236,-7.16399335854434e-05,0.1330718994140625,0.1534881591796875,-0.9759063720703125
20220120-1341,2022-01-20 13:41:30Z,u01, 59,40,movements,el-ex, rt, d,248184.14403725002, 0.13844624943161266, -0.1500648844374999, 0.010351789562757941, 0.0012657716870307922, 0.004871930927038193, 0.0034983293153345585, 0.13645341992378235, 0.14950229227542877, -0.9793004989624023, -0.0025879740715026855, 0.005496546626091003, 0.0017004609107971191, -0.07513852650397349, 0.06858525757740347, 0.9948116095013609,-3.59482519481924e-05,0.131744384765625,0.14794921875,-0.9783477783203125
20220120-1341,2022-01-20 13:41:30Z,u01, 60,40,movements,el-ex, rt, d,248184.16898225, 0.1383682089724622, -0.1502200391671157, 0.010357281474988272, 0.005211745388805866, -0.00020092539489269257, -0.0008743815124034882, 0.13637378811836243, 0.14965569972991943, -0.9792882204055786, -0.0019590407609939575, 0.0019251704216003418, 0.0016728639602661133, -0.0752158813365206, 0.06854542670592653, 0.9948085808634202,-3.566158454393342e-05,0.1339569091796875,0.1522979736328125,-0.97650146484375
20220120-1341,2022-01-20 13:41:30Z,u01, 61,40,movements,el-ex, rt, d,248184.19392825002, 0.13824766531453636, -0.14989532282266216, 0.010292039519904381, 0.01368542481213808, 0.00413290411233902, -0.0009957551956176758, 0.1362624317407608, 0.1493346244096756, -0.9793527126312256, -0.002412274479866028, 0.0042145997285842896, 0.004148304462432861, -0.07505214009634331, 0.06848959218846698, 0.9948248035938827,-5.233516565689156e-05,0.1360321044921875,0.1547393798828125,-0.978759765625
20220120-1341,2022-01-20 13:41:30Z,u01, 62,40,movements,el-ex, rt, d,248184.21887325, 0.13833824434389702, -0.14999362669239702, 0.010292154316714628, -0.0064349910244345665, 0.00045967288315296173, -0.0004713120870292187, 0.13634911179542542, 0.14943182468414307, -0.9793258309364319, 0.0004612654447555542, -0.005785539746284485, -0.00021213293075561523, -0.07510104530707418, 0.0685341449350906, 0.9948179247462766,-5.908478922461713e-05,0.1355438232421875,0.1537628173828125,-0.97589111328125
20220120-1341,2022-01-20 13:41:31Z,u01, 63,40,movements,el-ex, rt, d,248184.24381825002, 0.13824905649053496, -0.1504535232798213, 0.01032686195198293, -0.012002995237708092, -0.01001720316708088, 0.005332781467586756, 0.1362522840499878, 0.14988654851913452, -0.979269802570343, 0.0019466578960418701, -0.002471327781677246, 0.0007236599922180176, -0.07533097582551905, 0.06848610242414152, 0.9948038983480307,-5.439758269998318e-05,0.135162353515625,0.1476898193359375,-0.9777374267578125
20220120-1341,2022-01-20 13:41:31Z,u01, 64,40,movements,el-ex, rt, d,248184.26876425, 0.13808894100813432, -0.1508841273484099, 0.010486830472096155, -0.008323471993207932, -0.0006946083158254623, 0.00920281931757927, 0.1360865980386734, 0.15031227469444275, -0.979227602481842, -0.0035181641578674316, 0.006548136472702026, 0.003824770450592041, -0.07555062062536846, 0.06839819260315347, 0.994793311646522,1.6306521346376446e-05,0.140899658203125,0.146270751953125,-0.980133056640625
20220120-1341,2022-01-20 13:41:31Z,u01, 65,40,movements,el-ex, rt, d,248184.29370925002, 0.1381141506674171, -0.15062742405691695, 0.010500728242897444, 0.015762224793434143, -1.6702339053153992e-05, -0.0048390962183475494, 0.13611659407615662, 0.15005847811698914, -0.9792623519897461, -0.0003132820129394531, 0.008755043148994446, -0.00012302398681640625, -0.07542341645413511, 0.06841154156907481, 0.9948020838004972,3.114921660485326e-05,0.1352691650390625,0.1529541015625,-0.976715087890625
20220120-1341,2022-01-20 13:41:31Z,u01, 66,40,movements,el-ex, rt, d,248184.31865425, 0.1381675750429843, -0.1500304823164417, 0.010492012341800479, 0.005505458451807499, 0.0012293923646211624, 0.0002422155812382698, 0.13618122041225433, 0.14946827292442322, -0.979343593120575, -0.0006678402423858643, -0.0033195316791534424, -0.0014913082122802734, -0.0751262194753589, 0.06844155409677544, 0.9948224216706362,4.546026095453293e-05,0.134735107421875,0.1585693359375,-0.9773712158203125
20220120-1341,2022-01-20 13:41:31Z,u01, 67,40,movements,el-ex, rt, d,248184.34360025002, 0.1379460831865865, -0.15047654210736722, 0.010533116559286232, -0.03303144872188568, -0.018780866637825966, -0.0007826359942555428, 0.1359551101922989, 0.14990930259227753, -0.9793075919151306, 0.00380021333694458, -0.011100053787231445, 9.012222290039062e-05, -0.07534948047426218, 0.06832751432921469, 0.9948133842595598,5.881089676162965e-05,0.13262939453125,0.1519317626953125,-0.97845458984375
20220120-1341,2022-01-20 13:41:31Z,u01, 68,40,movements,el-ex, rt, d,248184.36854525, 0.13749918295386457, -0.15170753682970847, 0.010591624698636035, -0.018100101500749588, -0.015117823146283627, -0.004394281189888716, 0.13549205660820007, 0.15112628042697906, -0.9791847467422485, -0.002694740891456604, 0.008297592401504517, 0.0027138590812683105, -0.07596372307717354, 0.06809658235518914, 0.9947825199458791,6.234458605886006e-05,0.13873291015625,0.1414337158203125,-0.9780120849609375
20220120-1341,2022-01-20 13:41:31Z,u01, 69,40,movements,el-ex, rt, d,248184.39349025002, 0.1373107293026363, -0.15162383565737142, 0.010528829343443529, 0.022119687870144844, 0.0056272707879543304, -0.0028311386704444885, 0.13530924916267395, 0.15104353427886963, -0.9792227745056152, -0.006067216396331787, 0.012378141283988953, 0.006658077239990234, -0.07591994845543634, 0.06800566597187505, 0.9947921209264907,4.114811746863678e-05,0.1362762451171875,0.14898681640625,-0.9793701171875
20220120-1341,2022-01-20 13:41:31Z,u01, 70,40,movements,el-ex, rt, d,248184.41843625, 0.13756202141018417, -0.1504637805139169, 0.010337732126980704, 0.027427367866039276, 0.009757833555340767, -0.005117995664477348, 0.13557925820350647, 0.14989669620990753, -0.9793616533279419, -0.0026903897523880005, 0.00224873423576355, 0.00139540433883667, -0.0753364588386286, 0.06814390045147532, 0.9948270287344436,-2.3466082030465518e-05,0.132354736328125,0.1632843017578125,-0.9751434326171875
20220120-1341,2022-01-20 13:41:31Z,u01, 71,40,movements,el-ex, rt, d,248184.44338125002, 0.13772038278689852, -0.14988217435974702, 0.010211063261647222, 0.013123530894517899, 0.0028237607330083847, 0.0044808355160057545, 0.1357462853193283, 0.14932163059711456, -0.979426383972168, 0.00036218762397766113, -0.0029897838830947876, -0.0036363601684570312, -0.07504285348052114, 0.06823042300608162, 0.9948432503015128,-7.237471110810301e-05,0.1310272216796875,0.1574554443359375,-0.9720916748046875
20220120-1341,2022-01-20 13:41:31Z,u01, 72,40,movements,el-ex, rt, d,248184.46832625, 0.13751240415950822, -0.15060612566814988, 0.010218821041211277, -0.00928786862641573, -0.0056143999099731445, 0.00035859551280736923, 0.13552772998809814, 0.15003742277622223, -0.9793472290039062, 0.002320230007171631, -0.005460366606712341, 0.004097044467926025, -0.07540320804316585, 0.06812296820952772, 0.994823424739293,-8.564800459320843e-05,0.13525390625,0.1479034423828125,-0.9781646728515625
20220120-1341,2022-01-20 13:41:31Z,u01, 73,40,movements,el-ex, rt, d,248184.49327125002, 0.13725294312960953, -0.15116880955610348, 0.010285937418740258, -0.005839074961841106, -0.0040561845526099205, -0.002025466412305832, 0.13526205718517303, 0.15059371292591095, -0.9792985916137695, -0.0003590136766433716, 0.0018263757228851318, 0.006138801574707031, -0.0756853758138775, 0.06798848956315115, 0.994811127169076,-6.182791447101321e-05,0.136505126953125,0.14312744140625,-0.97955322265625
20220120-1341,2022-01-20 13:41:31Z,u01, 74,40,movements,el-ex, rt, d,248184.51821725, 0.13722467575775574, -0.1510668021821516, 0.010339412014423165, 0.013423634693026543, 0.0030223652720451355, 0.0027268114499747753, 0.1352364718914032, 0.15049287676811218, -0.9793176054954529, -0.0009438097476959229, 0.008259609341621399, 0.0013360977172851562, -0.07563645952806539, 0.06797293347136005, 0.994815887282731,-3.065329785895132e-05,0.135894775390625,0.14691162109375,-0.973846435546875
20220120-1341,2022-01-20 13:41:31Z,u01, 75,40,movements,el-ex, rt, d,248184.54316225002, 0.1372563848850663, -0.1503683904798159, 0.010326189297639178, 0.024501487612724304, 0.0012868493795394897, -0.002199703361839056, 0.13528187572956085, 0.14980237185955048, -0.9794172048568726, -0.001538500189781189, 0.0072563886642456055, 0.0005506277084350586, -0.07528862553812522, 0.06799279985950873, 0.9948409524715127,-1.4415465419637119e-05,0.1320037841796875,0.1551666259765625,-0.976287841796875
20220120-1341,2022-01-20 13:41:31Z,u01, 76,40,movements,el-ex, rt, d,248184.56810725, 0.13734941560925457, -0.14986806959864965, 0.010284291198821498, 0.013878237456083298, 0.0029102470725774765, -0.0012724576517939568, 0.1353832334280014, 0.14930768311023712, -0.9794787168502808, -0.0028300434350967407, -0.00329628586769104, 0.002214372158050537, -0.07503834138717501, 0.06804321947823688, 0.9948564128712183,-2.1544599228984218e-05,0.1334381103515625,0.1582183837890625,-0.9761505126953125
20220120-1341,2022-01-20 13:41:31Z,u01, 77,40,movements,el-ex, rt, d,248184.59305325002, 0.1373261646678008, -0.15011709544184018, 0.0103414535570512, -0.01640879549086094, 0.0023915302008390427, 0.0030304784886538982, 0.1353553682565689, 0.14955390989780426, -0.9794450402259827, -0.0026953667402267456, -0.008761018514633179, 0.002073824405670166, -0.07516415544671351, 0.06802823209525388, 0.9948478871123068,-8.053244545669358e-07,0.1326446533203125,0.150360107421875,-0.975799560546875
20220120-1341,2022-01-20 13:41:31Z,u01, 78,40,movements,el-ex, rt, d,248184.61799825, 0.13727780895407984, -0.15114063422604782, 0.010476942991945626, -0.025593969970941544, -0.0034079039469361305, 0.0006848988123238087, 0.13528698682785034, 0.15056586265563965, -0.9792994260787964, 0.0011114031076431274, -0.001365378499031067, 0.0015010237693786621, -0.07567785199803344, 0.06799377306192929, 0.9948113814366578,3.3207683188873904e-05,0.1341094970703125,0.143768310546875,-0.9761810302734375
20220120-1341,2022-01-20 13:41:31Z,u01, 79,40,movements,el-ex, rt, d,248184.64294325002, 0.13715640240049282, -0.15147450859603692, 0.010507263238091433, 0.002798088826239109, 0.0018709469586610794, -0.002216415014117956, 0.13516120612621307, 0.15089592337608337, -0.9792659878730774, -0.0023028552532196045, 0.006834238767623901, 0.0020778775215148926, -0.07584494199143288, 0.06793050090295052, 0.9948029694074852,4.141047303218848e-05,0.134735107421875,0.1441192626953125,-0.9788970947265625
20220120-1341,2022-01-20 13:41:31Z,u01, 80,40,movements,el-ex, rt, d,248184.66788925, 0.13719278648988, -0.15088639037247162, 0.010458034903601853, 0.009991386905312538, 0.0028093792498111725, 0.0004701153375208378, 0.13520894944667816, 0.15031450986862183, -0.9793487787246704, -0.0010230839252471924, 0.0013884305953979492, 0.0019928812980651855, -0.07555074972149448, 0.06795351464028765, 0.9948238183869637,3.5758436226995816e-05,0.13470458984375,0.1547393798828125,-0.9786529541015625
20220120-1341,2022-01-20 13:41:31Z,u01, 81,40,movements,el-ex, rt, d,248184.69283425002, 0.13734738558176057, -0.15039315684074414, 0.010388170399148392, 0.01216186210513115, 0.00803103856742382, -0.0038213024381548166, 0.13537049293518066, 0.14982686936855316, -0.9794012308120728, 0.001912921667098999, -0.00036697089672088623, -0.001448988914489746, -0.07530304991237594, 0.06803560256394584, 0.9948369606364759,1.213758385726349e-05,0.13238525390625,0.1555938720703125,-0.9758758544921875
20220120-1341,2022-01-20 13:41:31Z,u01, 82,40,movements,el-ex, rt, d,248184.71777925, 0.13741329548288128, -0.15050523667141444, 0.010325697626730896, -0.0036265207454562187, 0.0037814993411302567, 0.0002962779253721237, 0.13543274998664856, 0.1499376744031906, -0.9793756604194641, -1.0922551155090332e-05, -0.003743186593055725, 0.0019282102584838867, -0.0753566689550077, 0.06807016039158753, 0.9948305682659958,-2.527678172958847e-05,0.134765625,0.15020751953125,-0.9797821044921875
20220120-1341,2022-01-20 13:41:31Z,u01, 83,40,movements,el-ex, rt, d,248184.74272525002, 0.13738423512124248, -0.15087917691628955, 0.010380285382416478, -0.0034687956795096397, -0.0057929642498493195, 0.0020165457390248775, 0.13539659976959229, 0.15030737221240997, -0.9793239831924438, 0.003702595829963684, 0.0010140687227249146, 0.002425849437713623, -0.07554452842103854, 0.06805172525215383, 0.9948174609866745,-9.899852382144747e-06,0.13623046875,0.1490325927734375,-0.9774627685546875
20220120-1341,2022-01-20 13:41:31Z,u01, 84,40,movements,el-ex, rt, d,248184.76767025, 0.1373785452017475, -0.15085050595225888, 0.010371130101234041, -0.002278329338878393, 0.0029936712235212326, -0.001353883184492588, 0.13539160788059235, 0.15027903020381927, -0.979328989982605, 0.0001675635576248169, 0.0016985535621643066, 0.002430856227874756, -0.07552994674738707, 0.06804938033549146, 0.9948188570422143,-1.325081295638908e-05,0.1365203857421875,0.1463470458984375,-0.9780426025390625
20220120-1341,2022-01-20 13:41:31Z,u01, 85,40,movements,el-ex, rt, d,248184.79261525001, 0.1374540447155951, -0.15086442946653905, 0.01036224263453622, -0.003038894385099411, 0.0011415071785449982, 0.00350751681253314, 0.13546526432037354, 0.1502927988767624, -0.9793167114257812, -5.8710575103759766e-05, 0.0005403757095336914, 0.0017624497413635254, -0.07553657540092787, 0.06808720389516855, 0.9948156804283291,-2.1003067197100656e-05,0.1365203857421875,0.1542510986328125,-0.978271484375
20220120-1341,2022-01-20 13:41:31Z,u01, 86,40,movements,el-ex, rt, d,248184.81756016667, 0.13753892524772818, -0.15094018175706103, 0.01039792414590166, -0.009526720270514488, -0.0026869866997003555, -0.0013918341137468815, 0.13554683327674866, 0.15036769211292267, -0.979293942451477, -0.00043016672134399414, -0.001838594675064087, -0.0008848905563354492, -0.07557546180887431, 0.06812767934518088, 0.9948100309064196,-9.06990402299579e-06,0.1340789794921875,0.1502227783203125,-0.9774322509765625
20220120-1341,2022-01-20 13:41:31Z,u01, 87,40,movements,el-ex, rt, d,248184.8425061667, 0.1374785011155937, -0.15128390947549655, 0.010479103755787558, -0.010425138287246227, -0.003259032964706421, 0.0018028938211500645, 0.13548056781291962, 0.15070749819278717, -0.9792508482933044, 0.0005210936069488525, 0.0008886158466339111, -0.00016498565673828125, -0.07574919269802342, 0.06809277382872339, 0.99479914342951,2.1753488249010022e-05,0.1336212158203125,0.1487274169921875,-0.9767913818359375
20220120-1341,2022-01-20 13:41:31Z,u01, 88,40,movements,el-ex, rt, d,248184.86745116668, 0.13734537700969038, -0.15143032188623845, 0.010536680034098075, 0.002353241667151451, -0.00918643083423376, 0.00041485484689474106, 0.1353471726179123, 0.150852233171463, -0.9792470335960388, -0.0018784701824188232, 0.004146590828895569, 0.0035848021507263184, -0.07582396800847979, 0.06802361099872592, 0.9947982169111056,5.039650921412342e-05,0.1359710693359375,0.148834228515625,-0.9808349609375
20220120-1341,2022-01-20 13:41:31Z,u01, 89,40,movements,el-ex, rt, d,248184.8923961667, 0.13720714608900944, -0.1510847117557371, 0.010565868418258538, 0.016647856682538986, -0.002083847299218178, 0.0012728585861623287, 0.13521893322467804, 0.15051057934761047, -0.979317307472229, -0.0011856406927108765, 0.007936745882034302, 0.0031668543815612793, -0.07565305599083305, 0.06795555020967424, 0.9948158975140667,8.203619527058503e-05,0.1341552734375,0.15264892578125,-0.9776763916015625
20220120-1341,2022-01-20 13:41:31Z,u01, 90,40,movements,el-ex, rt, d,248184.91734216668, 0.13731307261503664, -0.15074556546943857, 0.010522390246433165, 0.006510734558105469, 0.008207807317376137, 0.0024027046747505665, 0.13532964885234833, 0.1501752883195877, -0.9793534874916077, -0.0034020990133285522, -0.000257641077041626, 0.0027910470962524414, -0.07548290553647034, 0.06801165589197682, 0.9948248700987175,6.806881555571076e-05,0.133331298828125,0.1583251953125,-0.9759368896484375
20220120-1341,2022-01-20 13:41:31Z,u01, 91,40,movements,el-ex, rt, d,248184.9422871667, 0.13737886009996314, -0.150738213402602, 0.010548742511692952, 0.0013291891664266586, 0.005108220502734184, 0.0038169105537235737, 0.13539423048496246, 0.1501680165529251, -0.9793456792831421, -0.000399664044380188, -0.003256365656852722, 0.0011963248252868652, -0.07548014405727646, 0.06804342005576057, 0.9948229519049041,7.894732667040882e-05,0.1299896240234375,0.1520843505859375,-0.9758758544921875
20220120-1341,2022-01-20 13:41:31Z,u01, 92,40,movements,el-ex, rt, d,248184.96723216667, 0.1373322324753502, -0.15124137431062715, 0.010561235800024575, -0.009402817115187645, 0.0030296240001916885, -0.0036604474298655987, 0.1353382021188736, 0.15066544711589813, -0.9792770147323608, -0.0004657059907913208, -0.0019837766885757446, 0.0007461905479431152, -0.07573082884492358, 0.06801713143102783, 0.9948057059045301,6.960941055911274e-05,0.1345367431640625,0.1495513916015625,-0.9780426025390625
20220120-1341,2022-01-20 13:41:31Z,u01, 93,40,movements,el-ex, rt, d,248184.9921781667, 0.13724757714613894, -0.15149731690737572, 0.010568099719190812, -0.007208905648440123, 0.0010996293276548386, 0.0024560349993407726, 0.1352500170469284, 0.15091846883296967, -0.9792502522468567, 0.0011025816202163696, -0.000909268856048584, 0.0017570257186889648, -0.0758583615511384, 0.06797343020566886, 0.9947989356723228,6.742788960545365e-05,0.1341705322265625,0.147918701171875,-0.978668212890625
20220120-1341,2022-01-20 13:41:31Z,u01, 94,40,movements,el-ex, rt, d,248185.01712316668, 0.13716121263181172, -0.15137329555471737, 0.01059866616955833, 0.003365076147019863, 0.002851523458957672, 0.0036313538439571857, 0.13516800105571747, 0.1507958620786667, -0.9792804718017578, -0.0007532685995101929, 0.0020667165517807007, 0.003740370273590088, -0.0757977084989861, 0.06792995866479232, 0.9948065680701237,9.016980215548198e-05,0.1351165771484375,0.151092529296875,-0.9785919189453125
20220120-1341,2022-01-20 13:41:31Z,u01, 95,40,movements,el-ex, rt, d,248185.0420681667, 0.1372245385268917, -0.1511144745171285, 0.010518603628477022, 0.007653199136257172, 0.004199149087071419, -0.0005265730433166027, 0.13523535430431366, 0.15053999423980713, -0.9793105125427246, -0.0007137954235076904, -0.00010354816913604736, 0.0008254647254943848, -0.07566625773602213, 0.06796583767056846, 0.9948141424589316,5.684470085887128e-05,0.1358795166015625,0.1516265869140625,-0.9769134521484375
20220120-1341,2022-01-20 13:41:31Z,u01, 96,40,movements,el-ex, rt, d,248185.06701416668, 0.13729070000006807, -0.15108420168660833, 0.010522891316687377, -0.007854023016989231, 0.0007143355906009674, 0.0005407556891441345, 0.13530077040195465, 0.15051007270812988, -0.9793061017990112, 0.0013875514268875122, -0.004208743572235107, -0.00010979175567626953, -0.07565134404393117, 0.06799873846166377, 0.9948130839984342,5.7516153454839625e-05,0.134521484375,0.1512298583984375,-0.9770965576171875
20220120-1341,2022-01-20 13:41:31Z,u01, 97,40,movements,el-ex, rt, d,248185.0919591667, 0.13723257237026196, -0.15152570844320476, 0.010656375763423641, -0.01960129290819168, -0.006573003716766834, 0.004658402409404516, 0.1352347433567047, 0.15094652771949768, -0.979248046875, 0.0009347647428512573, -0.004248484969139099, 0.0003509521484375, -0.07587547192881199, 0.06796246079340584, 0.9947985082910769,0.0001109306579228364,0.1368560791015625,0.14947509765625,-0.9788818359375
20220120-1341,2022-01-20 13:41:31Z,u01, 98,40,movements,el-ex, rt, d,248185.11690416667, 0.13718501310655873, -0.1518146603531604, 0.010743414181828202, -0.0014742538332939148, -0.002223862335085869, 0.001173855271190405, 0.1351822018623352, 0.15123216807842255, -0.9792112112045288, 0.002040177583694458, 0.005307808518409729, 0.0008786916732788086, -0.07602214903824847, 0.06793398692728338, 0.9947891542514888,0.0001460946139835717,0.1383056640625,0.1443939208984375,-0.976806640625
20220120-1341,2022-01-20 13:41:31Z,u01, 99,40,movements,el-ex, rt, d,248185.1418501667, 0.1371452236581644, -0.1516030709886956, 0.01074191649853954, 0.013427031226456165, -0.0012558698654174805, -0.003028678707778454, 0.13514761626720428, 0.1510230153799057, -0.9792482852935791, -0.0005955249071121216, 0.004311516880989075, 0.00032067298889160156, -0.07591685290513871, 0.06791536362104317, 0.994798521751068,0.0001541336339766497,0.135589599609375,0.1553955078125,-0.975677490234375
20220120-1341,2022-01-20 13:41:31Z,u01, 100,40,movements,el-ex, rt, d,248185.16679516668, 0.1371553945654964, -0.1512899377410749, 0.010791319763487881, -0.012946419417858124, -0.008866451680660248, 0.0007156594656407833, 0.1351640224456787, 0.1507134586572647, -0.979293704032898, 0.0017379075288772583, -0.007647007703781128, -0.0007783174514770508, -0.07576279354398661, 0.06792020501153759, 0.9948098449545415,0.0001890812535670361,0.1363067626953125,0.1560211181640625,-0.9779052734375
20220120-1341,2022-01-20 13:41:31Z,u01, 101,40,movements,el-ex, rt, d,248185.1917401667, 0.13686031632452264, -0.15206840898522536, 0.01088563986642755, -0.03277338668704033, -0.009880582801997662, -0.0020047598518431187, 0.13485901057720184, 0.15148299932479858, -0.979216992855072, 0.001890331506729126, -0.005441069602966309, -6.151199340820312e-05, -0.076153151813683, 0.06776573308821598, 0.9947905786792566,0.00022047718689327533,0.1327667236328125,0.14764404296875,-0.9783477783203125
20220120-1341,2022-01-20 13:41:31Z,u01, 102,40,movements,el-ex, rt, d,248185.21668516667, 0.13681692668696946, -0.15266282808315873, 0.010939682690770235, 0.008407071232795715, 0.0043364353477954865, -0.002324606291949749, 0.13480421900749207, 0.1520705223083496, -0.9791334867477417, -0.005607962608337402, 0.011702105402946472, 0.004447817802429199, -0.07645062095639592, 0.0677389317860295, 0.9947695605030691,0.00022862973786608176,0.1394805908203125,0.14300537109375,-0.979095458984375
20220120-1341,2022-01-20 13:41:32Z,u01, 103,40,movements,el-ex, rt, d,248185.2416311667, 0.13693531068536927, -0.15209031493465816, 0.010784858554962262, 0.02479942888021469, 0.012719400227069855, -0.0008810395374894142, 0.13493198156356812, 0.15150465071201324, -0.9792035818099976, -0.002851828932762146, 0.006103441119194031, 0.006287992000579834, -0.07616063224410294, 0.06780675102938319, 0.9947873038624725,0.0001667428374597657,0.13116455078125,0.156829833984375,-0.9760284423828125
20220120-1341,2022-01-20 13:41:32Z,u01, 104,40,movements,el-ex, rt, d,248185.26657616667, 0.13723670634076637, -0.15136864426387217, 0.010680372562561624, -0.0021337196230888367, 0.00406159833073616, -0.0017624120227992535, 0.1352420300245285, 0.15079127252101898, -0.9792709350585938, 0.001537814736366272, -0.0027351975440979004, 0.0009079575538635254, -0.07579817830451589, 0.06796444007690837, 0.9948041302055999,0.00012810909887239763,0.13250732421875,0.1650543212890625,-0.9744873046875
20220120-1341,2022-01-20 13:41:32Z,u01, 105,40,movements,el-ex, rt, d,248185.29152116668, 0.1371249727708182, -0.15177102620326116, 0.010733470405379976, -0.01587110385298729, -0.00698359590023756, 0.003986820112913847, 0.1351243108510971, 0.15118904411792755, -0.9792258739471436, 0.0028152167797088623, -0.00682559609413147, -0.0004341006278991699, -0.07600010670754204, 0.06790473262804057, 0.9947928106312138,0.00014492975347712989,0.13409423828125,0.148834228515625,-0.977630615234375
20220120-1341,2022-01-20 13:41:32Z,u01, 106,40,movements,el-ex, rt, d,248185.31646716667, 0.13671051772882778, -0.152729096549427, 0.010786547521339097, -0.00989743322134018, -0.008888956159353256, 0.0024122255854308605, 0.13469864428043365, 0.15213602781295776, -0.9791378378868103, 0.0002806633710861206, 0.002603396773338318, 0.003414630889892578, -0.07647838086168529, 0.0676915049133985, 0.9947707238768323,0.00015426031229553994,0.1389617919921875,0.1454315185546875,-0.9817047119140625
20220120-1341,2022-01-20 13:41:32Z,u01, 107,40,movements,el-ex, rt, d,248185.3414121667, 0.1365667861085761, -0.15270510077774888, 0.010833072656736727, 0.002883477136492729, -0.0002760253846645355, -0.0008911597542464733, 0.13455840945243835, 0.15211230516433716, -0.9791607856750488, -0.0013796091079711914, 0.004503965377807617, 0.0005841851234436035, -0.07646801158974818, 0.0676183657905703, 0.994776444103878,0.00018371822372947877,0.1358642578125,0.1535186767578125,-0.975677490234375
20220120-1341,2022-01-20 13:41:32Z,u01, 108,40,movements,el-ex, rt, d,248185.36635716667, 0.13663731059371054, -0.1521319367973949, 0.010786193885488076, 0.012794697657227516, -0.0026353206485509872, -0.0023780022747814655, 0.13463932275772095, 0.15154579281806946, -0.9792374968528748, -5.671381950378418e-05, 0.0027206242084503174, 0.0006914138793945312, -0.07618135572366848, 0.06765825866768453, 0.9947957928392588,0.00017732957844690533,0.1338043212890625,0.155242919921875,-0.9758758544921875
20220120-1341,2022-01-20 13:41:32Z,u01, 109,40,movements,el-ex, rt, d,248185.3913031667, 0.13662059467021603, -0.15183768958067936, 0.010733932170844862, 0.009337213821709156, -0.004005317576229572, 0.001571133267134428, 0.134629026055336, 0.15125493705272675, -0.9792839288711548, -0.0006262511014938354, -0.0017645210027694702, 0.00015795230865478516, -0.0760332386134109, 0.06765348519645928, 0.9948074148940321,0.0001620439614813396,0.1356658935546875,0.1587371826171875,-0.977020263671875
20220120-1341,2022-01-20 13:41:32Z,u01, 110,40,movements,el-ex, rt, d,248185.41624816667, 0.13658385379645446, -0.15213288782424866, 0.01073592694319013, -0.016244079917669296, -0.0007973397150635719, 0.0023870584554970264, 0.13458696007728577, 0.15154673159122467, -0.979244589805603, -0.0008130818605422974, -0.008587092161178589, 0.0030331015586853027, -0.076180122395927, 0.06763357751518462, 0.9947975920073281,0.0001543307502112068,0.1326446533203125,0.15167236328125,-0.9784393310546875
20220120-1341,2022-01-20 13:41:32Z,u01, 111,40,movements,el-ex, rt, d,248185.44119316668, 0.13660141193658598, -0.15287877275567982, 0.010849118775380804, -0.02076788991689682, -0.0008602570742368698, 0.0007888288237154484, 0.13458871841430664, 0.1522839516401291, -0.9791299700737, -0.0009064078330993652, -0.004380479454994202, 0.0013926029205322266, -0.07655492582295528, 0.06763404635973458, 0.9947688059386057,0.00018443179962640555,0.1343536376953125,0.14569091796875,-0.97564697265625
20220120-1341,2022-01-20 13:41:32Z,u01, 112,40,movements,el-ex, rt, d,248185.46613916667, 0.13654786123970764, -0.15319665022750958, 0.010911557951586727, -0.00587422912940383, -0.0006414782255887985, -0.0018877806141972542, 0.13452968001365662, 0.15259811282157898, -0.9790891408920288, -0.001701846718788147, 0.006291702389717102, 3.9517879486083984e-05, -0.07671513857688089, 0.06760333775508016, 0.9947584233677705,0.00020665945698372656,0.1333160400390625,0.143585205078125,-0.976776123046875
20220120-1341,2022-01-20 13:41:32Z,u01, 113,40,movements,el-ex, rt, d,248185.4910841667, 0.13658302717655713, -0.15290608459813504, 0.010847125930088962, 0.008106134831905365, 0.003432558849453926, -0.004694019909948111, 0.1345701515674591, 0.15231095254421234, -0.9791283011436462, -0.0030087828636169434, 0.004961445927619934, 0.0021233558654785156, -0.07656844529640829, 0.06762483768632165, 0.9947683288935681,0.00018320889665041085,0.1337738037109375,0.1545562744140625,-0.97918701171875
20220120-1341,2022-01-20 13:41:32Z,u01, 114,40,movements,el-ex, rt, d,248185.51602916667, 0.1366523143185015, -0.1524179882108615, 0.010793428440356289, -0.004224700387567282, 0.0017025694251060486, 6.318418309092522e-05, 0.13464809954166412, 0.15182852745056152, -0.9791924953460693, 0.0016282349824905396, -0.002734854817390442, 0.0005701184272766113, -0.07632387421313327, 0.06766393524052233, 0.9947844851988282,0.00017056160445394486,0.1311187744140625,0.158721923828125,-0.9783477783203125
20220120-1341,2022-01-20 13:41:32Z,u01, 115,40,movements,el-ex, rt, d,248185.54097416668, 0.13670496297537696, -0.15259649739399414, 0.01079040342846929, -0.009461639449000359, 0.0024645663797855377, -0.0006986791267991066, 0.13469596207141876, 0.15200497210025787, -0.9791585803031921, 0.001229405403137207, -0.0018126517534255981, 0.0035573840141296387, -0.07641256103618937, 0.06768929525633534, 0.9947759385071032,0.00016093284458507107,0.1345672607421875,0.1507568359375,-0.97601318359375
20220120-1341,2022-01-20 13:41:32Z,u01, 116,40,movements,el-ex, rt, d,248185.56592016667, 0.13660828086387858, -0.15327979717575652, 0.010864857821595809, -0.015799030661582947, -0.00417283084243536, -0.0010198564268648624, 0.1345871090888977, 0.15268029272556305, -0.9790684580802917, 0.002833619713783264, -0.0008247643709182739, 0.002856910228729248, -0.07675491539222676, 0.06763473588995782, 0.994753267469603,0.00017826838787626809,0.1378326416015625,0.150238037109375,-0.97705078125
20220120-1341,2022-01-20 13:41:32Z,u01, 117,40,movements,el-ex, rt, d,248185.59086516668, 0.13650654113793365, -0.15363362268935069, 0.010915332095985662, -0.011347324587404728, -0.001253805123269558, 7.41034746170044e-05, 0.13448014855384827, 0.15302996337413788, -0.979028582572937, 0.0025591254234313965, -0.00025890767574310303, 0.0025881528854370117, -0.0769325888006448, 0.06758031309735732, 0.994743198152747,0.0001951736395331971,0.1358795166015625,0.149688720703125,-0.9760284423828125
20220120-1341,2022-01-20 13:41:32Z,u01, 118,40,movements,el-ex, rt, d,248185.6158101667, 0.1365013902933315, -0.15365512813224486, 0.011011314653374973, 0.00018982216715812683, -0.005627116188406944, 0.003028480801731348, 0.13447465002536774, 0.1530512124300003, -0.9790259599685669, -0.0004566311836242676, 0.00445006787776947, 0.00012892484664916992, -0.07694652664748544, 0.06757394363237554, 0.9947425460705324,0.00024237515687630662,0.1369171142578125,0.15380859375,-0.976715087890625
20220120-1341,2022-01-20 13:41:32Z,u01, 119,40,movements,el-ex, rt, d,248185.6407561667, 0.13647388189498785, -0.15347319050299327, 0.01105744495716702, 0.006861905567348003, -0.004665846936404705, 0.0010285801254212856, 0.1344515085220337, 0.15287141501903534, -0.979057252407074, -0.0004945248365402222, 0.002096891403198242, 0.00121307373046875, -0.0768575931611475, 0.06755946067395249, 0.9947504322269138,0.00027260050639760225,0.1344146728515625,0.1549835205078125,-0.9766998291015625
20220120-1341,2022-01-20 13:41:32Z,u01, 120,40,movements,el-ex, rt, d,248185.66570116667, 0.1365078340831618, -0.15350241190915997, 0.01107517673940483, -0.0039509935304522514, -0.0034009795635938644, -2.7762260288000107e-05, 0.13448414206504822, 0.15290029346942902, -0.9790482521057129, -0.0006034523248672485, -0.0012889206409454346, 0.000670015811920166, -0.07687272606635055, 0.06757550594207634, 0.9947482224734471,0.00027911592546775443,0.1333160400390625,0.15576171875,-0.979278564453125
20220120-1341,2022-01-20 13:41:32Z,u01, 121,40,movements,el-ex, rt, d,248185.69064616668, 0.1364627038659173, -0.15373873119880954, 0.01115291079336229, -0.011414269916713238, -0.007307370193302631, -0.000693087000399828, 0.1344350427389145, 0.153133824467659, -0.97901850938797, -0.0006459057331085205, -0.001339346170425415, 0.0025780797004699707, -0.07699287709801758, 0.06754879783148067, 0.994740734895893,0.00031143103277242457,0.1348419189453125,0.152801513671875,-0.9770965576171875
20220120-1341,2022-01-20 13:41:32Z,u01, 122,40,movements,el-ex, rt, d,248185.71559216667, 0.1362999688648313, -0.15419589578018011, 0.011234765350309142, -0.009277116507291794, -0.005926055833697319, 0.001815012190490961, 0.1342661827802658, 0.15358558297157288, -0.9789709448814392, 0.00046899914741516113, 0.0009402334690093994, 0.000348508358001709, -0.07722298126539984, 0.06746223474526233, 0.9947287285585158,0.0003427896631251759,0.134735107421875,0.1538543701171875,-0.9761505126953125
20220120-1341,2022-01-20 13:41:32Z,u01, 123,40,movements,el-ex, rt, d,248185.74053716668, 0.13616870258163472, -0.15424292018297805, 0.011286691070048458, 1.6816891729831696e-05, -0.00012083165347576141, -0.0029373327270150185, 0.13413670659065247, 0.1536320447921753, -0.9789813756942749, -0.0016750842332839966, 0.005242496728897095, 0.0022053122520446777, -0.07724809116288775, 0.06739468369682497, 0.994731401173943,0.00037207972153591173,0.13299560546875,0.1513214111328125,-0.976165771484375
20220120-1341,2022-01-20 13:41:32Z,u01, 124,40,movements,el-ex, rt, d,248185.7654821667, 0.13618045120473557, -0.15413585833890556, 0.011293203935711982, -0.0007244409061968327, -0.0013617975637316704, -0.0032022506929934025, 0.134150430560112, 0.15352626144886017, -0.9789960980415344, -0.0009258687496185303, -0.0005568414926528931, 0.002387821674346924, -0.07719507147936355, 0.06740086048175048, 0.99473503887037,0.00037851910068098515,0.1332550048828125,0.1586151123046875,-0.9779510498046875
20220120-1341,2022-01-20 13:41:32Z,u01, 125,40,movements,el-ex, rt, d,248185.79042816669, 0.1362134769177707, -0.15404225651812392, 0.011294831512112044, -0.00037000747397542, 0.003246735781431198, 0.0008368990384042263, 0.13418471813201904, 0.15343376994132996, -0.9790058732032776, 0.00010795891284942627, -6.586313247680664e-06, 0.0030385255813598633, -0.07714857777143962, 0.06741772902392437, 0.9947375407998921,0.00038125008070921673,0.1306915283203125,0.1545257568359375,-0.9758148193359375
20220120-1341,2022-01-20 13:41:32Z,u01, 126,40,movements,el-ex, rt, d,248185.81537287502, 0.13627461423878118, -0.15427132168130261, 0.0113411194950095, -0.0032081715762615204, 0.001040508970618248, 0.004628374706953764, 0.1342397928237915, 0.1536601185798645, -0.9789628386497498, -0.0003286004066467285, -0.0020792633295059204, 0.0008592605590820312, -0.07726407604123586, 0.06744510761662194, 0.9947266725125272,0.00039408894424591834,0.1359710693359375,0.154754638671875,-0.97845458984375
20220120-1341,2022-01-20 13:41:32Z,u01, 127,40,movements,el-ex, rt, d,248185.840317875, 0.13619637839221374, -0.15437665909521628, 0.011359579692748503, -0.0004361211322247982, 0.0025174301117658615, -0.0006713820621371269, 0.13416101038455963, 0.15376420319080353, -0.9789572954177856, -0.0004481673240661621, -0.0001539289951324463, 0.00178450345993042, -0.07731707082918135, 0.06740490913498215, 0.9947252731202185,0.00040269661748548735,0.132537841796875,0.1507415771484375,-0.9766387939453125
20220120-1341,2022-01-20 13:41:32Z,u01, 128,40,movements,el-ex, rt, d,248185.865262875, 0.13622938039825205, -0.15441893611621577, 0.01136564926997344, -0.005139162763953209, -0.0004057232290506363, -0.0013974262401461601, 0.13419242203235626, 0.15380597114562988, -0.9789464473724365, 0.000725865364074707, -0.0024539977312088013, 0.00041556358337402344, -0.0773383101328129, 0.06742086000514133, 0.9947225107561188,0.0004029956145312763,0.135772705078125,0.1563262939453125,-0.9764251708984375
20220120-1341,2022-01-20 13:41:32Z,u01, 129,40,movements,el-ex, rt, d,248185.890208875, 0.13616070205638928, -0.15444834130917948, 0.011378751908668612, -0.0033134324476122856, -0.003531740978360176, -5.892198532819748e-05, 0.13412457704544067, 0.15383502840995789, -0.9789511561393738, 0.00015282630920410156, -0.002742454409599304, 0.0007712841033935547, -0.0773533580228862, 0.06738603170770562, 0.9947237467573239,0.00041116498479876196,0.13421630859375,0.1545257568359375,-0.979705810546875
20220120-1341,2022-01-20 13:41:32Z,u01, 130,40,movements,el-ex, rt, d,248185.91515387502, 0.13606215137653996, -0.15447964554595975, 0.011342471590348272, 0.00016076024621725082, -0.006844247691333294, -0.004222840536385775, 0.13402745127677917, 0.1538659632205963, -0.9789596199989319, -0.0008333921432495117, 0.002750307321548462, 0.0028701424598693848, -0.07736768928107202, 0.06733825288486624, 0.9947258164449897,0.00039586385048345774,0.136474609375,0.1508636474609375,-0.9777984619140625
20220120-1341,2022-01-20 13:41:32Z,u01, 131,40,movements,el-ex, rt, d,248185.94009887503, 0.13594740805777264, -0.1545416596688922, 0.011263092681234422, -0.010322939604520798, -0.005254673771560192, -0.00518830306828022, 0.1339138299226761, 0.15392723679542542, -0.9789655208587646, 0.000943407416343689, -0.0005000680685043335, 0.002158939838409424, -0.07739583628037587, 0.06728391678766295, 0.9947273373673169,0.0003587093039101319,0.1360931396484375,0.15557861328125,-0.9770050048828125
20220120-1341,2022-01-20 13:41:32Z,u01, 132,40,movements,el-ex, rt, d,248185.96504487502, 0.1359201770374876, -0.1548350809268027, 0.011365039022014977, -0.02658223733305931, -0.0030871927738189697, 0.0030362713150680065, 0.13388104736804962, 0.15421715378761292, -0.9789243936538696, -0.0018008947372436523, -0.0033839792013168335, 0.001141190528869629, -0.07754518973425212, 0.06726483033743062, 0.994716957263314,0.0004004701935074739,0.136474609375,0.1542205810546875,-0.976654052734375
20220120-1341,2022-01-20 13:41:32Z,u01, 133,40,movements,el-ex, rt, d,248185.989989875, 0.13584810966584332, -0.15528098426432663, 0.011539828939425997, -0.008414785377681255, -0.010285384021699429, 0.006579140666872263, 0.1338011622428894, 0.15465770661830902, -0.9788658022880554, -0.001293763518333435, 0.0060173869132995605, 0.0008537173271179199, -0.07777280605961345, 0.06721975527999632, 0.9947022434491788,0.00047501249531828327,0.1339874267578125,0.149261474609375,-0.975677490234375
20220120-1341,2022-01-20 13:41:32Z,u01, 134,40,movements,el-ex, rt, d,248186.014934875, 0.1357148565694123, -0.15533577730768194, 0.01165935803474941, 0.004262161441147327, -0.0042788246646523476, 0.00248512951657176, 0.13366958498954773, 0.15471184253692627, -0.9788752198219299, -0.0028864145278930664, 0.0013551115989685059, 0.0030146241188049316, -0.07780403317335358, 0.06714852692777351, 0.9947046329214044,0.0005377785972669469,0.13299560546875,0.155853271484375,-0.97998046875
20220120-1341,2022-01-20 13:41:32Z,u01, 135,40,movements,el-ex, rt, d,248186.039880875, 0.13565298136674958, -0.15540939362204692, 0.011757769413096234, -0.029563844203948975, -0.009898625314235687, 0.003927231300622225, 0.13360747694969177, 0.15478457510471344, -0.9788721799850464, 0.0024704784154891968, -0.0059655457735061646, 0.0013789534568786621, -0.07784393272958091, 0.06711351811657518, 0.9947038111712645,0.0005866267020345761,0.132537841796875,0.16070556640625,-0.97998046875
20220120-1341,2022-01-20 13:41:32Z,u01, 136,40,movements,el-ex, rt, d,248186.06482587502, 0.1352314939277704, -0.15638266943632786, 0.012106522771981007, -0.044295087456703186, -0.025019722059369087, 0.008245080709457397, 0.13317450881004333, 0.15574604272842407, -0.9787786602973938, 0.004230976104736328, -0.004348292946815491, -0.0018731355667114258, -0.07833949915933558, 0.06688482288516716, 0.994680214525461,0.0007434797815001337,0.131683349609375,0.1519012451171875,-0.9788360595703125
20220120-1341,2022-01-20 13:41:32Z,u01, 137,40,movements,el-ex, rt, d,248186.08977087503, 0.13475705551667, -0.15740927628961962, 0.012277895676315662, -0.01918577402830124, -0.011086929589509964, 0.0034760921262204647, 0.13268856704235077, 0.15676003694534302, -0.978682816028595, -0.0014323890209197998, 0.004647493362426758, 0.004638016223907471, -0.07885556511475733, 0.06663630540642981, 0.9946561055364748,0.0008125968872482736,0.1408233642578125,0.1437530517578125,-0.978515625
20220120-1341,2022-01-20 13:41:32Z,u01, 138,40,movements,el-ex, rt, d,248186.11471687502, 0.13446635961134512, -0.157570196576463, 0.01231849291972042, -0.009924930520355701, -0.009459804743528366, 0.002089583780616522, 0.13240067660808563, 0.1569189727306366, -0.978696346282959, -0.002670377492904663, 0.005175203084945679, 0.005643367767333984, -0.0789368277120421, 0.0664892199428144, 0.9946594005251121,0.0008388203679885464,0.13134765625,0.156524658203125,-0.9758758544921875
20220120-1341,2022-01-20 13:41:32Z,u01, 139,40,movements,el-ex, rt, d,248186.13966187503, 0.13455759027248884, -0.1572089360151905, 0.012260134704492255, 0.016573622822761536, -0.0025750668719410896, -0.003534546587616205, 0.13249756395816803, 0.1565621793270111, -0.9787403345108032, -0.0025536417961120605, 0.007286757230758667, 0.00031632184982299805, -0.07875526429213936, 0.06653894631801593, 0.9946705537683389,0.0008183895905300997,0.1301116943359375,0.1655426025390625,-0.974273681640625
20220120-1341,2022-01-20 13:41:32Z,u01, 140,40,movements,el-ex, rt, d,248186.164606875, 0.13470570786623515, -0.15649293881832954, 0.012163219620638632, 0.024282041937112808, 0.007740488275885582, 0.0024017062969505787, 0.13265755772590637, 0.1558549702167511, -0.9788315296173096, -0.000531613826751709, -0.007051199674606323, 0.0034134984016418457, -0.07839603422939811, 0.06662048665502489, 0.9946933905555034,0.0007885466512388417,0.1295318603515625,0.1605987548828125,-0.976593017578125
20220120-1341,2022-01-20 13:41:32Z,u01, 141,40,movements,el-ex, rt, d,248186.189552875, 0.1348002609258783, -0.156771633583199, 0.012178017966820135, -0.01595875434577465, 0.004024513065814972, 0.0024562343023717403, 0.13274426758289337, 0.15613025426864624, -0.9787759184837341, 0.00022089481353759766, -0.012911215424537659, 0.007081031799316406, -0.07853515774515804, 0.06666535003455865, 0.9946794748738785,0.000782778620103397,0.1343536376953125,0.163726806640625,-0.9792022705078125
20220120-1341,2022-01-20 13:41:32Z,u01, 142,40,movements,el-ex, rt, d,248186.21449787501, 0.13473015903848465, -0.15771933303506702, 0.012377551206584781, -0.031708456575870514, -0.004497935064136982, -0.0018730671145021915, 0.13265570998191833, 0.1570662558078766, -0.9786381721496582, 0.0008740276098251343, 0.0025559812784194946, 0.0005650520324707031, -0.07901306781226416, 0.06661722839730091, 0.9946447863609381,0.0008527398872972269,0.1326446533203125,0.1424407958984375,-0.972747802734375
20220120-1341,2022-01-20 13:41:33Z,u01, 143,40,movements,el-ex, rt, d,248186.23944287503, 0.13458728289233185, -0.15851103011554288, 0.01244250122538481, -0.016224738210439682, -0.007309501990675926, -0.0033410678151994944, 0.13249915838241577, 0.1578480750322342, -0.9785335659980774, -0.0018533319234848022, 0.010624244809150696, -0.001248478889465332, -0.07940886492556641, 0.0665390542833582, 0.9946185027679171,0.0008639574316588461,0.1339874267578125,0.15228271484375,-0.9740753173828125
20220120-1341,2022-01-20 13:41:33Z,u01, 144,40,movements,el-ex, rt, d,248186.264387875, 0.1344778199424057, -0.1577527795755034, 0.012310911790333496, 0.021601535379886627, 0.0055089592933654785, -0.0010239845141768456, 0.1324080526828766, 0.15709929168224335, -0.9786664247512817, -0.005149677395820618, 0.006078258156776428, 0.0036603212356567383, -0.07902737797648213, 0.06649417666254634, 0.9946518893665611,0.0008284390386827378,0.131988525390625,0.1646881103515625,-0.9780426025390625
20220120-1341,2022-01-20 13:41:33Z,u01, 145,40,movements,el-ex, rt, d,248186.28933387503, 0.13483353892149766, -0.15716649172250494, 0.012353724253536114, 0.012183667160570621, 0.0111713707447052, 0.00482964375987649, 0.13276854157447815, 0.15652024745941162, -0.9787103533744812, 0.00013560056686401367, -0.0053666383028030396, 0.002803981304168701, -0.07873738907290917, 0.06667274196353043, 0.9946629773088785,0.0008555037946552657,0.1301116943359375,0.1693115234375,-0.975860595703125
20220120-1341,2022-01-20 13:41:33Z,u01, 146,40,movements,el-ex, rt, d,248186.314278875, 0.13492986382033056, -0.1576773042431333, 0.012500453388897388, -0.020566720515489578, 0.001925075426697731, 0.0044633918441832066, 0.13285203278064728, 0.15702475607395172, -0.9786182045936584, -8.940696716308594e-06, -0.008343055844306946, -0.00035518407821655273, -0.0789963538797464, 0.06671193403333966, 0.9946396929679902,0.0009073941485386872,0.12921142578125,0.154998779296875,-0.97454833984375
20220120-1341,2022-01-20 13:41:33Z,u01, 147,40,movements,el-ex, rt, d,248186.33922387502, 0.13482360742525537, -0.15878664968144146, 0.012645671086619152, -0.030894827097654343, -0.0026757335290312767, -0.003600592724978924, 0.1327245533466339, 0.15812022984027863, -0.9784590601921082, -0.003452003002166748, 0.001868218183517456, -0.0011856555938720703, -0.07955279431109437, 0.06664691084081482, 0.9945997056256983,0.0009462892704432124,0.134429931640625,0.1454925537109375,-0.977813720703125
20220120-1341,2022-01-20 13:41:33Z,u01, 148,40,movements,el-ex, rt, d,248186.364169875, 0.13477174048295532, -0.15916833164370026, 0.012629427026170535, -0.007864309474825859, 0.008471524342894554, 0.0024360609240829945, 0.1326656937599182, 0.15849711000919342, -0.9784060716629028, -0.00296589732170105, 0.007091328501701355, 0.0020877718925476074, -0.07974202112491444, 0.06661954140470021, 0.9945864525121864,0.0009273697484867838,0.133087158203125,0.1569061279296875,-0.9799346923828125
20220120-1341,2022-01-20 13:41:33Z,u01, 149,40,movements,el-ex, rt, d,248186.38911487503, 0.13505392319830453, -0.15865122179106145, 0.012600394511831333, 0.00514250248670578, 0.015021968632936478, -0.002440852578729391, 0.13295279443264008, 0.15798650681972504, -0.9784497022628784, -0.0008878856897354126, 0.001818835735321045, 0.003626704216003418, -0.07948405335171783, 0.06676403821887, 0.9945973046530155,0.0009191999274527629,0.129425048828125,0.163055419921875,-0.976837158203125
20220120-1341,2022-01-20 13:41:33Z,u01, 150,40,movements,el-ex, rt, d,248186.414059875, 0.13535123704760882, -0.15860272322629357, 0.012653469746329596, -0.0164007730782032, 0.011405330151319504, 0.0038896813057363033, 0.13324472308158875, 0.157938614487648, -0.978417694568634, 0.004481181502342224, -0.006937593221664429, 0.0027097463607788086, -0.0794618480385573, 0.06691006418632119, 0.9945892548482306,0.00093542485657927,0.13018798828125,0.1622314453125,-0.9756317138671875
20220120-1341,2022-01-20 13:41:33Z,u01, 151,40,movements,el-ex, rt, d,248186.43900587503, 0.13533907212901894, -0.15935661824350875, 0.012830990968625935, -0.03643067181110382, -0.0004127137362957001, 0.004497680347412825, 0.1332167237997055, 0.15868301689624786, -0.9783011078834534, 0.004524454474449158, -0.0033790022134780884, 1.436471939086914e-05, -0.07984265204174319, 0.06689252817033406, 0.9945599378638075,0.0009985902039640893,0.133392333984375,0.15472412109375,-0.974761962890625
20220120-1341,2022-01-20 13:41:33Z,u01, 152,40,movements,el-ex, rt, d,248186.463950875, 0.13518958825568633, -0.16057100785327988, 0.01306667984699055, -0.04185812920331955, -0.006967151537537575, 0.003695403691381216, 0.13304440677165985, 0.15988188982009888, -0.9781293272972107, 0.00019541382789611816, -0.0005495548248291016, 0.0021466612815856934, -0.08045428168887714, 0.06680155615329932, 0.9945167541383245,0.0010805663016946743,0.137176513671875,0.1520233154296875,-0.9753875732421875
20220120-1341,2022-01-20 13:41:33Z,u01, 153,40,movements,el-ex, rt, d,248186.48889587502, 0.1351244482271853, -0.16119477190318873, 0.013316203046032328, -0.01749499887228012, -0.004009445197880268, 0.002841327805072069, 0.13296723365783691, 0.16049760580062866, -0.9780389666557312, 0.0008371621370315552, 0.00798998773097992, 0.0009119510650634766, -0.08077272777431843, 0.06675537413977138, 0.9944938530683378,0.0011861104381237775,0.135894775390625,0.1564483642578125,-0.9764862060546875
20220120-1341,2022-01-20 13:41:33Z,u01, 154,40,movements,el-ex, rt, d,248186.513841875, 0.13530823986373985, -0.16090998394801856, 0.013371787630737724, 0.005294635891914368, 0.005829136818647385, 0.0029428605921566486, 0.13315314054489136, 0.16021649539470673, -0.9780597686767578, -0.003193974494934082, 0.004273280501365662, 0.0014668107032775879, -0.08063309349136322, 0.06684623889562429, 0.9944990597159546,0.0012159981861130098,0.1334075927734375,0.1629180908203125,-0.9764404296875
20220120-1341,2022-01-20 13:41:33Z,u01, 155,40,movements,el-ex, rt, d,248186.53878687503, 0.13552270182097065, -0.160599007610073, 0.013371282853879916, 0.007162676192820072, 0.002068154513835907, 0.0005382262170314789, 0.13336962461471558, 0.15990953147411346, -0.9780805110931396, -0.00034342706203460693, 0.002337217330932617, 0.0008161067962646484, -0.08047859097769622, 0.0669547837813857, 0.9945041987786192,0.001217677191969968,0.1286468505859375,0.1695098876953125,-0.9755401611328125
20220120-1341,2022-01-20 13:41:33Z,u01, 156,40,movements,el-ex, rt, d,248186.563731875, 0.1356144250406095, -0.16083218348110181, 0.013314742504536996, -0.011150084435939789, 0.0035996045917272568, -0.0009514130651950836, 0.13345429301261902, 0.16013970971107483, -0.9780312776565552, -0.00039756298065185547, -0.0027452409267425537, 0.002216517925262451, -0.08059268560836941, 0.06700125850606165, 0.9944919368293111,0.0011779362278413474,0.1309814453125,0.162841796875,-0.977630615234375
20220120-1341,2022-01-20 13:41:33Z,u01, 157,40,movements,el-ex, rt, d,248186.58867687502, 0.13558282959561943, -0.16139585141308688, 0.013292941622285769, -0.005796364974230528, -0.00237978994846344, -0.0017751953564584255, 0.13341116905212402, 0.16069607436656952, -0.9779459238052368, 0.002025917172431946, 0.0008334964513778687, 0.002909362316131592, -0.08087219956811378, 0.0669830307802589, 0.9944704531079095,0.0011491891113950548,0.1334075927734375,0.158203125,-0.9779815673828125
20220120-1341,2022-01-20 13:41:33Z,u01, 158,40,movements,el-ex, rt, d,248186.613622875, 0.13546623297098018, -0.16167927729329848, 0.013203777458455326, -0.0032061408273875713, 0.003813723102211952, -0.006160822696983814, 0.13329097628593445, 0.16097581386566162, -0.9779163002967834, -0.0007225573062896729, -0.0005296021699905396, 0.004726052284240723, -0.08101006985531908, 0.06692695771330007, 0.9944630348924508,0.0010999326460138792,0.13470458984375,0.1589813232421875,-0.97760009765625
20220120-1341,2022-01-20 13:41:33Z,u01, 159,40,movements,el-ex, rt, d,248186.63856787502, 0.13545115158991458, -0.1616419950911649, 0.013115506068715758, -0.0014796131290495396, -0.0015847701579332352, -0.006134457420557737, 0.1332770437002182, 0.16093900799751282, -0.9779242873191833, 0.0017785727977752686, 0.0017197281122207642, 0.0010718703269958496, -0.08098857078168474, 0.06692325709415672, 0.9944650877464328,0.0010579194555191962,0.135162353515625,0.1643829345703125,-0.9725799560546875
20220120-1341,2022-01-20 13:41:33Z,u01, 160,40,movements,el-ex, rt, d,248186.663512875, 0.13548935634471565, -0.16156858545001693, 0.013101473451137737, -0.00432599987834692, -0.0014271112158894539, 0.002844922710210085, 0.13331599533557892, 0.16086655855178833, -0.9779309034347534, 0.0007172822952270508, -0.0012443065643310547, 0.00036132335662841797, -0.08095161158020084, 0.06694325304693322, 0.994466887965795,0.001051892071149807,0.135711669921875,0.1612396240234375,-0.975494384765625
20220120-1341,2022-01-20 13:41:33Z,u01, 161,40,movements,el-ex, rt, d,248186.68845887503, 0.13551769095309116, -0.16173829251079097, 0.01319140147786284, 0.0015699714422225952, -0.006071130745112896, -0.0006246436387300491, 0.1333400160074234, 0.16103404760360718, -0.9779000282287598, -0.0010157376527786255, -0.00049629807472229, 0.000895082950592041, -0.08103901681433465, 0.06695268335751088, 0.9944590664199294,0.0010896887310134495,0.1328582763671875,0.1596221923828125,-0.976837158203125
20220120-1341,2022-01-20 13:41:33Z,u01, 162,40,movements,el-ex, rt, d,248186.713403875, 0.13557161528314157, -0.1619083463650827, 0.013254065814201325, -0.006344642490148544, 0.0024366695433855057, 0.0007480164058506489, 0.13338905572891235, 0.16120189428329468, -0.9778656959533691, -0.0022854506969451904, -0.00028264522552490234, 0.0038514137268066406, -0.08112569453272778, 0.06697593162502447, 0.9944504005580859,0.001112876494998749,0.1331024169921875,0.160400390625,-0.9766845703125
20220120-1341,2022-01-20 13:41:33Z,u01, 163,40,movements,el-ex, rt, d,248186.73834887502, 0.13561616541740443, -0.16202979056575706, 0.013317579851455931, -0.0008805692195892334, 0.000978989526629448, 0.001483181957155466, 0.13342995941638947, 0.1613217443227768, -0.9778403639793396, -0.0004953145980834961, 0.0006961226463317871, 0.0012320876121520996, -0.0811882287000294, 0.06699477288102273, 0.9944439826856958,0.0011385166320248552,0.131591796875,0.1606597900390625,-0.97418212890625
20220120-1341,2022-01-20 13:41:33Z,u01, 164,40,movements,el-ex, rt, d,248186.763294875, 0.13569177572797078, -0.16204159923485428, 0.013366408066306389, -0.004585258662700653, 0.006473422050476074, 0.00561407720670104, 0.13350364565849304, 0.16133339703083038, -0.9778283834457397, -0.0004011392593383789, 0.002393469214439392, 0.001311659812927246, -0.08119577897868306, 0.06703031391290136, 0.9944409508180923,0.0011593235926138368,0.1329193115234375,0.16119384765625,-0.975433349609375
20220120-1341,2022-01-20 13:41:33Z,u01, 165,40,movements,el-ex, rt, d,248186.78823987502, 0.13572778220679968, -0.16222839967271258, 0.013330514753400802, -0.007500688545405865, 0.007579566910862923, -0.0007094652391970158, 0.133534774184227, 0.16151773929595947, -0.9777936935424805, -0.0008595287799835205, -0.0029330849647521973, 0.0023298263549804688, -0.08128746759459143, 0.06704854018279051, 0.9944322933359451,0.0011336522633720314,0.132110595703125,0.164398193359375,-0.9767913818359375
20220120-1341,2022-01-20 13:41:33Z,u01, 166,40,movements,el-ex, rt, d,248186.8131855, 0.13574826535257897, -0.16239891417665786, 0.01327436976833462, -0.006008218973875046, 0.0031928736716508865, -0.0005099279806017876, 0.13355107605457306, 0.1616860181093216, -0.9777636528015137, -2.1323561668395996e-05, 0.0028342902660369873, 0.002452373504638672, -0.08137037260641704, 0.06705997515453435, 0.9944247813065016,0.0010990946558331882,0.130859375,0.1593475341796875,-0.9735260009765625
20220120-1341,2022-01-20 13:41:33Z,u01, 167,40,movements,el-ex, rt, d,248186.8381315, 0.13583828878195, -0.16264425274931046, 0.01322243312367041, -0.007546793669462204, 0.007378431037068367, -0.00231408653780818, 0.13363371789455414, 0.16192813217639923, -0.9777122735977173, 0.001498207449913025, -0.0021838098764419556, 0.0005852580070495605, -0.0814906580385463, 0.0671053692454086, 0.9944118713739487,0.0010612449668583324,0.134796142578125,0.1629180908203125,-0.9746856689453125
20220120-1341,2022-01-20 13:41:33Z,u01, 168,40,movements,el-ex, rt, d,248186.8630765, 0.1358197488592986, -0.16284979583710138, 0.01318835507149351, -0.011979159899055958, 0.002002442255616188, 0.0012392359785735607, 0.13361108303070068, 0.1621309518814087, -0.9776817560195923, 0.0017497241497039795, -0.002646028995513916, 0.0036675333976745605, -0.08159168916366347, 0.06709629471103998, 0.9944042865729087,0.0010380516247445737,0.1331634521484375,0.1593170166015625,-0.9764556884765625
20220120-1341,2022-01-20 13:41:33Z,u01, 169,40,movements,el-ex, rt, d,248186.88802150002, 0.1358874335351132, -0.1631066393244547, 0.013283971670909524, -0.0004380177706480026, 0.0031844843178987503, 0.004515590611845255, 0.1336716115474701, 0.16238439083099365, -0.9776314496994019, -0.0004470348358154297, 0.003036201000213623, 0.0026406049728393555, -0.08172263245784529, 0.06712449389905958, 0.9943915172880557,0.0010740713932168577,0.136749267578125,0.16314697265625,-0.9756622314453125
20220120-1341,2022-01-20 13:41:33Z,u01, 170,40,movements,el-ex, rt, d,248186.9129665, 0.13588326264176015, -0.16295808761397637, 0.01334833998743143, 0.009326627478003502, -0.0033324696123600006, -0.0015318491496145725, 0.13367079198360443, 0.16223780810832977, -0.9776558876037598, 0.0009118020534515381, 0.0029233694076538086, -0.0005850791931152344, -0.08165093845666042, 0.06712069509370708, 0.994397597528791,0.0011113111910621143,0.133392333984375,0.1636810302734375,-0.9747467041015625
20220120-1341,2022-01-20 13:41:33Z,u01, 171,40,movements,el-ex, rt, d,248186.93791250003, 0.13596130805050904, -0.1628622166354061, 0.013369909958287629, -0.0042951409704983234, 0.0016775354743003845, 0.002024069894105196, 0.13374920189380646, 0.16214321553707123, -0.9776608347892761, -0.003683224320411682, -0.0027193427085876465, -0.0008547306060791016, -0.08160404626591553, 0.06715920495013894, 0.9943987913020362,0.0011221203741186847,0.135498046875,0.1659698486328125,-0.9781951904296875
20220120-1341,2022-01-20 13:41:33Z,u01, 172,40,movements,el-ex, rt, d,248186.9628575, 0.13589440128962857, -0.16332065945947316, 0.013491224838914016, -0.027355119585990906, -0.007816500961780548, 0.0013743913732469082, 0.13367371261119843, 0.16259557008743286, -0.9775960445404053, 0.003411322832107544, -0.00428558886051178, 0.002178013324737549, -0.08183599292762156, 0.06711817882473622, 0.994382518983148,0.0011695323108260602,0.13238525390625,0.163238525390625,-0.97589111328125
20220120-1341,2022-01-20 13:41:33Z,u01, 173,40,movements,el-ex, rt, d,248186.98780250002, 0.13584408170794307, -0.16389319092001856, 0.013518113591019502, -0.006592649966478348, -6.976351141929626e-05, -0.007575027644634247, 0.13361188769340515, 0.16316045820713043, -0.977510392665863, -0.0013638883829116821, 0.0029467642307281494, 0.003953874111175537, -0.08212149978672603, 0.06708854936164846, 0.994360973990114,0.001165438916750916,0.1380462646484375,0.156341552734375,-0.9765777587890625
20220120-1341,2022-01-20 13:41:33Z,u01, 174,40,movements,el-ex, rt, d,248187.0127485, 0.13587103762912847, -0.16359109350149437, 0.0133652214569512, 0.025813128799200058, 0.007801273837685585, -0.004693154711276293, 0.13364490866661072, 0.1628623902797699, -0.9775555729866028, -0.0018088817596435547, 0.008982136845588684, 0.002976715564727783, -0.08196619492111522, 0.067110067937865, 0.9943724614913843,0.0010986191251958766,0.133880615234375,0.1629180908203125,-0.97601318359375
20220120-1341,2022-01-20 13:41:33Z,u01, 175,40,movements,el-ex, rt, d,248187.03769350002, 0.1361758490605059, -0.1626148120137283, 0.013267192721975471, 0.02877652645111084, 0.015576574951410294, -0.0016593481414020061, 0.1339643895626068, 0.16189907491207123, -0.9776718616485596, -0.0008008629083633423, 0.0031095296144485474, 0.0019791126251220703, -0.08147770921225407, 0.06727156360486908, 0.994401637790062,0.0010707509618400057,0.131011962890625,0.1716156005859375,-0.9713134765625
20220120-1341,2022-01-20 13:41:33Z,u01, 176,40,movements,el-ex, rt, d,248187.0626385, 0.1364103826554713, -0.1622260131295177, 0.013249473311795532, -0.0005132853984832764, 0.0039021391421556473, 0.00012476975098252296, 0.13420222699642181, 0.16151538491249084, -0.9777026772499084, 0.0032337456941604614, -0.006516575813293457, 0.0011554956436157227, -0.08128393593761818, 0.06739124716437492, 0.9944094503732834,0.0010656958676565353,0.1321868896484375,0.169281005859375,-0.9736480712890625
20220120-1341,2022-01-20 13:41:33Z,u01, 177,40,movements,el-ex, rt, d,248187.08758450003, 0.13628706020703646, -0.16283830455449602, 0.013271600969837935, -0.01755119115114212, -0.006855565123260021, 0.00519289867952466, 0.13406820595264435, 0.16211961209774017, -0.9776210784912109, 0.002040281891822815, -0.006357848644256592, 0.0020503997802734375, -0.08158902572092765, 0.06732532015485794, 0.9943889179863821,0.0010607687897494777,0.1355133056640625,0.15972900390625,-0.9771881103515625
20220120-1341,2022-01-20 13:41:33Z,u01, 178,40,movements,el-ex, rt, d,248187.1125295, 0.13616628618717624, -0.16352533872936978, 0.013436366797773103, -0.010152263566851616, 0.0004899650812149048, 0.004030694719403982, 0.13393497467041016, 0.16279752552509308, -0.9775266647338867, -0.002358376979827881, 0.004179447889328003, 0.0015287995338439941, -0.08193606013569446, 0.06725434812498143, 0.9943651552967923,0.001124138051399881,0.137847900390625,0.15118408203125,-0.9766845703125
20220120-1341,2022-01-20 13:41:33Z,u01, 179,40,movements,el-ex, rt, d,248187.13747450002, 0.1362718139648509, -0.1634415389727371, 0.013492623089079281, 0.005625166930258274, 0.0019436534494161606, -0.005413806065917015, 0.1340399831533432, 0.16271483898162842, -0.9775260090827942, 0.0006341636180877686, 0.007649600505828857, 0.003649115562438965, -0.08189635955155193, 0.06730502992106865, 0.9943648745468343,0.0011506495241470072,0.1340484619140625,0.16326904296875,-0.976898193359375
20220120-1341,2022-01-20 13:41:33Z,u01, 180,40,movements,el-ex, rt, d,248187.1624205, 0.13647145706696284, -0.16264685770712908, 0.013359176185022081, 0.01683824136853218, 0.003838157281279564, -0.004962733015418053, 0.13425268232822418, 0.16193069517612457, -0.9776270389556885, -0.0011807084083557129, 0.0005449354648590088, 0.003597557544708252, -0.08149689640329938, 0.06741459481881085, 0.9943903747686418,0.0011033448123924372,0.1322174072265625,0.168548583984375,-0.97509765625
20220120-1341,2022-01-20 13:41:33Z,u01, 181,40,movements,el-ex, rt, d,248187.18736550002, 0.13665874602382572, -0.16236393353007794, 0.013287008928621795, 0.005504892207682133, 0.004837909713387489, -0.0005773063749074936, 0.1344420164823532, 0.16165149211883545, -0.9776472449302673, -0.0008359849452972412, -0.005172565579414368, 0.004258573055267334, -0.08135389966802811, 0.0675123681952013, 0.9943955566382093,0.001069535299155988,0.13372802734375,0.166748046875,-0.97613525390625
20220120-1341,2022-01-20 13:41:33Z,u01, 182,40,movements,el-ex, rt, d,248187.2123105, 0.13677274903622186, -0.16299786682875567, 0.013281430516362916, -0.019371163100004196, 0.004730848595499992, -0.004177100490778685, 0.13453947007656097, 0.16227705776691437, -0.9775301814079285, 0.0007602870464324951, -0.008392125368118286, -0.0004055500030517578, -0.08166893738116524, 0.06756542727114372, 0.9943661137701241,0.0010403661332085146,0.1320953369140625,0.1590118408203125,-0.97406005859375
20220120-1341,2022-01-20 13:41:34Z,u01, 183,40,movements,el-ex, rt, d,248187.23725550002, 0.13686784877898775, -0.16361746410169908, 0.013314055902992939, -0.012372741475701332, 0.004083767533302307, -0.0027197529561817646, 0.13461868464946747, 0.16288842260837555, -0.9774175882339478, 0.003030925989151001, -0.00021441280841827393, -0.0011590123176574707, -0.0819781172348537, 0.06760760019911355, 0.9943377887481344,0.0010314222966649744,0.1350555419921875,0.1526031494140625,-0.9741973876953125
20220120-1341,2022-01-20 13:41:34Z,u01, 184,40,movements,el-ex, rt, d,248187.2622015, 0.1369260289300966, -0.16363050142916313, 0.013339861372597054, -0.003808247856795788, 0.006443129852414131, 0.004464989993721247, 0.1346752643585205, 0.16290128231048584, -0.9774076342582703, 0.00021252036094665527, -0.0008223652839660645, 0.004629373550415039, -0.08198550186793582, 0.06763538869168736, 0.9943352709648202,0.001041419127674914,0.13720703125,0.1598663330078125,-0.9789276123046875
20220120-1341,2022-01-20 13:41:34Z,u01, 185,40,movements,el-ex, rt, d,248187.28714650002, 0.13709948397906205, -0.16328625033089497, 0.013381330961929514, 0.0034821219742298126, 0.006772229447960854, -0.002228399273008108, 0.13485245406627655, 0.16256161034107208, -0.9774397611618042, 0.0009203255176544189, 0.003667682409286499, 0.0003737807273864746, -0.08181585525165846, 0.06772202989402923, 0.994343356208353,0.0010667704122473975,0.134735107421875,0.1638946533203125,-0.9758148193359375
20220120-1341,2022-01-20 13:41:34Z,u01, 186,40,movements,el-ex, rt, d,248187.3120915, 0.13733503596815555, -0.16300475788394495, 0.01344156727329435, -0.004709894768893719, 0.007726438343524933, -0.0006925538182258606, 0.1350889503955841, 0.16228386759757996, -0.9774532914161682, 0.0015078186988830566, 5.4448843002319336e-05, 0.0008450150489807129, -0.08167808986475068, 0.06783840693912882, 0.9943466491242989,0.0010967829892537528,0.1360321044921875,0.164459228515625,-0.976715087890625
20220120-1341,2022-01-20 13:41:34Z,u01, 187,40,movements,el-ex, rt, d,248187.33703750002, 0.1374061138444437, -0.16313382989977787, 0.01346541470906049, -0.0022611855529248714, 0.0017898548394441605, 0.0005190512165427208, 0.1351555585861206, 0.16241122782230377, -0.9774228930473328, 0.0014411956071853638, -0.0002865344285964966, 0.002126932144165039, -0.08174310422701433, 0.06787197827820274, 0.9943390088911673,0.0011012856792945724,0.134521484375,0.162384033203125,-0.976593017578125
20220120-1341,2022-01-20 13:41:34Z,u01, 188,40,movements,el-ex, rt, d,248187.3619825, 0.13746093547589053, -0.16335450714842095, 0.013463675413323602, -0.007543631363660097, 0.0030906740576028824, 0.0029208227060735226, 0.1352042257785797, 0.16262896358966827, -0.9773799777030945, 6.501376628875732e-05, -0.0009162873029708862, 0.004327058792114258, -0.08185277659046186, 0.06789794560588183, 0.9943282711291948,0.0010905680969577336,0.1367340087890625,0.1626129150390625,-0.977264404296875
20220120-1341,2022-01-20 13:41:34Z,u01, 189,40,movements,el-ex, rt, d,248187.38692750002, 0.1374890184717016, -0.16353509447327003, 0.01350302658108366, -0.003609110601246357, -0.001427709124982357, -0.0032316786237061024, 0.13522765040397644, 0.1628071516752243, -0.9773470759391785, 0.0010334104299545288, 0.0011790990829467773, 0.002829313278198242, -0.08194390480374014, 0.06790918646005242, 0.9943199549071966,0.0011027513222921503,0.136749267578125,0.1628265380859375,-0.9748992919921875
20220120-1341,2022-01-20 13:41:34Z,u01, 190,40,movements,el-ex, rt, d,248187.4118735, 0.1374928352215193, -0.1636127934523974, 0.013477675658256822, -0.006317345425486565, -0.002852635458111763, 0.0006042062304913998, 0.13522964715957642, 0.16288380324840546, -0.9773340225219727, -0.00014351308345794678, -0.00031663477420806885, 0.00028330087661743164, -0.08198167056122244, 0.06791164325047153, 0.9943167074807822,0.0010873106290572032,0.135498046875,0.1618804931640625,-0.97393798828125
20220120-1341,2022-01-20 13:41:34Z,u01, 191,40,movements,el-ex, rt, d,248187.43681850002, 0.13743970812256184, -0.16375915158458404, 0.013478878403137997, -0.0026229755021631718, -0.006663285195827484, 0.0023606265895068645, 0.1351744532585144, 0.16302821040153503, -0.9773175716400146, -2.726912498474121e-05, 0.0005002915859222412, 0.0018232464790344238, -0.08205443943141716, 0.06788427970492614, 0.9943125832350919,0.0010850381942857368,0.1342620849609375,0.1645965576171875,-0.976287841796875
20220120-1341,2022-01-20 13:41:34Z,u01, 192,40,movements,el-ex, rt, d,248187.4617635, 0.1374348958799638, -0.16381371317695761, 0.013525229856931038, -0.005419561173766851, -0.0034997155889868736, 0.001749697607010603, 0.13516852259635925, 0.1630820333957672, -0.9773094058036804, 0.0001770108938217163, -0.00014863908290863037, 0.0012810230255126953, -0.08208313090716302, 0.0678796467871865, 0.9943105397768791,0.0011063979490245623,0.134490966796875,0.1655731201171875,-0.9777069091796875
20220120-1341,2022-01-20 13:41:34Z,u01, 193,40,movements,el-ex, rt, d,248187.48670950002, 0.13737850067376256, -0.16397977026866742, 0.013601246687904953, -0.013148020952939987, -0.002494571730494499, 0.0024650893174111843, 0.13510970771312714, 0.16324587166309357, -0.9772902131080627, 0.0006783455610275269, 0.0005725324153900146, 0.0019178986549377441, -0.08216823512986857, 0.06784746733316019, 0.9943055849651145,0.0011407783513115999,0.1352081298828125,0.1636810302734375,-0.97491455078125
20220120-1341,2022-01-20 13:41:34Z,u01, 194,40,movements,el-ex, rt, d,248187.5116545, 0.13729909840705443, -0.16423362720788678, 0.013690100323772013, -0.006475970149040222, -0.005352344363927841, 0.004793290514498949, 0.13502642512321472, 0.16349631547927856, -0.9772598743438721, 0.0018449872732162476, 0.0005357116460800171, 2.5987625122070312e-05, -0.08229738888018044, 0.0678027570592637, 0.9942980156193783,0.0011794672887011637,0.1359405517578125,0.163482666015625,-0.97540283203125
20220120-1341,2022-01-20 13:41:34Z,u01, 195,40,movements,el-ex, rt, d,248187.53659950002, 0.13717498885291823, -0.1644314384898924, 0.013746194369991865, -0.007383908610790968, -0.0022259261459112167, 0.002701245713979006, 0.13490071892738342, 0.1636914610862732, -0.9772445559501648, 0.0002617090940475464, -0.0010479837656021118, 0.0028641223907470703, -0.08239755288809772, 0.06773751827804356, 0.9942940943093482,0.0012056500282808802,0.13433837890625,0.1614990234375,-0.9768829345703125
20220120-1341,2022-01-20 13:41:34Z,u01, 196,40,movements,el-ex, rt, d,248187.56154450003, 0.1371248550247282, -0.16457817819285694, 0.013830965874425335, -0.0062989359721541405, -0.006578330881893635, 0.004933506716042757, 0.1348484307527542, 0.16383622586727142, -0.977227509021759, 0.000512346625328064, 0.0005162209272384644, 0.0030606985092163086, -0.08247333928813248, 0.0677081853951618, 0.9942897453993715,0.001244808353085991,0.13671875,0.1634674072265625,-0.974578857421875
20220120-1341,2022-01-20 13:41:34Z,u01, 197,40,movements,el-ex, rt, d,248187.58649050002, 0.13703139205437775, -0.16458302514475637, 0.013946898493443632, -0.00022742897272109985, -0.004167303442955017, 0.0019529634155333042, 0.13475699722766876, 0.16384100914001465, -0.9772393107414246, 0.00031387805938720703, 0.000999733805656433, 0.0009667873382568359, -0.08247960981548397, 0.06765690735921207, 0.9942926686902954,0.001306131528078458,0.138031005859375,0.1634979248046875,-0.9752044677734375
20220120-1341,2022-01-20 13:41:34Z,u01, 198,40,movements,el-ex, rt, d,248187.6114355, 0.13698272181442483, -0.16467018479784568, 0.014033515679190742, -0.007377084344625473, -0.005097812041640282, 0.0017755976878106594, 0.1347074806690216, 0.16392698884010315, -0.9772317409515381, 0.00034815073013305664, -0.000612109899520874, 0.001432180404663086, -0.08252583330623728, 0.06762858863678248, 0.9942907198799474,0.001348202909463303,0.133453369140625,0.1644134521484375,-0.973419189453125
20220120-1341,2022-01-20 13:41:34Z,u01, 199,40,movements,el-ex, rt, d,248187.63638050001, 0.1368887813565004, -0.16479937058716815, 0.014092152259962172, -0.005148650612682104, -0.005862873047590256, -0.0030758166685700417, 0.1346127837896347, 0.16405442357063293, -0.9772233963012695, -0.0006252825260162354, 0.0012898743152618408, 0.0005998611450195312, -0.08259196939056375, 0.06757865029828801, 0.9942885951254739,0.0013767904252666163,0.1352081298828125,0.1627349853515625,-0.9769134521484375
20220120-1341,2022-01-20 13:41:34Z,u01, 200,40,movements,el-ex, rt, d,248187.6613265, 0.13679462014473567, -0.16500265742380324, 0.014145344940442603, -0.006747213192284107, -0.0023046238347887993, 0.002798583824187517, 0.13451622426509857, 0.16425494849681854, -0.9772030115127563, -0.0004218965768814087, 0.0006315708160400391, 0.0023800134658813477, -0.08269475350007449, 0.0675283536001201, 0.994283457404295,0.001400141621260953,0.1339111328125,0.1629638671875,-0.9756317138671875
20220120-1341,2022-01-20 13:41:34Z,u01, 201,40,movements,el-ex, rt, d,248187.68627150002, 0.13675297471761808, -0.1652296500450473, 0.014206681142080431, -0.004103959538042545, 0.0020239464938640594, -0.00041704997420310974, 0.13447043299674988, 0.1644788533449173, -0.9771716594696045, -0.0004676729440689087, 0.0018267333507537842, 0.0017230510711669922, -0.0828096383815794, 0.06750367729275025, 0.9942754682946657,0.0014245615428659097,0.134521484375,0.1630706787109375,-0.9754791259765625
20220120-1341,2022-01-20 13:41:34Z,u01, 202,40,movements,el-ex, rt, d,248187.71121650003, 0.13664714181315493, -0.16525835781664033, 0.014186760801010383, 0.0032517248764634132, -0.008572705090045929, -5.525071173906326e-06, 0.13436637818813324, 0.1645071804523468, -0.9771811962127686, 0.0004145801067352295, 0.004682332277297974, 0.0012137889862060547, -0.08282316171018314, 0.0674517063874384, 0.994277877754755,0.0014180553770832272,0.1328582763671875,0.1649322509765625,-0.9753875732421875
20220120-1341,2022-01-20 13:41:34Z,u01, 203,40,movements,el-ex, rt, d,248187.73616250002, 0.13662076818309957, -0.1652423077302816, 0.014202866699198733, -0.008325801230967045, -0.0032431213185191154, -0.0014334460720419884, 0.13434095680713654, 0.16449134051799774, -0.9771873354911804, -0.0012842565774917603, -0.000840798020362854, 0.0029137134552001953, -0.0828157103849455, 0.06743803212876358, 0.994279378760591,0.0014277046733507937,0.134796142578125,0.1643218994140625,-0.97674560546875
20220120-1341,2022-01-20 13:41:34Z,u01, 204,40,movements,el-ex, rt, d,248187.7611075, 0.13646928655719215, -0.1656196222848222, 0.014238643098417492, -0.01624128222465515, -0.00548130739480257, 0.0014980952255427837, 0.13418447971343994, 0.16486351191997528, -0.9771461486816406, 0.00042863190174102783, -0.0025709718465805054, 0.001056671142578125, -0.08300436463503502, 0.06735884106006543, 0.9942690566287746,0.0014388343444327045,0.134490966796875,0.1651153564453125,-0.9755401611328125
20220120-1341,2022-01-20 13:41:34Z,u01, 205,40,movements,el-ex, rt, d,248187.7860525, 0.1363867563276584, -0.16594049088386675, 0.014345309086656472, -0.00945957563817501, 0.0003506820648908615, 0.001424791757017374, 0.1340966373682022, 0.16517998278141022, -0.9771047234535217, -0.00018543004989624023, 0.0008051842451095581, 0.001045823097229004, -0.08316740197503975, 0.06731134042701267, 0.9942585183934234,0.0014842970685612356,0.13555908203125,0.162933349609375,-0.9763336181640625
20220120-1341,2022-01-20 13:41:34Z,u01, 206,40,movements,el-ex, rt, d,248187.8109985, 0.13627807681370072, -0.16607573214117455, 0.014440299983222236, 0.00424791406840086, -0.010458690114319324, 0.0035887439735233784, 0.1339874118566513, 0.16531336307525635, -0.9770971536636353, 0.004318311810493469, 0.004227086901664734, 3.11732292175293e-05, -0.08323774189515937, 0.06725249484288284, 0.9942565494861697,0.0015314109084549332,0.131805419921875,0.163665771484375,-0.97601318359375
20220120-1341,2022-01-20 13:41:34Z,u01, 207,40,movements,el-ex, rt, d,248187.83594350002, 0.13603539298409453, -0.16574412691924043, 0.014451725407306335, 0.003440476953983307, -0.00788414478302002, 0.00041165854781866074, 0.13375771045684814, 0.16498631238937378, -0.9771839380264282, -0.0018759071826934814, -0.001137375831604004, 0.0015217065811157227, -0.08307309268099239, 0.0671334932665178, 0.9942784025844031,0.0015585207005975321,0.136993408203125,0.168548583984375,-0.97735595703125
20220120-1341,2022-01-20 13:41:34Z,u01, 208,40,movements,el-ex, rt, d,248187.86088850003, 0.13577660468487476, -0.16609846481065552, 0.01457226005093615, -0.0321444496512413, -0.022055158391594887, 0.0011697947047650814, 0.13349689543247223, 0.1653357744216919, -0.9771605134010315, 0.006334736943244934, -0.00995546579360962, 0.00026232004165649414, -0.08325307087309272, 0.06699755403781768, 0.994272406474128,0.0016171091674574423,0.1331024169921875,0.167633056640625,-0.97576904296875
20220120-1341,2022-01-20 13:41:34Z,u01, 209,40,movements,el-ex, rt, d,248187.8858335, 0.1352971337654129, -0.16700306991623942, 0.01472228446820638, -0.020348776131868362, -0.01984580047428608, -0.0007660570554435253, 0.13300813734531403, 0.16622786223888397, -0.9770758152008057, -0.00010399520397186279, 0.0009169578552246094, 0.001383066177368164, -0.0837073619686925, 0.06674709150277539, 0.9942509988317134,0.0016809077446258147,0.1370697021484375,0.1540069580078125,-0.9756011962890625
20220120-1341,2022-01-20 13:41:34Z,u01, 210,40,movements,el-ex, rt, d,248187.9107795, 0.13523075277170335, -0.16711599976703528, 0.014765618283577746, 0.01583116687834263, -0.0006535295397043228, -0.0016204658895730972, 0.13294073939323425, 0.1663392186164856, -0.9770660400390625, -0.00450742244720459, 0.009594663977622986, 0.0057373046875, -0.08376488853835432, 0.06671154636873891, 0.9942484889219043,0.0017013919882020723,0.137298583984375,0.1595458984375,-0.9759674072265625
20220120-1341,2022-01-20 13:41:34Z,u01, 211,40,movements,el-ex, rt, d,248187.9357245, 0.13541395197322248, -0.16620039384930022, 0.01468287957998917, 0.02630980685353279, 0.013798180967569351, 0.0020640832372009754, 0.13314023613929749, 0.1654362976551056, -0.9771921634674072, -0.00180777907371521, 0.004363536834716797, 0.003116905689239502, -0.0833071378093493, 0.06681199997091126, 0.9942802877728326,0.0016837320834431901,0.1284332275390625,0.175262451171875,-0.972625732421875
20220120-1341,2022-01-20 13:41:34Z,u01, 212,40,movements,el-ex, rt, d,248187.96066950003, 0.1357252544341655, -0.16550768049091413, 0.01463163107616843, 0.0024276431649923325, 0.003527699038386345, -0.00014447513967752457, 0.1334599107503891, 0.16475309431552887, -0.9772639870643616, -0.00031162798404693604, -0.003864377737045288, 0.0023189187049865723, -0.08296134190354011, 0.0669733653812284, 0.9942982797013893,0.001668901621128649,0.129852294921875,0.1717987060546875,-0.9731292724609375
20220120-1341,2022-01-20 13:41:34Z,u01, 213,40,movements,el-ex, rt, d,248187.98561550002, 0.135570661510142, -0.16599909529746973, 0.014595442368722091, -0.01158005092293024, -0.008424300700426102, 0.0018259971402585506, 0.1332978755235672, 0.16523776948451996, -0.9772042632102966, 0.0024901628494262695, -0.006042793393135071, 0.00033664703369140625, -0.0832042872270313, 0.06689484994223246, 0.9942833135433664,0.0016405898312144562,0.133270263671875,0.1647491455078125,-0.974517822265625
20220120-1341,2022-01-20 13:41:34Z,u01, 214,40,movements,el-ex, rt, d,248188.01056050003, 0.13527959050246574, -0.16656457305344136, 0.014689567700601449, -0.0021676411852240562, -0.005014123395085335, 0.003018560353666544, 0.13300080597400665, 0.1657954603433609, -0.9771502614021301, -0.0016072988510131836, 0.0034856051206588745, -9.888410568237305e-05, -0.08348828930311786, 0.066742579436147, 0.9942696538745563,0.001680277526947327,0.13751220703125,0.1584930419921875,-0.9757537841796875
20220120-1341,2022-01-20 13:41:34Z,u01, 215,40,movements,el-ex, rt, d,248188.0355055, 0.1351659466920734, -0.16657745814642513, 0.014723131504712756, 0.0051424698904156685, -0.005232236348092556, 0.0014323820360004902, 0.13288947939872742, 0.16580815613269806, -0.9771632552146912, -0.0005193948745727539, 0.0037628114223480225, 0.002828538417816162, -0.08349571350591883, 0.06668459515740296, 0.9942729376518276,0.0017012703024679166,0.133575439453125,0.16436767578125,-0.9761810302734375
20220120-1341,2022-01-20 13:41:34Z,u01, 216,40,movements,el-ex, rt, d,248188.0604515, 0.135137270539015, -0.1660188113314483, 0.014729847681793083, 0.016985513269901276, -0.0027672816067934036, 0.0010381671600043774, 0.13287390768527985, 0.16525721549987793, -0.9772586822509766, -0.000793755054473877, 0.003764435648918152, 0.002954542636871338, -0.08321820459589055, 0.06667366715361284, 0.9942969459401555,0.0017247707594145734,0.1324462890625,0.1688079833984375,-0.975067138671875
20220120-1341,2022-01-20 13:41:34Z,u01, 217,40,movements,el-ex, rt, d,248188.0853965, 0.13514215210174593, -0.1656030213213821, 0.014681973466826589, 0.00884496234357357, 0.0023205559700727463, 0.004107061307877302, 0.13288792967796326, 0.16484713554382324, -0.9773260354995728, -0.004118919372558594, -0.002768218517303467, 0.0031439661979675293, -0.08300992002204671, 0.06668076683348537, 0.9943138817698739,0.0017148814068360663,0.1332855224609375,0.1692962646484375,-0.9754638671875
20220120-1341,2022-01-20 13:41:34Z,u01, 218,40,movements,el-ex, rt, d,248188.11034150003, 0.13518869698869213, -0.16582751566116558, 0.014694174488572562, -0.00816075224429369, 0.0004422944039106369, 0.00041785091161727905, 0.13292843103408813, 0.16506855189800262, -0.9772831797599792, 0.0003419220447540283, -0.006773829460144043, 0.002139747142791748, -0.08312196946140608, 0.06670195591640629, 0.9943030627109308,0.0017113915824930048,0.1324310302734375,0.1674041748046875,-0.974578857421875
20220120-1341,2022-01-20 13:41:34Z,u01, 219,40,movements,el-ex, rt, d,248188.13528750002, 0.13528731068774952, -0.16628285261637712, 0.014799224784886487, -0.01078712847083807, 0.003370240330696106, 0.004335427191108465, 0.13301464915275574, 0.1655176281929016, -0.9771955013275146, 0.0004998445510864258, -0.002736806869506836, 0.00040411949157714844, -0.08335190787686846, 0.06674366331847853, 0.9942809763522868,0.0017440444696395496,0.131500244140625,0.158203125,-0.97491455078125
20220120-1341,2022-01-20 13:41:34Z,u01, 220,40,movements,el-ex, rt, d,248188.16023250003, 0.13527077210424676, -0.1664719049833137, 0.014833701273433619, 0.004378908313810825, 0.0027643702924251556, 0.002922621089965105, 0.13299426436424255, 0.16570407152175903, -0.9771666526794434, 0.0004591941833496094, 0.0010135173797607422, 0.0019317269325256348, -0.08344702113475214, 0.06673277650856657, 0.9942737102106224,0.001755449114955121,0.1334228515625,0.161590576171875,-0.976470947265625
20220120-1341,2022-01-20 13:41:34Z,u01, 221,40,movements,el-ex, rt, d,248188.1851775, 0.13526384152143894, -0.16610647696958236, 0.014917985062404401, 0.006821959279477596, -0.00037176720798015594, 0.0034110439009964466, 0.13299565017223358, 0.16534367203712463, -0.977227509021759, 0.0008545219898223877, 0.001907944679260254, 0.0010617971420288086, -0.08326817222486799, 0.06672819408895006, 0.9942889259576252,0.0018100567918639676,0.135040283203125,0.167144775390625,-0.9786224365234375
20220120-1341,2022-01-20 13:41:34Z,u01, 222,40,movements,el-ex, rt, d,248188.21012250002, 0.135288431480315, -0.16570127351895797, 0.014946256102881316, 0.0015039918944239616, -0.002613149583339691, 0.0013158689253032207, 0.13302870094776154, 0.16494403779506683, -0.9772905707359314, -0.0006738752126693726, -0.002865135669708252, 0.0033068060874938965, -0.08306770783602407, 0.06674188119467403, 0.9943047358520356,0.0018368599629782212,0.13348388671875,0.16705322265625,-0.9754791259765625
20220120-1341,2022-01-20 13:41:35Z,u01, 223,40,movements,el-ex, rt, d,248188.2350685, 0.13532008370495138, -0.1659280204956705, 0.015037984602501575, -0.011833583936095238, -0.0015046093612909317, 0.003912850748747587, 0.13305458426475525, 0.1651676744222641, -0.977249264717102, 0.0003683418035507202, -0.0023258328437805176, 0.005096554756164551, -0.08318351916789005, 0.06675232725745427, 0.9942942488751603,0.0018734390892600206,0.1329803466796875,0.1650390625,-0.9764404296875
20220120-1341,2022-01-20 13:41:35Z,u01, 224,40,movements,el-ex, rt, d,248188.26001350002, 0.1353329834664083, -0.16619630545405617, 0.015073301412998728, -0.006554333958774805, 0.0031954701989889145, 0.0004383577033877373, 0.1330612152814865, 0.16543227434158325, -0.9772036075592041, -0.0005385428667068481, 0.0030705928802490234, 0.0018770694732666016, -0.08331807713154107, 0.06675551565562421, 0.9942827288323193,0.0018813377999058467,0.1333160400390625,0.1615142822265625,-0.9713134765625
20220120-1341,2022-01-20 13:41:35Z,u01, 225,40,movements,el-ex, rt, d,248188.2849585, 0.1353207159517015, -0.16624500769233355, 0.015029304178147665, 0.007455757819116116, -0.0015241829678416252, -0.007923436351120472, 0.1330481320619583, 0.16548030078411102, -0.9771972298622131, -0.00020503997802734375, 0.0027173757553100586, 0.00251162052154541, -0.08334079992399587, 0.06675092572479024, 0.9942812599682992,0.001858321014931219,0.133544921875,0.1682281494140625,-0.974151611328125
20220120-1341,2022-01-20 13:41:35Z,u01, 226,40,movements,el-ex, rt, d,248188.30990450003, 0.1353458848447086, -0.16567201158242245, 0.014816147745795795, 0.033729806542396545, 0.004289695993065834, -0.007828693836927414, 0.13308550417423248, 0.16491517424583435, -0.9772877097129822, -0.0025464892387390137, 0.006303742527961731, 0.0014119148254394531, -0.08304887653297494, 0.06677604251135957, 0.9943040607320948,0.0017707843314844207,0.133209228515625,0.16827392578125,-0.9759368896484375
20220120-1341,2022-01-20 13:41:35Z,u01, 227,40,movements,el-ex, rt, d,248188.3348495, 0.1355228671703262, -0.1647849041794317, 0.014535208728374513, 0.04699584096670151, 0.011331960558891296, -0.006295978557318449, 0.13327817618846893, 0.16404014825820923, -0.9774087071418762, -0.0018388926982879639, 0.005942806601524353, 0.0003884434700012207, -0.08259864699433218, 0.0668813812322464, 0.9943346357345735,0.0016539611742164007,0.13214111328125,0.172119140625,-0.973876953125
20220120-1341,2022-01-20 13:41:35Z,u01, 228,40,movements,el-ex, rt, d,248188.35979450002, 0.13566389273969087, -0.16415807203730476, 0.014274928016349664, 0.02088218368589878, 0.003281157463788986, -0.002259491477161646, 0.1334298998117447, 0.16342177987098694, -0.977491557598114, -0.0004189610481262207, -0.007888883352279663, 0.001890420913696289, -0.08227842178501407, 0.06696620488771783, 0.9943557744207434,0.0015400898622630055,0.1312408447265625,0.169281005859375,-0.975341796875
20220120-1341,2022-01-20 13:41:35Z,u01, 229,40,movements,el-ex, rt, d,248188.3847405, 0.13566408779120318, -0.16437658119372706, 0.014131518209181241, -0.010361921042203903, -0.0019062142819166183, -0.0028987163677811623, 0.1334252506494522, 0.16363734006881714, -0.9774561524391174, 0.0018592476844787598, -0.011568203568458557, -0.00011342763900756836, -0.08238224532180588, 0.06697082361965609, 0.9943470272974624,0.0014613387349441398,0.1328125,0.1613006591796875,-0.977294921875
20220120-1341,2022-01-20 13:41:35Z,u01, 230,40,movements,el-ex, rt, d,248188.40968550002, 0.13549753230384903, -0.16510177517635846, 0.01414352531971822, -0.015156509354710579, -0.006665748544037342, 0.00044654635712504387, 0.13324639201164246, 0.16435272991657257, -0.9773604869842529, 0.001351475715637207, -0.0012819916009902954, 0.00015717744827270508, -0.08274304697318452, 0.0668829579501851, 0.9943229193576053,0.0014494948345203373,0.1357269287109375,0.1540679931640625,-0.9779510498046875
20220120-1341,2022-01-20 13:41:35Z,u01, 231,40,movements,el-ex, rt, d,248188.4346305, 0.13540512580565145, -0.16535888305476082, 0.014206180345631559, -0.007076479494571686, 0.001023596152663231, -0.0006698509678244591, 0.1331503689289093, 0.16460633277893066, -0.9773309230804443, -0.0005819201469421387, -0.00034540891647338867, 0.001928091049194336, -0.08287288903385903, 0.06683280048860013, 0.9943154200995258,0.0014757253157930972,0.1337738037109375,0.158050537109375,-0.978363037109375
20220120-1341,2022-01-20 13:41:35Z,u01, 232,40,movements,el-ex, rt, d,248188.45957650003, 0.13541924525496943, -0.16483446715028607, 0.014215362349615224, 0.0032303202897310257, -0.009067188017070293, 0.003007641527801752, 0.1331758052110672, 0.16408903896808624, -0.9774144291877747, 0.0027190595865249634, 3.454089164733887e-05, 0.0010656118392944336, -0.08261250489627515, 0.06684275379627827, 0.9943364111401372,0.0014975383032682643,0.13372802734375,0.1648406982421875,-0.9756622314453125
20220120-1341,2022-01-20 13:41:35Z,u01, 233,40,movements,el-ex, rt, d,248188.4845215, 0.13527883946349822, -0.1647346188538077, 0.014217873140602605, -0.01392642967402935, -0.01160278357565403, -0.00309845432639122, 0.13304077088832855, 0.1639905422925949, -0.977449357509613, 0.002899870276451111, -0.002949237823486328, 0.0017871260643005371, -0.08256284457147436, 0.06677347439742795, 0.994345187104418,0.0015079782243914708,0.133636474609375,0.1672515869140625,-0.97607421875
20220120-1341,2022-01-20 13:41:35Z,u01, 234,40,movements,el-ex, rt, d,248188.50946650002, 0.13489859095406817, -0.1652804808214662, 0.014323389586538652, -0.02843586355447769, -0.02652101218700409, 0.0011018835939466953, 0.1326570361852646, 0.1645289957523346, -0.9774110317230225, 0.004458531737327576, -0.0037775933742523193, 0.00036025047302246094, -0.08283743255456455, 0.06657660638803689, 0.9943355082425896,0.0015576435621612594,0.1356048583984375,0.1619720458984375,-0.97491455078125
20220120-1341,2022-01-20 13:41:35Z,u01, 235,40,movements,el-ex, rt, d,248188.5344115, 0.13434964008133873, -0.16598815273103765, 0.01446062148535887, -0.0283995121717453, -0.020909734070301056, -0.00249524787068367, 0.13210482895374298, 0.1652269810438156, -0.9773680567741394, 0.0005246400833129883, -0.0011186599731445312, 0.00411677360534668, -0.08319335952538778, 0.06629349357366737, 0.9943245555087931,0.0016247283046007532,0.137481689453125,0.1580810546875,-0.97430419921875
20220120-1341,2022-01-20 13:41:35Z,u01, 236,40,movements,el-ex, rt, d,248188.55935750002, 0.1341910152749075, -0.1663374629014996, 0.014601779790543015, -0.01641758345067501, -0.006303158588707447, 0.002792924176901579, 0.13194206357002258, 0.16557148098945618, -0.9773317575454712, -0.0030967891216278076, 0.0017411857843399048, 0.001974761486053467, -0.08337155315119749, 0.06620651983964673, 0.9943153136401939,0.001689730830136571,0.13482666015625,0.162322998046875,-0.97564697265625
20220120-1341,2022-01-20 13:41:35Z,u01, 237,40,movements,el-ex, rt, d,248188.5843025, 0.13432400848835394, -0.1662153006789284, 0.014704574197994489, 0.004639164544641972, 0.0048729293048381805, 0.0032106409780681133, 0.1320747435092926, 0.16545100510120392, -0.9773342609405518, -0.004709556698799133, 0.004104703664779663, -0.002279996871948242, -0.08331434692813741, 0.06626914333332287, 0.9943158008059386,0.0017394134110063075,0.129638671875,0.166290283203125,-0.973480224609375
20220120-1341,2022-01-20 13:41:35Z,u01, 238,40,movements,el-ex, rt, d,248188.60924750002, 0.13465077885093635, -0.16604413234575136, 0.014732518977839532, -0.0034630694426596165, 0.011377766728401184, -0.0012056119740009308, 0.13239790499210358, 0.16528218984603882, -0.977319061756134, -0.0035526156425476074, -0.0017689615488052368, 6.99758529663086e-05, -0.08323046104423232, 0.06643153384351787, 0.9943120639245253,0.0017454844973371353,0.1268768310546875,0.1681060791015625,-0.977508544921875
20220120-1341,2022-01-20 13:41:35Z,u01, 239,40,movements,el-ex, rt, d,248188.6341935, 0.13485986277612624, -0.16622523549063897, 0.014713195939155224, -0.015094226226210594, 0.008599955588579178, 0.002808969933539629, 0.13259822130203247, 0.16546079516410828, -0.9772617220878601, -0.0010826289653778076, -0.0016423910856246948, 0.0024539828300476074, -0.0833200294526533, 0.06653511725287951, 0.9942976657188252,0.0017210415831558912,0.1271209716796875,0.166412353515625,-0.978790283203125
20220120-1341,2022-01-20 13:41:35Z,u01, 240,40,movements,el-ex, rt, d,248188.65913850002, 0.13496083338105502, -0.1667471682179378, 0.014710160996124814, -0.017614275217056274, 0.008422255516052246, -0.003260440658777952, 0.13268525898456573, 0.16597551107406616, -0.9771625995635986, 0.0020499229431152344, -0.0025080740451812744, 0.003484070301055908, -0.08357947401512816, 0.0665820739936751, 0.9942727193013816,0.0016976310915310933,0.129669189453125,0.16192626953125,-0.974456787109375
20220120-1341,2022-01-20 13:41:35Z,u01, 241,40,movements,el-ex, rt, d,248188.6840835, 0.13488343601253738, -0.16712478227611371, 0.014679339781663579, -0.016700144857168198, -0.003094051033258438, -0.002039115410298109, 0.13260118663311005, 0.16634787619113922, -0.9771106839179993, 0.007245704531669617, 0.00551190972328186, 0.001906275749206543, -0.08376608470914108, 0.06654244075532138, 0.9942597957304524,0.001672749486901881,0.1320648193359375,0.164215087890625,-0.970794677734375
20220120-1341,2022-01-20 13:41:35Z,u01, 242,40,movements,el-ex, rt, d,248188.70902950002, 0.13473582961077515, -0.16728713887784818, 0.014725765008818031, -0.012365085072815418, -0.000125223770737648, 0.004596882965415716, 0.1324533224105835, 0.16650797426700592, -0.9771034717559814, -0.0013344734907150269, 0.0020101219415664673, 0.0012124180793762207, -0.08384821808521906, 0.06646607247792083, 0.9942578409715344,0.0016965149682576786,0.1360321044921875,0.1671905517578125,-0.9759063720703125
20220120-1341,2022-01-20 13:41:35Z,u01, 243,40,movements,el-ex, rt, d,248188.7339745, 0.13477345590998374, -0.16728370031977488, 0.014834506940858591, 0.005288710817694664, -0.004888622090220451, 0.005703093949705362, 0.13249017298221588, 0.16650459170341492, -0.9770990610122681, 0.0014820694923400879, 0.008666351437568665, 0.0003687739372253418, -0.08385014486368031, 0.06648023279860589, 0.9942567654252121,0.0017491138403377127,0.136260986328125,0.16796875,-0.9739227294921875
20220120-1341,2022-01-20 13:41:35Z,u01, 244,40,movements,el-ex, rt, d,248188.75891950002, 0.13483334913086378, -0.16692215481731287, 0.014878069099027924, 0.020127810537815094, -0.003076407127082348, 0.0035780915059149265, 0.13255678117275238, 0.1661480814218521, -0.9771507382392883, -0.0014073997735977173, -0.0009258687496185303, 0.0007255673408508301, -0.08367192792578838, 0.0665105362206665, 0.9942696676290841,0.0017805054955552513,0.1341400146484375,0.17266845703125,-0.97662353515625
